time,seconds_elapsed,z,y,x
1758272913678325000,0.045324951171875,0.3437610864639282,-0.23699043691158295,0.13204991817474365
1758272913688281900,0.05528173828125,0.38230663537979126,-0.2616766095161438,0.16873176395893097
1758272913698239700,0.06523974609375,0.39129745960235596,-0.3538408875465393,0.23641572892665863
1758272913708196900,0.07519677734375,0.43685242533683777,-0.37925252318382263,0.29475972056388855
1758272913718155000,0.085155029296875,0.5476236939430237,-0.34827062487602234,0.3090377449989319
1758272913728111900,0.09511181640625,0.7060626149177551,-0.284857839345932,0.26618215441703796
1758272913738069800,0.10506982421875,0.926943838596344,-0.20890048146247864,0.1779119372367859
1758272913748027000,0.11502685546875,1.1567299365997314,-0.22661583125591278,0.15766073763370514
1758272913757984800,0.12498486328125,1.323169469833374,-0.29515308141708374,0.28270387649536133
1758272913767942000,0.13494189453125,1.4310977458953857,-0.20231927931308746,0.5062949061393738
1758272913777898800,0.144898681640625,1.5040391683578491,0.04976809024810791,0.7349022030830383
1758272913787857000,0.15485693359375,1.606503963470459,0.4131617546081543,0.8390747308731079
1758272913797814000,0.16481396484375,1.7084643840789795,0.716309130191803,0.7195416688919067
1758272913807772000,0.17477197265625,1.6469731330871582,0.6802938580513,0.4147886633872986
1758272913817729000,0.18472900390625,1.4492863416671753,0.5756606459617615,0.06066787615418434
1758272913827687000,0.19468701171875,1.3160401582717896,0.6435150504112244,-0.20994843542575836
1758272913837643800,0.204643798828125,1.2981501817703247,0.7475900650024414,-0.3568776845932007
1758272913847602000,0.214601806640625,1.3751403093338013,0.7633737921714783,-0.4133252501487732
1758272913857559000,0.22455908203125,1.4954839944839478,0.7401776909828186,-0.36353161931037903
1758272913867517000,0.234516845703125,1.6029380559921265,0.6314983367919922,-0.2363257110118866
1758272913877473800,0.244473876953125,1.6172852516174316,0.45515820384025574,-0.10365715622901917
1758272913887432000,0.254431884765625,1.5344334840774536,0.3123001158237457,0.02672375552356243
1758272913897389000,0.26438916015625,1.518393874168396,0.1355050951242447,0.155300110578537
1758272913907345700,0.274345703125,1.6115463972091675,-0.04332830011844635,0.2755942940711975
1758272913917303800,0.2843037109375,1.7632890939712524,-0.18284252285957336,0.363800585269928
1758272913927261000,0.294260986328125,1.9173609018325806,-0.21775256097316742,0.43519672751426697
1758272913937218800,0.30421875,1.954377293586731,-0.1656709909439087,0.47791436314582825
1758272913947176000,0.314176025390625,1.8642891645431519,-0.1203698217868805,0.47111159563064575
1758272913957133800,0.3241337890625,1.6869375705718994,-0.051897820085287094,0.41324588656425476
1758272913967091000,0.334091064453125,1.47013258934021,0.08339902013540268,0.3032147288322449
1758272913977048800,0.344048828125,1.2626616954803467,0.23379890620708466,0.17735108733177185
1758272913987006000,0.354005859375,1.0353038311004639,0.3338988721370697,0.06557554751634598
1758272913996964000,0.363964111328125,0.9760626554489136,0.18682047724723816,-0.10024511069059372
1758272914006920700,0.373920654296875,1.0962634086608887,0.07770092040300369,-0.17062394320964813
1758272914016877800,0.3838779296875,1.1991984844207764,-0.03419765084981918,-0.10651446133852005
1758272914026836000,0.3938359375,1.257850170135498,-0.19960951805114746,0.01606258936226368
1758272914036793000,0.40379296875,1.3102651834487915,-0.4330691397190094,0.1218409538269043
1758272914046750700,0.413750732421875,1.4359614849090576,-0.7760235667228699,0.17870663106441498
1758272914056707800,0.423707763671875,1.7163790464401245,-1.1646403074264526,0.16343580186367035
1758272914066666000,0.433666015625,2.0872583389282227,-1.545607328414917,0.11007989943027496
1758272914076622800,0.443622802734375,2.3524553775787354,-1.8565924167633057,0.07606440782546997
1758272914086581000,0.4535810546875,2.4073448181152344,-1.9928572177886963,0.08962175995111465
1758272914096537900,0.463537841796875,2.3548381328582764,-2.018433094024658,0.13220997154712677
1758272914106497000,0.4734970703125,2.2508747577667236,-1.925386905670166,0.14966300129890442
1758272914116454000,0.483453857421875,2.143882989883423,-1.7939785718917847,0.10471096634864807
1758272914126412000,0.493412109375,2.2027885913848877,-1.7749699354171753,0.05079047754406929
1758272914136369000,0.503368896484375,2.4155161380767822,-1.917475938796997,0.04141242057085037
1758272914146326000,0.513325927734375,2.643519639968872,-2.2974703311920166,0.12261060625314713
1758272914156284000,0.523283935546875,2.8248393535614014,-2.869640588760376,0.27607232332229614
1758272914166241000,0.533240966796875,3.0375728607177734,-3.314669609069824,0.4533770680427551
1758272914176199000,0.543198974609375,3.184217929840088,-3.6576082706451416,0.5585131049156189
1758272914186156000,0.553156005859375,3.2466917037963867,-4.044787883758545,0.5502055883407593
1758272914196114200,0.5631142578125,3.2139434814453125,-4.155245304107666,0.5343691110610962
1758272914206070800,0.57307080078125,3.077955484390259,-3.898505687713623,0.5735583305358887
1758272914216029000,0.58302880859375,2.713592290878296,-3.34794282913208,0.8066208958625793
1758272914225986000,0.592986083984375,2.587999105453491,-3.1749508380889893,0.8827105760574341
1758272914235944000,0.60294384765625,2.554375648498535,-3.396273374557495,0.5338793992996216
1758272914245900800,0.61290087890625,2.363492488861084,-3.1182937622070312,0.15095995366573334
1758272914255858000,0.62285791015625,2.070080518722534,-2.397876024246216,0.013894776813685894
1758272914265816000,0.632816162109375,1.6646578311920166,-1.7882263660430908,0.02605104073882103
1758272914275773000,0.64277294921875,1.2712708711624146,-1.3222349882125854,0.06903472542762756
1758272914285731000,0.65273095703125,1.0548293590545654,-1.0026644468307495,0.14137497544288635
1758272914295688000,0.66268798828125,0.9255605936050415,-0.6657702922821045,0.21696187555789948
1758272914305645800,0.672645751953125,0.7782680988311768,-0.14260855317115784,0.363057017326355
1758272914315603000,0.68260302734375,0.6948448419570923,0.17175976932048798,0.4852958619594574
1758272914325561000,0.69256103515625,0.7487953901290894,0.16823561489582062,0.5102648735046387
1758272914335518000,0.70251806640625,0.8520081043243408,0.05861430987715721,0.43575519323349
1758272914345475800,0.712475830078125,0.9586541056632996,-0.24392370879650116,0.1868753433227539
1758272914355433000,0.722432861328125,1.0356115102767944,-0.2804207503795624,0.08347305655479431
1758272914365390000,0.73239013671875,1.1361305713653564,-0.3411722481250763,0.09337229281663895
1758272914375348000,0.742347900390625,1.2482502460479736,-0.5485600233078003,0.12886583805084229
1758272914385304800,0.752304931640625,1.2677562236785889,-0.6498664021492004,0.14523468911647797
1758272914395263000,0.762262939453125,1.2703996896743774,-0.6220462322235107,0.10564467310905457
1758272914405220000,0.77222021484375,1.2597686052322388,-0.48059484362602234,0.04404948279261589
1758272914415178000,0.782177978515625,1.1711450815200806,-0.19142748415470123,0.0006135923322290182
1758272914425134800,0.792134765625,1.0607188940048218,0.11390659213066101,-0.01107422262430191
1758272914435093000,0.802093017578125,0.9856492280960083,0.425402969121933,0.029276395216584206
1758272914445050000,0.812050048828125,0.972741425037384,0.6919811367988586,0.10129599273204803
1758272914455008000,0.822008056640625,0.978272020816803,0.9300221800804138,0.17003244161605835
1758272914464964900,0.83196484375,0.8989055156707764,1.1353965997695923,0.2284052073955536
1758272914474923000,0.841923095703125,0.8589882254600525,1.181350588798523,0.3236267864704132
1758272914484880000,0.8518798828125,0.7705888748168945,1.1385575532913208,0.4606155455112457
1758272914494837000,0.8618369140625,0.649815022945404,1.1672629117965698,0.6165034174919128
1758272914504795100,0.871795166015625,0.5210437178611755,1.2190132141113281,0.6990209221839905
1758272914514752000,0.881751953125,0.38883936405181885,1.3133487701416016,0.7112216353416443
1758272914524710000,0.8917099609375,0.25838735699653625,1.4826390743255615,0.6903504729270935
1758272914534667000,0.9016669921875,0.16359639167785645,1.6707890033721924,0.7138509750366211
1758272914544625200,0.911625244140625,0.1302834302186966,1.879372477531433,0.7629011273384094
1758272914554581800,0.921581787109375,0.08043598383665085,2.122526168823242,0.762942910194397
1758272914564540000,0.931539794921875,0.034804318100214005,2.412149429321289,0.6632668972015381
1758272914574497000,0.9414970703125,-0.03273797407746315,2.541431188583374,0.5579495429992676
1758272914584455000,0.951454833984375,-0.06279813498258591,2.3335978984832764,0.7793775200843811
1758272914594412000,0.961412109375,-0.05505073443055153,1.8796617984771729,0.7076314687728882
1758272914604369000,0.971368896484375,-0.11150149255990982,1.4500688314437866,0.6946903467178345
1758272914614327000,0.9813271484375,-0.041427601128816605,1.2732229232788086,0.6092652082443237
1758272914624284000,0.991283935546875,0.005741509143263102,1.3519917726516724,0.43447980284690857
1758272914634242000,1.001241943359375,-0.006051500793546438,1.5479844808578491,0.2964977025985718
1758272914644199000,1.011198974609375,0.03513481840491295,1.628321647644043,0.22504056990146637
1758272914654156800,1.02115673828125,0.049306295812129974,1.5425606966018677,0.2234533280134201
1758272914664114000,1.031114013671875,0.015454057604074478,1.32184636592865,0.2776702344417572
1758272914674072000,1.041072021484375,0.03304477035999298,0.9965577721595764,0.3020344376564026
1758272914684029000,1.05102880859375,0.11084236204624176,0.638542652130127,0.30552050471305847
1758272914693986800,1.06098681640625,0.20323780179023743,0.2038884162902832,0.2599112093448639
1758272914703944000,1.07094384765625,0.27910566329956055,-0.28423038125038147,0.1606392115354538
1758272914713901000,1.080901123046875,0.31924962997436523,-0.48955026268959045,0.039935965090990067
1758272914723859000,1.09085888671875,0.3498072624206543,-0.4431374967098236,-0.0756835788488388
1758272914733815800,1.10081591796875,0.3847905695438385,-0.5018585920333862,-0.2297828644514084
1758272914743774000,1.11077392578125,0.4367927610874176,-0.5952972173690796,-0.3106982111930847
1758272914753731000,1.12073095703125,0.5123295783996582,-0.6415408253669739,-0.31440240144729614
1758272914763689000,1.13068896484375,0.5550935864448547,-0.696439266204834,-0.30339184403419495
1758272914773645800,1.140645751953125,0.5761767625808716,-0.7298603057861328,-0.24907107651233673
1758272914783604000,1.15060400390625,0.5873705744743347,-0.8477118611335754,-0.17697903513908386
1758272914793561000,1.16056103515625,0.6094034314155579,-1.0551878213882446,-0.0806431770324707
1758272914803519000,1.17051904296875,0.6526347994804382,-1.2907838821411133,-0.043233491480350494
1758272914813476000,1.18047607421875,0.7037786841392517,-1.7364857196807861,-0.037938859313726425
1758272914823433000,1.190432861328125,0.7986548542976379,-2.6126790046691895,-0.17519791424274445
1758272914833390800,1.200390869140625,0.8987247347831726,-3.3579185009002686,-0.31522026658058167
1758272914843348000,1.210347900390625,1.0264201164245605,-3.7337379455566406,-0.37682798504829407
1758272914853306000,1.22030615234375,1.2595771551132202,-3.9941816329956055,-0.529219388961792
1758272914863263000,1.230262939453125,1.5418469905853271,-4.307606220245361,-0.6523844599723816
1758272914873220900,1.240220947265625,1.7640912532806396,-4.558896064758301,-0.6800461411476135
1758272914883178000,1.250177978515625,1.9566718339920044,-4.725959300994873,-0.8030455708503723
1758272914893136100,1.26013623046875,2.1625914573669434,-4.557492256164551,-0.815322756767273
1758272914903092700,1.2700927734375,2.2876057624816895,-3.9510726928710938,-0.7044979929924011
1758272914913051000,1.28005078125,2.180739402770996,-3.55652117729187,-0.487341970205307
1758272914923008000,1.290008056640625,2.283496379852295,-3.4497857093811035,-0.267785906791687
1758272914932965000,1.299965087890625,2.530945301055908,-3.3796613216400146,-0.009004147723317146
1758272914942923000,1.309923095703125,2.5014595985412598,-3.064603328704834,-0.2603815197944641
1758272914952879900,1.3198798828125,2.404093027114868,-2.918522834777832,-0.6671157479286194
1758272914962838000,1.329838134765625,2.4923555850982666,-2.9608235359191895,-0.8954367637634277
1758272914972795100,1.339795166015625,2.4037106037139893,-3.058257818222046,-0.9312320351600647
1758272914982753000,1.3497529296875,2.332406759262085,-3.3462882041931152,-0.8593613505363464
1758272914992710000,1.3597099609375,2.4898757934570312,-3.5568554401397705,-0.8073303699493408
1758272915002667800,1.369667724609375,2.770244598388672,-3.6731414794921875,-0.8107333183288574
1758272915012625000,1.379625,3.0819554328918457,-3.6275038719177246,-1.0746595859527588
1758272915022583000,1.3895830078125,3.300924062728882,-2.7767927646636963,-1.181195855140686
1758272915032540200,1.3995400390625,3.338106870651245,-1.608979344367981,-1.0653501749038696
1758272915042497800,1.409497802734375,3.2352218627929688,-0.8403967022895813,-0.8288188576698303
1758272915052455000,1.419454833984375,3.104745864868164,-0.42442718148231506,-0.6358781456947327
1758272915062412000,1.429412109375,2.9506771564483643,-0.08745820820331573,-0.5489597916603088
1758272915072370200,1.4393701171875,2.662996530532837,0.2807997167110443,-0.5675997734069824
1758272915082326800,1.449326904296875,2.213566303253174,0.2721337676048279,-0.778255045413971
1758272915092285000,1.459284912109375,1.8001033067703247,-0.023448068648576736,-1.0992321968078613
1758272915102242000,1.469241943359375,1.3686573505401611,-0.2928694188594818,-1.3495571613311768
1758272915112200000,1.479199951171875,0.7959168553352356,-0.721095085144043,-1.6294729709625244
1758272915122156800,1.48915673828125,0.38031697273254395,-1.4444282054901123,-2.0383222103118896
1758272915132115000,1.499114990234375,0.22323201596736908,-1.812256097793579,-2.2684943675994873
1758272915142072000,1.509072021484375,0.6338323354721069,-1.0224578380584717,-2.004915952682495
1758272915152029000,1.51902880859375,1.3917949199676514,-0.9342502355575562,-1.3141921758651733
1758272915161987000,1.528987060546875,1.7937105894088745,-0.21950864791870117,-0.7902208566665649
1758272915171944000,1.53894384765625,2.0267910957336426,-0.3511356711387634,-0.7399854063987732
1758272915181901800,1.54890185546875,2.1916515827178955,-1.867858648300171,-0.6868846416473389
1758272915191859000,1.55885888671875,2.3243675231933594,-2.7146871089935303,-0.30379557609558105
1758272915201817000,1.568817138671875,2.439234495162964,-2.79876708984375,0.23924294114112854
1758272915211774000,1.57877392578125,2.537412405014038,-2.625056266784668,0.7046388387680054
1758272915221731800,1.58873193359375,2.6991820335388184,-2.6527860164642334,0.9308847784996033
1758272915231689000,1.59868896484375,2.9393677711486816,-2.988097667694092,0.7753625512123108
1758272915241647000,1.608647216796875,3.1795296669006348,-3.131803035736084,0.13911500573158264
1758272915251604000,1.61860400390625,3.4372925758361816,-3.5673928260803223,-0.6662065386772156
1758272915261560800,1.628560791015625,3.609914541244507,-3.894073247909546,-1.3195252418518066
1758272915271519000,1.63851904296875,3.711294174194336,-4.488153457641602,-1.6406248807907104
1758272915281476000,1.64847607421875,3.720357656478882,-4.995199203491211,-1.861063838005066
1758272915291434000,1.65843408203125,3.7347888946533203,-5.364069938659668,-2.064258337020874
1758272915301390800,1.668390869140625,4.026081562042236,-5.114011764526367,-1.9592934846878052
1758272915311349000,1.678348876953125,5.812776565551758,-4.30634069442749,-1.3590412139892578
1758272915321306000,1.68830615234375,7.290140628814697,-2.743941068649292,-1.0900014638900757
1758272915331264000,1.698263916015625,6.4273905754089355,-1.7667860984802246,-1.7482041120529175
1758272915341220900,1.708220947265625,4.498351573944092,-1.3220328092575073,-2.2199156284332275
1758272915351179000,1.718178955078125,0.8362482786178589,-1.1601309776306152,-2.4264745712280273
1758272915361135900,1.728135986328125,-2.2960917949676514,-1.5289324522018433,-2.4011731147766113
1758272915371093000,1.738093017578125,-2.776792049407959,-1.884971022605896,-2.1461524963378906
1758272915381051100,1.748051025390625,-1.983828067779541,-2.566380262374878,-1.9396241903305054
1758272915391008000,1.758008056640625,-1.0718234777450562,-3.3850743770599365,-1.9385207891464233
1758272915400966000,1.7679658203125,-0.19827260076999664,-4.186904430389404,-1.9363065958023071
1758272915410923000,1.777923095703125,0.21376341581344604,-4.551183223724365,-1.9746828079223633
1758272915420881200,1.787881103515625,0.26143187284469604,-4.988961219787598,-2.1422665119171143
1758272915430837800,1.797837646484375,0.1890365034341812,-5.2173686027526855,-2.5088775157928467
1758272915440796000,1.8077958984375,0.13638074696063995,-4.743686199188232,-2.786029100418091
1758272915450753000,1.8177529296875,0.09164150059223175,-3.482598304748535,-2.837738513946533
1758272915460711000,1.8277109375,-0.06817532330751419,-1.9713386297225952,-2.85312557220459
1758272915470668000,1.83766796875,-0.2806636095046997,-1.0292174816131592,-2.924508571624756
1758272915480625000,1.847625,-0.3159952461719513,-1.1796839237213135,-2.8045010566711426
1758272915490583000,1.8575830078125,-0.22721929848194122,-1.9090055227279663,-2.352466106414795
1758272915500540000,1.867539794921875,-0.1798456609249115,-2.4440958499908447,-1.758772373199463
1758272915510498000,1.877498046875,-0.2213427722454071,-2.392815351486206,-1.4219906330108643
1758272915520455000,1.887454833984375,-0.2748408913612366,-2.141869068145752,-1.243318796157837
1758272915530412800,1.897412841796875,-0.29347315430641174,-1.9640560150146484,-1.1323835849761963
1758272915540370000,1.907369873046875,-0.2893575131893158,-1.7978345155715942,-1.0298478603363037
1758272915550328000,1.917328125,-0.28701844811439514,-1.5191378593444824,-0.9175548553466797
1758272915560285000,1.927284912109375,-0.2724038362503052,-1.3641859292984009,-0.7791280150413513
1758272915570242800,1.937242919921875,-0.24034495651721954,-1.1934460401535034,-0.6181870698928833
1758272915580200000,1.947199951171875,-0.19333484768867493,-0.9159132838249207,-0.42392784357070923
1758272915590157000,1.957156982421875,-0.2415849268436432,-0.48419836163520813,-0.22578385472297668
1758272915600115000,1.967114990234375,-0.3808125853538513,-0.1293952763080597,-0.0026546388398855925
1758272915610071800,1.97707177734375,-0.497728556394577,-0.07518183439970016,0.24056386947631836
1758272915620030000,1.987030029296875,-0.5302127599716187,-0.15818697214126587,0.4292597472667694
1758272915629987000,1.996987060546875,-0.5313366055488586,-0.24136894941329956,0.5448383092880249
1758272915639945000,2.006945068359375,-0.530494749546051,-0.231023371219635,0.5804277062416077
1758272915649901800,2.01690185546875,-0.5160402059555054,-0.2638944983482361,0.5598939061164856
1758272915659860000,2.02685986328125,-0.4862804412841797,-0.4595145881175995,0.5120851397514343
1758272915669817000,2.036817138671875,-0.4497722089290619,-0.7403315901756287,0.47244665026664734
1758272915679775000,2.04677490234375,-0.4324534237384796,-0.9720463156700134,0.4328638017177582
1758272915689732000,2.056732177734375,-0.4145929217338562,-1.1100997924804688,0.3525010645389557
1758272915699689000,2.06668896484375,-0.36060214042663574,-1.1784170866012573,0.21286486089229584
1758272915709646800,2.076646728515625,-0.30237823724746704,-1.2339863777160645,0.0609472393989563
1758272915719604000,2.08660400390625,-0.27975016832351685,-1.2471591234207153,-0.06345780193805695
1758272915729562000,2.09656201171875,-0.31587034463882446,-1.105130672454834,-0.14888641238212585
1758272915739519000,2.10651904296875,-0.39620378613471985,-0.7355751991271973,-0.2169853150844574
1758272915749476900,2.116476806640625,-0.4789902865886688,-0.4249694049358368,-0.2926153540611267
1758272915759434000,2.12643408203125,-0.551941454410553,-0.1827240139245987,-0.3866044282913208
1758272915769392000,2.13639208984375,-0.610359251499176,-0.07178710401058197,-0.5275557041168213
1758272915779348700,2.1463486328125,-0.6071221828460693,-0.059118978679180145,-0.7039358019828796
1758272915789305900,2.156305908203125,-0.507564127445221,-0.18729905784130096,-0.8277093768119812
1758272915799264000,2.166263916015625,-0.3315976560115814,-0.42756199836730957,-0.7804092764854431
1758272915809221000,2.17622119140625,-0.12796755135059357,-0.49141019582748413,-0.4825226962566376
1758272915819179000,2.186178955078125,-0.001130511867813766,-0.36712607741355896,0.014345915988087654
1758272915829136000,2.196135986328125,-0.04812544956803322,0.13969585299491882,0.45557817816734314
1758272915839094000,2.206093994140625,-0.23822082579135895,0.959744393825531,0.46798211336135864
1758272915849051000,2.21605078125,-0.3475465178489685,1.5584917068481445,0.19059418141841888
1758272915859009000,2.226009033203125,-0.4154254198074341,1.818312644958496,0.08990298956632614
1758272915868966000,2.2359658203125,-0.5404832363128662,1.8355762958526611,0.053941529244184494
1758272915878923800,2.245923828125,-0.3923470079898834,1.7344383001327515,0.16595302522182465
1758272915888881000,2.255880859375,-0.08232070505619049,1.364993929862976,0.5744488835334778
1758272915898838000,2.265838134765625,0.16464008390903473,0.6495985388755798,0.7943602204322815
1758272915908796200,2.275796142578125,0.40441033244132996,-0.20804694294929504,0.46981677412986755
1758272915918753000,2.2857529296875,0.6024616360664368,-0.24074576795101166,0.07148750126361847
1758272915928711000,2.2957109375,0.5529766082763672,0.5006348490715027,0.4485788643360138
1758272915938668000,2.30566796875,0.2340327352285385,1.1405575275421143,1.3445650339126587
1758272915948626000,2.3156259765625,-0.3267733156681061,1.813539743423462,2.082909345626831
1758272915958582800,2.325582763671875,-0.7773016095161438,2.210874557495117,2.422950029373169
1758272915968541000,2.335541015625,-0.9535456299781799,1.971253752708435,2.4159460067749023
1758272915978498000,2.345498046875,-0.9567323327064514,1.540158748626709,2.202305555343628
1758272915988456000,2.3554560546875,-0.9089589715003967,1.3059028387069702,1.927278757095337
1758272915998413000,2.3654130859375,-0.7830585837364197,1.61174476146698,1.6088632345199585
1758272916008370000,2.375369873046875,-0.5268217325210571,1.9280394315719604,1.3605331182479858
1758272916018328000,2.385328125,-0.11417824029922485,1.8948729038238525,1.2355536222457886
1758272916028285000,2.395284912109375,0.04970870167016983,1.6541463136672974,1.2609907388687134
1758272916038243000,2.4052431640625,-0.2807070314884186,1.1096806526184082,1.4523154497146606
1758272916048200000,2.415199951171875,-0.789084792137146,0.7305967211723328,1.5467703342437744
1758272916058157800,2.42515771484375,-0.8737496137619019,0.4497799277305603,1.5432541370391846
1758272916068115000,2.435114990234375,-0.7402461171150208,0.3547500967979431,1.5014054775238037
1758272916078073000,2.445072998046875,-0.5814085602760315,0.37060123682022095,1.5461764335632324
1758272916088030000,2.455030029296875,-0.5420709848403931,0.3555154800415039,1.7449729442596436
1758272916097986800,2.46498681640625,-0.6184033155441284,0.5120225548744202,1.8757154941558838
1758272916107944000,2.47494384765625,-0.614707887172699,0.722222626209259,1.8759809732437134
1758272916117901000,2.484901123046875,-0.5543654561042786,0.9719576239585876,1.7782714366912842
1758272916127859200,2.494859130859375,-0.49453967809677124,1.2847882509231567,1.6143635511398315
1758272916137816000,2.504816162109375,-0.4477356970310211,1.5326449871063232,1.4433480501174927
1758272916147774000,2.51477392578125,-0.3583562970161438,1.619364857673645,1.3128832578659058
1758272916157731000,2.52473095703125,-0.2364937663078308,1.5524595975875854,1.2199397087097168
1758272916167689000,2.53468896484375,-0.12383672595024109,1.4196219444274902,1.1591947078704834
1758272916177646000,2.54464599609375,-0.05324111878871918,1.3018625974655151,1.111797571182251
1758272916187604200,2.554604248046875,-0.009768474847078323,1.221648931503296,1.0877630710601807
1758272916197561000,2.56456103515625,0.006999852601438761,1.3226560354232788,1.1069698333740234
1758272916207518200,2.574518310546875,-0.012133361771702766,1.536568284034729,1.1933786869049072
1758272916217476000,2.58447607421875,-0.09770552068948746,1.8261992931365967,1.3315637111663818
1758272916227433200,2.59443310546875,-0.2059694081544876,2.1061582565307617,1.4733986854553223
1758272916237391000,2.60439111328125,-0.19505231082439423,2.1716203689575195,1.6004050970077515
1758272916247348000,2.614347900390625,-0.052621133625507355,1.8931714296340942,1.6367343664169312
1758272916257306000,2.62430615234375,0.11080268025398254,1.2865313291549683,1.5023595094680786
1758272916267263200,2.63426318359375,0.24412745237350464,0.5219036936759949,1.244791030883789
1758272916277221000,2.64422119140625,0.3166322708129883,-0.04199165850877762,0.9822033643722534
1758272916287178000,2.654177978515625,0.2967666983604431,-0.19841189682483673,0.7896139621734619
1758272916297136000,2.66413623046875,0.19191084802150726,0.018703913316130638,0.7233036160469055
1758272916307093200,2.67409326171875,0.0191382747143507,0.5018950700759888,0.7377867102622986
1758272916317049900,2.6840498046875,-0.10726307332515717,1.059423565864563,0.707281768321991
1758272916327008000,2.694008056640625,-0.16286134719848633,1.4653282165527344,0.5317983627319336
1758272916336965000,2.703965087890625,-0.09629431366920471,1.4125667810440063,0.24320785701274872
1758272916346923000,2.713923095703125,-0.035296738147735596,0.8538808226585388,-0.017736386507749557
1758272916356880100,2.723880126953125,0.0587456040084362,0.0013038836186751723,-0.1800326108932495
1758272916366838000,2.733838134765625,0.038294658064842224,-0.6414905190467834,-0.23651133477687836
1758272916376795100,2.743795166015625,-0.043958134949207306,-0.7650769352912903,-0.13632641732692719
1758272916386753000,2.7537529296875,-0.13058890402317047,-0.5471634864807129,-0.007047523278743029
1758272916396710100,2.763710205078125,-0.09398268908262253,-0.4283348321914673,-0.08564220368862152
1758272916406668300,2.773668212890625,-0.011418303474783897,-0.4119665026664734,-0.49639272689819336
1758272916416625000,2.783625,-0.0956391766667366,-0.11901533603668213,-0.9318293929100037
1758272916426582000,2.79358203125,-0.19786754250526428,0.22750665247440338,-1.1778937578201294
1758272916436540200,2.8035400390625,-0.22039921581745148,0.21747906506061554,-1.3299483060836792
1758272916446497300,2.813497314453125,-0.24344754219055176,-0.19309915602207184,-1.5107489824295044
1758272916456455000,2.823454833984375,-0.23021961748600006,-0.8228152990341187,-1.7774711847305298
1758272916466412000,2.833412109375,-0.04404788464307785,-1.3449597358703613,-2.134258985519409
1758272916476370200,2.8433701171875,0.19038964807987213,-1.7112975120544434,-2.534180164337158
1758272916486327300,2.853327392578125,0.40079882740974426,-1.8966665267944336,-2.8077399730682373
1758272916496285200,2.86328515625,0.49607154726982117,-1.9001470804214478,-2.8486990928649902
1758272916506242000,2.873241943359375,0.5776569247245789,-1.8357211351394653,-2.730372905731201
1758272916516200200,2.8832001953125,0.7309833765029907,-1.6195387840270996,-2.519477605819702
1758272916526157000,2.893156982421875,0.9194145202636719,-1.3673454523086548,-2.3660356998443604
1758272916536114000,2.903114013671875,1.1259841918945312,-1.093030333518982,-2.348206043243408
1758272916546072000,2.913072021484375,1.2313112020492554,-0.8543721437454224,-2.4671971797943115
1758272916556029200,2.923029296875,1.1175174713134766,-0.695087194442749,-2.6527228355407715
1758272916565987000,2.932987060546875,0.8270875215530396,-0.5864717364311218,-2.7861077785491943
1758272916575944200,2.942944091796875,0.5690965056419373,-0.5434404015541077,-2.7816007137298584
1758272916585902000,2.952902099609375,0.5567101240158081,-0.4889763593673706,-2.6346001625061035
1758272916595859000,2.96285888671875,0.717891275882721,-0.47197312116622925,-2.4547550678253174
1758272916605817000,2.972817138671875,0.9134179353713989,-0.5611165761947632,-2.3694028854370117
1758272916615774200,2.982774169921875,1.03982675075531,-0.6145904660224915,-2.3452723026275635
1758272916625731000,2.99273095703125,1.0888187885284424,-0.6989399790763855,-2.4008586406707764
1758272916635689000,3.00268896484375,1.0770553350448608,-0.7270669341087341,-2.439817190170288
1758272916645646000,3.01264599609375,1.0716997385025024,-1.069811463356018,-2.413015604019165
1758272916655604200,3.022604248046875,1.1297742128372192,-1.5809166431427002,-2.219437599182129
1758272916665561000,3.03256103515625,1.1004756689071655,-2.1929116249084473,-1.8344231843948364
1758272916675519000,3.04251904296875,0.9290195107460022,-2.8301053047180176,-1.5298653841018677
1758272916685476000,3.05247607421875,0.6795145869255066,-2.965791940689087,-1.4010168313980103
1758272916695434000,3.06243408203125,0.45226067304611206,-2.659559965133667,-1.4524544477462769
1758272916705391000,3.07239111328125,0.2855132520198822,-2.35867977142334,-1.5234607458114624
1758272916715349200,3.082349365234375,0.18408408761024475,-2.4751198291778564,-1.4695807695388794
1758272916725306000,3.09230615234375,0.005597432143986225,-2.7539074420928955,-1.2970083951950073
1758272916735263200,3.10226318359375,-0.16471384465694427,-3.098982095718384,-1.114404320716858
1758272916745221000,3.11222119140625,-0.3433735966682434,-3.12155818939209,-0.945400595664978
1758272916755178200,3.12217822265625,-0.5779283046722412,-2.516989231109619,-0.9677367806434631
1758272916765136100,3.13213623046875,-0.7701912522315979,-2.0232508182525635,-1.103879690170288
1758272916775093000,3.142093017578125,-0.8884958028793335,-1.8314324617385864,-1.16087806224823
1758272916785051100,3.152051025390625,-0.9247968196868896,-1.7310062646865845,-1.10072922706604
1758272916795008300,3.16200830078125,-0.8832852840423584,-1.6669036149978638,-0.9039860367774963
1758272916804966100,3.171966064453125,-0.9095403552055359,-1.4937652349472046,-0.5481091737747192
1758272916814923000,3.181923095703125,-1.0534418821334839,-1.145114779472351,-0.05475059524178505
1758272916824881200,3.191881103515625,-1.1400172710418701,-0.7554267048835754,0.35136547684669495
1758272916834838300,3.20183837890625,-1.212281346321106,-0.31545862555503845,0.6363114714622498
1758272916844795000,3.211794921875,-1.2131249904632568,-0.18347741663455963,0.8483824729919434
1758272916854753000,3.2217529296875,-1.1778287887573242,-0.20893749594688416,1.0153677463531494
1758272916864710100,3.231710205078125,-1.1164077520370483,-0.17396992444992065,1.139877200126648
1758272916874668000,3.24166796875,-1.0043563842773438,-0.10953821241855621,1.205561637878418
1758272916884625200,3.251625244140625,-0.8476333022117615,-0.11487651616334915,1.1413352489471436
1758272916894583000,3.2615830078125,-0.6589166522026062,-0.11502005904912949,0.9120274782180786
1758272916904540200,3.2715400390625,-0.4139353930950165,-0.04091760516166687,0.48986637592315674
1758272916914498000,3.281498046875,-0.1806563287973404,-0.0367438979446888,-0.08621158450841904
1758272916924455200,3.291455078125,-0.006884271278977394,-0.09370198845863342,-0.5823861956596375
1758272916934413300,3.301413330078125,0.017704162746667862,-0.18295863270759583,-0.7865899205207825
1758272916944370000,3.311369873046875,-0.06663495302200317,-0.2946915626525879,-0.7563667893409729
1758272916954327000,3.3213271484375,-0.15065209567546844,-0.4326462149620056,-0.6864159107208252
1758272916964285200,3.33128515625,-0.26312536001205444,-0.4277079403400421,-0.6753840446472168
1758272916974242300,3.3412421875,-0.39108628034591675,-0.6022149920463562,-0.7834711074829102
1758272916984200000,3.351199951171875,-0.5082107782363892,-0.9887939095497131,-0.9512670040130615
1758272916994157000,3.361156982421875,-0.40936967730522156,-1.4117262363433838,-1.1038845777511597
1758272917004115200,3.371115234375,-0.021312478929758072,-1.6130846738815308,-1.10992431640625
1758272917014072000,3.381072021484375,0.5250549912452698,-1.341336727142334,-0.8013318777084351
1758272917024030200,3.3910302734375,0.8607951998710632,-0.6662531495094299,-0.26221963763237
1758272917033987000,3.400987060546875,0.6591238379478455,0.15923546254634857,0.10807986557483673
1758272917043944200,3.410944091796875,0.08695966750383377,1.1361668109893799,0.20336590707302094
1758272917053902000,3.420902099609375,-0.24555224180221558,1.7762360572814941,0.3894875645637512
1758272917063859000,3.43085888671875,-0.23947091400623322,1.7771118879318237,0.5565615296363831
1758272917073817000,3.440817138671875,-0.14271241426467896,1.8040101528167725,0.6819055676460266
1758272917083774200,3.450774169921875,0.023321833461523056,2.020272970199585,0.854465663433075
1758272917093732000,3.460732177734375,0.25748345255851746,1.3901780843734741,0.8602228760719299
1758272917103689000,3.47068896484375,0.44408875703811646,0.032640233635902405,0.4582644999027252
1758272917113647000,3.480647216796875,0.2542477250099182,-0.9466390013694763,-0.1022866889834404
1758272917123604000,3.49060400390625,-0.11108683794736862,-0.2720181941986084,0.16172045469284058
1758272917133562000,3.50056201171875,-0.39252784848213196,0.8112537264823914,1.2004039287567139
1758272917143519000,3.51051904296875,-0.7492063045501709,1.85247802734375,2.473843574523926
1758272917153476000,3.52047607421875,-1.1388795375823975,2.640758752822876,3.4185407161712646
1758272917163434000,3.53043408203125,-1.3098374605178833,2.9759016036987305,3.748788356781006
1758272917173391000,3.54039111328125,-1.2940499782562256,3.1530566215515137,3.5160372257232666
1758272917183349000,3.550348876953125,-1.1789449453353882,3.0728020668029785,3.026442527770996
1758272917193305900,3.560305908203125,-0.9479016065597534,2.82440185546875,2.527064800262451
1758272917203264000,3.570263916015625,-0.637349545955658,2.6145896911621094,2.1402668952941895
1758272917213221000,3.58022119140625,-0.4082724452018738,2.4427385330200195,1.9446686506271362
1758272917223179000,3.590178955078125,-0.43197324872016907,2.4265213012695312,1.8954439163208008
1758272917233135900,3.600135986328125,-0.7963981032371521,2.223217487335205,1.9220683574676514
1758272917243093000,3.610093017578125,-1.2128286361694336,1.854488492012024,1.8339693546295166
1758272917253051100,3.620051025390625,-1.317480444908142,1.4401400089263916,1.5900418758392334
1758272917263008000,3.630008056640625,-1.1199162006378174,1.1493124961853027,1.2309085130691528
1758272917272966000,3.6399658203125,-0.873070478439331,0.9947468638420105,0.9778757095336914
1758272917282923000,3.649923095703125,-0.703536331653595,1.0348260402679443,1.16463041305542
1758272917292881000,3.659880859375,-0.6231911182403564,1.2247523069381714,1.6313848495483398
1758272917302838000,3.669838134765625,-0.5205779671669006,1.512054204940796,1.9787715673446655
1758272917312796200,3.679796142578125,-0.4297820031642914,1.9134234189987183,1.9687296152114868
1758272917322753000,3.6897529296875,-0.3582391142845154,2.3798043727874756,1.7292139530181885
1758272917332711000,3.6997109375,-0.226112499833107,2.6334824562072754,1.4421435594558716
1758272917342668000,3.70966796875,-0.05655595287680626,2.575110912322998,1.2031633853912354
1758272917352625000,3.719625,0.07211041450500488,2.365750789642334,1.0949565172195435
1758272917362583000,3.7295830078125,0.162583589553833,2.070190906524658,1.132440209388733
1758272917372540000,3.739539794921875,0.18648545444011688,1.8603341579437256,1.2769920825958252
1758272917382498000,3.749498046875,0.18592645227909088,1.8457980155944824,1.3654884099960327
1758272917392455200,3.759455078125,0.20730258524417877,1.7816510200500488,1.3500956296920776
1758272917402413000,3.7694130859375,0.2892552316188812,1.4511992931365967,1.3090273141860962
1758272917412370000,3.779369873046875,0.4045301675796509,0.8224672079086304,1.3204243183135986
1758272917422328000,3.789328125,0.4844204783439636,0.19216331839561462,1.3888493776321411
1758272917432285200,3.79928515625,0.517122209072113,-0.22724699974060059,1.4405890703201294
1758272917442243000,3.8092431640625,0.5238685607910156,-0.41657060384750366,1.449300765991211
1758272917452200000,3.819199951171875,0.49342915415763855,-0.4030502438545227,1.4652307033538818
1758272917462157000,3.829156982421875,0.38920289278030396,-0.1782538890838623,1.5523688793182373
1758272917472115000,3.839114990234375,0.23265321552753448,0.1666606217622757,1.5946305990219116
1758272917482072000,3.849072021484375,0.14643897116184235,0.4667046070098877,1.3764785528182983
1758272917492030000,3.859030029296875,0.18343187868595123,0.613730788230896,0.9571509957313538
1758272917501987000,3.868987060546875,0.28074538707733154,0.6382955312728882,0.5743101239204407
1758272917511945000,3.878945068359375,0.272154301404953,0.3358280658721924,0.3448284864425659
1758272917521902000,3.888902099609375,0.1914040446281433,-0.15927886962890625,0.12147556245326996
1758272917531860200,3.898860107421875,0.1324070394039154,-0.5983089804649353,-0.059422846883535385
1758272917541816800,3.90881689453125,0.13084962964057922,-0.7074604630470276,-0.10932596027851105
1758272917551774000,3.91877392578125,0.11878923326730728,-0.5314199328422546,-0.09509295970201492
1758272917561732000,3.928732177734375,0.041662223637104034,-0.2621264159679413,-0.09564929455518723
1758272917571689200,3.938689208984375,-0.06864750385284424,-0.22794368863105774,-0.25377288460731506
1758272917581646800,3.948646728515625,-0.11984943598508835,-0.30188581347465515,-0.6263871788978577
1758272917591604000,3.95860400390625,-0.14067110419273376,-0.151340514421463,-1.0812444686889648
1758272917601562000,3.96856201171875,-0.161521777510643,0.32669395208358765,-1.3762603998184204
1758272917611519000,3.97851904296875,-0.2826023995876312,0.43150612711906433,-1.5358015298843384
1758272917621477000,3.98847705078125,-0.39169585704803467,-0.05697913095355034,-1.6807981729507446
1758272917631434000,3.99843408203125,-0.3632256090641022,-0.8009542226791382,-1.8777821063995361
1758272917641391900,4.008391845703125,-0.15160790085792542,-1.311596393585205,-2.268810987472534
1758272917651349000,4.018348876953125,0.12834171950817108,-1.5430339574813843,-2.7346720695495605
1758272917661305900,4.028305908203125,0.36661475896835327,-1.612035870552063,-2.9196958541870117
1758272917671264000,4.038263916015625,0.4685448408126831,-1.6332197189331055,-2.8076024055480957
1758272917681221000,4.04822119140625,0.5451815724372864,-1.6829942464828491,-2.6483566761016846
1758272917691179000,4.058178955078125,0.6308568120002747,-1.560485601425171,-2.4980576038360596
1758272917701136100,4.06813623046875,0.6358276009559631,-1.216763973236084,-2.4139084815979004
1758272917711094000,4.078093994140625,0.6472892761230469,-0.7788270711898804,-2.43445086479187
1758272917721051000,4.08805078125,0.6700156331062317,-0.3136841654777527,-2.5674643516540527
1758272917731009000,4.098009033203125,0.6259475350379944,-0.012212724424898624,-2.787525177001953
1758272917740966100,4.107966064453125,0.4973304271697998,0.0692158192396164,-2.9378902912139893
1758272917750923000,4.117923095703125,0.4243171811103821,0.10022939741611481,-2.9016811847686768
1758272917760881000,4.127880859375,0.49854880571365356,-0.039206258952617645,-2.7702178955078125
1758272917770838000,4.137838134765625,0.7062253355979919,-0.279965877532959,-2.6301491260528564
1758272917780796200,4.147796142578125,0.8964032530784607,-0.47042903304100037,-2.5164763927459717
1758272917790753000,4.1577529296875,0.9435015320777893,-0.6608695387840271,-2.4403204917907715
1758272917800711000,4.1677109375,0.8467661738395691,-0.7967477440834045,-2.364614963531494
1758272917810668000,4.17766796875,0.724831223487854,-0.8403761982917786,-2.2227630615234375
1758272917820626000,4.1876259765625,0.6371008157730103,-0.9193780422210693,-1.9897589683532715
1758272917830583000,4.1975830078125,0.6210598349571228,-1.1119451522827148,-1.7577393054962158
1758272917840541200,4.207541259765625,0.5245987772941589,-1.6965798139572144,-1.4960139989852905
1758272917850498000,4.217498046875,0.40472859144210815,-2.2809016704559326,-1.235663890838623
1758272917860455000,4.227454833984375,0.3583142161369324,-2.3987600803375244,-1.0510857105255127
1758272917870413000,4.2374130859375,0.22638973593711853,-2.2560477256774902,-1.0123037099838257
1758272917880370000,4.247369873046875,-0.003763046581298113,-1.7918485403060913,-1.0695865154266357
1758272917890327800,4.257327880859375,-0.1784783899784088,-1.2749582529067993,-1.080930471420288
1758272917900285000,4.267284912109375,-0.3351745307445526,-1.4607648849487305,-0.8689817190170288
1758272917910243000,4.2772431640625,-0.554110050201416,-2.288902997970581,-0.6597259640693665
1758272917920200200,4.2872001953125,-0.524512767791748,-2.6169958114624023,-0.8055468201637268
1758272917930157800,4.29715771484375,-0.4684164822101593,-2.5147299766540527,-1.119794249534607
1758272917940115000,4.307114990234375,-0.44838204979896545,-2.3200690746307373,-1.437576174736023
1758272917950072000,4.317072021484375,-0.46107733249664307,-2.166098117828369,-1.664488673210144
1758272917960030000,4.327030029296875,-0.5054301619529724,-2.0050108432769775,-1.7377277612686157
1758272917969986800,4.33698681640625,-0.5586515665054321,-1.947584629058838,-1.6086139678955078
1758272917979945000,4.346945068359375,-0.6437265276908875,-1.86062490940094,-1.1867769956588745
1758272917989902000,4.356902099609375,-0.863296389579773,-1.6348799467086792,-0.5167254209518433
1758272917999860000,4.36685986328125,-1.1655161380767822,-1.3038713932037354,0.21063446998596191
1758272918009817000,4.376817138671875,-1.3231098651885986,-1.143621802330017,0.7514902353286743
1758272918019775000,4.38677490234375,-1.350450873374939,-1.1784207820892334,1.1935712099075317
1758272918029732000,4.396732177734375,-1.3436022996902466,-1.047291874885559,1.5926939249038696
1758272918039690000,4.40668994140625,-1.2710756063461304,-0.7286065220832825,1.9489020109176636
1758272918049647000,4.416647216796875,-1.1210858821868896,-0.4008035957813263,2.1689422130584717
1758272918059604000,4.42660400390625,-0.8967622518539429,-0.11104129999876022,2.061777114868164
1758272918069561900,4.436561767578125,-0.5546895861625671,0.22922520339488983,1.4437984228134155
1758272918079519000,4.44651904296875,-0.16108982264995575,0.42828503251075745,0.37926051020622253
1758272918089477000,4.45647705078125,0.18324971199035645,0.22652368247509003,-0.8402350544929504
1758272918099434000,4.46643408203125,0.42069849371910095,-0.0790274441242218,-1.5114078521728516
1758272918109392600,4.476392578125,0.32736828923225403,-0.13156868517398834,-1.6488245725631714
1758272918119349800,4.486349853515625,0.1270679384469986,-0.3035478889942169,-1.4737496376037598
1758272918129307600,4.4963076171875,-0.05522250756621361,-0.601773738861084,-1.1654800176620483
1758272918139264800,4.5062646484375,-0.308916836977005,-0.7743316292762756,-0.888020932674408
1758272918149221600,4.5162216796875,-0.5498055815696716,-0.9956831932067871,-0.7509581446647644
1758272918159179800,4.5261796875,-0.472736120223999,-1.5246669054031372,-0.7878831624984741
1758272918169136600,4.53613671875,0.02857119031250477,-2.0370171070098877,-0.8361430764198303
1758272918179094800,4.5460947265625,0.6929544806480408,-2.0777034759521484,-0.6914604902267456
1758272918189051600,4.5560517578125,1.1780349016189575,-1.5750168561935425,-0.5101482272148132
1758272918199009500,4.566009521484375,1.0788418054580688,-0.47569915652275085,-0.3517676293849945
1758272918208966700,4.575966552734375,0.4923982322216034,0.837876558303833,-0.045882537961006165
1758272918218924800,4.5859248046875,0.02468057908117771,1.6575474739074707,0.4510417580604553
1758272918228882000,4.5958818359375,-0.10910011827945709,2.0118086338043213,0.7785679697990417
1758272918238838800,4.6058388671875,-0.13230744004249573,2.1110191345214844,1.0240799188613892
1758272918248796700,4.615796630859375,-0.13091354072093964,2.3453638553619385,1.3138835430145264
1758272918258753800,4.62575390625,-0.027722440659999847,2.033656120300293,1.297979474067688
1758272918268711700,4.635711669921875,0.10929586738348007,0.9080207347869873,0.8532858490943909
1758272918278668500,4.64566845703125,-0.033193640410900116,-0.4240535497665405,0.2977917492389679
1758272918288626700,4.655626708984375,-0.29842904210090637,-0.2351163774728775,0.4918760061264038
1758272918298583800,4.665583740234375,-0.6526720523834229,1.0155434608459473,1.3798463344573975
1758272918308541700,4.675541748046875,-1.1284862756729126,2.2382943630218506,2.309450387954712
1758272918318498600,4.68549853515625,-1.4095200300216675,2.8307080268859863,2.896519660949707
1758272918328455700,4.69545556640625,-1.3473597764968872,2.849478006362915,3.0078446865081787
1758272918338413800,4.705413818359375,-1.2379597425460815,2.4601733684539795,2.8085248470306396
1758272918348370700,4.71537060546875,-1.1555171012878418,2.01369309425354,2.5101728439331055
1758272918358328800,4.725328857421875,-0.9464549422264099,1.7164616584777832,2.197014331817627
1758272918368285700,4.73528564453125,-0.617538332939148,1.7105094194412231,1.8896592855453491
1758272918378243600,4.74524365234375,-0.38400837779045105,1.8336268663406372,1.6280100345611572
1758272918388200700,4.75520068359375,-0.3925643265247345,1.9992622137069702,1.529831051826477
1758272918398158800,4.765158935546875,-0.4533781409263611,2.234121322631836,1.6366759538650513
1758272918408115700,4.77511572265625,-0.5451032519340515,2.29229998588562,1.7156049013137817
1758272918418073600,4.785073486328125,-0.7224428653717041,2.1362149715423584,1.7009778022766113
1758272918428030700,4.79503076171875,-0.9643197059631348,1.822052240371704,1.700032353401184
1758272918437987800,4.80498779296875,-1.0798531770706177,1.6267412900924683,1.8638406991958618
1758272918447945700,4.81494580078125,-1.1385306119918823,1.4936034679412842,2.3326196670532227
1758272918457902600,4.824902587890625,-1.0514860153198242,1.5916049480438232,2.5167791843414307
1758272918467860700,4.83486083984375,-0.7174209952354431,1.9106987714767456,2.311984062194824
1758272918477817900,4.84481787109375,-0.3777635395526886,2.3478164672851562,1.9005299806594849
1758272918487775700,4.854775634765625,-0.13061979413032532,2.6582627296447754,1.5151466131210327
1758272918497732600,4.864732666015625,0.027408454567193985,2.580832004547119,1.2177338600158691
1758272918507690800,4.874690673828125,0.13920661807060242,2.2748279571533203,1.0159664154052734
1758272918517647600,4.884647705078125,0.25841450691223145,1.7803937196731567,1.089007019996643
1758272918527604700,4.894604736328125,0.30290502309799194,1.3464982509613037,1.2798858880996704
1758272918537562600,4.904562744140625,0.2907058596611023,1.2775657176971436,1.311284065246582
1758272918547519700,4.914519775390625,0.16821511089801788,1.4041380882263184,1.2331410646438599
1758272918557477600,4.9244775390625,0.1433023065328598,1.132416844367981,1.2741779088974
1758272918567434800,4.934434814453125,0.32789450883865356,0.607001543045044,1.19741690158844
1758272918577393000,4.944392822265625,0.44813063740730286,0.12466869503259659,1.1481481790542603
1758272918587349800,4.954349853515625,0.4498763382434845,-0.19397799670696259,1.19234299659729
1758272918597307600,4.9643076171875,0.3886449337005615,-0.3084515631198883,1.3172881603240967
1758272918607264800,4.9742646484375,0.29154902696609497,-0.18265609443187714,1.4405407905578613
1758272918617222000,4.984221923828125,0.15372484922409058,0.21937522292137146,1.490761160850525
1758272918627179500,4.994179443359375,0.04099803417921066,0.7641160488128662,1.4185093641281128
1758272918637136600,5.00413671875,0.0592753067612648,1.1760327816009521,1.190455675125122
1758272918647094800,5.0140947265625,0.1825152188539505,1.22590172290802,0.855363130569458
1758272918657052000,5.024052001953125,0.27620363235473633,0.9839253425598145,0.5294367074966431
1758272918667009800,5.034009765625,0.3159528970718384,0.7716946005821228,0.2848391830921173
1758272918676966700,5.043966552734375,0.3383602201938629,0.7069424986839294,0.0569026954472065
1758272918686924800,5.0539248046875,0.2681733965873718,0.6473111510276794,-0.19449757039546967
1758272918696881700,5.063881591796875,0.09544636309146881,0.2608315944671631,-0.27692559361457825
1758272918706838500,5.073838623046875,-0.032158736139535904,-0.3240388035774231,-0.20664292573928833
1758272918716796700,5.083796630859375,-0.09627460688352585,-0.7228761911392212,-0.08223947882652283
1758272918726753800,5.09375390625,-0.07454853504896164,-0.8321999907493591,-0.009894176386296749
1758272918736711700,5.103711669921875,-0.054497331380844116,-0.546625554561615,-0.07406863570213318
1758272918746668800,5.113668701171875,-0.020967066287994385,-0.09368867427110672,-0.4028494656085968
1758272918756626700,5.123626708984375,0.027956800535321236,0.3259948790073395,-0.9367011189460754
1758272918766583800,5.133583740234375,-0.029647907242178917,0.6144413352012634,-1.3348655700683594
1758272918776541700,5.143541748046875,-0.21448087692260742,0.6634370684623718,-1.4861727952957153
1758272918786498800,5.153498779296875,-0.33657217025756836,0.36167803406715393,-1.6145554780960083
1758272918796455700,5.16345556640625,-0.33341896533966064,-0.17244207859039307,-1.9092319011688232
1758272918806413600,5.17341357421875,-0.26191550493240356,-0.75777268409729,-2.2964529991149902
1758272918816370700,5.18337060546875,-0.08924545347690582,-1.291646122932434,-2.6431515216827393
1758272918826328800,5.193328857421875,0.13264459371566772,-1.7257821559906006,-2.837209463119507
1758272918836286000,5.203285888671875,0.282321959733963,-1.9000511169433594,-2.782895088195801
1758272918846243600,5.21324365234375,0.40397411584854126,-2.1068050861358643,-2.657972812652588
1758272918856200700,5.22320068359375,0.602288007736206,-2.172464609146118,-2.533468246459961
1758272918866158800,5.233158935546875,0.6639100909233093,-1.923611044883728,-2.420971155166626
1758272918876115700,5.24311572265625,0.7046250104904175,-1.5289289951324463,-2.4386937618255615
1758272918886072600,5.253072509765625,0.8049444556236267,-1.1110992431640625,-2.6182875633239746
1758272918896030700,5.26303076171875,0.8329893946647644,-0.7560765147209167,-2.847836971282959
1758272918905987800,5.27298779296875,0.7014787793159485,-0.5341310501098633,-3.0087838172912598
1758272918915945700,5.28294580078125,0.5336090326309204,-0.46694934368133545,-3.0526230335235596
1758272918925902600,5.292902587890625,0.49825718998908997,-0.4829607903957367,-2.96714448928833
1758272918935860700,5.30286083984375,0.6241291165351868,-0.6306972503662109,-2.8454387187957764
1758272918945817600,5.312817626953125,0.7543954849243164,-0.7622113227844238,-2.7012996673583984
1758272918955775700,5.322775634765625,0.879871129989624,-0.9149748086929321,-2.3884735107421875
1758272918965732900,5.33273291015625,0.998521089553833,-1.0498849153518677,-2.09197998046875
1758272918975689700,5.342689697265625,1.0548163652420044,-1.311809778213501,-2.003994941711426
1758272918985647600,5.352647705078125,1.1425105333328247,-1.8363428115844727,-1.9371205568313599
1758272918995604700,5.362604736328125,1.1436787843704224,-1.8831802606582642,-1.968186855316162
1758272919005563000,5.37256298828125,0.7544386386871338,-1.3162226676940918,-2.0021650791168213
1758272919015519700,5.382519775390625,0.24619778990745544,-0.858877420425415,-1.7567180395126343
1758272919025477600,5.3924775390625,-0.06434623152017593,-0.327377051115036,-1.5399705171585083
1758272919035434800,5.402434814453125,-0.17453691363334656,-0.2369917780160904,-1.266025185585022
1758272919045392600,5.412392578125,-0.2999350428581238,-0.7484363913536072,-0.8605842590332031
1758272919055349800,5.422349853515625,-0.34585726261138916,-1.1132268905639648,-0.6258795857429504
1758272919065306600,5.432306640625,-0.44065356254577637,-1.5627425909042358,-0.5055094957351685
1758272919075264800,5.4422646484375,-0.6047234535217285,-2.2596495151519775,-0.5022063851356506
1758272919085222000,5.452221923828125,-0.6989407539367676,-2.8311944007873535,-0.6679857969284058
1758272919095179800,5.4621796875,-0.7559177875518799,-2.9611692428588867,-0.9864414930343628
1758272919105136400,5.472136474609375,-0.7242991328239441,-3.0164098739624023,-1.3073292970657349
1758272919115094500,5.482094482421875,-0.6344664096832275,-2.992980480194092,-1.5555845499038696
1758272919125051100,5.492051025390625,-0.5203401446342468,-2.754178524017334,-1.6731921434402466
1758272919135009300,5.50200927734375,-0.5483201146125793,-2.395155429840088,-1.5449939966201782
1758272919144966400,5.51196630859375,-0.7298270463943481,-2.154407262802124,-1.0408046245574951
1758272919154923500,5.521923583984375,-1.068331003189087,-1.8202500343322754,-0.2517984211444855
1758272919164881200,5.531881103515625,-1.2775700092315674,-1.1501755714416504,0.4264778196811676
1758272919174838300,5.54183837890625,-1.2938752174377441,-0.5484932065010071,0.8507404327392578
1758272919184796400,5.55179638671875,-1.2582809925079346,-0.3348240554332733,1.1790399551391602
1758272919194753500,5.56175341796875,-1.2232540845870972,-0.2298198789358139,1.4454381465911865
1758272919204711400,5.57171142578125,-1.1840016841888428,-0.07966819405555725,1.6269820928573608
1758272919214668300,5.581668212890625,-1.1129976511001587,0.10307098925113678,1.6480677127838135
1758272919224626200,5.591626220703125,-0.9899651408195496,0.32208722829818726,1.463486671447754
1758272919234583300,5.601583251953125,-0.784148097038269,0.469037801027298,1.1343889236450195
1758272919244540400,5.61154052734375,-0.5082669258117676,0.3894859850406647,0.6204320788383484
1758272919254498300,5.621498291015625,-0.22067858278751373,0.1486200988292694,0.04175996407866478
1758272919264455400,5.631455322265625,0.0460982546210289,-0.22814075648784637,-0.4211759865283966
1758272919274413300,5.641413330078125,0.15463191270828247,-0.6030033230781555,-0.7038018107414246
1758272919284370400,5.651370361328125,0.12224681675434113,-0.8900036811828613,-0.8035747408866882
1758272919294328600,5.66132861328125,0.03387035056948662,-0.8745834231376648,-0.8329288959503174
1758272919304285200,5.67128515625,-0.13883724808692932,-0.507260799407959,-0.793354332447052
1758272919314243300,5.681243408203125,-0.36865711212158203,-0.26946821808815,-0.7609559297561646
1758272919324200400,5.691200439453125,-0.5253833532333374,-0.3387250602245331,-0.7564892768859863
1758272919334157300,5.7011572265625,-0.3971516191959381,-0.566125750541687,-0.7379190325737
1758272919344115200,5.711115234375,0.03218456730246544,-0.7903396487236023,-0.6519476771354675
1758272919354072300,5.721072265625,0.5436534285545349,-0.7603902816772461,-0.3890276551246643
1758272919364030500,5.731030517578125,0.9195956587791443,-0.41991207003593445,0.014137656427919865
1758272919373987300,5.7409873046875,0.82928866147995,0.4443998336791992,0.4012922942638397
1758272919383945200,5.7509453125,0.4669607877731323,1.5098069906234741,0.5900899171829224
1758272919393902300,5.76090234375,0.27287545800209045,1.9923312664031982,0.5992474555969238
1758272919403860200,5.770860107421875,0.17467966675758362,1.919179081916809,0.4962635636329651
1758272919413817300,5.7808173828125,0.09499575197696686,1.6053396463394165,0.3425472378730774
1758272919423774200,5.790774169921875,0.14505359530448914,1.230442762374878,0.3077780604362488
1758272919433732400,5.800732421875,0.3033713400363922,0.6177998185157776,0.38761138916015625
1758272919443689500,5.810689453125,0.2668362259864807,-0.16130153834819794,0.4630590081214905
1758272919453647400,5.8206474609375,0.06596410274505615,-0.5627864003181458,0.44889044761657715
1758272919463604500,5.8306044921875,-0.13945989310741425,0.10212290287017822,0.7028513550758362
1758272919473562400,5.840562255859375,-0.3149789869785309,1.3972975015640259,1.4323744773864746
1758272919483519200,5.850519287109375,-0.5764300227165222,2.5782065391540527,2.2926652431488037
1758272919493476400,5.860476318359375,-0.7395007014274597,3.35720157623291,2.9434821605682373
1758272919503434500,5.8704345703125,-0.7213494181632996,3.4072318077087402,3.2173502445220947
1758272919513391400,5.880391357421875,-0.6181910634040833,3.061931848526001,3.0635592937469482
1758272919523349200,5.890349365234375,-0.47415637969970703,2.6292014122009277,2.6904208660125732
1758272919533306400,5.900306396484375,-0.30272790789604187,2.203035354614258,2.3194832801818848
1758272919543264500,5.910264404296875,-0.15700213611125946,1.8464348316192627,2.029191255569458
1758272919553221000,5.92022119140625,-0.03561871498823166,1.6606734991073608,1.8153935670852661
1758272919563179300,5.93017919921875,0.15389209985733032,1.6228933334350586,1.6144098043441772
1758272919573136400,5.940136474609375,0.24511468410491943,1.6457171440124512,1.470958948135376
1758272919583093500,5.950093505859375,-0.22962121665477753,1.724405288696289,1.4736226797103882
1758272919593051400,5.960051513671875,-0.9635071754455566,2.0974392890930176,1.6011022329330444
1758272919603008300,5.97000830078125,-1.4317896366119385,2.586817502975464,1.8031182289123535
1758272919612966400,5.97996630859375,-1.5008752346038818,2.590371608734131,1.9476271867752075
1758272919622923300,5.98992333984375,-1.2660212516784668,2.253916025161743,2.0283775329589844
1758272919632881400,5.99988134765625,-1.0212455987930298,1.9523625373840332,2.0870542526245117
1758272919642838300,6.00983837890625,-0.7971730828285217,2.024665117263794,2.0777816772460938
1758272919652796200,6.019796142578125,-0.7939642071723938,2.1353180408477783,2.1735823154449463
1758272919662753300,6.029753173828125,-0.6896319389343262,2.425433397293091,2.1360127925872803
1758272919672710400,6.03971044921875,-0.40580448508262634,2.5626070499420166,1.841635823249817
1758272919682668500,6.04966845703125,-0.15295253694057465,2.346204996109009,1.4207897186279297
1758272919692625400,6.05962548828125,0.026075808331370354,1.9641371965408325,1.180760145187378
1758272919702583300,6.069583251953125,0.16743293404579163,1.6095356941223145,1.304331660270691
1758272919712540400,6.07954052734375,0.22621236741542816,1.2970685958862305,1.6243343353271484
1758272919722498300,6.089498291015625,0.1991083025932312,1.3191059827804565,1.8028756380081177
1758272919732455200,6.099455078125,0.14340882003307343,1.6300265789031982,1.7255688905715942
1758272919742412300,6.109412353515625,0.10740874707698822,1.885934591293335,1.5055675506591797
1758272919752370400,6.119370361328125,0.2211795151233673,1.7638483047485352,1.2214332818984985
1758272919762327600,6.12932763671875,0.4413089454174042,1.2399827241897583,1.0767810344696045
1758272919772285400,6.139285400390625,0.6375343799591064,0.5018996000289917,1.122697353363037
1758272919782242300,6.1492421875,0.6656142473220825,-0.09129475802183151,1.2070814371109009
1758272919792200400,6.159200439453125,0.5367971062660217,-0.3958655893802643,1.2716565132141113
1758272919802157300,6.1691572265625,0.3460652530193329,-0.3337121903896332,1.2951966524124146
1758272919812115500,6.179115478515625,0.19153374433517456,0.066414974629879,1.2342572212219238
1758272919822072300,6.189072265625,0.04760213941335678,0.5698394775390625,1.0375171899795532
1758272919832029400,6.199029541015625,-0.00833968911319971,1.0825581550598145,0.749785304069519
1758272919841987300,6.2089873046875,0.044973067939281464,1.3623621463775635,0.44966569542884827
1758272919851944400,6.2189443359375,0.09742455929517746,1.2487165927886963,0.17362718284130096
1758272919861902300,6.22890234375,0.14040504395961761,0.7065762877464294,-0.07809613645076752
1758272919871859200,6.238859130859375,0.12004438042640686,0.03964461386203766,-0.2587154507637024
1758272919881817300,6.2488173828125,0.12032108753919601,-0.3898300528526306,-0.3205884099006653
1758272919891774500,6.2587744140625,0.10101929306983948,-0.6624663472175598,-0.34282419085502625
1758272919901732400,6.268732421875,0.10889692604541779,-0.764590859413147,-0.34153762459754944
1758272919911689200,6.278689208984375,0.13614638149738312,-0.5514250993728638,-0.34242498874664307
1758272919921646300,6.288646240234375,0.12297971546649933,-0.16241607069969177,-0.6099520325660706
1758272919931604500,6.2986044921875,0.0659225583076477,0.2139008343219757,-1.1680885553359985
1758272919941561300,6.308561279296875,-0.06060768663883209,0.7110472321510315,-1.562320590019226
1758272919951519200,6.318519287109375,-0.22021865844726562,0.8212845325469971,-1.715197205543518
1758272919961476400,6.328476318359375,-0.30220192670822144,0.3482495844364166,-1.9108327627182007
1758272919971434200,6.338434326171875,-0.2499437928199768,-0.2317698448896408,-2.284464120864868
1758272919981391400,6.348391357421875,-0.10415755957365036,-0.7551209330558777,-2.730764627456665
1758272919991349500,6.358349609375,0.015238873660564423,-1.2848479747772217,-2.9793853759765625
1758272920001306400,6.368306396484375,0.1347663402557373,-1.7743779420852661,-2.9518842697143555
1758272920011263500,6.378263427734375,0.23876117169857025,-2.237708330154419,-2.8056604862213135
1758272920021221400,6.388221435546875,0.39066362380981445,-2.486138343811035,-2.6382808685302734
1758272920031178200,6.39817822265625,0.5548975467681885,-2.2936103343963623,-2.455242156982422
1758272920041136400,6.408136474609375,0.6632911562919617,-1.7018980979919434,-2.323770046234131
1758272920051093200,6.41809326171875,0.8527390956878662,-1.056889533996582,-2.364377498626709
1758272920061051400,6.428051513671875,1.027219295501709,-0.6065237522125244,-2.5927155017852783
1758272920071008500,6.438008544921875,1.0058953762054443,-0.42937347292900085,-2.8907723426818848
1758272920080965400,6.44796533203125,0.8353981971740723,-0.3961084485054016,-3.059079647064209
1758272920090923300,6.45792333984375,0.6627617478370667,-0.3163047134876251,-2.9882619380950928
1758272920100880400,6.46788037109375,0.6367537975311279,-0.3260630667209625,-2.8293263912200928
1758272920110838300,6.47783837890625,0.7251515984535217,-0.471244215965271,-2.70025634765625
1758272920120795100,6.487795166015625,0.8112779855728149,-0.536237359046936,-2.5732648372650146
1758272920130753000,6.4977529296875,0.8980602622032166,-0.3935163915157318,-2.4383437633514404
1758272920140710100,6.507710205078125,0.9533594846725464,-0.7611849904060364,-2.2909674644470215
1758272920150668000,6.51766796875,0.9931289553642273,-1.2954411506652832,-2.1601779460906982
1758272920160625200,6.527625244140625,0.8415213227272034,-1.6565135717391968,-1.9568148851394653
1758272920170582000,6.53758203125,0.5979723334312439,-1.2678340673446655,-1.9460500478744507
1758272920180540200,6.5475400390625,0.5528586506843567,-0.9034675359725952,-1.8130440711975098
1758272920190497300,6.557497314453125,0.47882571816444397,-1.459244966506958,-1.3736028671264648
1758272920200455200,6.567455078125,0.1919582486152649,-2.4806416034698486,-0.7753891944885254
1758272920210412000,6.577412109375,0.011642009019851685,-2.828680992126465,-0.47185489535331726
1758272920220370200,6.5873701171875,-0.18043608963489532,-2.2730047702789307,-0.5412885546684265
1758272920230327000,6.5973271484375,-0.2525140047073364,-1.66692316532135,-0.672012448310852
1758272920240284200,6.6072841796875,-0.19353272020816803,-1.6304244995117188,-0.7474382519721985
1758272920250242300,6.6172421875,-0.19299155473709106,-1.8858988285064697,-0.8307214379310608
1758272920260199200,6.62719921875,-0.2319173812866211,-2.0156843662261963,-0.960934579372406
1758272920270157000,6.637156982421875,-0.31024283170700073,-2.190497636795044,-1.1220052242279053
1758272920280114200,6.6471142578125,-0.4045290946960449,-2.1759538650512695,-1.3127506971359253
1758272920290072300,6.657072265625,-0.5086198449134827,-2.086296319961548,-1.4670659303665161
1758272920300029000,6.66702880859375,-0.6268303394317627,-2.0153911113739014,-1.475063681602478
1758272920309987000,6.676987060546875,-0.7369600534439087,-1.9953364133834839,-1.2808188199996948
1758272920319944200,6.686944091796875,-0.8502693176269531,-1.892979383468628,-0.8108787536621094
1758272920329901300,6.6969013671875,-0.987996518611908,-1.5315735340118408,-0.16292500495910645
1758272920339859200,6.706859130859375,-1.1158884763717651,-0.9635798931121826,0.46972009539604187
1758272920349816000,6.716816162109375,-1.2026073932647705,-0.494780957698822,0.9493224024772644
1758272920359774200,6.726774169921875,-1.2236354351043701,-0.33393561840057373,1.3100289106369019
1758272920369731000,6.73673095703125,-1.1908178329467773,-0.30896157026290894,1.58812415599823
1758272920379689200,6.746689208984375,-1.1539615392684937,-0.259755939245224,1.7763811349868774
1758272920389646000,6.75664599609375,-1.0870400667190552,-0.1357509046792984,1.7866032123565674
1758272920399603200,6.766603271484375,-0.9209698438644409,-0.023667778819799423,1.5199000835418701
1758272920409561000,6.77656103515625,-0.6103384494781494,-0.01817287877202034,0.9057037830352783
1758272920419518200,6.786518310546875,-0.1671847254037857,-0.09991088509559631,0.06583520770072937
1758272920429476000,6.79647607421875,0.24204938113689423,-0.3077245354652405,-0.6359572410583496
1758272920439433200,6.80643310546875,0.34326815605163574,-0.2360016107559204,-1.0352444648742676
1758272920449391000,6.81639111328125,0.22978392243385315,0.008224640041589737,-1.1989535093307495
1758272920459348200,6.82634814453125,0.04538292810320854,0.033726271241903305,-1.2265359163284302
1758272920469306000,6.83630615234375,-0.2837792634963989,-0.18353307247161865,-1.1834014654159546
1758272920479263000,6.846262939453125,-0.5706104636192322,-0.7383595705032349,-1.1086747646331787
1758272920489220000,6.85622021484375,-0.6402106285095215,-1.1915768384933472,-0.9892793893814087
1758272920499178200,6.86617822265625,-0.47969362139701843,-1.4189509153366089,-0.8577682375907898
1758272920509135400,6.87613525390625,-0.09087610989809036,-1.6794894933700562,-0.6817753314971924
1758272920519093000,6.886093017578125,0.4111105799674988,-1.6326748132705688,-0.3301297128200531
1758272920529050000,6.896050048828125,0.8219226002693176,-1.189146637916565,0.0682259276509285
1758272920539008300,6.90600830078125,0.9628003835678101,-0.2481408268213272,0.33791545033454895
1758272920548965000,6.915965087890625,0.6304485201835632,1.013633131980896,0.36815646290779114
1758272920558922000,6.925921875,0.20837530493736267,1.796824336051941,0.3323742151260376
1758272920568880000,6.935880126953125,0.061643391847610474,1.703553318977356,0.24725718796253204
1758272920578837200,6.945837158203125,-0.16059181094169617,1.5002497434616089,0.21354183554649353
1758272920588795100,6.955795166015625,-0.27859169244766235,1.5430123805999756,0.24398230016231537
1758272920598752000,6.965751953125,-0.14870372414588928,1.1640514135360718,0.4082178473472595
1758272920608710100,6.975710205078125,-0.048406414687633514,0.38200435042381287,0.5202450752258301
1758272920618667000,6.9856669921875,-0.10774190723896027,-0.4624435305595398,0.4379368722438812
1758272920628625200,6.995625244140625,-0.24351385235786438,-0.4663461446762085,0.4579406678676605
1758272920638582300,7.005582275390625,-0.37462741136550903,0.5190135836601257,1.1096845865249634
1758272920648539100,7.0155390625,-0.6229991316795349,1.7662140130996704,2.1869168281555176
1758272920658497000,7.0254970703125,-0.7934592962265015,2.7404658794403076,3.0738956928253174
1758272920668454100,7.0354541015625,-0.6846987009048462,3.237575054168701,3.414844512939453
1758272920678412300,7.045412353515625,-0.6314029693603516,3.208719253540039,3.3205502033233643
1758272920688369200,7.055369140625,-0.6510712504386902,2.824375867843628,3.056643009185791
1758272920698327000,7.0653271484375,-0.6055279970169067,2.328343629837036,2.7993404865264893
1758272920708284200,7.0752841796875,-0.43320122361183167,2.034702777862549,2.471615791320801
1758272920718241300,7.0852412109375,-0.2831195890903473,2.0139241218566895,2.1800732612609863
1758272920728199200,7.09519921875,-0.3246300220489502,2.131758451461792,1.9607616662979126
1758272920738156000,7.105156005859375,-0.6905003786087036,2.261526107788086,1.854268193244934
1758272920748114200,7.1151142578125,-1.1461321115493774,2.4106364250183105,1.887800931930542
1758272920758071300,7.1250712890625,-1.3597570657730103,2.5474331378936768,1.9777857065200806
1758272920768029200,7.135029296875,-1.2564722299575806,2.5647330284118652,1.906406283378601
1758272920777986000,7.144986083984375,-1.0507118701934814,2.3375494480133057,1.5827363729476929
1758272920787943200,7.154943115234375,-0.8781587481498718,1.85911226272583,1.298949122428894
1758272920797901000,7.164901123046875,-0.6936123371124268,1.1962653398513794,1.476724624633789
1758272920807858200,7.174858154296875,-0.46435168385505676,0.8876374363899231,1.7726995944976807
1758272920817816000,7.184816162109375,-0.22637560963630676,0.7829781174659729,1.9541420936584473
1758272920827773200,7.194773193359375,-0.05511678010225296,0.9208598732948303,1.8732787370681763
1758272920837731000,7.20473095703125,0.08202323317527771,1.303453803062439,1.5541167259216309
1758272920847688200,7.214688232421875,0.11284133046865463,1.676270842552185,1.2887225151062012
1758272920857645000,7.22464501953125,0.12211019545793533,1.9338780641555786,1.236873745918274
1758272920867603000,7.23460302734375,0.1713206171989441,2.0530827045440674,1.3708014488220215
1758272920877560000,7.24456005859375,0.15389075875282288,2.1651246547698975,1.5325748920440674
1758272920887518200,7.254518310546875,0.05062376335263252,2.198713779449463,1.6571439504623413
1758272920897475300,7.264475341796875,0.013954964466392994,2.0564122200012207,1.6618458032608032
1758272920907433000,7.274432861328125,0.16046850383281708,1.5969318151474,1.4759044647216797
1758272920917390000,7.28439013671875,0.39633801579475403,0.8240401148796082,1.2834116220474243
1758272920927348200,7.29434814453125,0.588842511177063,-0.0072954632341861725,1.2275813817977905
1758272920937305000,7.30430517578125,0.6649950742721558,-0.6268694996833801,1.2731353044509888
1758272920947262000,7.314261962890625,0.6358947157859802,-0.8922074437141418,1.3098033666610718
1758272920957220000,7.32422021484375,0.5201600790023804,-0.6544987559318542,1.311814546585083
1758272920967177200,7.33417724609375,0.3427096903324127,0.06330147385597229,1.285681962966919
1758272920977135000,7.344135009765625,0.17897853255271912,1.0702464580535889,1.2068383693695068
1758272920987092000,7.354092041015625,0.11091746389865875,1.8617061376571655,0.9998052716255188
1758272920997050000,7.364050048828125,0.09906506538391113,2.0336785316467285,0.734992265701294
1758272921007007200,7.37400732421875,0.14586825668811798,1.4752540588378906,0.45077916979789734
1758272921016964000,7.383964111328125,0.18769507110118866,0.3693005442619324,0.08735568076372147
1758272921026922200,7.393922119140625,0.16787661612033844,-0.5517560839653015,-0.18954356014728546
1758272921036879000,7.403879150390625,0.10778398811817169,-0.842891275882721,-0.2933613061904907
1758272921046837000,7.4138369140625,0.0803009644150734,-0.5535969138145447,-0.15146169066429138
1758272921056794000,7.423794189453125,0.05800258368253708,-0.08767605572938919,0.04529877007007599
1758272921066752300,7.433752197265625,0.01356614287942648,0.1584428995847702,0.04133252426981926
1758272921076709000,7.443709228515625,-0.010812434367835522,0.06909411400556564,-0.1796930581331253
1758272921086666000,7.453666015625,-0.015067100524902344,-0.07281029224395752,-0.5562379360198975
1758272921096624000,7.4636240234375,0.026852119714021683,0.1623699963092804,-0.9703901410102844
1758272921106581200,7.473581298828125,-0.023694677278399467,0.5128920674324036,-1.2924586534500122
1758272921116539400,7.483539306640625,-0.2474777102470398,0.47418782114982605,-1.4940221309661865
1758272921126496300,7.493496337890625,-0.38597193360328674,-0.10077321529388428,-1.6437935829162598
1758272921136454400,7.503454345703125,-0.32674428820610046,-0.9382167458534241,-1.9658472537994385
1758272921146411500,7.51341162109375,-0.15804742276668549,-1.3941032886505127,-2.434638261795044
1758272921156368400,7.523368408203125,-0.009546367451548576,-1.672418236732483,-2.842425584793091
1758272921166326300,7.533326171875,0.11199817061424255,-1.926433801651001,-2.9385876655578613
1758272921176283400,7.543283447265625,0.11049108952283859,-2.048374891281128,-2.868558645248413
1758272921186241300,7.5532412109375,0.19996531307697296,-2.0288774967193604,-2.7465660572052
1758272921196198400,7.563198486328125,0.3352743983268738,-1.7716679573059082,-2.595825433731079
1758272921206156500,7.573156494140625,0.44040003418922424,-1.1880481243133545,-2.490318536758423
1758272921216113400,7.583113525390625,0.5765424370765686,-0.5188871026039124,-2.5083179473876953
1758272921226071300,7.5930712890625,0.6888809204101562,0.05535007268190384,-2.649850606918335
1758272921236028400,7.6030283203125,0.691371500492096,0.3760870695114136,-2.8489787578582764
1758272921245985300,7.6129853515625,0.6056137681007385,0.36930587887763977,-3.0253751277923584
1758272921255943400,7.622943359375,0.5504714250564575,0.19153454899787903,-3.039064407348633
1758272921265900300,7.632900390625,0.5956079959869385,-0.09210702031850815,-2.8646528720855713
1758272921275858400,7.6428583984375,0.6962051391601562,-0.47488823533058167,-2.6334428787231445
1758272921285815600,7.652815673828125,0.780648946762085,-0.7700575590133667,-2.4396464824676514
1758272921295773200,7.662773193359375,0.8492138981819153,-0.8109221458435059,-2.3149514198303223
1758272921305730300,7.672730224609375,0.9019790887832642,-0.8248174786567688,-2.213393211364746
1758272921315687400,7.6826875,0.909843385219574,-1.0019410848617554,-2.1645524501800537
1758272921325645600,7.6926455078125,0.8039143085479736,-1.2324864864349365,-2.0816540718078613
1758272921335602200,7.702602294921875,0.6951050162315369,-0.9349091053009033,-2.029802083969116
1758272921345560300,7.712560302734375,0.5479850769042969,-0.9349117279052734,-1.7929553985595703
1758272921355517400,7.722517333984375,0.3629302680492401,-1.3595181703567505,-1.4325135946273804
1758272921365475300,7.732475341796875,0.22137126326560974,-1.9272217750549316,-1.1129584312438965
1758272921375432400,7.742432373046875,0.19046901166439056,-2.2477598190307617,-0.9129318594932556
1758272921385389300,7.752389404296875,0.18477863073349,-2.4136905670166016,-0.7438437938690186
1758272921395347500,7.762347412109375,0.15131016075611115,-2.4963324069976807,-0.6267762780189514
1758272921405304300,7.77230419921875,-0.07558983564376831,-2.116135835647583,-0.7341882586479187
1758272921415262500,7.782262451171875,-0.2917615473270416,-1.6120641231536865,-0.8620548248291016
1758272921425219300,7.79221923828125,-0.4156248867511749,-1.4382425546646118,-0.9099656343460083
1758272921435177200,7.80217724609375,-0.5256536602973938,-1.5303876399993896,-0.9238694906234741
1758272921445134300,7.81213427734375,-0.5807568430900574,-1.6362941265106201,-1.032596468925476
1758272921455091500,7.822091552734375,-0.7064615488052368,-1.8899165391921997,-1.1128185987472534
1758272921465049600,7.832049560546875,-0.9056209921836853,-2.0719501972198486,-1.2465732097625732
1758272921475006500,7.84200634765625,-1.0154998302459717,-2.280926465988159,-1.410583734512329
1758272921484964400,7.85196435546875,-1.039166808128357,-2.385075092315674,-1.4109773635864258
1758272921494921500,7.86192138671875,-1.1146018505096436,-2.4517245292663574,-1.017034888267517
1758272921504879400,7.87187939453125,-1.3083494901657104,-2.2303779125213623,-0.25681236386299133
1758272921514836200,7.881836181640625,-1.4260213375091553,-1.5692317485809326,0.47791916131973267
1758272921524793300,7.89179345703125,-1.4060595035552979,-1.0250264406204224,0.9989501237869263
1758272921534751500,7.90175146484375,-1.3449562788009644,-0.8424624800682068,1.4125486612319946
1758272921544708600,7.91170849609375,-1.3113030195236206,-0.761064350605011,1.7110085487365723
1758272921554666200,7.921666259765625,-1.2028965950012207,-0.6393501162528992,1.7417187690734863
1758272921564623400,7.931623291015625,-1.0023022890090942,-0.45766210556030273,1.482906460762024
1758272921574581500,7.94158154296875,-0.6705871820449829,-0.20020845532417297,0.9759795665740967
1758272921584538400,7.951538330078125,-0.25270095467567444,0.10921543836593628,0.2563028931617737
1758272921594495200,7.9614951171875,0.06305938959121704,0.13841407001018524,-0.3111104667186737
1758272921604453400,7.971453369140625,0.2297101616859436,0.007003847509622574,-0.6374971270561218
1758272921614410500,7.981410400390625,0.22131028771400452,-0.21638956665992737,-0.7854508757591248
1758272921624368400,7.991368408203125,0.10525025427341461,-0.6294229626655579,-0.8464420437812805
1758272921634325500,8.001325439453124,-0.10908254235982895,-0.85072922706604,-0.8634735345840454
1758272921644283400,8.011283447265624,-0.3580572009086609,-0.9022997617721558,-0.8451821208000183
1758272921654240300,8.021240234375,-0.6170991659164429,-1.0777453184127808,-0.8644335865974426
1758272921664197400,8.031197265625,-0.6483049988746643,-1.500905156135559,-0.9544519186019897
1758272921674155500,8.041155517578124,-0.23638351261615753,-1.8681910037994385,-1.0860261917114258
1758272921684112400,8.0511123046875,0.37404656410217285,-1.7348766326904297,-0.9620099663734436
1758272921694070300,8.0610703125,0.8713599443435669,-1.136751651763916,-0.5472918748855591
1758272921704027400,8.07102734375,1.0073665380477905,-0.23022255301475525,-0.16194123029708862
1758272921713985500,8.080985595703124,0.5861183404922485,0.8869021534919739,0.031805068254470825
1758272921723942400,8.0909423828125,0.06562268733978271,1.62593412399292,0.32295089960098267
1758272921733899300,8.100899169921876,-0.08613941073417664,1.6929376125335693,0.49025678634643555
1758272921743857400,8.110857421875,-0.14998257160186768,1.600683331489563,0.47370150685310364
1758272921753814500,8.120814453125,-0.19280487298965454,1.9138884544372559,0.5711380839347839
1758272921763772400,8.1307724609375,-0.06385860592126846,1.7710756063461304,0.6679644584655762
1758272921773729300,8.140729248046876,0.0992879718542099,0.7391542196273804,0.4980209767818451
1758272921783687400,8.1506875,0.08821295201778412,-0.3181241750717163,0.24132873117923737
1758272921793644500,8.16064453125,-0.09207852929830551,-0.20245882868766785,0.38535675406455994
1758272921803602400,8.1706025390625,-0.18160787224769592,0.8765051364898682,1.1154791116714478
1758272921813559300,8.180559326171876,-0.5146763920783997,2.022745132446289,2.1910316944122314
1758272921823516400,8.190516357421876,-0.8821537494659424,2.8278770446777344,3.0662972927093506
1758272921833474300,8.200474365234374,-0.9389192461967468,2.9889075756073,3.369605302810669
1758272921843431400,8.210431396484376,-0.933289110660553,2.6661341190338135,3.2419164180755615
1758272921853389600,8.2203896484375,-0.926270067691803,2.199826955795288,2.9222333431243896
1758272921863346400,8.230346435546876,-0.8346999287605286,1.7977855205535889,2.572596311569214
1758272921873303300,8.24030322265625,-0.7131250500679016,1.5550466775894165,2.211259603500366
1758272921883261400,8.250261474609376,-0.6017979979515076,1.5471082925796509,1.8813070058822632
1758272921893218300,8.26021826171875,-0.5103554129600525,1.65146803855896,1.6586500406265259
1758272921903176200,8.27017626953125,-0.5706722736358643,1.8101979494094849,1.5660548210144043
1758272921913133300,8.28013330078125,-0.6846880316734314,2.1173324584960938,1.699683427810669
1758272921923091500,8.290091552734374,-0.8716616630554199,2.2826826572418213,1.7826606035232544
1758272921933048600,8.300048583984376,-1.0508027076721191,2.1524219512939453,1.6705482006072998
1758272921943005400,8.31000537109375,-1.0435370206832886,2.00950026512146,1.4713157415390015
1758272921952963300,8.31996337890625,-0.9910562634468079,1.9867221117019653,1.4596295356750488
1758272921962920400,8.32992041015625,-0.8504770398139954,2.145639419555664,1.6989809274673462
1758272921972878300,8.33987841796875,-0.7278826832771301,2.018240213394165,2.1354966163635254
1758272921982835200,8.349835205078126,-0.5763988494873047,1.8818234205245972,2.3118302822113037
1758272921992793300,8.35979345703125,-0.32214075326919556,1.8740196228027344,2.1126978397369385
1758272922002750500,8.36975048828125,-0.1046433225274086,2.104816198348999,1.7722588777542114
1758272922012708400,8.379708251953126,0.02473064698278904,2.3435258865356445,1.4578557014465332
1758272922022665500,8.38966552734375,0.12963362038135529,2.337960720062256,1.228498935699463
1758272922032622300,8.399622314453126,0.20556727051734924,2.1088993549346924,1.1272164583206177
1758272922042580500,8.40958056640625,0.2447865754365921,1.7857344150543213,1.124887228012085
1758272922052537300,8.419537353515626,0.25874847173690796,1.6191787719726562,0.9547895789146423
1758272922062495500,8.42949560546875,0.2475339025259018,1.3142385482788086,0.9596163034439087
1758272922072452400,8.439452392578126,0.2839078903198242,0.868361234664917,1.1323750019073486
1758272922082409500,8.449409423828126,0.44144558906555176,0.29090481996536255,1.2809474468231201
1758272922092367400,8.459367431640626,0.5730294585227966,-0.07578664273023605,1.317704677581787
1758272922102324500,8.469324462890626,0.5848644971847534,-0.11495428532361984,1.2915513515472412
1758272922112282000,8.4792822265625,0.4923985004425049,0.07162624597549438,1.3131769895553589
1758272922122239200,8.4892392578125,0.3315339982509613,0.34535154700279236,1.4131070375442505
1758272922132197000,8.499197021484376,0.19013158977031708,0.7124366164207458,1.4807960987091064
1758272922142154200,8.509154296875,0.0874108076095581,1.1279962062835693,1.4541858434677124
1758272922152111000,8.519111083984376,0.052025116980075836,1.4262431859970093,1.2928807735443115
1758272922162069000,8.529069091796876,0.09478616714477539,1.3886229991912842,1.0046439170837402
1758272922172026000,8.539026123046876,0.16913069784641266,1.0930989980697632,0.6621624827384949
1758272922181984300,8.548984375,0.2546418607234955,0.7389012575149536,0.38331595063209534
1758272922191941000,8.558941162109376,0.2799685299396515,0.48611822724342346,0.09146174043416977
1758272922201899000,8.56889892578125,0.2688826024532318,0.3335457444190979,-0.23323911428451538
1758272922211856100,8.578856201171876,0.16517643630504608,0.07545667141675949,-0.27934694290161133
1758272922221813200,8.588813232421876,-0.01708124950528145,-0.2886778712272644,-0.13159237802028656
1758272922231771100,8.598771240234376,-0.12824797630310059,-0.5445216298103333,-0.0010239854454994202
1758272922241728000,8.60872802734375,-0.08252763003110886,-0.7324380278587341,-0.08016300946474075
1758272922251686100,8.61868603515625,-0.026141323149204254,-0.7489586472511292,-0.4048982262611389
1758272922261643300,8.628643310546876,-0.04698215425014496,-0.4694846570491791,-0.8372008800506592
1758272922271601200,8.63860107421875,-0.1087011769413948,0.09130620956420898,-1.2599867582321167
1758272922281558000,8.64855810546875,-0.22263014316558838,0.3867216110229492,-1.5305471420288086
1758272922291515100,8.65851513671875,-0.36524534225463867,0.20292487740516663,-1.6192150115966797
1758272922301473000,8.66847314453125,-0.3549008369445801,-0.37526363134384155,-1.7914780378341675
1758272922311430100,8.67843017578125,-0.1477029025554657,-1.0522644519805908,-2.2605597972869873
1758272922321388300,8.68838818359375,0.14237791299819946,-1.4463480710983276,-2.7395801544189453
1758272922331345200,8.69834521484375,0.3478575646877289,-1.651328444480896,-2.9335544109344482
1758272922341303000,8.708302978515626,0.39122527837753296,-1.9221296310424805,-2.8796932697296143
1758272922351260200,8.71826025390625,0.4321759045124054,-2.1283702850341797,-2.8447816371917725
1758272922361217000,8.728217041015625,0.4732791483402252,-1.8201451301574707,-2.699636936187744
1758272922371175200,8.738175048828126,0.5022708177566528,-0.9161643981933594,-2.4261670112609863
1758272922381132000,8.748132080078125,0.5371257662773132,0.10598928481340408,-2.2151870727539062
1758272922391090200,8.758090087890626,0.5924364328384399,0.6510917544364929,-2.293846845626831
1758272922401047300,8.76804736328125,0.5694669485092163,0.6984057426452637,-2.567749500274658
1758272922411005000,8.7780048828125,0.4670073986053467,0.5008593797683716,-2.801637887954712
1758272922420962000,8.787962158203126,0.38533198833465576,0.21124166250228882,-2.8775322437286377
1758272922430919200,8.797919189453125,0.4311242401599884,-0.16467124223709106,-2.8374240398406982
1758272922440877300,8.807877197265626,0.6192075610160828,-0.5451917052268982,-2.7155091762542725
1758272922450834000,8.817833984375,0.8318852186203003,-1.0949525833129883,-2.5851223468780518
1758272922460792000,8.8277919921875,0.9116833806037903,-1.607856273651123,-2.5386266708374023
1758272922470749200,8.837749267578126,0.8099791407585144,-1.8406797647476196,-2.4180400371551514
1758272922480707000,8.84770703125,0.6769757866859436,-1.8214426040649414,-2.2383406162261963
1758272922490664200,8.857664306640626,0.6148639917373657,-1.87937331199646,-2.056478977203369
1758272922500621000,8.86762109375,0.6689168214797974,-1.9095226526260376,-1.8168824911117554
1758272922510579200,8.8775791015625,0.5533398985862732,-1.7587313652038574,-1.5823302268981934
1758272922520536000,8.8875361328125,0.3652442991733551,-1.383920669555664,-1.477620005607605
1758272922530494200,8.897494140625,0.19155718386173248,-1.1158138513565063,-1.363350749015808
1758272922540451000,8.907451171875,0.0526038222014904,-1.0065689086914062,-1.1617424488067627
1758272922550409000,8.917408935546876,-0.11402617394924164,-1.2243709564208984,-0.8695346117019653
1758272922560366000,8.927365966796875,-0.19647496938705444,-1.4800890684127808,-0.6550430655479431
1758272922570323200,8.9373232421875,-0.32686254382133484,-1.6791901588439941,-0.5515326857566833
1758272922580281000,8.947281005859375,-0.12532196938991547,-1.4694414138793945,-0.6720505356788635
1758272922590238200,8.95723828125,-0.32403239607810974,-2.1746695041656494,-0.5845105648040771
1758272922600196000,8.967196044921875,-0.48538079857826233,-2.028221368789673,-0.8721572756767273
1758272922610153200,8.9771533203125,-0.5716520547866821,-1.8223541975021362,-1.2075320482254028
1758272922620110000,8.987110107421875,-0.6141182780265808,-1.8542578220367432,-1.4133549928665161
1758272922630068000,8.99706787109375,-0.599087119102478,-1.8619378805160522,-1.5462532043457031
1758272922640025000,9.007025146484375,-0.5923940539360046,-1.811368465423584,-1.5218114852905273
1758272922649983200,9.016983154296875,-0.6656584143638611,-1.8362948894500732,-1.2429784536361694
1758272922659940400,9.0269404296875,-0.7777205109596252,-1.7399646043777466,-0.6411547064781189
1758272922669898000,9.03689794921875,-0.9454091191291809,-1.3985673189163208,0.05109301209449768
1758272922679855000,9.046855224609375,-1.132286548614502,-0.9363408088684082,0.6135047078132629
1758272922689812200,9.056812255859375,-1.2551413774490356,-0.6096358895301819,1.051869511604309
1758272922699770000,9.06677001953125,-1.2454211711883545,-0.3858286440372467,1.4286082983016968
1758272922709727000,9.07672705078125,-1.1602602005004883,-0.15704847872257233,1.7519168853759766
1758272922719685000,9.08668505859375,-1.0604068040847778,0.012260128743946552,2.001465320587158
1758272922729642200,9.096642333984375,-0.9478096961975098,0.11955436319112778,2.127023935317993
1758272922739600100,9.10660009765625,-0.7904709577560425,0.12032800912857056,2.009390354156494
1758272922749557000,9.116556884765625,-0.5815891027450562,-0.04554085433483124,1.5778385400772095
1758272922759514000,9.12651416015625,-0.34664103388786316,-0.17488925158977509,0.8059375286102295
1758272922769472000,9.136471923828125,-0.1528819501399994,-0.2737407386302948,-0.17762857675552368
1758272922779429000,9.14642919921875,0.06989439576864243,-0.46945804357528687,-0.9970723390579224
1758272922789387300,9.15638720703125,0.1624448299407959,-0.6567626595497131,-1.456821322441101
1758272922799344000,9.16634423828125,0.15797844529151917,-0.8501947522163391,-1.578244924545288
1758272922809301200,9.17630126953125,0.10529499500989914,-0.9258138537406921,-1.4247668981552124
1758272922819259100,9.186259033203125,-0.06241357699036598,-0.7678114175796509,-1.1201825141906738
1758272922829216300,9.19621630859375,-0.2926443815231323,-0.6026155352592468,-0.8483739495277405
1758272922839174100,9.206174072265625,-0.43019184470176697,-0.9253683090209961,-0.7236306667327881
1758272922849131000,9.216131103515625,-0.30680015683174133,-1.67293119430542,-0.6712417602539062
1758272922859089200,9.226089111328125,0.04669426754117012,-2.1132678985595703,-0.5129091143608093
1758272922869046300,9.23604638671875,0.3660813271999359,-1.851284146308899,-0.25235822796821594
1758272922879003100,9.246003173828125,0.578689694404602,-0.8480743169784546,-0.020847225561738014
1758272922888961000,9.2559609375,0.4243355691432953,0.7886810302734375,-0.09212140738964081
1758272922898918100,9.265918212890625,-0.060685183852910995,2.0105388164520264,-0.0726129487156868
1758272922908876300,9.275876220703125,-0.35542041063308716,2.099357843399048,0.16434259712696075
1758272922918833000,9.2858330078125,-0.479388952255249,1.7139729261398315,0.3386600911617279
1758272922928791000,9.295791015625,-0.45256853103637695,1.733161211013794,0.5679497122764587
1758272922938748200,9.305748046875,-0.29743486642837524,1.5091215372085571,0.7702924609184265
1758272922948705300,9.315705322265625,0.04773822799324989,0.7813147306442261,0.672012209892273
1758272922958663200,9.3256630859375,0.3076702058315277,-0.826594889163971,0.22219392657279968
1758272922968620000,9.3356201171875,0.33639904856681824,-1.8582406044006348,-0.12052641063928604
1758272922978578200,9.345578125,0.10422787070274353,-1.1072601079940796,0.38177773356437683
1758272922988535000,9.35553515625,-0.3969627916812897,0.835419237613678,1.6376738548278809
1758272922998492200,9.3654921875,-0.944426953792572,2.693094253540039,2.84867787361145
1758272923008450000,9.375449951171875,-0.9873789548873901,3.8594369888305664,3.464010238647461
1758272923018407200,9.3854072265625,-0.8104294538497925,4.140719413757324,3.4148292541503906
1758272923028365000,9.395364990234375,-0.6282415390014648,3.6031978130340576,3.011211395263672
1758272923038322200,9.405322265625,-0.44974133372306824,2.8521969318389893,2.5998477935791016
1758272923048280300,9.4152802734375,-0.2637733221054077,2.1986613273620605,2.3389205932617188
1758272923058237200,9.4252373046875,-0.15301378071308136,1.9041072130203247,2.0780017375946045
1758272923068194000,9.435194091796875,-0.2461988478899002,1.974259614944458,1.8832594156265259
1758272923078152200,9.445152099609375,-0.4618864059448242,2.280245304107666,1.7526808977127075
1758272923088109300,9.455109375,-0.6976520419120789,2.5020909309387207,1.7027384042739868
1758272923098067000,9.46506689453125,-0.8624919056892395,2.486732006072998,1.686596393585205
1758272923108024000,9.475024169921875,-0.8354842066764832,2.189218521118164,1.6088377237319946
1758272923117981200,9.484981201171875,-0.7144933342933655,1.4902501106262207,1.4345386028289795
1758272923127939300,9.494939208984375,-0.6332898736000061,0.4300594925880432,1.409227967262268
1758272923137896200,9.504896240234375,-0.540958046913147,-0.4438735842704773,1.5841163396835327
1758272923147854300,9.514854248046875,-0.35801538825035095,-0.6561269760131836,1.7445966005325317
1758272923157811200,9.524811279296875,-0.22654606401920319,-0.37703171372413635,1.719022512435913
1758272923167769000,9.53476904296875,-0.18754751980304718,0.26259300112724304,1.54397451877594
1758272923177726200,9.544726318359375,-0.1516081690788269,1.18137526512146,1.3713356256484985
1758272923187683000,9.55468310546875,-0.15787538886070251,2.076838254928589,1.345824956893921
1758272923197641200,9.56464111328125,-0.15756459534168243,2.6041245460510254,1.3967629671096802
1758272923207598300,9.574598388671875,-0.1312568187713623,2.7975308895111084,1.4280391931533813
1758272923217556200,9.58455615234375,-0.09798302501440048,2.7507131099700928,1.383309006690979
1758272923227513300,9.594513427734375,-0.08279448002576828,2.46697735786438,1.2891236543655396
1758272923237470200,9.60447021484375,-0.05126984417438507,1.9421157836914062,1.2506239414215088
1758272923247428000,9.614427978515625,0.06804536283016205,1.2352513074874878,1.2399885654449463
1758272923257385200,9.62438525390625,0.2674729824066162,0.550591766834259,1.1640416383743286
1758272923267343400,9.63434326171875,0.36209750175476074,-0.059305667877197266,1.1368120908737183
1758272923277300200,9.64430029296875,0.3857293128967285,-0.48774251341819763,1.165657877922058
1758272923287258000,9.654258056640625,0.38918477296829224,-0.5924587845802307,1.193907380104065
1758272923297215200,9.66421533203125,0.33993786573410034,-0.4082737863063812,1.275339126586914
1758272923307172400,9.67417236328125,0.28103727102279663,0.05684623867273331,1.3107423782348633
1758272923317130200,9.684130126953125,0.192621648311615,0.6537882089614868,1.3140811920166016
1758272923327087000,9.694087158203125,0.1337095946073532,1.1133975982666016,1.2275028228759766
1758272923337045200,9.704045166015625,0.12215067446231842,1.4211703538894653,1.0502606630325317
1758272923347002400,9.71400244140625,0.1345820426940918,1.5119478702545166,0.8052754402160645
1758272923356959200,9.723959228515625,0.1718902736902237,1.3408435583114624,0.5714640021324158
1758272923366917000,9.733917236328125,0.20328813791275024,0.8072190284729004,0.3154708743095398
1758272923376874200,9.743874267578125,0.23617339134216309,0.2024228721857071,-0.05362940579652786
1758272923386832100,9.75383203125,0.1624102145433426,-0.26259541511535645,-0.2505238354206085
1758272923396789200,9.763789306640625,0.03181571885943413,-0.5900627374649048,-0.24714906513690948
1758272923406747100,9.7737470703125,-0.04981629177927971,-0.722440242767334,-0.017650898545980453
1758272923416704300,9.783704345703125,-0.08058911561965942,-0.6602711081504822,0.16784918308258057
1758272923426661400,9.793661376953125,-0.05856211110949516,-0.48951563239097595,-0.0951550081372261
1758272923436619300,9.803619384765625,0.015019429847598076,-0.2115098536014557,-0.7490212321281433
1758272923446576000,9.813576171875,0.041673146188259125,0.2444227933883667,-1.4176025390625
1758272923456534300,9.8235341796875,-0.13681404292583466,0.5876243710517883,-1.7299145460128784
1758272923466491100,9.8334912109375,-0.2584158480167389,0.5921106934547424,-1.7642419338226318
1758272923476448300,9.8434482421875,-0.2587417960166931,0.09666502475738525,-1.9711815118789673
1758272923486406400,9.853406494140625,-0.10534346848726273,-0.40817445516586304,-2.4466426372528076
1758272923496363300,9.86336328125,0.1515865921974182,-0.7435390949249268,-2.8499603271484375
1758272923506321200,9.873321044921875,0.32566332817077637,-1.1414614915847778,-3.017528772354126
1758272923516278300,9.8832783203125,0.3488099277019501,-1.678235650062561,-3.101407289505005
1758272923526236400,9.893236328125,0.40154051780700684,-2.073944330215454,-3.1883397102355957
1758272923536193000,9.903193115234375,0.5073068737983704,-1.9423437118530273,-3.158489942550659
1758272923546150100,9.913150146484375,0.5344530344009399,-1.0648425817489624,-2.879704713821411
1758272923556108300,9.9231083984375,0.5606265664100647,0.19883400201797485,-2.476201295852661
1758272923566065400,9.9330654296875,0.6400704979896545,1.0046658515930176,-2.302154302597046
1758272923576023000,9.94302294921875,0.5915807485580444,1.064282774925232,-2.4241831302642822
1758272923585980200,9.952980224609375,0.4424791634082794,0.656382143497467,-2.6464195251464844
1758272923595937300,9.962937255859375,0.36084073781967163,0.23718884587287903,-2.7614974975585938
1758272923605895200,9.972895263671875,0.455102801322937,-0.07922611385583878,-2.752202033996582
1758272923615852000,9.98285205078125,0.5886504650115967,-0.5663462281227112,-2.613102674484253
1758272923625810200,9.99281005859375,0.645561933517456,-1.3590073585510254,-2.451470375061035
1758272923635767300,10.002767333984375,0.7035040855407715,-2.0047755241394043,-2.3682477474212646
1758272923645724400,10.012724365234375,0.7263039350509644,-2.4451355934143066,-2.3567252159118652
1758272923655682300,10.022682373046875,0.6968438029289246,-2.665170192718506,-2.3698461055755615
1758272923665639200,10.03263916015625,0.6141752600669861,-2.6615312099456787,-2.3133883476257324
1758272923675597300,10.042597412109375,0.47674471139907837,-2.3823459148406982,-2.1593596935272217
1758272923685554200,10.05255419921875,0.3240686058998108,-1.8875012397766113,-2.0428669452667236
1758272923695512300,10.06251220703125,0.2273751050233841,-1.386006474494934,-1.9034816026687622
1758272923705469200,10.07246923828125,0.1352294534444809,-0.9812190532684326,-1.7165628671646118
1758272923715426300,10.08242626953125,0.15701225399971008,-0.7641626596450806,-1.4824371337890625
1758272923725384200,10.09238427734375,0.4121715724468231,-0.8927446007728577,-1.1784908771514893
1758272923735341300,10.10234130859375,-0.15434536337852478,-1.9570316076278687,-0.4853121042251587
1758272923745299200,10.11229931640625,-0.6069629192352295,-2.2244954109191895,-0.24226723611354828
1758272923755256000,10.122256103515625,-0.6986238360404968,-2.208592653274536,-0.45186811685562134
1758272923765213200,10.132213134765625,-0.7145758867263794,-2.416193723678589,-0.7581210136413574
1758272923775171300,10.14217138671875,-0.6960083842277527,-2.5085742473602295,-1.0754443407058716
1758272923785128200,10.152128173828125,-0.6757243871688843,-2.422403335571289,-1.3273735046386719
1758272923795086000,10.162086181640625,-0.6011540293693542,-2.3072171211242676,-1.4683653116226196
1758272923805043200,10.172043212890625,-0.5143056511878967,-2.206331729888916,-1.4712921380996704
1758272923815000300,10.182000244140625,-0.47740837931632996,-2.0847434997558594,-1.227900505065918
1758272923824958200,10.191958251953125,-0.5470284819602966,-1.9265810251235962,-0.739402711391449
1758272923834915000,10.2019150390625,-0.6819084882736206,-1.5923974514007568,-0.1693328320980072
1758272923844873200,10.211873291015625,-0.7593441605567932,-1.0980782508850098,0.30481529235839844
1758272923854830300,10.221830322265625,-0.7788252234458923,-0.7559688687324524,0.6807002425193787
1758272923864788200,10.231788330078125,-0.8041958212852478,-0.6756452918052673,0.9691634774208069
1758272923874745000,10.2417451171875,-0.8079788088798523,-0.6827759146690369,1.1705389022827148
1758272923884702200,10.2517021484375,-0.830342173576355,-0.6115773916244507,1.3175259828567505
1758272923894660400,10.261660400390625,-0.8560209274291992,-0.44054701924324036,1.4273285865783691
1758272923904617200,10.2716171875,-0.8250941634178162,-0.2064860612154007,1.5132297277450562
1758272923914575400,10.281575439453125,-0.7297820448875427,-0.00965848658233881,1.5287644863128662
1758272923924532200,10.2915322265625,-0.6145030856132507,0.12417947500944138,1.4261102676391602
1758272923934489300,10.3014892578125,-0.4577007293701172,0.16831576824188232,1.1240044832229614
1758272923944447200,10.311447265625,-0.2448401153087616,0.05800284817814827,0.564636766910553
1758272923954404000,10.321404052734374,-0.06267216801643372,-0.2748352885246277,-0.14393825829029083
1758272923964362200,10.3313623046875,0.05577218532562256,-0.6598713994026184,-0.7387161254882812
1758272923974319000,10.341319091796874,0.07383507490158081,-0.8000112175941467,-1.0690114498138428
1758272923984276200,10.351276123046874,0.018558237701654434,-0.6485870480537415,-1.1537036895751953
1758272923994234400,10.361234375,-0.09020605683326721,-0.4954691231250763,-1.103127121925354
1758272924004191200,10.371191162109374,-0.25078481435775757,-0.7536407709121704,-1.0381708145141602
1758272924014149000,10.381149169921875,-0.36467304825782776,-1.163514256477356,-0.926718533039093
1758272924024106200,10.391106201171874,-0.4063429832458496,-1.2928105592727661,-0.781399130821228
1758272924034063000,10.40106298828125,-0.3423834443092346,-1.301631212234497,-0.6491298079490662
1758272924044021200,10.411021240234374,-0.150310680270195,-1.4528310298919678,-0.46050262451171875
1758272924053978000,10.42097802734375,0.22416625916957855,-1.3276995420455933,-0.20559176802635193
1758272924063936300,10.430936279296875,0.6364294290542603,-0.9669530391693115,0.09339785575866699
1758272924073893400,10.440893310546874,0.8425940871238708,0.1169910654425621,0.2895053029060364
1758272924083851300,10.450851318359375,0.4338643550872803,1.3433924913406372,0.13095241785049438
1758272924093808000,10.46080810546875,-0.1891598105430603,1.9430148601531982,-0.04713262617588043
1758272924103765200,10.47076513671875,-0.4751713275909424,1.8909910917282104,-0.02063816599547863
1758272924113723400,10.480723388671874,-0.5937637686729431,1.7509256601333618,0.1507895141839981
1758272924123680000,10.490679931640624,-0.4025586247444153,1.5718320608139038,0.4993237853050232
1758272924133638100,10.50063818359375,0.03921984136104584,0.8451398015022278,0.832579493522644
1758272924143595300,10.51059521484375,0.40872064232826233,-0.18525560200214386,0.7387209534645081
1758272924153552400,10.520552490234374,0.5540637373924255,-1.36277174949646,0.08124265819787979
1758272924163510300,10.53051025390625,0.4080823063850403,-1.3491712808609009,-0.34789299964904785
1758272924173467100,10.540467041015624,0.23320555686950684,0.47468075156211853,0.5602406859397888
1758272924183425300,10.55042529296875,-0.10360362380743027,2.459916830062866,2.0521631240844727
1758272924193382100,10.560382080078124,-0.5614718794822693,3.8795931339263916,3.373941659927368
1758272924203339300,10.57033935546875,-0.7653461694717407,4.217758655548096,4.070832252502441
1758272924213297200,10.580297119140624,-0.7924001216888428,3.6382055282592773,3.9610507488250732
1758272924223254300,10.590254150390624,-0.8150678873062134,2.6849451065063477,3.3589370250701904
1758272924233212200,10.600212158203124,-0.715189516544342,1.833941102027893,2.6360504627227783
1758272924243169300,10.610169189453124,-0.5969419479370117,1.3846781253814697,2.106218099594116
1758272924253126100,10.620126220703124,-0.45635050535202026,1.2627778053283691,1.772221565246582
1758272924263084300,10.630084228515624,-0.25925686955451965,1.1817830801010132,1.529227614402771
1758272924273041200,10.640041259765624,-0.18178018927574158,1.0961318016052246,1.2655898332595825
1758272924282999300,10.649999267578124,-0.3902180790901184,1.117310881614685,1.0830851793289185
1758272924292956200,10.6599560546875,-0.8993231058120728,1.362012505531311,1.11068594455719
1758272924302913300,10.669913330078124,-1.2464678287506104,1.9522813558578491,1.4264037609100342
1758272924312871200,10.67987109375,-1.3060394525527954,2.04197359085083,1.723345398902893
1758272924322828300,10.689828369140624,-1.1335041522979736,1.3208773136138916,1.9358997344970703
1758272924332786400,10.699786376953124,-0.8942047953605652,0.6852476000785828,2.0903635025024414
1758272924342743000,10.709742919921876,-0.7794324159622192,0.9006803035736084,2.101356029510498
1758272924352701200,10.719701171875,-0.8033441305160522,1.6652830839157104,2.0385513305664062
1758272924362658300,10.729658203125,-0.8154045343399048,2.396702766418457,1.9329062700271606
1758272924372615400,10.739615478515624,-0.7502971887588501,2.702176094055176,1.8101106882095337
1758272924382573000,10.749572998046874,-0.563892126083374,2.779744863510132,1.6654876470565796
1758272924392530200,10.7595302734375,-0.32490938901901245,2.6825709342956543,1.520438551902771
1758272924402488300,10.76948828125,-0.1483021229505539,2.3645803928375244,1.4223812818527222
1758272924412445200,10.779445068359376,-0.056596964597702026,2.089702606201172,1.3676328659057617
1758272924422402000,10.789402099609376,0.005761216394603252,1.8356876373291016,1.4030221700668335
1758272924432360200,10.799360107421874,0.019287144765257835,1.6864467859268188,1.3005245923995972
1758272924442317300,10.8093173828125,0.04289207234978676,1.581400752067566,1.0945810079574585
1758272924452275200,10.819275146484374,0.13115668296813965,1.4116878509521484,0.9294751882553101
1758272924462232000,10.829232177734376,0.28953006863594055,1.0300673246383667,0.8887951374053955
1758272924472189200,10.839189208984376,0.5007174015045166,0.446139931678772,0.9670329093933105
1758272924482147300,10.849147216796876,0.6402058005332947,0.015091334469616413,1.0158766508102417
1758272924492104200,10.859104248046876,0.6376526355743408,-0.18213491141796112,1.0610207319259644
1758272924502062300,10.869062255859374,0.5710080862045288,-0.07907404750585556,1.086089015007019
1758272924512019200,10.879019287109376,0.4097749888896942,0.2749423384666443,1.146686315536499
1758272924521976300,10.888976318359376,0.16450558602809906,0.7638358473777771,1.2075986862182617
1758272924531934200,10.898934326171876,-0.05715329945087433,1.2635726928710938,1.1693559885025024
1758272924541891300,10.908891357421876,-0.1471034288406372,1.630048394203186,0.988212525844574
1758272924551849200,10.91884912109375,-0.11985662579536438,1.6957757472991943,0.7469106912612915
1758272924561806000,10.92880615234375,-0.002675145398825407,1.299346923828125,0.5127232074737549
1758272924571763200,10.93876318359375,0.10774483531713486,0.6532595753669739,0.1842997968196869
1758272924581721300,10.948721435546876,0.08928993344306946,0.023810258135199547,-0.10429923981428146
1758272924591678200,10.95867822265625,-0.049458097666502,-0.44031986594200134,-0.11235477030277252
1758272924601636000,10.968635986328126,-0.1931590735912323,-0.7951591610908508,0.007005178835242987
1758272924611593200,10.97859326171875,-0.18201987445354462,-0.8983590602874756,0.06690473109483719
1758272924621550300,10.98855029296875,-0.06114298105239868,-0.726555585861206,-0.13460548222064972
1758272924631508200,10.99850830078125,0.03177790343761444,-0.2926907241344452,-0.6585538983345032
1758272924641465000,11.008465087890626,0.023310914635658264,0.27063894271850586,-1.185834288597107
1758272924651423200,11.01842333984375,-0.11614817380905151,0.6523184180259705,-1.560479998588562
1758272924661380400,11.02838037109375,-0.31951087713241577,0.7697787284851074,-1.739186406135559
1758272924671337200,11.038337158203126,-0.37658828496932983,0.39345303177833557,-1.893257737159729
1758272924681295000,11.048295166015626,-0.2559356391429901,-0.46490588784217834,-2.2974350452423096
1758272924691252200,11.058252197265626,-0.061895858496427536,-1.2523306608200073,-2.7688958644866943
1758272924701210400,11.06821044921875,0.13962127268314362,-1.543367862701416,-2.9354779720306396
1758272924711167200,11.078167236328126,0.2228170931339264,-1.6221133470535278,-2.7873287200927734
1758272924721124000,11.0881240234375,0.33813968300819397,-1.789193868637085,-2.6634621620178223
1758272924731082200,11.098082275390626,0.477335125207901,-1.9024333953857422,-2.6387555599212646
1758272924741039400,11.108039306640626,0.5655632615089417,-1.697367787361145,-2.6287217140197754
1758272924750997200,11.117997314453126,0.6873115301132202,-1.1976693868637085,-2.6371302604675293
1758272924760954000,11.1279541015625,0.8295294046401978,-0.7270088791847229,-2.723677158355713
1758272924770911200,11.1379111328125,0.9150264859199524,-0.5064754486083984,-2.87959623336792
1758272924780869000,11.147869140625,0.8459216952323914,-0.5051345229148865,-2.9573400020599365
1758272924790826200,11.157826171875,0.7183583974838257,-0.43989241123199463,-2.868062734603882
1758272924800784100,11.1677841796875,0.6868902444839478,-0.3111104667186737,-2.7036027908325195
1758272924810741200,11.1777412109375,0.7693629860877991,-0.36377766728401184,-2.5957024097442627
1758272924820699100,11.18769921875,0.8845452666282654,-0.5843944549560547,-2.427882671356201
1758272924830656300,11.19765625,0.9738737940788269,-0.7865153551101685,-2.263598680496216
1758272924840613000,11.207613037109375,0.9940714836120605,-0.9943215250968933,-2.1560397148132324
1758272924850571300,11.2175712890625,0.9699192643165588,-1.2421339750289917,-2.1327333450317383
1758272924860528000,11.227528076171875,0.9580676555633545,-1.4746657609939575,-2.118870496749878
1758272924870486300,11.237486328125,0.9391927719116211,-1.4680027961730957,-2.038587808609009
1758272924880443400,11.247443359375,0.8641387820243835,-1.141611099243164,-1.974696397781372
1758272924890400300,11.257400146484375,0.9341927170753479,-0.7722245454788208,-1.888925552368164
1758272924900358100,11.267358154296875,0.7695779204368591,-0.7077432870864868,-1.5921220779418945
1758272924910315300,11.277315185546875,0.33557453751564026,-0.8628373146057129,-1.1267880201339722
1758272924920273400,11.2872734375,-0.1412719041109085,-1.023935317993164,-0.6802554726600647
1758272924930230000,11.29722998046875,-0.43346062302589417,-1.2037525177001953,-0.46126216650009155
1758272924940187100,11.307187255859375,-0.3925430178642273,-1.230826735496521,-0.470348596572876
1758272924950145300,11.317145263671875,-0.39816975593566895,-1.5698140859603882,-0.5669587850570679
1758272924960102400,11.327102294921875,-0.3488514721393585,-1.9041553735733032,-0.8004066944122314
1758272924970060000,11.33706005859375,-0.36579716205596924,-2.02306866645813,-1.097528100013733
1758272924980017200,11.34701708984375,-0.3941057622432709,-1.966171383857727,-1.391761064529419
1758272924989974300,11.356974365234375,-0.40625056624412537,-1.8215854167938232,-1.6144216060638428
1758272924999932400,11.366932373046875,-0.43394559621810913,-1.6743991374969482,-1.6415730714797974
1758272925009889000,11.376888916015625,-0.5349858999252319,-1.6951364278793335,-1.4220337867736816
1758272925019847200,11.38684716796875,-0.7555683851242065,-1.8851401805877686,-0.8852105140686035
1758272925029804300,11.39680419921875,-0.9973194599151611,-1.8044428825378418,-0.16088555753231049
1758272925039761400,11.406761474609375,-1.1796040534973145,-1.3615485429763794,0.5084049105644226
1758272925049719300,11.41671923828125,-1.2696348428726196,-0.982532262802124,1.003021001815796
1758272925059676200,11.42667626953125,-1.2942999601364136,-0.8173361420631409,1.3979276418685913
1758272925069634300,11.43663427734375,-1.2876276969909668,-0.674773097038269,1.7452841997146606
1758272925079591200,11.446591064453125,-1.268999457359314,-0.5658876299858093,2.0648789405822754
1758272925089548000,11.456548095703125,-1.1927340030670166,-0.5116627216339111,2.2641241550445557
1758272925099506200,11.466506103515625,-1.0397305488586426,-0.46300625801086426,2.1930789947509766
1758272925109463300,11.47646337890625,-0.8553026914596558,-0.40688440203666687,1.787079095840454
1758272925119421400,11.48642138671875,-0.6051807403564453,-0.35752272605895996,1.044553518295288
1758272925129378600,11.496378662109375,-0.3013840913772583,-0.32271119952201843,0.12339890003204346
1758272925139335400,11.50633544921875,-0.04789428785443306,-0.22740332782268524,-0.7062114477157593
1758272925149293300,11.516293212890625,0.08749682456254959,-0.2011464238166809,-1.202208399772644
1758272925159250400,11.52625048828125,0.03501550853252411,-0.29436638951301575,-1.4373801946640015
1758272925169208600,11.53620849609375,-0.08093639463186264,-0.46643775701522827,-1.3755348920822144
1758272925179165400,11.54616552734375,-0.19841402769088745,-0.6111254096031189,-1.0381592512130737
1758272925189123300,11.556123291015625,-0.4236237108707428,-0.5873151421546936,-0.643173098564148
1758272925199080400,11.56608056640625,-0.6953439116477966,-0.8430662751197815,-0.43811795115470886
1758272925209037600,11.57603759765625,-0.6360486149787903,-1.5513081550598145,-0.46373650431632996
1758272925218995500,11.585995361328125,-0.20047903060913086,-2.0314276218414307,-0.5277714133262634
1758272925228952300,11.595952392578125,0.28720539808273315,-1.782966136932373,-0.37702104449272156
1758272925238910500,11.605910400390625,0.6139348149299622,-0.8829076886177063,-0.03473427891731262
1758272925248867600,11.61586767578125,0.6888508200645447,0.5977920293807983,0.29453203082084656
1758272925258824700,11.62582470703125,0.30151110887527466,2.179884195327759,0.30726832151412964
1758272925268782300,11.6357822265625,-0.13442331552505493,2.831968307495117,0.15849722921848297
1758272925278739500,11.645739501953125,-0.285495400428772,1.9549157619476318,-0.004521248396486044
1758272925288697600,11.655697509765625,-0.3939582109451294,1.0828564167022705,-0.20423568785190582
1758272925298654500,11.665654541015625,-0.39001327753067017,1.2180920839309692,-0.048878058791160583
1758272925308611300,11.675611328125,-0.04680265858769417,1.1101930141448975,0.3814070224761963
1758272925318569500,11.685569580078125,0.3482687771320343,0.32894831895828247,0.6201642155647278
1758272925328526600,11.695526611328125,0.4757545590400696,-0.4453313946723938,0.537143349647522
1758272925338484500,11.705484375,0.36033394932746887,-0.6449475884437561,0.48757311701774597
1758272925348441300,11.71544140625,0.14445704221725464,0.24612268805503845,0.9949215650558472
1758272925358398500,11.7253984375,-0.2100568264722824,1.5779842138290405,2.1292564868927
1758272925368356400,11.7353564453125,-0.6277041435241699,2.693772077560425,3.1417675018310547
1758272925378313500,11.7453134765625,-1.04611074924469,2.982959270477295,3.724792242050171
1758272925388271600,11.755271728515625,-1.143905758857727,2.9116296768188477,3.6754472255706787
1758272925398228500,11.765228515625,-1.1994296312332153,2.4359328746795654,3.010050058364868
1758272925408185600,11.775185546875,-1.0792433023452759,1.9277077913284302,2.261727809906006
1758272925418143500,11.7851435546875,-0.8219457864761353,1.7339495420455933,1.6760119199752808
1758272925428100600,11.7951005859375,-0.7133010625839233,1.4965481758117676,1.4523221254348755
1758272925438058500,11.80505859375,-0.8021441102027893,1.3174961805343628,1.4018511772155762
1758272925448015400,11.815015380859375,-0.9881552457809448,1.5033187866210938,1.4915883541107178
1758272925457972500,11.824972412109375,-1.0834975242614746,1.7733198404312134,1.6791653633117676
1758272925467930600,11.8349306640625,-1.022964596748352,1.7998106479644775,1.7777223587036133
1758272925477887500,11.844887451171875,-0.8628993630409241,1.612626314163208,1.6565946340560913
1758272925487845400,11.854845458984375,-0.7416629195213318,1.4387484788894653,1.521267056465149
1758272925497802500,11.864802490234375,-0.6089147329330444,1.6879730224609375,1.6205189228057861
1758272925507760600,11.8747607421875,-0.5622532367706299,2.2942566871643066,1.887275218963623
1758272925517717200,11.88471728515625,-0.526306688785553,2.885812997817993,2.1935486793518066
1758272925527674400,11.89467431640625,-0.3784295916557312,3.065797805786133,2.4208664894104004
1758272925537632500,11.904632568359375,-0.12404684722423553,3.0013413429260254,2.34342622756958
1758272925547589600,11.914589599609375,0.11927153170108795,2.8744938373565674,2.020292043685913
1758272925557547500,11.924547607421875,0.19288316369056702,2.7014853954315186,1.6343291997909546
1758272925567504400,11.93450439453125,0.15254665911197662,2.5288987159729004,1.3520195484161377
1758272925577461500,11.94446142578125,0.14173369109630585,2.2162768840789795,1.2331708669662476
1758272925587419400,11.95441943359375,0.23062123358249664,1.7524443864822388,1.1811199188232422
1758272925597376500,11.96437646484375,0.3762945532798767,1.174033761024475,1.1149741411209106
1758272925607334400,11.97433447265625,0.49337002635002136,0.4500345289707184,1.035951018333435
1758272925617291500,11.98429150390625,0.5719306468963623,-0.48185932636260986,1.1486974954605103
1758272925627248600,11.99424853515625,0.6329969167709351,-1.1145457029342651,1.3170758485794067
1758272925637206500,12.00420654296875,0.6359599232673645,-1.3681635856628418,1.4236178398132324
1758272925647163400,12.014163330078125,0.530636191368103,-1.2842239141464233,1.4700579643249512
1758272925657121500,12.02412158203125,0.33708295226097107,-0.8072618842124939,1.5193978548049927
1758272925667078400,12.034078369140625,0.10231784731149673,-0.025362614542245865,1.5080373287200928
1758272925677036500,12.04403662109375,-0.08847686648368835,0.9239541888237,1.3425815105438232
1758272925686993400,12.053993408203125,-0.12218157202005386,1.7840313911437988,1.0015698671340942
1758272925696950500,12.063950439453125,0.015078285709023476,2.2820284366607666,0.6075168251991272
1758272925706908400,12.073908447265625,0.151993528008461,2.3962254524230957,0.29228484630584717
1758272925716865500,12.083865478515625,0.17142581939697266,2.266021251678467,0.11431992053985596
1758272925726823700,12.09382373046875,0.12458480894565582,1.774255394935608,0.04848524555563927
1758272925736780300,12.1037802734375,0.15370780229568481,1.1101800203323364,-0.20267614722251892
1758272925746737400,12.1137373046875,0.09462051838636398,0.28424715995788574,-0.4126538634300232
1758272925756695600,12.123695556640625,-0.06795481592416763,-0.5410882830619812,-0.3582010269165039
1758272925766652700,12.133652587890625,-0.19080084562301636,-1.053819179534912,-0.17612789571285248
1758272925776610300,12.1436103515625,-0.20333021879196167,-1.321071982383728,-0.1531200408935547
1758272925786567400,12.1535673828125,-0.08528453856706619,-1.1551003456115723,-0.5375736951828003
1758272925796524500,12.163524658203125,-0.041185520589351654,-0.38260143995285034,-1.1172181367874146
1758272925806482400,12.173482421875,-0.10945325344800949,0.421924352645874,-1.603209137916565
1758272925816439300,12.183439208984375,-0.2264816015958786,0.6459254622459412,-1.9835582971572876
1758272925826397400,12.1933974609375,-0.3147648572921753,0.4118192493915558,-2.1984193325042725
1758272925836354600,12.2033544921875,-0.3188541531562805,-0.16012895107269287,-2.437267780303955
1758272925846312400,12.2133125,-0.18737202882766724,-0.916260838508606,-2.7639684677124023
1758272925856269300,12.223269287109375,0.09955215454101562,-1.4025018215179443,-2.8894834518432617
1758272925866226400,12.233226318359375,0.1771087348461151,-1.8122323751449585,-2.8871989250183105
1758272925876184600,12.2431845703125,0.17777958512306213,-2.135406732559204,-2.875826358795166
1758272925886141400,12.253141357421875,0.19100403785705566,-2.054264545440674,-2.7423641681671143
1758272925896099600,12.263099609375,0.2604358494281769,-1.4441152811050415,-2.438844680786133
1758272925906056400,12.273056396484375,0.4771793484687805,-0.7220279574394226,-2.330034017562866
1758272925916013600,12.283013671875,0.697036623954773,-0.30287331342697144,-2.550201177597046
1758272925925971500,12.292971435546875,0.6642448306083679,-0.1682278960943222,-2.902449607849121
1758272925935928600,12.302928466796875,0.4146674871444702,-0.06592628359794617,-3.123478889465332
1758272925945886500,12.312886474609375,0.19233135879039764,-0.06948640197515488,-3.156466007232666
1758272925955843300,12.32284326171875,0.17962488532066345,-0.11752716451883316,-3.0068576335906982
1758272925965800400,12.332800537109375,0.3003891110420227,-0.3940082788467407,-2.730828285217285
1758272925975758600,12.342758544921875,0.4216763973236084,-1.0486963987350464,-2.404398202896118
1758272925985715500,12.352715576171875,0.4765058159828186,-1.642273187637329,-2.2359440326690674
1758272925995673300,12.36267333984375,0.41216838359832764,-2.2134158611297607,-2.145139694213867
1758272926005630500,12.37263037109375,0.34869620203971863,-2.5952155590057373,-2.200554609298706
1758272926015588600,12.382588623046875,0.3841516673564911,-2.602912664413452,-2.250977039337158
1758272926025545500,12.39254541015625,0.5663518309593201,-2.1087450981140137,-2.2441811561584473
1758272926035502300,12.40250244140625,0.7010998129844666,-1.6994904279708862,-2.1636765003204346
1758272926045460500,12.41246044921875,0.6960275173187256,-1.6413853168487549,-1.968890905380249
1758272926055417600,12.42241748046875,0.01673370599746704,-1.998550534248352,-1.2265201807022095
1758272926065375500,12.43237548828125,-0.3396177589893341,-1.4139765501022339,-0.8310564756393433
1758272926075332400,12.442332275390624,-0.2614497244358063,-0.8564760684967041,-0.7772251963615417
1758272926085289500,12.45228955078125,-0.2801320552825928,-1.118536114692688,-0.6855821013450623
1758272926095247600,12.46224755859375,-0.3273765444755554,-1.8405028581619263,-0.5747940540313721
1758272926105204500,12.47220458984375,-0.4243747293949127,-2.4386839866638184,-0.657807469367981
1758272926115161900,12.482161865234374,-0.5392892956733704,-2.550201654434204,-0.866642951965332
