time,seconds_elapsed,z,y,x
1758274236816600800,0.056600830078125,8.819490727996826,4.369118754577636,0.47165772705078124
1758274236826558700,0.066558837890625,8.73374838104248,3.7606922576904296,0.8411129707336426
1758274236836518000,0.076517822265625,8.881590333557128,3.6825814285278318,1.0500070655822753
1758274236846475800,0.086475830078125,8.858097229766845,3.905840733337402,1.06616792678833
1758274236856434000,0.096433837890625,8.673145151519774,4.018068936157226,0.8976759849548339
1758274236866391800,0.106391845703125,8.566453540039062,4.071639198303222,0.9172785110473632
1758274236876351000,0.11635107421875,8.61927561416626,3.9987656852722164,1.0012252067565917
1758274236886308900,0.126308837890625,9.547477670288085,3.714454238128662,0.7573159126281738
1758274236896267000,0.13626708984375,9.69771382446289,4.238485126495361,1.3688847991943358
1758274236906225000,0.146224853515625,7.773224602508544,4.431667272949219,0.9916484001159668
1758274236916182800,0.156182861328125,5.915024839019775,4.102763819885253,0.493504817199707
1758274236926142000,0.166141845703125,4.938938749694824,2.6726772407531736,1.2764087600708007
1758274236936099800,0.176099853515625,5.9403135940551755,3.360710942840576,1.0941501586914062
1758274236946057700,0.1860576171875,6.395062271881103,4.458003491210937,1.5171756645202636
1758274236956015900,0.196015869140625,6.858938843536377,4.778676876068115,2.4443302574157713
1758274236965974800,0.205974853515625,7.344063954925537,4.548085328674316,3.1440356925964354
1758274236975933000,0.215932861328125,8.206275827789305,4.352359342956543,3.648464054870605
1758274236985890800,0.225890869140625,7.928847710418701,3.5392286041259764,3.818452372741699
1758274236995849000,0.235848876953125,7.0932713310241695,2.085349645996094,3.183390382385254
1758274237005806800,0.245806884765625,7.051073526763916,0.7327753456115722,2.3108535148620604
1758274237015766000,0.25576611328125,6.902184111022949,1.3670891479492187,2.3196821334838864
1758274237025724000,0.265723876953125,7.020098542785644,2.8226141197204586,2.761412339782715
1758274237035682000,0.27568212890625,7.4314523155212395,3.027916912078857,3.001281418609619
1758274237045639700,0.2856396484375,7.665784803009033,2.2863129478454587,2.986168020629883
1758274237055597800,0.295597900390625,7.347655257415771,1.3973159439086913,2.5233389122009275
1758274237065556700,0.305556640625,7.1303814567565915,1.196502279663086,2.3136966293334957
1758274237075515000,0.315514892578125,7.091774954986572,1.4016554344177246,2.245611519622803
1758274237085472800,0.32547265625,6.9141551193237305,1.4803648139953614,2.0317793838500977
1758274237095431000,0.335430908203125,6.32652824935913,1.4640543151855467,1.7803882095336914
1758274237105389800,0.345389892578125,5.604676448822021,1.3962684806823729,1.4643535903930662
1758274237115348000,0.355347900390625,5.335478399658203,1.0794856735229492,1.1563994018554686
1758274237125305900,0.365305908203125,5.578489868164062,0.7122749938964843,0.7565677246093749
1758274237135264000,0.375263916015625,5.828983216857909,0.3263596138000488,0.29358897857666016
1758274237145222000,0.385221923828125,6.087108083343505,-0.3167828071594238,-0.026485855865478514
1758274237155181000,0.39518115234375,6.2772974777221675,-0.6229413444519043,0.08783727340698241
1758274237165139000,0.405138916015625,6.138882694244384,-0.5514145698547362,0.6196493171691894
1758274237175096800,0.415096923828125,6.05239215927124,-0.4670189613342285,1.483806478881836
1758274237185054700,0.4250546875,6.083367143249512,-0.6756137809753417,2.7780221138000485
1758274237195012900,0.435012939453125,5.71361262435913,-0.5925649108886718,3.59429524230957
1758274237204971800,0.4449716796875,5.459228697967529,-0.31498715591430665,3.780743696594238
1758274237214930000,0.454929931640625,5.960813945770263,-0.5069722015380859,3.442263436889648
1758274237224887800,0.4648876953125,6.899640271759033,-1.2144587921142578,3.328688495635986
1758274237234846000,0.474845947265625,8.087762845611572,-1.8312649948120117,3.873219735717773
1758274237244804900,0.484804931640625,9.083002548217772,-2.051232272338867,4.9832314804077145
1758274237254763000,0.494762939453125,9.477447271728515,-1.2859855667114257,6.26338118057251
1758274237264721000,0.504720947265625,9.183110105133055,-0.21428104858398436,7.174374912261962
1758274237274679000,0.514678955078125,8.671648775482177,0.165349552154541,7.868094843292236
1758274237284637000,0.524636962890625,8.252064934539794,0.2507926239013672,8.38883370437622
1758274237294595800,0.534595947265625,8.397512685394286,-0.02319382858276367,8.577825997924805
1758274237304554000,0.544553955078125,8.877849393463134,-0.2745850028991699,8.806023343658447
1758274237314512000,0.554511962890625,9.190591985321044,-0.025737667846679687,9.195380388641357
1758274237324469800,0.5644697265625,9.316437210083008,-0.07257423782348632,9.522188915252684
1758274237334428700,0.5744287109375,9.152434396362304,-0.22101474075317382,9.514856672668456
1758274237344386800,0.58438671875,8.717437882232666,-0.2769792045593262,9.559149403381348
1758274237354345000,0.594344970703125,8.582464763641356,-0.2796726814270019,10.12492918319702
1758274237364302800,0.604302734375,8.699930282592772,0.24630349578857422,11.247360848999023
1758274237374261000,0.614260986328125,8.486247784423828,0.8586205703735351,12.550105827331542
1758274237384220000,0.624219970703125,8.442403966522216,1.1059715293884276,13.280038058471678
1758274237394177800,0.634177734375,8.120533480834961,1.3223475044250488,13.322235862731933
1758274237404136000,0.644135986328125,7.652317418670654,1.4538789581298828,13.504494464111326
1758274237414094000,0.654093994140625,7.482927651214599,1.2683283294677734,13.494319107055663
1758274237424053000,0.664052978515625,7.6096707015991205,0.9822212310791015,13.7906015625
1758274237434011000,0.674010986328125,7.630919241333007,0.9427169036865234,14.112172772979736
1758274237443968800,0.68396875,6.9630866157531734,1.1354501373291015,14.357428805541991
1758274237453927000,0.693927001953125,6.169708040618896,1.285087741088867,14.391995092010497
1758274237463884800,0.703884765625,5.483320352172851,0.9488520454406738,13.692888207244872
1758274237473843700,0.71384375,4.910058692169189,0.49949032135009763,12.707973499298095
1758274237483801900,0.7238017578125,4.67318236541748,-0.058657940673828124,11.955745265197754
1758274237493759700,0.733759765625,4.3640310760498044,-0.3229179489135742,11.906215218353271
1758274237503718000,0.7437177734375,4.186560877990723,-0.11282675323486327,12.39223815536499
1758274237513676800,0.7536767578125,3.8187516479492185,-0.05102642288208008,12.376226931762695
1758274237523635000,0.763635009765625,3.374477602386474,-0.23552958831787107,11.89409457244873
1758274237533592800,0.7735927734375,2.8802245971679685,-0.776319888305664,10.790816519927978
1758274237543551000,0.783551025390625,2.2176292877197263,-1.4890437950134277,9.399785355377198
1758274237553508900,0.7935087890625,1.3628992950439451,-1.882740330505371,7.905354606628418
1758274237563468000,0.803468017578125,0.8084919731140137,-2.320131046295166,7.106888352966308
1758274237573425700,0.81342578125,0.8698433906555175,-2.4660277099609376,7.098059734344482
1758274237583383800,0.8233837890625,1.1936591651916504,-2.203114440155029,7.628375402069091
1758274237593342000,0.833342041015625,1.4694412689208984,-1.9487305137634277,8.546402101135254
1758274237603300900,0.84330078125,1.5994763465881348,-1.6941969497680662,9.386467608642578
1758274237613258800,0.8532587890625,1.617133583831787,-1.4821604652404785,9.664344638824462
1758274237623217000,0.863216796875,1.7688661140441893,-1.5165771141052244,9.351003496551513
1758274237633174800,0.8731748046875,2.071134073638916,-1.7127520126342772,9.175777862548827
1758274237643133000,0.8831328125,2.3994389762878416,-1.7281646858215332,9.034819239807128
1758274237653091000,0.893091064453125,2.5239374626159665,-1.7220295440673827,8.762478800964354
1758274237663049000,0.903049072265625,2.433107437133789,-1.7637784355163573,8.546102825927735
1758274237673006800,0.9130068359375,2.235136887359619,-1.8842367065429686,8.302792082214355
1758274237682964700,0.92296484375,1.4796166259765624,-2.1939865463256836,8.125321884155273
1758274237692924000,0.932923828125,-1.405845287322998,-2.59217220993042,7.663240963745117
1758274237702881800,0.9428818359375,-1.4049474617004394,-2.337937921142578,7.3943421897888175
1758274237712840000,0.95283984375,-0.4565443290710449,-2.2774843292236326,7.879616938781738
1758274237722797800,0.9627978515625,0.7555202613830566,-2.0600608909606932,8.110956674194336
1758274237732756000,0.972755859375,1.5381249290466308,-2.294991928863525,8.137442530059815
1758274237742715000,0.98271484375,2.13877027053833,-3.6363434089660642,7.784597060394287
1758274237752673000,0.992673095703125,-2.094776815032959,-11.895890223693847,11.482591162109374
1758274237762631000,1.002630859375,-1.9800047729492187,-9.828197814941406,2.927958992767334
1758274237772589000,1.012589111328125,4.630984561157226,-8.246677980804442,-4.444685744476318
1758274237782548000,1.0225478515625,10.766575228118896,-8.162880922698974,4.1006688934326165
1758274237792505900,1.032505859375,12.33372985229492,-2.7257985900878903,18.14999387283325
1758274237802463700,1.042463623046875,4.639364266967773,-2.8009166671752928,20.366874972534177
1758274237812422000,1.052421875,-4.230105420684814,-3.422511273193359,11.988665538024902
1758274237822379800,1.0623798828125,-4.230853608703613,-4.005349739837646,6.083516780853271
1758274237832338700,1.072338623046875,-2.8911481422424314,-6.9539587219238275,3.893869725036621
1758274237842296800,1.082296875,-1.5613187576293945,-7.8535799957275385,3.1961095787048337
1758274237852255000,1.0922548828125,-0.2694973243713379,-7.2252516975402825,4.129997863769531
1758274237862212900,1.102212890625,1.5560814414978026,-6.956801836395263,4.8329953262329095
1758274237872171800,1.112171875,1.7525556152343749,-6.37141953048706,4.913649994659424
1758274237882130000,1.1221298828125,0.18136077575683593,-5.442618923950195,4.4385506027221675
1758274237892088000,1.132088134765625,1.0085574493408203,-5.066429988098144,4.258985478210449
1758274237902046000,1.1420458984375,2.7295395301818846,-4.837035541534424,5.065831437683105
1758274237912004900,1.1520048828125,3.3357214630126952,-4.816235914611816,6.142623634338379
1758274237921963000,1.161962890625,2.1926398078918456,-4.76880079421997,6.574777033996582
1758274237931920600,1.171920654296875,2.230647759246826,-5.5440732192993165,5.972485678863525
1758274237941878800,1.181878662109375,2.677764919281006,-10.635043774414061,4.083161293792724
1758274237951837000,1.1918369140625,-1.4603133750915527,-13.032986374664306,4.836436991119385
1758274237961795800,1.2017958984375,-1.0052654220581054,-8.13310303955078,5.136161111450195
1758274237971753700,1.211753662109375,3.3981203437805174,-4.676025479888915,3.67734411239624
1758274237981712000,1.2217119140625,-2.466177347564697,-5.337722963714599,0.44966099929809566
1758274237991670000,1.231669921875,-1.5227122558593749,-10.63609123764038,-1.0223241088867188
1758274238001629000,1.24162890625,0.3802291511535644,-13.053337088775635,-2.281225269317627
1758274238011586800,1.2515869140625,1.3465887962341307,-13.546692268371581,-1.5925930168151854
1758274238021545000,1.261544921875,0.22954408416748046,-11.745504431915283,1.0280103378295897
1758274238031502800,1.2715029296875,-0.11731588134765625,-8.096292189025878,1.8676269325256347
1758274238041460700,1.281460693359375,1.1927613395690917,-4.199280074310303,1.9297265380859374
1758274238051420000,1.291419921875,1.387290224456787,-2.7823616043090817,2.2439655059814454
1758274238061377800,1.301377685546875,1.66636435546875,-6.993163774108886,4.476708191680908
1758274238071335700,1.311335693359375,0.6693290016174316,-21.046528968811035,12.916269043731688
1758274238081293800,1.3212939453125,-3.4281975021362303,-33.51223918762207,20.731392175292967
1758274238091252700,1.331252685546875,-2.73881706161499,-20.432266605377198,19.720739799499512
1758274238101211000,1.3412109375,0.9048585899353027,-5.5090580200195305,14.662539879608154
1758274238111168800,1.351168701171875,0.6329670639038085,-10.2019925491333,6.166715288543701
1758274238121127000,1.361126953125,0.05401917495727539,-11.241973895263671,5.231180989837646
1758274238131085800,1.3710859375,0.6200982299804687,-10.949881292724609,5.3481975959777825
1758274238141044000,1.3810439453125,0.8879495407104492,-10.025719451904296,4.881328272247314
1758274238151001900,1.391001953125,0.5961562133789062,-8.514678929138183,4.420444452667236
1758274238160960000,1.4009599609375,0.4408323806762695,-8.641122704315185,3.423259461212158
1758274238170917600,1.410917724609375,-0.27293898925781246,-8.342446047210693,4.125808010864257
1758274238180877000,1.420876953125,-0.596305850982666,-7.946654585266113,4.655225852966308
1758274238190834700,1.430834716796875,1.3236942428588867,-10.204686026000976,4.726303714752197
1758274238200792800,1.440792724609375,0.47120881423950195,-7.60368519744873,3.3069910430908203
1758274238210750700,1.450750732421875,-1.0275614250183105,-7.113472407531738,4.425232855987549
1758274238220710000,1.4607099609375,-0.3458125022888183,-6.315155791473388,4.39889663772583
1758274238230667800,1.470667724609375,0.9147346717834473,-8.227524367523193,3.718344815826416
1758274238240626000,1.4806259765625,1.077540384674072,-10.233566083526611,4.1280525749206545
1758274238250583800,1.490583740234375,0.2376245147705078,-9.642647186279296,4.383483964538574
1758274238260543000,1.50054296875,0.4339490509033203,-8.974664923095702,4.620360291290283
1758274238270500900,1.5105009765625,0.9656114570617675,-9.019556204223631,5.144391179656982
1758274238280459000,1.520458984375,0.40402153015136716,-8.795249436187744,4.853645315551757
1758274238290417000,1.5304169921875,0.04159925384521484,-8.034940771484374,5.041440508270264
1758274238300376000,1.5403759765625,-0.1005564697265625,-7.839663698577881,5.025728559875488
1758274238310334000,1.550333984375,0.16130933685302734,-8.213757707977294,4.845115972137451
1758274238320291800,1.560291748046875,0.5141548065185546,-8.857199404144287,4.987122058105468
1758274238330249700,1.570249755859375,0.3242646873474121,-8.47876590423584,5.489156218719482
1758274238340207900,1.580207763671875,0.48018707046508785,-8.418312312316894,5.594950004577637
1758274238350166800,1.590166748046875,0.5161000953674316,-8.552836518096923,5.040692320251464
1758274238360125000,1.600125,0.17387889556884764,-8.60670605545044,4.578012849426269
1758274238370082800,1.610082763671875,0.06688800888061523,-8.732401642608641,4.506635712432861
1758274238380041000,1.620041015625,-0.1452981132507324,-8.81051247177124,4.584896179199219
1758274238389999900,1.629999755859375,-0.16909049224853515,-8.865728747558594,4.842272857666015
1758274238399958000,1.6399580078125,-0.013916297149658202,-8.830713548278808,5.002534731292724
1758274238409916000,1.649916015625,0.10714052429199218,-8.72716432647705,4.919186585998535
1758274238419874000,1.6598740234375,0.06449380722045898,-8.47801771621704,4.978592714691162
1758274238429833000,1.6698330078125,0.11596914291381835,-8.297554766082763,4.824465982818603
1758274238439790800,1.679790771484375,0.28356325912475583,-8.084620455932617,4.471021962738037
1758274238449748700,1.689748779296875,0.3371335212707519,-7.992742967224121,4.2886137237548825
1758274238459707000,1.699706787109375,0.08798691101074219,-8.219593574523925,4.169502191162109
1758274238469665800,1.709665771484375,0.13871405868530273,-8.068160319519043,4.827159459686279
1758274238479623700,1.719623779296875,0.08903437423706054,-7.910891197967529,5.098452435302734
1758274238489581800,1.729581787109375,-0.2154781494140625,-7.870339407348633,4.810699323272705
1758274238499540000,1.7395400390625,-0.5984007774353027,-7.984213623809814,4.698321482849121
1758274238509497900,1.749497802734375,-0.697161595916748,-8.110358123779296,4.853046765136718
1758274238519456800,1.759456787109375,-0.6693290016174316,-8.091803060913085,4.989067346954346
1758274238529415000,1.769414794921875,-0.6404489440917969,-7.855824559783935,5.12658430480957
1758274238539372800,1.779372802734375,-0.6851905876159667,-7.774571340942383,5.210231725311279
1758274238549331000,1.7893310546875,-0.7438485282897949,-7.748235122680663,5.377975479125976
1758274238559289900,1.799289794921875,-0.821660082244873,-7.717409776306152,5.493944622039795
1758274238569248000,1.809248046875,-0.7013514488220215,-7.651419593048095,5.510853671264648
1758274238579205600,1.81920556640625,-0.35838206100463865,-7.95518392868042,5.616647457122802
1758274238589163800,1.829163818359375,-0.04548983154296875,-8.434922086334227,5.830928505706787
1758274238599122700,1.839122802734375,0.32396541213989255,-8.607304605865478,5.823895538330078
1758274238609080800,1.849080810546875,0.4777928688049316,-8.873210627746582,5.814318731689453
1758274238619038700,1.859038818359375,0.4468178848266601,-9.205705383300781,5.700743790435791
1758274238628996900,1.868996826171875,0.2603694305419922,-9.63441711807251,5.707178207397461
1758274238638955800,1.878955810546875,0.0809539436340332,-10.089764346313476,5.832275244140624
1758274238648914000,1.888913818359375,-0.15502455749511718,-10.574590182495117,6.109254448699951
1758274238658872600,1.89887255859375,-0.3407248237609863,-11.141866338348388,6.535571981811523
1758274238668830700,1.908830810546875,-0.49470191802978514,-11.622951234436034,6.958597487640381
1758274238678789600,1.91878955078125,-0.9515455223083495,-12.026673489379881,7.409006674957275
1758274238688747500,1.92874755859375,-1.4472949035644531,-12.353332378387451,7.842506813049316
1758274238698705700,1.93870556640625,-1.9041385078430175,-12.675651776885985,8.1969982963562
1758274238708663800,1.948663818359375,-2.1344307800292968,-13.25998661956787,8.722525560760497
1758274238718622700,1.958622802734375,-1.5064017570495605,-13.718176962280273,9.574412438964844
1758274238728580600,1.96858056640625,-0.4553472282409668,-13.430274212646484,10.26035121459961
1758274238738538800,1.978538818359375,0.004489128112792969,-12.600084786987304,10.618284362792968
1758274238748497000,1.988496826171875,-0.4688146125793457,-11.932850711822509,10.858602354431152
1758274238758455800,1.998455810546875,-2.035969236755371,-11.85593698348999,10.20318964996338
1758274238768413400,2.008413330078125,-3.847182792663574,-11.844564525604248,8.545205000305176
1758274238778371600,2.01837158203125,-4.550180255126953,-11.419144818115234,6.49307490234375
1758274238788329700,2.028329833984375,-4.032583783721924,-10.69400099029541,5.154865811920166
1758274238798288600,2.03828857421875,-2.6013001037597654,-9.865158303070068,4.841375032043457
1758274238808246500,2.04824658203125,-1.1909656883239745,-9.517699787139891,4.774935935974121
1758274238818204700,2.05820458984375,-0.6555623420715332,-9.569025485229492,4.913799632263183
1758274238828162600,2.06816259765625,-0.21054010848999022,-9.77492682800293,5.046528186798096
1758274238838121700,2.078121826171875,-0.3933972602844238,-10.569053591156004,5.491700057983398
1758274238848079600,2.08807958984375,-1.0645219131469725,-11.475558194732665,5.747430722808837
1758274238858037800,2.098037841796875,-1.5108908851623535,-12.14324118270874,5.542277568054199
1758274238867995600,2.10799560546875,-1.0932523330688475,-12.426056253814696,5.501127227020263
1758274238877954800,2.117954833984375,0.17776947326660156,-12.133514738464354,5.15202269744873
1758274238887912700,2.12791259765625,0.9796773918151855,-11.767950072479247,4.562749813842773
1758274238897870600,2.13787060546875,1.10447515335083,-11.417648442077637,4.80097287902832
1758274238907828500,2.147828369140625,0.5810428153991699,-11.033528713226318,5.19691397857666
1758274238917787600,2.15778759765625,0.23508067550659179,-10.846032795715331,4.887613051605224
1758274238927745500,2.16774560546875,-0.15068506698608397,-10.570250691986084,4.125059822845459
1758274238937703700,2.17770361328125,-0.7389104873657226,-10.006715476226805,3.712508949279785
1758274238947661600,2.18766162109375,-1.0917559570312498,-9.360281027984618,3.3969232429504395
1758274238957620700,2.197620849609375,-0.8303390632629394,-8.88697728729248,2.85373874130249
1758274238967578600,2.20757861328125,-1.5046061058044433,-8.4015529006958,2.9408278266906738
1758274238977536800,2.217536865234375,-1.4407108489990235,-8.182034535980224,3.2604537483215332
1758274238987494700,2.22749462890625,-0.39579146194458004,-8.666411459350586,2.402431728363037
1758274238997453600,2.23745361328125,0.06449380722045898,-8.825925144958495,2.242768405151367
1758274239007411700,2.24741162109375,-0.0896329246520996,-8.307580485534668,3.189076611328125
1758274239017369900,2.257369873046875,-1.40464818649292,-7.453299405670165,3.596390168762207
1758274239027327700,2.26732763671875,-1.3609540061950682,-7.091625317382812,2.473210314941406
1758274239037286700,2.27728662109375,0.11162965240478515,-6.456862602233886,2.5745149726867673
1758274239047244500,2.28724462890625,-0.018255787658691406,-5.715707550811767,4.0924388252258295
1758274239057202700,2.29720263671875,-0.5485714553833008,-5.26065959777832,7.150881808471679
1758274239067160600,2.30716064453125,-1.6919523857116698,-6.263979730987549,7.228394087219238
1758274239077119500,2.317119384765625,-1.1451765815734862,-7.09297205581665,6.283731894683838
1758274239087077600,2.32707763671875,-0.25258827514648435,-7.095964807891845,4.994304663085937
1758274239097035500,2.337035400390625,-0.1227028350830078,-6.617423751068115,3.6456209403991697
1758274239106993700,2.34699365234375,-0.1637035385131836,-5.893177748870849,2.5344120948791504
1758274239116952600,2.35695263671875,-0.11522095489501953,-5.459976885986328,1.1927613395690917
1758274239126910700,2.36691064453125,-0.6434416961669921,-5.076455707550049,0.1693897674560547
1758274239136868600,2.37686865234375,-1.092354507446289,-4.822071781158447,-0.4815338088989258
1758274239146827800,2.386827880859375,-1.2470797897338866,-4.57756393661499,-0.6988076095581054
1758274239156785700,2.39678564453125,-2.06215581741333,-4.11787721786499,-1.1043255157470702
1758274239166743800,2.406743896484375,-3.0660745010375976,-5.041739783477783,-2.2572832527160642
1758274239176701400,2.416701416015625,-3.5218706420898434,-4.951807583618164,-1.204732347869873
1758274239186660900,2.426660888671875,-4.00953959274292,-4.732289218902587,-0.03666121292114258
1758274239196618500,2.436618408203125,-4.686949024963378,-4.715080894470215,1.1909656883239745
1758274239206576600,2.44657666015625,-5.705382556152343,-4.50693498764038,2.2041619033813475
1758274239216534500,2.456534423828125,-7.260117259216308,-4.452616537475586,2.703801862335205
1758274239226493700,2.46649365234375,-9.216180015563964,-3.877858501434326,3.54970323638916
1758274239236451600,2.47645166015625,-11.018415315246582,-2.920327474975586,4.41161583404541
1758274239246409700,2.48640966796875,-12.678045978546141,-2.5082255142211913,5.207837523651123
1758274239256367600,2.49636767578125,-13.92976453399658,-2.7358243095397947,6.0245595649719235
1758274239266326800,2.506326904296875,-13.699472261810302,-3.462913426208496,7.119906824493408
1758274239276284700,2.51628466796875,-8.317157292175292,-5.920711067962646,7.3934443641662595
1758274239286242800,2.526242919921875,-0.16205752487182618,-9.85109236831665,4.821473230743408
1758274239296200700,2.53620068359375,2.6378116790771484,-10.52715506210327,2.149544178009033
1758274239306159600,2.54615966796875,-0.4617816452026367,-11.085004048919677,-0.4294599227905273
1758274239316117800,2.55611767578125,-4.3254245742797846,-12.426205891418457,-3.1522657608032225
1758274239326075600,2.56607568359375,-6.361992361450195,-10.598981111907959,1.5818191093444822
1758274239336033500,2.576033447265625,-0.7787140899658203,-9.875184022521973,6.328922451019286
1758274239345992400,2.585992431640625,-0.9350853858947753,-11.98357785949707,4.7292964668273925
1758274239355950600,2.59595068359375,-8.149712813568115,-13.626449111175535,2.523189274597168
1758274239365908700,2.60590869140625,-7.387608497619628,-13.214796063232422,3.8290766426086424
1758274239375867600,2.61586767578125,-0.9383774131774901,-11.521048026275635,5.631760855102539
1758274239385825500,2.625825439453125,1.2720692695617675,-9.319280324554443,6.133346102905273
1758274239395783700,2.63578369140625,-1.2963105613708494,-7.954136465454101,5.864746604156494
1758274239405741600,2.645741455078125,-2.7570728492736816,-7.383418644714355,5.698798501586913
1758274239415700700,2.65570068359375,-2.6689363006591798,-7.5148004608154295,5.5546974891662595
1758274239425658600,2.66565869140625,-2.240074928283691,-7.977180656433105,5.697152487945556
1758274239435616800,2.67561669921875,-1.2201450210571287,-8.340351120758056,6.077082363891601
1758274239445574700,2.68557470703125,-0.35658640975952144,-8.645162919616698,6.3420905601501465
1758274239455533800,2.695533935546875,-0.6820481979370117,-9.003395343017578,6.191555130767822
1758274239465491700,2.70549169921875,-1.802384937286377,-9.31419264602661,5.789029976654052
1758274239475449600,2.71544970703125,-2.2379800018310547,-9.256432530975342,5.7049336433410645
1758274239485407500,2.725407470703125,-1.8966566276550292,-9.1554271484375,5.371541062164306
1758274239495366700,2.73536669921875,-1.507299582672119,-8.91780263366699,4.939537300109863
1758274239505324500,2.745324462890625,-1.0920552322387695,-8.218995024108887,4.887912326812744
1758274239515282700,2.75528271484375,-0.6521206771850585,-7.014262676239014,5.001636905670166
1758274239525240600,2.765240478515625,-0.09457096557617187,-6.14786095046997,4.953004684448242
1758274239535199700,2.77519970703125,0.14170681076049804,-6.346579688262939,4.6258968826293945
1758274239545157600,2.78515771484375,0.622492431640625,-6.490531063079834,4.90287608718872
1758274239555115800,2.79511572265625,0.7670423568725585,-6.802076554107666,4.956147074127197
1758274239565074700,2.80507470703125,0.35628713455200195,-7.575852603149413,4.377947373199462
1758274239575032800,2.81503271484375,-0.7432499778747558,-7.451503754425048,4.234145635986328
1758274239584990700,2.82499072265625,-1.1317091972351074,-6.745214264678955,4.64101028060913
1758274239594948900,2.834948974609375,-1.6579846496582031,-6.697030956268311,4.662109182739258
1758274239604907800,2.84490771484375,-2.0869956596374513,-5.799055696105957,5.5452703201293945
1758274239614865700,2.85486572265625,-1.4384662849426268,-5.774215853881835,5.966799449920654
1758274239624823600,2.864823486328125,-0.9048585899353027,-5.689520970153808,5.499181938171386
1758274239634781700,2.87478173828125,-0.9083002548217773,-5.56038371810913,4.488379924774169
1758274239644740600,2.88474072265625,-0.8436568099975585,-6.290016674041747,3.4759318977355953
1758274239654698800,2.89469873046875,-1.2961609237670897,-7.180659691619873,3.197157041931152
1758274239664656600,2.90465673828125,-1.5936404800415038,-7.417236743164062,4.20751014251709
1758274239674615800,2.91461572265625,-0.7993640792846679,-7.780856120300292,4.645649046325683
1758274239684573700,2.92457373046875,-0.28057050704956055,-7.990348765563964,4.881777185058594
1758274239694531600,2.934531494140625,-0.29972412033081053,-8.12726717300415,5.150077408599853
1758274239704489700,2.94448974609375,-0.971746598815918,-8.29246708755493,6.234800398254394
1758274239714448600,2.95444873046875,-1.1233294914245604,-8.137292892456054,6.977451825714111
1758274239724406800,2.96440673828125,-1.229572190093994,-7.792228578186035,7.242759297180175
1758274239734364700,2.97436474609375,-1.6871639823913573,-7.17617056350708,7.506720030212402
1758274239744322800,2.98432275390625,-1.3172598258972168,-6.813299374389648,7.794622779846191
1758274239754281700,2.99428173828125,-0.7414543266296386,-7.052270627593994,8.145672598266602
1758274239764240000,3.004239990234375,-0.7136217323303222,-7.472303381347656,8.588599905395506
1758274239774197800,3.01419775390625,-0.35015199279785153,-8.05035344467163,8.978106587982177
1758274239784156700,3.02415673828125,0.4337994132995605,-8.437914838409423,8.507795599365235
1758274239794114800,3.03411474609375,0.5003881469726562,-9.079710520935057,7.052569902801514
1758274239804073000,3.044072998046875,-0.25647885284423827,-9.958681805419921,5.309890369415283
1758274239814030600,3.054030517578125,-1.5034090049743651,-11.33863978729248,3.863642929077148
1758274239823989500,3.063989501953125,-2.7334301078796384,-12.7815952003479,3.380014193725586
1758274239833947600,3.07394775390625,-3.646668403625488,-14.333786064147949,3.724031044769287
1758274239843905800,3.08390576171875,-3.53683440246582,-15.10516791152954,4.706252275848389
1758274239853863700,3.09386376953125,-2.8477532371520993,-15.306729763793944,5.684882204437256
1758274239863822600,3.103822509765625,-2.2480057212829587,-15.427936222839355,6.382791988372802
1758274239873780700,3.11378076171875,-2.310703877258301,-15.212308435821532,6.525246987152099
1758274239883739000,3.12373876953125,-3.397222518157959,-14.310143322753905,5.679195975494385
1758274239893697800,3.13369775390625,-4.418948076629638,-13.007398344421386,5.473144995117187
1758274239903655700,3.14365576171875,-4.4559085647583005,-12.016647769927978,5.869086094665527
1758274239913613800,3.15361376953125,-3.9700352653503415,-11.294945606994629,6.1270613235473625
1758274239923571700,3.16357177734375,-3.377769629669189,-11.014075824737548,6.397606111145019
1758274239933531000,3.17353076171875,-2.722955475616455,-11.030685598754882,6.163572898864746
1758274239943488800,3.18348876953125,-2.1939865463256836,-10.780341887664795,6.088604459381103
1758274239953446700,3.19344677734375,-1.4980220512390137,-10.527304699707031,5.72034631652832
1758274239963405800,3.20340576171875,-1.9535189170837401,-10.677690491485595,6.2009822998046875
1758274239973363700,3.21336376953125,-2.8890532157897946,-10.905588562011719,7.806593788146972
1758274239983321600,3.223321533203125,-2.928557543182373,-11.177031175231933,7.154024198150634
1758274239993279700,3.23327978515625,-2.0144214218139647,-11.393107875061034,6.544400600433349
1758274240003238700,3.24323876953125,-0.15427636947631834,-11.594669727325439,6.197390997314453
1758274240013196800,3.25319677734375,1.5215151550292967,-11.078569631958008,5.059546658325195
1758274240023154700,3.26315478515625,1.5336358009338378,-10.515932241821288,4.758775074768066
1758274240033112800,3.27311279296875,0.5334580574035644,-10.28444286880493,4.7083472023010255
1758274240043071700,3.28307177734375,0.41464580001831053,-9.96556513519287,5.172822324371338
1758274240053030000,3.29302978515625,0.9961375282287597,-9.930699573516845,4.338891958618164
1758274240062987800,3.30298779296875,0.08125321884155273,-9.36521906890869,3.4388217720031737
1758274240072946700,3.31294677734375,-0.9323919090270996,-8.408735505676269,2.8809727851867675
1758274240082904800,3.32290478515625,-1.8296189811706542,-7.902361854553222,2.2978350433349606
1758274240092862700,3.33286279296875,-2.6626515213012696,-7.848941230010986,2.138171720123291
1758274240102820600,3.342820556640625,-3.0162451789855957,-8.31805511779785,2.3642741394042965
1758274240112779800,3.35277978515625,-2.6970681701660153,-8.977508037567139,2.6071359703063965
1758274240122737700,3.362737548828125,-2.692878317260742,-8.869918600463867,2.5062802253723144
1758274240132695600,3.372695556640625,-1.893514237976074,-8.539069858551025,2.7651532798767087
1758274240142654700,3.38265478515625,-0.5321113189697265,-7.860463325500488,3.987692502593994
1758274240152612600,3.392612548828125,-0.7211036125183105,-7.103446688079834,5.0023850936889644
1758274240162570800,3.40257080078125,0.0076315177917480465,-6.7751417854309075,5.34984360961914
1758274240172528600,3.412528564453125,-0.03247136001586914,-6.019920799255371,5.393687427520752
1758274240182487800,3.42248779296875,-0.5581482620239258,-5.9591679321289055,4.649689261627197
1758274240192445700,3.43244580078125,-0.8987234481811522,-5.213374114990234,3.4681507423400877
1758274240202403800,3.44240380859375,-1.281945351409912,-4.197035510253906,2.470217562866211
1758274240212362800,3.45236279296875,-1.589001714324951,-3.9969700340270995,1.8620903411865233
1758274240222321000,3.46232080078125,-1.1335048484802246,-3.4762311729431152,1.9499276145935058
1758274240232278800,3.47227880859375,-1.3998597831726074,-3.4056022239685055,1.2692261550903319
1758274240242237000,3.48223681640625,-1.9853917266845702,-3.4850597915649413,0.8429086219787597
1758274240252195800,3.49219580078125,-2.34287596206665,-3.6979941017150875,0.6337152519226074
1758274240262153700,3.50215380859375,-2.4501661239624024,-4.094833026885986,0.7082347785949706
1758274240272111600,3.512111572265625,-2.4818892959594727,-4.365527452087402,0.6678326255798339
1758274240282069800,3.52206982421875,-2.835931866455078,-4.441393717193603,0.6383540176391601
1758274240292028700,3.532028564453125,-3.258658097076416,-4.462043706512451,0.8659528129577636
1758274240301986800,3.54198681640625,-3.7630864593505855,-4.5048400611877435,1.102529864501953
1758274240311944700,3.55194482421875,-4.223671003723144,-4.28981082458496,1.5677531745910644
1758274240321903600,3.561903564453125,-4.861725746154785,-4.0918402748107905,2.18321263885498
1758274240331861800,3.57186181640625,-5.931484975433349,-4.0334816093444825,2.7527333587646483
1758274240341819600,3.581819580078125,-7.319074475097656,-4.246266281890869,2.924517327880859
1758274240351778800,3.59177880859375,-8.966135579681396,-4.460098417663574,2.819920642852783
1758274240361736700,3.60173681640625,-10.655095213317871,-4.556165759277343,2.6885388267517087
1758274240371694800,3.61169482421875,-11.603797621154785,-4.478354205322265,2.916436897277832
1758274240381652700,3.62165283203125,-11.72799683227539,-4.555567208862304,3.3735797767639157
1758274240391612000,3.63161181640625,-10.935067169952392,-4.784063829803467,3.7397429931640622
1758274240401569800,3.64156982421875,-8.508543787384033,-5.323657028961182,3.6439749267578123
1758274240411527700,3.651527587890625,-4.598662838745117,-5.8740241355895995,3.116951286315918
1758274240421486800,3.66148681640625,-2.908057191467285,-7.314734984588623,2.113930428314209
1758274240431444700,3.67144482421875,-8.292317449951172,-10.989834532928466,1.7694646644592285
1758274240441402600,3.681402587890625,-10.187028788757324,-14.131027111053466,3.6336499320983884
1758274240451360800,3.69136083984375,-7.043890921783447,-14.334234976959229,7.336432437133789
1758274240461319700,3.701319580078125,-1.7471686614990234,-14.389151977539061,7.230937926483154
1758274240471277800,3.71127783203125,1.4145242683410644,-11.277886920166015,8.022371212768554
1758274240481235700,3.721235595703125,0.11911153259277343,-8.245181604766845,7.951143713378905
1758274240491194600,3.731194580078125,-2.991554974365234,-8.381351824188233,5.371241786956787
1758274240501152800,3.74115283203125,-5.644330413818359,-8.711452378082274,3.648015142059326
1758274240511110700,3.751110595703125,-4.882675010681152,-8.656535377502442,3.2495302032470703
1758274240521068800,3.76106884765625,-1.6470611045837402,-9.038260904693603,3.362656231689453
1758274240531027700,3.77102783203125,-0.4842272857666015,-9.34636473083496,3.200449069213867
1758274240540985900,3.78098583984375,-2.899827123260498,-9.453654892730713,2.9043162513732907
1758274240550943700,3.79094384765625,-3.5839702476501465,-9.540295065307618,3.354875076293945
1758274240560903000,3.80090283203125,-1.7561469177246092,-9.432256715393066,4.377049547576904
1758274240570860500,3.810860595703125,-0.907851342010498,-9.051429013824462,5.329492895507812
1758274240580818700,3.820818603515625,-0.4704606262207031,-8.55538035736084,6.2304609077453605
1758274240590776600,3.830776611328125,-0.5328595069885254,-8.491934013366699,6.743268975830078
1758274240600735700,3.84073583984375,-0.7439981658935546,-8.621819453430176,6.912958018493652
1758274240610693600,3.850693603515625,-0.3589806114196777,-8.579172736358641,7.0178539787292475
1758274240620651800,3.86065185546875,-0.23089082260131835,-8.526649937438965,6.743568251037598
1758274240630610700,3.870610595703125,-0.7288847679138183,-8.405293840789794,6.260986978912353
1758274240640568800,3.88056884765625,-0.9686042091369629,-8.115894715118408,6.003909575653076
1758274240650526700,3.890526611328125,-0.8927379440307617,-7.791929302978515,5.877316162872314
1758274240660483800,3.90048388671875,-0.7547720733642578,-7.788338000488281,5.631760855102539
1758274240670442800,3.91044287109375,-0.5210381362915039,-7.564180870056152,5.2557215568542475
1758274240680401000,3.92040087890625,-0.08245031967163086,-7.2717889923095695,4.482394420623779
1758274240690358500,3.930358642578125,0.9202712631225586,-7.302913613891601,3.2315736907958983
1758274240700318000,3.94031787109375,1.1502642601013182,-7.374590026092529,3.501968840789795
1758274240710275600,3.950275634765625,-0.18345570220947263,-6.811204447937011,4.982932205200195
1758274240720233700,3.960233642578125,-0.303913973236084,-6.751499044036865,6.043862815856933
1758274240730192600,3.970192626953125,-0.14484920043945312,-6.780828014373779,6.6401686668396
1758274240740150800,3.98015087890625,-0.736067372894287,-6.37755467224121,6.744316439056396
1758274240750108700,3.990108642578125,-1.022773021697998,-6.573729570770263,6.426486168670654
1758274240760066800,4.00006689453125,-1.4118307914733885,-6.83769030380249,4.593126247406006
1758274240770025700,4.010025634765625,-1.6195277854919432,-6.303633695983886,4.791096797180176
1758274240779984000,4.01998388671875,-1.2081740127563476,-6.28866993560791,5.514744248962402
1758274240789941800,4.029941650390625,-0.7579144630432129,-6.28253479385376,4.708796115112304
1758274240799900700,4.039900634765625,-0.833182177734375,-6.3420905601501465,3.9445968727111813
1758274240809858800,4.04985888671875,-1.1124059463500975,-6.61383244857788,3.7816415222167965
1758274240819816700,4.059816650390625,-1.2271779884338379,-6.896946794891357,4.101417081451416
1758274240829774800,4.06977490234375,-0.7065887649536132,-7.53320588607788,4.004900827026367
1758274240839733800,4.079733642578125,-0.4993406837463379,-8.135946154022216,3.8754642997741695
1758274240849691600,4.089691650390625,-0.5864297691345215,-8.077288213348389,4.258686203002929
1758274240859649500,4.0996494140625,-0.9521440727233886,-7.798214082336425,4.797381576538085
1758274240869608700,4.109608642578125,-1.5001169776916503,-7.7215996292114255,5.338022238922119
1758274240879566600,4.119566650390625,-1.5822680221557617,-7.79507169265747,5.750722750091552
1758274240889524700,4.129524658203125,-1.2982558502197266,-7.840411886596679,6.052691434478759
1758274240899483600,4.139483642578125,-0.8227075454711914,-7.68059892578125,6.375908658599853
1758274240909441800,4.14944189453125,-0.4424783943176269,-7.455693607330322,6.580762538146972
1758274240919399700,4.159399658203125,-0.6594529197692871,-7.605630486297607,6.90816961517334
1758274240929357800,4.16935791015625,-0.6961141326904297,-7.832481093597412,7.472453018951415
1758274240939316700,4.179316650390625,-0.270694425201416,-8.235455160522461,7.689876457214355
1758274240949275000,4.18927490234375,-0.7131728195190429,-8.802581678771972,7.986308550262451
1758274240959232800,4.199232666015625,-1.362450382232666,-9.27019919052124,8.370727554321288
1758274240969191700,4.209191650390625,-1.495777487182617,-9.62184755935669,8.103474794006347
1758274240979149800,4.21914990234375,-1.5138836372375488,-9.797971018981933,7.548468921661376
1758274240989108000,4.22910791015625,-1.1921627891540527,-9.952247388458252,7.047781499481201
1758274240999067000,4.23906689453125,-0.9130886581420898,-10.653449199676514,6.4935238151550285
1758274241009024800,4.249024658203125,-0.6465840858459472,-11.77842470474243,5.9503393135070795
1758274241018982700,4.258982666015625,-0.4004302276611328,-12.028469140624999,5.262604886627197
1758274241028940800,4.26894091796875,-0.270694425201416,-12.247538592529295,4.6604631690979
1758274241038899700,4.278899658203125,-0.5898714340209961,-13.083713522338867,4.7864580314636225
1758274241048857600,4.288857666015625,-1.099387474822998,-14.217068733215331,5.817610758972168
1758274241058815700,4.298815673828125,-0.9877578224182129,-15.338752210998534,7.162403903961181
1758274241068774700,4.308774658203125,-1.6774375381469726,-16.099210513305664,7.761852144622802
1758274241078732800,4.31873291015625,-3.712359311676025,-15.13748963394165,7.5813891944885246
1758274241088690700,4.328690673828125,-4.859630819702148,-13.035230938720701,7.700800002288818
1758274241098649900,4.33864990234375,-4.384681065368652,-11.26127714614868,7.895478524780273
1758274241108607700,4.348607666015625,-3.8365585227966306,-10.19585740737915,7.61041888961792
1758274241118566000,4.35856591796875,-3.3372178390502927,-9.786000010681152,7.254730305480956
1758274241128523800,4.368523681640625,-2.6313772621154783,-9.76175871887207,6.707505588531494
1758274241138482700,4.378482666015625,-2.1806687995910643,-10.006715476226805,6.023512101745605
1758274241148440800,4.38844091796875,-2.17692785949707,-10.0870708694458,5.73949992980957
1758274241158398700,4.398398681640625,-2.0664953079223634,-10.08018753967285,5.691615896606445
1758274241168358000,4.40835791015625,-2.2758383155822752,-10.773009645080565,6.362890187072754
1758274241178315500,4.4183154296875,-2.3588871856689453,-11.66410157546997,6.870311301422118
1758274241188273700,4.428273681640625,-1.650951682281494,-11.958289104461668,5.760000281524658
1758274241198232600,4.438232666015625,-0.5835866546630859,-11.496357821655273,5.22235237121582
1758274241208190700,4.448190673828125,0.47539866714477536,-11.497554922485351,4.948964469146728
1758274241218148600,4.458148681640625,1.2179004570007324,-11.661707373809813,4.608987833404541
1758274241228106800,4.468106689453125,1.7021277427673338,-11.35180789642334,3.736301328277588
1758274241238065700,4.478065673828125,1.361103643798828,-10.876708504486084,3.406051136779785
1758274241248023800,4.48802392578125,0.9081506172180175,-10.358214207458495,3.6332010192871094
1758274241257981700,4.497981689453125,0.8506897773742675,-9.766247846984863,3.478026824188232
1758274241267940900,4.50794091796875,0.36631285400390623,-8.882937071990966,2.60459213104248
1758274241277898800,4.517898681640625,-0.7103297050476074,-7.996783182525634,2.5836428665161133
1758274241287857000,4.52785693359375,-1.60246909866333,-7.8906901214599605,2.3937527473449705
1758274241297815800,4.53781591796875,-1.5448586212158202,-8.25520732421875,1.9514239906311035
1758274241307774000,4.54777392578125,-0.9030629386901855,-8.732700917816162,1.588403163909912
1758274241317731800,4.55773193359375,-1.7649755363464354,-8.237849362182617,1.7272668601989745
1758274241327690800,4.567690673828125,-2.1555296821594236,-8.080280965423583,1.7471686614990234
1758274241337648600,4.577648681640625,-1.2515689178466796,-7.970446964263916,0.8626607856750488
1758274241347606800,4.587606689453125,-0.7294833183288574,-7.007977896881103,1.251868193054199
1758274241357564700,4.597564697265625,0.22685060729980466,-6.610091508483887,1.8984522789001463
1758274241367523600,4.607523681640625,0.10295067138671875,-6.352864467620849,1.8963573524475097
1758274241377481700,4.617481689453125,-1.0218751960754393,-5.857414361572265,2.7314848190307615
1758274241387439600,4.627439697265625,-1.1167454368591307,-5.394136340332031,4.503792597961426
1758274241397398800,4.637398681640625,-1.260247898864746,-5.153070160675049,4.610484209442139
1758274241407356700,4.647356689453125,-1.6425719764709472,-5.180603479766845,4.276343440246582
1758274241417314800,4.657314697265625,-1.6858172439575194,-4.52638787612915,4.114884465789794
1758274241427273700,4.667273681640625,-2.7910405853271483,-4.25808765258789,4.013130895233154
1758274241437231900,4.67723193359375,-2.7768250129699705,-4.653729476928711,3.712359311676025
1758274241447189800,4.687189697265625,-2.724451851654053,-4.8421232200622555,3.030760026550293
1758274241457148000,4.69714794921875,-2.968061870574951,-4.643404482269287,2.0694880599975587
1758274241467106800,4.70710693359375,-3.175010676574707,-4.41161583404541,1.6225205375671385
1758274241477065000,4.71706494140625,-3.490297107696533,-4.243273529815673,1.3584101669311524
1758274241487022600,4.727022705078125,-3.8230911384582518,-4.260781129455566,1.1109095703125
1758274241496981800,4.736981689453125,-4.256441638946533,-4.484638984680175,1.1110592079162598
1758274241506939600,4.746939697265625,-4.770895720672607,-4.487482099151611,1.0712556053161622
1758274241516897800,4.756897705078125,-5.400570757293701,-4.349965141296386,1.2291232772827148
1758274241526856700,4.766856689453125,-6.11598814086914,-3.8335657707214352,1.8532617225646972
1758274241536814600,4.776814697265625,-7.240664370727538,-3.2191537696838375,2.0183119995117185
1758274241546772700,4.786772705078125,-8.876951567840576,-2.830844187927246,2.045546043395996
1758274241556731600,4.796731689453125,-10.498873554992675,-2.666841374206543,2.2665607841491697
1758274241566689800,4.806689697265625,-11.515661072540283,-2.6007015533447264,2.786850732421875
1758274241576647700,4.816647705078125,-11.303026037597656,-2.9587843391418454,3.46036958694458
1758274241586605800,4.826605712890625,-9.572766425323486,-3.902099793243408,4.06670115737915
1758274241596564700,4.836564697265625,-6.565649140167236,-5.230283164215088,4.3555017326354974
1758274241606523000,4.84652294921875,-7.687631893157959,-8.47876590423584,4.336797032165527
1758274241616480800,4.856480712890625,-10.728866551971436,-13.244274671173095,4.699518583679199
1758274241626440000,4.86643994140625,-7.605929761505126,-14.458583825683593,6.731597242736816
1758274241636397800,4.876397705078125,-1.648557480621338,-14.456488899230957,7.5810899192810055
1758274241646355700,4.886355712890625,6.892756941986083,-13.370119895935058,6.1744964439392085
1758274241656315000,4.89631494140625,4.514716143035888,-9.098564859008789,5.463418550872802
1758274241666272800,4.906272705078125,-4.865466686248779,-8.969128331756592,2.4488193855285645
1758274241676230700,4.916230712890625,-11.410316199493408,-10.396521434020995,0.7665934440612793
1758274241686189800,4.92618994140625,-7.493103008270263,-10.231321519470214,2.0567688636779784
1758274241696147700,4.936147705078125,-2.7807155906677243,-10.075698411560058,3.46007031173706
1758274241706105600,4.946105712890625,-0.9859621711730956,-10.322301182556151,3.651307169342041
1758274241716064800,4.956064697265625,-1.4384662849426268,-10.614393785095213,3.558681492614746
1758274241726022700,4.966022705078125,-2.2285528327941893,-10.543016648101807,3.790919053649902
1758274241735980800,4.975980712890625,-1.5412673187255859,-10.038887561035155,4.39246222076416
1758274241745938700,4.985938720703125,-0.5871779571533203,-9.342923065948487,5.409848288726806
1758274241755897900,4.99589794921875,-0.12330138549804687,-8.731204541778563,6.235398948669433
1758274241765855700,5.005855712890625,-0.3272574394226074,-8.332121052551269,6.908319252777099
1758274241775814000,5.01581396484375,-0.9452607429504394,-8.107066096496581,7.2146274276733395
1758274241785772800,5.025772705078125,-0.9645639938354491,-7.973589353942871,7.078906121063232
1758274241795731000,5.03573095703125,-0.8652046249389648,-7.782951046752929,6.76077657546997
1758274241805688800,5.045688720703125,-0.9512462471008301,-7.572859851074218,6.395960097503662
1758274241815647700,5.055647705078125,-0.8337807281494141,-7.527669294738769,5.884798043060302
1758274241825606000,5.06560595703125,-0.8919897560119628,-7.4679638908386226,5.546916333770752
1758274241835563800,5.075563720703125,-1.0494085151672363,-7.235277416992187,5.590760151672363
1758274241845523000,5.08552294921875,-0.6958148574829102,-6.815394300842285,5.7234887062072755
1758274241855480600,5.09548046875,0.5948094749450683,-6.284928995513916,5.549011260223389
1758274241865438700,5.105438720703125,1.129314995574951,-6.252906548309326,4.642656294250488
1758274241875396600,5.115396728515625,0.7908347358703612,-6.8326026252746574,4.167856177520751
1758274241885355800,5.125355712890625,0.8632593360900879,-7.673416320800781,4.295497053527832
1758274241895313700,5.135313720703125,0.24824878463745115,-7.213729602050781,5.27322915649414
1758274241905271800,5.145271728515625,-0.43155484924316406,-6.778733087921142,5.9317842506408684
1758274241915230700,5.155230712890625,-0.6965630455017089,-6.954856547546386,5.574300015258789
1758274241925188900,5.16518896484375,-1.0588356842041016,-7.0084268096923825,5.251681341552734
1758274241935146800,5.175146728515625,-1.839345425415039,-7.129483631134033,4.835838440704346
1758274241945105700,5.185105712890625,-2.3669676162719724,-7.344662505340576,4.889109427642822
1758274241955063800,5.195063720703125,-1.4887445198059082,-7.536797188568115,5.688024594116211
1758274241965022000,5.20502197265625,-0.8352771041870116,-7.579593543243408,5.176263989257812
1758274241974980900,5.21498095703125,-0.7015010864257812,-7.613112366485595,4.08615404586792
1758274241984938800,5.224938720703125,-1.0320505531311035,-8.251616021728514,2.5225907241821286
1758274241994897000,5.23489697265625,-1.6237176383972167,-8.75305163192749,1.6994342658996582
1758274242004855800,5.244855712890625,-1.0362404060363768,-8.745270476531982,1.7782932830810545
1758274242014814000,5.25481396484375,0.33144729232788084,-8.56765064086914,1.8849848945617675
1758274242024771600,5.264771484375,0.47420156631469723,-7.780706482696533,2.8284499862670898
1758274242034729700,5.274729736328125,1.1086650062561034,-6.893056217193603,3.4199674339294432
1758274242044688600,5.284688720703125,1.2910732452392577,-6.579116524505615,4.476558554077148
1758274242054646800,5.294646728515625,0.7582137382507323,-6.851756238555907,5.490951869964599
1758274242064604700,5.304604736328125,0.5358522590637207,-7.363367205810547,6.155193193054199
1758274242074563800,5.314563720703125,0.2985270195007324,-7.7501804115295405,7.0573583061218255
1758274242084521700,5.324521728515625,-0.3851671920776367,-8.124723333740233,8.116642903137206
1758274242094480000,5.33447998046875,-1.2734160079956054,-8.499715168762206,8.920496110534668
1758274242104438800,5.344438720703125,-1.7067665084838866,-8.672845876312255,9.625438861846924
1758274242114397000,5.35439697265625,-1.2957120109558105,-8.821884929656981,9.94042601776123
1758274242124354800,5.364354736328125,-1.201589958190918,-9.299677798461914,9.714772511291503
1758274242134313700,5.374313720703125,-1.7124527374267577,-9.85079309310913,9.336937561798095
1758274242144272000,5.38427197265625,-2.420388240814209,-10.203339287567138,8.633042273712158
1758274242154229800,5.394229736328125,-2.808697822570801,-10.417470698547362,7.51435154800415
1758274242164189000,5.40418896484375,-3.1051299156188965,-10.664821657562255,5.909488247680664
1758274242174146800,5.414146728515625,-3.2314240531921383,-10.91097551574707,4.637718253326415
1758274242184104700,5.424104736328125,-2.629132698059082,-11.201721379852295,3.9559693305969237
1758274242194062600,5.4340625,-1.5919944664001464,-11.607688198852538,4.439298790740967
1758274242204021800,5.444021728515625,-1.1640309196472167,-12.754810069274901,5.365106645202636
1758274242213979600,5.453979736328125,-1.2201450210571287,-13.821277271270752,6.194847158050536
1758274242223937800,5.463937744140625,-1.620425611114502,-14.67136849822998,6.71633420715332
1758274242233896700,5.473896728515625,-2.057816326904297,-15.007903469085692,7.160308977508545
1758274242243854800,5.483854736328125,-2.4455273582458497,-14.198064757537841,7.232883215332031
1758274242253812700,5.493812744140625,-2.7870003700256345,-12.486809120941162,6.60156216506958
1758274242263771600,5.503771728515625,-2.9276597175598145,-11.058667830657958,6.260986978912353
1758274242273729800,5.513729736328125,-2.6861446250915524,-10.424054753112792,6.311414851379394
1758274242283688000,5.52368798828125,-2.2246622550964354,-10.358214207458495,6.322488034057617
1758274242293646800,5.533646728515625,-1.4532804077148436,-10.322001907348632,6.342539472961425
1758274242303604700,5.543604736328125,-1.097442185974121,-10.368988114929198,6.273406900024414
1758274242313563000,5.55356298828125,-1.2511200050354003,-10.513388402557373,6.226121417236328
1758274242323521800,5.563521728515625,-1.4870985061645507,-10.936114633178711,6.395810459899902
1758274242333480000,5.57347998046875,-2.1006126815795896,-11.657517520904541,6.487089398193359
1758274242343437600,5.5834375,-2.359036823272705,-11.86820726699829,6.483348458099365
1758274242353395700,5.593395751953125,-1.5676035369873047,-12.037896309661864,6.200832662200927
1758274242363354600,5.603354736328125,-0.364517202758789,-12.732065153503417,5.223848747253418
1758274242373312800,5.613312744140625,0.3520972816467285,-12.989292194366454,4.572625895690917
1758274242383270700,5.623270751953125,0.6961141326904297,-12.581080811309814,3.9209541313171385
1758274242393229800,5.633229736328125,0.7297825935363769,-11.298387271881102,3.1293712074279783
1758274242403187700,5.643187744140625,0.6073790336608886,-10.415375772094725,3.085527389526367
1758274242413145900,5.653145751953125,1.123030216217041,-10.012551342773437,2.555660634613037
1758274242423104800,5.663104736328125,-0.06913257293701172,-9.22575682220459,2.31758720703125
1758274242433063000,5.67306298828125,-1.294065997314453,-8.526350662231446,2.286911498260498
1758274242443020800,5.683020751953125,-1.5626654960632322,-8.503306471252442,1.2330138549804688
1758274242452979700,5.692979736328125,-2.2643162200927733,-8.364891687774657,1.5842133110046386
1758274242462937900,5.702937744140625,-2.0651485694885254,-8.483105394744873,2.108543474578857
1758274242472895700,5.712895751953125,-2.1116858642578125,-8.388085516357421,1.8882769218444824
1758274242482855000,5.72285498046875,-2.5727193214416504,-7.297975572967529,2.3335984306335447
1758274242492812800,5.732812744140625,-2.0054431655883787,-6.608146219635009,4.025700453948974
1758274242502771000,5.74277099609375,-0.9213187263488769,-7.011269924163818,4.76266565246582
1758274242512729900,5.752729736328125,-0.203656778717041,-7.345111418151855,5.20349803314209
1758274242522687700,5.762687744140625,0.5020341606140136,-7.527669294738769,5.248090039062499
1758274242532645600,5.772645751953125,0.6772597946166992,-6.635230625915527,4.994005387878418
1758274242542603800,5.782603759765625,-0.10729016189575195,-5.204545496368408,3.8991070411682127
1758274242552562700,5.792562744140625,-0.2624643569946289,-4.228010494232177,3.159598003387451
1758274242562520800,5.802520751953125,-0.16849194183349608,-3.5591304054260253,1.6569371864318847
1758274242572478700,5.812478759765625,-1.0806827743530272,-3.7957074569702147,-0.42452188186645506
1758274242582437600,5.822437744140625,-2.0425532913208007,-3.838803086853027,-0.9504980590820312
1758274242592395800,5.832395751953125,-3.2007483444213864,-4.182071749877929,-0.9721955116271972
1758274242602354000,5.84235400390625,-4.04096348953247,-4.582801252746582,-0.19572598571777342
1758274242612312800,5.852312744140625,-4.588637119293213,-4.8704047271728514,0.6584054565429687
1758274242622270700,5.862270751953125,-4.857236618041992,-4.815038813781738,1.3811550827026366
1758274242632228900,5.872228759765625,-4.915296008300781,-4.584147991180419,1.8079215286254882
1758274242642187800,5.882187744140625,-4.675576567077637,-4.415805686950684,1.8394950630187987
1758274242652146000,5.89214599609375,-4.613776236724854,-4.0818145553588865,1.6539444343566894
1758274242662104800,5.902104736328125,-4.698321482849121,-3.8946179130554195,1.3525743003845214
1758274242672063700,5.912063720703125,-4.993406837463379,-3.6061166130065914,1.1489175216674803
1758274242682022000,5.92202197265625,-5.444863488006591,-3.3268928443908687,1.0347440299987793
1758274242691979500,5.9319794921875,-6.45461803817749,-3.234267167663574,1.254561669921875
1758274242701938700,5.941938720703125,-7.972990803527831,-3.1349077987670895,1.6716016716003417
1758274242711896600,5.951896484375,-9.968258612060547,-3.0973487602233885,1.9385551567077635
1758274242721854700,5.961854736328125,-12.107926708221434,-3.325097193145752,2.137273894500732
1758274242731812600,5.9718125,-13.016975151062011,-3.585616261291504,2.8947394447326658
1758274242741771800,5.981771728515625,-10.94868419189453,-3.9845501129150387,3.4427123497009275
1758274242751729700,5.991729736328125,-6.680121907043457,-4.948964469146728,2.683151873016357
1758274242761687800,6.001687744140625,-2.571671858215332,-5.119700975036621,2.473958502960205
1758274242771646700,6.011646728515625,-9.593416414642334,-7.3928458137512205,4.012083432006835
1758274242781604900,6.02160498046875,-10.790068331909179,-13.082965334320068,6.1845221633911125
1758274242791562800,6.031562744140625,-2.208351756286621,-16.12015977783203,9.331400970458985
1758274242801521700,6.041521728515625,3.724031044769287,-18.631976594543456,8.933963494873046
1758274242811479800,6.051479736328125,-2.6692355758666992,-17.354221096038817,6.0434139030456535
1758274242821438000,6.06143798828125,-9.037213441467285,-12.75585753250122,4.892102179718017
1758274242831396900,6.07139697265625,-7.557297540283202,-10.068066893768309,2.2756886779785157
1758274242841354800,6.081354736328125,-6.598868688201904,-8.549843766021729,0.1527799934387207
1758274242851312600,6.091312744140625,-2.944419129180908,-7.602039183807372,0.1571194839477539
1758274242861271800,6.101271728515625,-1.2499229042053221,-7.830984717559814,0.43679216537475585
1758274242871229700,6.111229736328125,-1.1471218704223631,-8.809614646148681,1.0396820709228516
1758274242881187600,6.1211875,-0.5158008201599121,-9.92067385406494,2.4058733932495118
1758274242891145700,6.131145751953125,0.3534440200805664,-10.73859299621582,3.9508816520690915
1758274242901104600,6.141104736328125,0.35299510726928707,-10.877606330108643,5.368099397277832
1758274242911062800,6.151062744140625,0.08499415893554688,-10.671555349731445,6.80551821899414
1758274242921020700,6.161020751953125,0.2389712532043457,-9.890895970916748,8.679280293273925
1758274242930979800,6.170979736328125,0.08259995727539061,-9.124003251647949,9.409960712432861
1758274242940937700,6.180937744140625,-0.10115502014160156,-8.282890280914307,8.896853369140624
1758274242950895900,6.190895751953125,-0.32172084808349605,-7.266252400970458,7.895179249572753
1758274242960854800,6.200854736328125,-0.7245452774047851,-6.725611738586426,6.478260779571533
1758274242970812700,6.210812744140625,-0.8949825080871582,-6.361393811035156,5.248389314270019
1758274242980770800,6.220770751953125,-0.9828197814941406,-6.293308701324462,4.339939421844482
1758274242990729700,6.230729736328125,-1.1489175216674803,-6.402244876861572,3.774458917236328
1758274243000687900,6.24068798828125,-1.1658265708923339,-6.625953094482422,3.6789901260375975
1758274243010645500,6.2506455078125,-0.8360252922058105,-6.356156494903564,3.8232407760620113
1758274243020605000,6.26060498046875,0.02454056701660156,-6.152649353790283,3.9356186164855953
1758274243030562600,6.2705625,0.11851298217773437,-6.446537607574463,3.9597102706909175
1758274243040520700,6.280520751953125,-0.2941875289916992,-6.7160349319458,4.395155697631836
1758274243050479600,6.290479736328125,-0.41883565292358393,-6.917896059417724,5.145438642883301
1758274243060437800,6.300437744140625,-0.10339958419799804,-7.512855171966552,5.926696572113037
1758274243070395600,6.310395751953125,-0.7441478034973145,-7.442076585388183,6.661866119384765
1758274243080354800,6.320354736328125,-1.1770493911743163,-7.189787585449218,7.428758838653564
1758274243090312700,6.330312744140625,-1.7281646858215332,-7.087136189270019,6.534225243377685
1758274243100270800,6.340270751953125,-1.9446902984619139,-7.008576447296142,6.437409713745117
1758274243110228700,6.350228759765625,-1.6511013198852538,-6.919841348266601,6.411073495483398
1758274243120187600,6.360187744140625,-1.5077484954833984,-7.013514488220214,5.660790550231933
1758274243130145800,6.370145751953125,-0.8750807067871094,-7.12499450302124,4.600009577178954
1758274243140104000,6.38010400390625,-0.9926958633422851,-7.326705992889404,3.1802479927062985
1758274243150062800,6.390062744140625,-0.9168295982360839,-7.554753701019287,2.7986721031188964
1758274243160020700,6.400020751953125,-0.8218097198486327,-7.478139247894287,3.715052788543701
1758274243169979000,6.409978759765625,-0.8494926765441894,-7.518242125701904,4.568884955596924
1758274243179937800,6.419937744140625,-0.3203741096496582,-7.594557303619385,4.759972175598144
1758274243189895700,6.429895751953125,-0.2678513107299805,-7.613262004089355,5.278915385437012
1758274243199853600,6.439853515625,-0.3538929328918457,-7.847444853973388,5.813869818878174
1758274243209812700,6.449812744140625,-0.4408323806762695,-8.14612151107788,6.076783088684081
1758274243219770600,6.4597705078125,-0.6564601676940918,-8.404844927978516,5.846041903686523
1758274243229728800,6.469728759765625,-1.0830769760131835,-8.539668408966063,5.332036734771728
1758274243239687700,6.479687744140625,-1.5518915885925293,-8.482506844329833,5.317372249603271
1758274243249645800,6.489645751953125,-1.6853683311462402,-8.529193776702881,5.642085849761963
1758274243259603700,6.499603759765625,-1.3459902458190918,-8.73389801864624,5.92445200805664
1758274243269562600,6.509562744140625,-0.8930372192382812,-9.00189896697998,6.382043800354004
1758274243279520800,6.519520751953125,-0.49036242752075193,-8.946084140777588,6.766612442016601
1758274243289478700,6.529478759765625,-0.3896563201904297,-8.886229099273681,6.663661770629883
1758274243299436800,6.539436767578125,-0.5252279891967773,-8.960000437927246,6.451625286102295
1758274243309395700,6.549395751953125,-0.7568669998168945,-9.323470177459717,6.03293927078247
1758274243319353900,6.559353759765625,-0.6323685134887695,-9.854534033203125,5.690119520568848
1758274243329311700,6.569311767578125,-0.7453449043273925,-10.585663365173339,5.272331330871582
1758274243339271000,6.57927099609375,-1.2424410240173338,-11.44712705001831,4.708047927093506
1758274243349228800,6.589228759765625,-1.9475334129333495,-12.463166379547118,4.463091169738769
1758274243359186700,6.599186767578125,-2.263268756866455,-13.026103044891357,4.789450783538818
1758274243369145600,6.6091455078125,-2.1434090362548828,-13.418901754760741,5.923254907226562
1758274243379103700,6.619103759765625,-1.7805378471374511,-13.87335115737915,7.164947743225097
1758274243389061600,6.6290615234375,-2.130540202331543,-14.228890103912352,7.7121724601745605
1758274243399020500,6.6390205078125,-3.116203098297119,-14.194623092651366,7.611915265655517
1758274243408978700,6.648978759765625,-3.8754642997741695,-13.63737265625,6.773196496582031
1758274243418936800,6.658936767578125,-4.293402127075195,-12.731765878295898,6.163722536468505
1758274243428895700,6.668895751953125,-4.00938995513916,-12.128277422332763,6.332214478302002
1758274243438853600,6.678853515625,-3.0262708984374997,-11.676371858978271,6.293009426116943
1758274243448811800,6.688811767578125,-2.2560861518859863,-10.958111360931396,5.792322003936767
1758274243458770700,6.698770751953125,-2.1251532485961913,-10.43871923828125,5.292981320190429
1758274243468728800,6.708728759765625,-2.2367829010009763,-10.440814164733887,5.35657730178833
1758274243478686700,6.718686767578125,-2.1369746192932126,-10.626813706207274,5.5930047157287595
1758274243488646000,6.72864599609375,-1.98554136428833,-11.214739851379393,5.876268699645996
1758274243498603800,6.738603759765625,-2.3766940605163573,-11.965172434234619,5.783792660522461
1758274243508562000,6.74856201171875,-2.881272060394287,-11.922974629974364,5.284451976776123
1758274243518519600,6.75851953125,-2.361431024932861,-11.322179650878905,5.805490113067626
1758274243528479000,6.76847900390625,-0.2754828285217285,-11.05178450088501,6.123769296264648
1758274243538436600,6.7784365234375,1.5658078857421873,-11.218331153869629,4.5455414894104
1758274243548394800,6.788394775390625,1.2529156562805175,-10.921899060821533,3.5494039611816404
1758274243558353700,6.798353759765625,0.6949170318603515,-10.398765998077392,3.768623050689697
1758274243568311800,6.808311767578125,0.6742670425415038,-10.134057077026366,3.7734114540100094
1758274243578269700,6.818269775390625,0.4725555526733398,-10.19510921936035,3.0737060188293457
1758274243588228600,6.828228515625,0.5276221908569335,-10.018387209320068,2.273593751525879
1758274243598186800,6.838186767578125,-0.3136404174804687,-9.428515775299072,2.1733365570068357
1758274243608144600,6.84814453125,-1.464652865600586,-9.10440072555542,1.8975544532775879
1758274243618103800,6.858103759765625,-1.4722843833923338,-9.334992272949219,1.6265607528686523
1758274243628061700,6.868061767578125,-1.5931915672302246,-9.259275645446778,1.6994342658996582
1758274243638019800,6.878019775390625,-1.332373223876953,-8.920047197723388,2.0037971519470212
1758274243647978800,6.887978759765625,-1.927332336425781,-8.366388063812256,2.2731448387145994
1758274243657936400,6.897936279296875,-1.696291876220703,-7.262212185668945,2.6822540473937986
1758274243667894300,6.907894287109375,-1.552639776611328,-6.665607059478759,3.7178959030151364
1758274243677853400,6.917853515625,-1.1311106468200682,-6.780528739166259,4.30312857131958
1758274243687811300,6.927811279296875,-0.5826888290405273,-6.361693086242675,5.022735807800292
1758274243697769500,6.93776953125,-0.7015010864257812,-6.041468614196777,3.9483378128051756
1758274243707728400,6.947728271484375,-0.7029974624633789,-5.581332982635498,2.198326036834717
1758274243717686300,6.957686279296875,-1.2255319747924804,-4.227262306213379,2.350657117462158
1758274243727644200,6.96764404296875,-1.5683517250061034,-3.828627729797363,3.271227655792236
1758274243737602300,6.977602294921875,-1.673995873260498,-3.9085342102050777,2.5406968742370606
1758274243747561200,6.987561279296875,-2.438195115661621,-3.947290349578857,1.5221137054443359
1758274243757519400,6.997519287109375,-2.827701798248291,-4.157680820465088,0.9249100288391112
1758274243767477200,7.007477294921875,-3.0547020431518552,-4.32198290939331,0.6386532928466796
1758274243777436200,7.017436279296875,-3.528753971862793,-4.359541947937012,0.7371148361206055
1758274243787394300,7.027394287109375,-3.733607851409912,-4.772691371917724,0.7281365798950195
1758274243797352200,7.037352294921875,-3.8941690002441405,-5.262155973815918,0.582239916229248
1758274243807311400,7.047311279296875,-3.9797617095947264,-5.505915630340576,0.3642179275512695
1758274243817269200,7.057269287109375,-4.164414512634277,-5.455787033081054,0.12210428466796874
1758274243827227400,7.067227294921875,-4.450072698211669,-5.222053096008301,-0.05850830307006836
1758274243837186300,7.077186279296875,-4.733635957336426,-4.636221877288818,-0.022146365356445312
1758274243847144400,7.08714453125,-5.259612134552001,-4.004601551818848,0.2045546043395996
1758274243857102300,7.097102294921875,-6.092943949890136,-3.5212720916748044,0.6844423995971679
1758274243867061500,7.1070615234375,-7.101351761627197,-3.386897523498535,1.521365517425537
1758274243877019100,7.11701904296875,-8.449287296295166,-3.5992332832336422,2.326266188049316
1758274243886977300,7.126977294921875,-9.980379257965087,-3.972279829406738,2.7073931648254392
1758274243896936200,7.136936279296875,-11.629684926605224,-4.042459865570068,2.9227216766357422
1758274243906894000,7.14689404296875,-12.191723766326904,-4.311059364318847,3.208230224609375
1758274243916852200,7.156852294921875,-11.726350818634032,-4.810699323272705,3.3816602073669433
1758274243926811100,7.16681103515625,-9.256282893371582,-4.971410109710693,3.8893805969238278
1758274243936769300,7.176769287109375,-3.5378818656921385,-4.757129061126709,4.625447969818115
1758274243946727200,7.18672705078125,-2.631077986907959,-6.426486168670654,4.336198481750488
1758274243956685300,7.196685302734375,-4.702960248565674,-10.371083041381835,2.4721628517150878
1758274243966644200,7.206644287109375,-5.643133312988281,-12.66023910369873,3.2344168052673337
1758274243976602400,7.216602294921875,-5.455936670684814,-14.420875149536132,4.6998178588867185
1758274243986560300,7.226560302734375,-4.116081566619873,-14.42162333755493,5.1973628913879395
1758274243996519400,7.23651953125,-4.259284753417968,-11.8231663482666,6.341791284942627
1758274244006477300,7.246477294921875,-5.926846209716796,-10.727070900726318,5.4230163978576655
1758274244016435500,7.256435546875,-5.696853212738037,-10.836755264282226,4.0429087783813475
1758274244026394400,7.266394287109375,-3.20493819732666,-10.613795234680175,3.690811496734619
1758274244036352500,7.2763525390625,-2.155978594970703,-10.392032305908202,4.1751884201049805
1758274244046310100,7.28631005859375,-0.8376713058471679,-10.498574279785156,4.66659831085205
1758274244056269000,7.29626904296875,-0.3839700912475586,-10.486752909088134,4.783465279388428
1758274244066227200,7.306227294921875,-1.407042388153076,-10.224587827301026,4.921431150054931
1758274244076185300,7.316185302734375,-1.593490842437744,-9.874884747314452,5.105036489868164
1758274244086144300,7.326144287109375,-1.1870751106262207,-9.367613270568848,5.187486809539795
1758274244096102100,7.33610205078125,-0.6678326255798339,-8.323292433929442,6.003161387634277
1758274244106060300,7.346060302734375,-1.1305120964050293,-7.858218761444092,5.984157411956787
1758274244116019200,7.356019287109375,-1.0441711990356444,-7.808688714599609,5.530456197357178
1758274244125977300,7.365977294921875,-0.6432920585632323,-7.87841983795166,5.041889421081542
1758274244135935200,7.375935302734375,-0.7882908966064452,-8.016984259033203,4.320935446166992
1758274244145894400,7.385894287109375,-1.0335469291687012,-8.046013954162596,3.956268605804443
1758274244155852300,7.395852294921875,-0.6594529197692871,-7.945457484436035,4.049941745758057
1758274244165810400,7.405810546875,-0.10579378585815429,-8.135197966003417,4.682759172058105
1758274244175768300,7.415768310546875,-0.09322422714233398,-8.00022484741211,4.868160163116455
1758274244185727200,7.425727294921875,-0.2748842781066894,-7.823353199768066,4.988319158935546
1758274244195685400,7.435685302734375,-0.5928641860961914,-7.870489044952392,5.296422985076904
1758274244205643300,7.445643310546875,-0.42661680831909177,-8.060229526519775,5.155763637542725
1758274244215602400,7.4556025390625,-0.4444236831665039,-7.790881839752196,4.76924970703125
1758274244225560000,7.46556005859375,-0.4970961196899414,-7.3271549057006835,4.6252983322143555
1758274244235518200,7.475518310546875,-0.9569324760437011,-7.1410057266235345,4.792593173217774
1758274244245477000,7.48547705078125,-1.004217958831787,-6.9972039894104,5.21606759185791
1758274244255435300,7.495435302734375,-0.6181529411315918,-7.446116800689697,5.355080925750732
1758274244265393200,7.50539306640625,-0.464774397277832,-7.490110256195068,5.400271482086182
1758274244275352300,7.515352294921875,-1.2300211029052734,-7.601141358184814,5.570559075164795
1758274244285310200,7.525310302734375,-1.758840394592285,-7.596203317260742,5.5838768218994135
1758274244295268400,7.535268310546875,-1.0874164665222168,-7.720851441192626,5.101744462585449
1758274244305227300,7.545227294921875,-1.5378256538391113,-7.3012676002502435,4.565742565917969
1758274244315185400,7.555185302734375,-2.140565921783447,-6.814496475219726,3.899555953979492
1758274244325143300,7.565143310546875,-1.9020435813903807,-6.669198361968994,3.7569513175964353
1758274244335102200,7.575102294921875,-1.3352163383483886,-6.648398735046387,4.1283518501281735
1758274244345060400,7.585060302734375,-0.8922890312194823,-6.987178269958496,5.016002115631103
1758274244355018500,7.5950185546875,-0.30301614761352536,-7.543530880737304,5.6492684547424314
1758274244364977400,7.604977294921875,0.4312555740356445,-7.715165212249755,5.437531245422363
1758274244374935300,7.614935302734375,0.33922844772338867,-7.510161695098876,4.976348150634766
1758274244384893200,7.62489306640625,-0.25363573837280273,-7.414094353485107,4.806359832763672
1758274244394852400,7.634852294921875,-0.4170400016784668,-7.263409286499023,5.06298832321167
1758274244404810200,7.644810302734375,-0.4996399589538574,-7.083395249176025,5.149478858184814
1758274244414768000,7.65476806640625,-0.9952397026062011,-7.390002699279785,5.212625926971436
1758274244424726300,7.664726318359375,-1.237951895904541,-7.624784099578857,5.526266344451904
1758274244434685200,7.674685302734375,-1.176600478363037,-7.701248915100098,5.612158329010009
1758274244444643300,7.684643310546875,-1.1489175216674803,-7.822305736541748,5.575646753692626
1758274244454601200,7.694601318359375,-0.8467991996765136,-8.227524367523193,5.662286926269531
1758274244464560400,7.704560302734375,-0.6512228515624999,-8.639925603485107,5.908291146850585
1758274244474518300,7.714518310546875,-0.9620201545715331,-9.090783703613281,5.886743331909179
1758274244484476400,7.724476318359375,-1.4637550399780273,-9.236081816864013,6.0321910827636716
1758274244494435300,7.734435302734375,-1.8525135345458983,-9.084199649047852,6.760327662658691
1758274244504393200,7.744393310546875,-1.5758336051940918,-9.001300416564941,7.359775903320312
1758274244514351400,7.754351318359375,-1.258452247619629,-9.145551066589356,7.459284909820556
1758274244524310300,7.764310302734375,-1.2114660400390624,-9.558401215362549,7.174524549865723
1758274244534268400,7.774268310546875,-0.8877999031066894,-10.229226593017577,6.834547914123535
1758274244544226000,7.78422607421875,-0.316034619140625,-10.826879182434082,6.33341157913208
1758274244554185500,7.794185546875,0.2959831802368164,-10.886734223937987,5.984307049560546
1758274244564143000,7.80414306640625,0.8316858016967773,-10.805780280303955,5.776310780334472
1758274244574101200,7.814101318359375,0.7459434547424316,-11.235090565490722,5.878513263702392
1758274244584060200,7.82406005859375,-0.2214636535644531,-12.599486236572265,6.102221481323242
1758274244594018300,7.834018310546875,-2.392854921722412,-14.430751231384276,6.321440570831299
1758274244603976200,7.84397607421875,-4.2305543334960936,-15.759982065582275,6.376207933807373
1758274244613935400,7.853935302734375,-5.001936180877685,-15.470433302307129,6.375160470581054
1758274244623893200,7.863893310546875,-5.134066184997558,-14.105289443206786,6.843376532745361
1758274244633851400,7.873851318359375,-4.344428549957275,-12.763788325500487,7.498639599609374
1758274244643810300,7.883810302734375,-3.174412126159668,-11.57506720123291,7.580940281677246
1758274244653768200,7.893768310546875,-2.398391513061523,-11.00120699081421,6.941838076019287
1758274244663726300,7.903726318359375,-2.054524299621582,-11.005396843719481,6.254402924346923
1758274244673685200,7.913685302734375,-1.8146552207946776,-10.941800862121582,5.475389559173584
1758274244683643400,7.923643310546875,-1.6300024177551269,-10.634295586395263,5.1231426399230955
1758274244693601300,7.933601318359375,-1.5984288833618163,-11.07048920135498,5.162946242523193
1758274244703559400,7.943559326171875,-2.012326495361328,-11.517456723785399,5.0571524566650385
1758274244713518300,7.953518310546875,-2.8624177223205565,-12.092214759826659,5.692962635040283
1758274244723476200,7.963476318359375,-2.883815899658203,-12.413037782287597,5.306747979736328
1758274244733434000,7.97343408203125,-1.799691460418701,-12.645424980926514,4.98592495727539
1758274244743393300,7.983393310546875,-0.32007483444213863,-12.840402778625487,4.387823455047607
1758274244753351200,7.99335107421875,0.3935468978881836,-11.792939552307129,4.059817827606201
1758274244763309300,8.003309326171875,0.4332008628845215,-11.347318768310545,3.942501946258545
1758274244773268200,8.013268310546875,0.4070142822265625,-10.563217724609375,4.241926791381836
1758274244783226400,8.023226318359375,0.4649240348815918,-9.964368034362792,3.9839515624999997
1758274244793184300,8.033184326171876,0.08304887008666992,-9.723750767517089,3.0036756202697754
1758274244803143200,8.04314306640625,-1.016338604736328,-9.06549494857788,2.868403226470947
1758274244813101300,8.053101318359374,-1.781884585571289,-8.556876733398436,2.7549779228210447
1758274244823059200,8.06305908203125,-2.5053823997497555,-8.45242968597412,2.2577321655273437
1758274244833018400,8.073018310546875,-2.746448579406738,-8.347982638549805,2.127846725463867
1758274244842976300,8.082976318359375,-2.422932080078125,-8.411877895355223,1.8242320274353025
1758274244852934400,8.092934326171875,-2.166153952026367,-7.979125945281982,1.7628806098937988
1758274244862893300,8.102893310546875,-2.442833881378174,-7.403021170806884,2.124105785369873
1758274244872851500,8.1128515625,-1.419761584472656,-7.457189983367919,3.2032921836853023
1758274244882809300,8.122809326171875,-0.8189666053771972,-7.362020467376708,3.092410719299316
1758274244892768300,8.132768310546876,-0.8979752601623535,-6.52479807434082,3.23052622756958
1758274244902726100,8.14272607421875,-0.8301894256591796,-5.6592941741943354,3.9751229438781737
1758274244912684300,8.152684326171874,-0.9876081848144531,-5.436034869384765,3.609707915496826
1758274244922643200,8.162643310546875,-1.0907084938049316,-5.087678527832031,3.020285394287109
1758274244932601000,8.17260107421875,-1.193210252380371,-4.3263223999023435,3.591152852630615
1758274244942559200,8.182559326171875,-1.0235212097167967,-3.691410047149658,2.7781717514038085
1758274244952518100,8.19251806640625,-1.3780126930236816,-3.1371523628234863,1.8017863868713377
1758274244962476300,8.202476318359375,-2.297535768127441,-3.09016615524292,1.1168950744628905
1758274244972434200,8.21243408203125,-3.1191958503723143,-3.355473626708984,0.35942952423095703
1758274244982393300,8.222393310546876,-3.394977954101562,-3.551049974822998,-0.010474632263183592
1758274244992351200,8.232351318359376,-3.45408480758667,-3.8338650459289547,0.23388357467651366
1758274245002309400,8.242309326171876,-3.6132992179870604,-4.439897341156006,0.6453869850158691
1758274245012267300,8.252267333984374,-3.7002386657714843,-5.083488674926757,0.6772597946166992
1758274245022226400,8.262226318359374,-3.8084266532897946,-5.432293929290771,0.3049614364624023
1758274245032184300,8.272184326171875,-3.912125512695312,-5.3844098960876465,0.366462491607666
1758274245042142500,8.282142578125,-4.085555495452881,-5.135263285827636,0.44113165588378905
1758274245052101400,8.292101318359375,-4.342333623504638,-4.7931917236328125,0.531812043762207
1758274245062059500,8.3020595703125,-4.470423412322998,-4.518606720733643,0.8857049766540527
1758274245072017200,8.31201708984375,-4.606892906951904,-4.491522314453125,1.2841899154663086
1758274245081976000,8.32197607421875,-4.972158297729492,-4.565892203521728,1.7465701110839842
1758274245091934200,8.331934326171876,-5.804143374633789,-4.739022911071777,2.327164013671875
1758274245101892400,8.341892333984376,-6.948272492980957,-4.900781160736083,2.7347768463134763
1758274245111851300,8.351851318359374,-8.266579782104492,-5.155165087127685,2.7301380805969235
1758274245121809200,8.36180908203125,-9.605537060546874,-5.1702784851074215,2.9755437507629394
1758274245131767300,8.371767333984375,-10.847229896545409,-5.251082791137695,3.0879215911865234
1758274245141726200,8.381726318359375,-12.364555198669432,-5.547215608978271,2.9544448486328125
1758274245151684400,8.391684326171875,-14.618097511291504,-5.871330658721924,3.4867058052062987
1758274245161642200,8.401642333984375,-15.070900900268553,-5.839008936309814,5.170577760314941
1758274245171601400,8.411601318359375,-13.076082004547118,-8.067112856292724,6.880037745666503
1758274245181559300,8.421559326171876,-7.254431030273437,-12.663531130981445,6.999448553466796
1758274245191517400,8.431517333984376,-2.408117957305908,-15.564256079864501,4.966621706390381
1758274245201476400,8.441476318359374,-2.459144380187988,-13.799579818725585,4.919186585998535
1758274245211434200,8.451434326171874,-3.3915362892150878,-12.166734286499024,1.6967407890319823
1758274245221392400,8.461392333984374,-7.978377757263183,-9.695918173217773,0.28520927276611324
1758274245231351300,8.471351318359375,-6.407482192993164,-5.968744738769531,4.819976854705811
1758274245241309200,8.48130908203125,-2.526930214691162,-5.9498904006958,4.570680606842041
1758274245251267000,8.49126708984375,-2.8657097496032713,-7.094169156646728,2.06215581741333
1758274245261226200,8.501226318359375,-1.9381062438964842,-7.623886273956298,1.0577882209777831
1758274245271184100,8.51118408203125,-3.47937356262207,-8.598475987243653,0.522235237121582
1758274245281142300,8.521142333984375,-2.6747721672058105,-9.59610989151001,1.469740544128418
1758274245291101200,8.53110107421875,-0.7175123100280761,-10.468048208618164,2.6345196517944336
1758274245301059300,8.541059326171874,-2.098966667938232,-10.88478893508911,3.732710025787353
1758274245311017200,8.551017333984374,-2.473958502960205,-11.176282987213135,5.1505263214111325
1758274245320976400,8.560976318359375,-2.84086990737915,-11.090839915466308,6.285677183532714
1758274245330934300,8.570934326171875,-2.7575217620849606,-10.537779331970214,7.1209542877197265
1758274245340892400,8.580892333984375,-1.8133084823608396,-9.63456675567627,7.525724005889892
1758274245350851300,8.590851318359375,-1.6647183418273925,-8.825326594543457,7.134421672058105
1758274245360809200,8.600809326171875,-1.871218235015869,-8.228422193145752,6.3244333229064935
1758274245370767400,8.610767333984375,-1.8884265594482421,-7.572710213470459,5.357475127410888
1758274245380726300,8.620726318359376,-1.6039654747009275,-7.026832234954834,4.358793759918212
1758274245390684400,8.630684326171876,-1.1517606361389159,-6.898742446136474,3.601926760101318
1758274245400642300,8.640642333984376,-0.8090905235290526,-7.213879239654541,3.416825044250488
1758274245410600200,8.65060009765625,-0.2558803024291992,-7.338677001190185,4.053084135437011
1758274245420559000,8.66055908203125,-0.3022679595947265,-7.305008540344238,4.923526076507568
1758274245430517200,8.670517333984375,-0.9645639938354491,-7.376684952545165,5.63699817123413
1758274245440475100,8.68047509765625,-1.3443442321777344,-7.532906610870361,6.297947467041015
1758274245450434300,8.690434326171875,-1.3356652511596678,-7.695562686157226,6.666055972290039
1758274245460392200,8.70039208984375,-0.86191259765625,-7.580192093658447,6.7173816703796385
1758274245470350300,8.710350341796875,-0.11118073959350586,-7.407360661315917,6.4640452072143555
1758274245480309200,8.720309326171876,-0.011671733093261718,-7.321019763946532,6.206967803955078
1758274245490267400,8.730267333984376,-0.6564601676940918,-7.015160501861572,6.244077929687499
1758274245500225300,8.740225341796876,-1.3480851722717284,-6.900837372589111,5.729923123168945
1758274245510184200,8.75018408203125,-1.4893430702209471,-6.795791774749755,5.624877525329589
1758274245520142300,8.760142333984374,-1.675941162109375,-6.836642840576172,5.689969882965087
1758274245530100200,8.770100341796875,-1.3154641746520996,-6.934056920623779,5.327248331451416
1758274245540059400,8.780059326171875,-1.3051391799926757,-7.061697796630859,4.762516014862061
1758274245550017300,8.790017333984375,-1.44924019241333,-7.2812161613464355,4.222773178100586
1758274245559975400,8.799975341796875,-1.3233949676513672,-7.225700610351562,3.9035961692810055
1758274245569934300,8.809934326171875,-1.4312836799621582,-6.865522898101807,4.1940427581787105
1758274245579892500,8.819892578125,-1.3066355560302734,-7.03536157836914,3.61359849319458
1758274245589850000,8.82985009765625,-1.4787188003540037,-7.7395561416625975,3.531297811126709
1758274245599809300,8.839809326171874,-1.35347212600708,-7.9457567596435545,4.663156645965576
1758274245609767200,8.84976708984375,-1.0764929214477539,-8.266579782104492,5.015403565216064
1758274245619725300,8.859725341796874,-0.9238625656127929,-8.213608070373535,5.285649077606201
1758274245629684200,8.869684326171875,-1.232714579772949,-7.9007158409118645,5.3478983207702635
1758274245639642000,8.87964208984375,-1.338209090423584,-7.485920403289795,5.347000495147705
1758274245649600300,8.889600341796875,-0.8872013526916503,-7.295132458496093,5.42645806274414
1758274245659559400,8.899559326171875,-0.48886605148315426,-7.254730305480956,5.691017346191406
1758274245669517600,8.909517578125,-0.7872434333801269,-7.461379836273193,5.862202764892578
1758274245679475500,8.919475341796876,-0.9747393508911132,-7.508964594268798,5.858611462402344
1758274245689434600,8.9294345703125,-1.2747627464294433,-7.426214999389648,5.65001664276123
1758274245699392500,8.939392578125,-1.47482822265625,-7.486070040893554,5.560982268524169
1758274245709350700,8.9493505859375,-1.251868193054199,-7.574655502319335,5.647023890686035
1758274245719309600,8.9593095703125,-1.0664672019958497,-7.754370264434814,5.797858595275879
1758274245729267700,8.969267822265625,-0.9296984321594238,-8.006958539581298,5.755062240600585
1758274245739225300,8.979225341796875,-0.7986158912658691,-8.166771500396727,5.642684400177002
1758274245749184500,8.9891845703125,-0.856824919128418,-8.326734098815917,5.639691648101806
1758274245759142400,8.999142333984375,-1.0244190353393554,-8.400954350280761,5.562628282165527
1758274245769100500,9.0091005859375,-1.2389993591308592,-8.481609018707275,5.4242134986877435
1758274245779059500,9.0190595703125,-1.2138602416992186,-8.719532808685303,5.452943918609619
1758274245789017300,9.029017333984376,-0.7425017898559569,-9.11038622970581,5.4619221748352045
1758274245798975500,9.0389755859375,-0.5161000953674316,-9.932495224761963,5.181650942993164
1758274245808934400,9.048934326171874,-0.4514566505432129,-10.562319898986816,4.9735050361633295
1758274245818892500,9.058892578125,-0.3699041564941406,-11.129895330047606,4.895843119812011
1758274245828850400,9.068850341796875,-0.5826888290405273,-11.896788049316406,4.846313072967529
1758274245838809600,9.0788095703125,-1.0612298858642577,-13.277494219207762,5.117905323791503
1758274245848767500,9.088767578125,-0.6661866119384765,-14.865598107910156,6.117185241699218
1758274245858725600,9.0987255859375,0.7404068634033203,-14.631714533233641,7.509563144683837
1758274245868684500,9.1086845703125,2.399887889099121,-13.046004846191405,7.989151664733886
1758274245878642400,9.118642333984376,2.137423532104492,-11.98881517562866,7.378480603790282
1758274245888600600,9.1286005859375,-0.21862053909301757,-12.419322561645506,7.2450038612365715
1758274245898559500,9.1385595703125,-2.1441572242736817,-13.673136043548583,6.871059489440918
1758274245908517600,9.148517578125,-3.0769980461120605,-13.626299473571777,5.70119270324707
1758274245918475300,9.158475341796875,-3.077746234130859,-12.127080321502685,5.238064319610595
1758274245928434700,9.1684345703125,-2.402581365966797,-10.46415763092041,4.919036948394775
1758274245938392300,9.178392333984375,-1.7881693649291992,-9.286060776519776,4.389469468688964
1758274245948350500,9.1883505859375,-1.6901567344665527,-8.782829515075683,4.2149920227050774
1758274245958309400,9.198309326171875,-1.7067665084838866,-8.70112738342285,4.3424832611083986
1758274245968267500,9.208267578125,-1.6692074699401855,-8.872761714935303,4.768052606201172
1758274245978225400,9.218225341796876,-1.5234604438781738,-9.05831234359741,5.303904865264892
1758274245988184600,9.2281845703125,-1.2400468223571777,-9.03332286376953,5.584325734710693
1758274245998142500,9.238142578125,-0.7968202400207519,-9.036614891052245,5.595698192596435
1758274246008100600,9.2481005859375,-0.4055179061889648,-8.949675443267822,5.383661708068847
1758274246018059500,9.2580595703125,-0.25917232971191406,-9.132981507873534,5.2639516250610345
1758274246028017400,9.268017333984375,-0.15816694717407226,-9.42986251373291,4.757727611541748
1758274246037975600,9.2779755859375,0.38741175613403317,-9.555707738494872,3.777601306915283
1758274246047934500,9.2879345703125,0.29703064346313474,-9.628281976318359,3.329885596466064
1758274246057892600,9.297892578125,0.04638765716552734,-10.012700980377197,2.9382839874267574
1758274246067850500,9.3078505859375,0.12569558715820311,-9.928155734252929,2.2252608055114744
1758274246077809700,9.3178095703125,0.21443068618774414,-9.465775538635253,1.6454150909423828
1758274246087767600,9.327767578125,0.3464110527038574,-9.095422469329833,1.4220061485290527
1758274246097725400,9.337725341796874,0.22834698333740233,-8.898649020385742,1.04057989654541
1758274246107684400,9.347684326171875,-0.07676409072875977,-8.831012823486327,0.7640496047973633
1758274246117642500,9.357642578125,-0.32396541213989255,-8.859892881011962,0.617404753112793
1758274246127600400,9.367600341796875,-1.0027215827941893,-8.896703731536865,0.6597521949768066
1758274246137559300,9.377559326171875,-1.049558152770996,-8.9508725440979,0.778265177154541
1758274246147517400,9.387517333984375,-1.143380930328369,-8.922591036987304,1.1023802268981933
1758274246157475600,9.3974755859375,-1.2798504249572753,-8.75260271911621,1.4894927078247069
1758274246167434500,9.4074345703125,-1.322796417236328,-8.46559779510498,2.045546043395996
1758274246177392400,9.417392333984376,-1.7613842338562011,-8.027009978485108,2.6511294258117672
1758274246187350500,9.4273505859375,-1.8031331253051757,-7.8444521018981925,3.079841160583496
1758274246197309400,9.437309326171874,-1.037437506866455,-7.756614828491211,3.202543995666504
1758274246207267600,9.447267578125,-0.7287351303100585,-7.3569327888488765,3.299209887695312
1758274246217225500,9.4572255859375,-0.7854477821350098,-6.876296805572509,3.6490626052856445
1758274246227184600,9.4671845703125,-0.9096469932556152,-6.509235763549804,3.5660137351989745
1758274246237142500,9.477142578125,-0.9383774131774901,-6.16686492614746,3.284695040130615
1758274246247100700,9.4871005859375,-1.0899603057861327,-5.798157870483398,3.0309096641540525
1758274246257059600,9.4970595703125,-1.1046247909545899,-5.831975968933105,2.5995044525146485
1758274246267017700,9.507017822265626,-0.9852139831542969,-5.824344451141357,2.6315268997192383
1758274246276975400,9.516975341796876,-0.9989806427001953,-5.639242735290527,2.8296470870971677
1758274246286934300,9.526934326171874,-0.8744821563720703,-5.686977130889892,2.573617147064209
1758274246296892400,9.536892333984374,-0.6564601676940918,-5.65001664276123,2.2334908737182615
1758274246306850600,9.5468505859375,-0.715716658782959,-5.79696076965332,1.9648913749694823
1758274246316809500,9.5568095703125,-0.6745663177490234,-6.207865629577636,1.8876783714294432
1758274246326767400,9.566767333984375,-0.7004536231994628,-6.625504181671142,1.8083704414367674
1758274246336725500,9.5767255859375,-1.022174471282959,-7.022492744445801,1.661276676940918
1758274246346684400,9.586684326171875,-1.3153145370483397,-7.324611066436767,1.6114473548889159
1758274246356642600,9.596642578125,-1.295412735748291,-7.43773709487915,1.5644611473083496
1758274246366600400,9.606600341796875,-1.5218144302368164,-7.588571799468994,1.523310806274414
1758274246376559600,9.6165595703125,-1.995716721343994,-7.792378215789794,1.6539444343566894
1758274246386517500,9.626517578125,-2.2512977485656736,-8.425494917297362,1.6487071182250976
1758274246396475600,9.6364755859375,-2.451063949584961,-9.043647858428955,1.7540519912719725
1758274246406434600,9.6464345703125,-2.9302035568237303,-9.568127659606933,2.183960826873779
1758274246416392400,9.656392333984375,-3.6860230934143066,-11.197681164550781,2.422183892059326
1758274246426350600,9.6663505859375,-5.607669200897217,-15.097386756134032,3.3035493782043455
1758274246436309500,9.6763095703125,-8.484302495574951,-16.551116076660154,5.8631005905151365
1758274246446267600,9.686267578125,-9.878176774597167,-13.43221950149536,11.367370207214355
1758274246456225300,9.696225341796875,-5.710919147491455,-10.213514644622801,13.307721015167235
1758274246466184400,9.706184326171876,2.207154655456543,-8.053795109558106,8.619574889373778
1758274246476142300,9.716142333984376,5.810128878784179,-6.714388918304443,3.622427111816406
1758274246486100500,9.7261005859375,2.5611972259521485,-7.114070957946777,0.8961796089172362
1758274246496059400,9.736059326171874,-1.9291279876708982,-7.624933737182617,-0.9060556907653808
1758274246506017500,9.746017578125,-14.263755665588379,-8.623914379882812,-2.996792290496826
1758274246515975400,9.755975341796875,-6.884975786590576,-8.709806364440917,0.5808931777954102
1758274246525934300,9.765934326171875,3.245041075134277,-8.839991079711913,5.275324082946777
1758274246535892500,9.775892578125,2.3159411933898926,-9.62109937133789,7.4134958030700675
1758274246545850600,9.7858505859375,0.4212298545837402,-9.491513206481933,8.568698104095459
1758274246555809500,9.7958095703125,1.599177071380615,-8.879345769500732,7.813028205108642
1758274246565767400,9.805767333984376,2.8302456375122067,-8.059331700897216,5.163694430541992
1758274246575725600,9.8157255859375,2.1308394775390624,-7.7322238990783685,4.006546840667724
1758274246585684500,9.8256845703125,0.8547299926757812,-8.132055576324463,4.072537023925781
1758274246595642600,9.835642578125,-0.3538929328918457,-8.628104232788086,4.118475768280029
1758274246605600500,9.8456005859375,-1.7507599639892577,-8.741529536437987,3.905242182922363
1758274246615559700,9.8555595703125,-3.133411422729492,-8.730755628967284,4.125957648468018
1758274246625517600,9.865517578125,-2.256235789489746,-8.083572992706298,4.5322237426757805
1758274246635475500,9.875475341796875,-0.15367781906127928,-7.537994289398193,4.8035167182922365
1758274246645434400,9.885434326171875,0.5823895538330078,-7.333888597869873,4.914847095489502
1758274246655392500,9.895392578125,0.31663316955566406,-7.2237553215026855,4.164713787841797
1758274246665350100,9.90535009765625,-0.679953271484375,-8.079083864593505,2.9940988136291504
1758274246675309000,9.91530908203125,-1.4879963317871092,-9.25029738922119,1.599326708984375
1758274246685267200,9.92526708984375,-1.2560580459594726,-9.673771807861328,0.6531681404113769
1758274246695225000,9.93522509765625,-0.06150105514526367,-9.564835632324218,0.47105917663574215
1758274246705184300,9.945184326171875,0.9175777862548827,-9.364021968078612,1.0531494552612304
1758274246715142000,9.955141845703125,1.2325649421691893,-9.665392102050781,1.8849848945617675
1758274246725100000,9.96510009765625,1.0218751960754393,-10.054449871826172,2.634220376586914
1758274246735059000,9.975058837890625,0.3500023551940918,-10.456376475524902,2.7965771766662595
1758274246745017000,9.98501708984375,0.08529343414306641,-10.61648871154785,2.7501895195007324
1758274246754975000,9.99497509765625,0.18914193115234373,-11.317241609954833,3.0009821434020996
1758274246764934100,10.00493408203125,0.28730419921875,-9.476549446105956,3.029862200927734
1758274246774892000,10.01489208984375,0.34237083740234375,-8.441206865692138,2.6001030029296874
1758274246784850200,10.02485009765625,0.27398645248413084,-10.332027626800537,2.0965724662780763
1758274246794809000,10.03480908203125,-0.131531453704834,-9.932644862365722,1.9430442848205565
1758274246804767200,10.044767333984375,-0.1158195053100586,-9.213935451507568,1.6907552848815917
1758274246814725000,10.05472509765625,0.4617816452026367,-9.382427393341064,1.525256095123291
1758274246824684000,10.06468408203125,1.0308534523010253,-9.747243871307372,1.696291876220703
1758274246834642200,10.07464208984375,1.2943652725219725,-9.525032029724121,2.378788986968994
1758274246844600300,10.084600341796875,-0.2876034744262695,-7.955333566284179,2.902370962524414
1758274246854559200,10.094559326171876,1.3507786491394043,-9.42327845916748,2.5100211654663083
1758274246864517000,10.10451708984375,1.7395371437072753,-11.034576176452637,3.0000843177795407
1758274246874475000,10.11447509765625,1.064821188354492,-7.273285368347167,3.1108161445617672
1758274246884434200,10.12443408203125,-2.645592834472656,-7.462128024291991,2.355295883178711
1758274246894392000,10.13439208984375,-2.616263864135742,-12.796110047912597,3.8563106864929195
1758274246904350000,10.144349853515624,2.65576819152832,-10.541071359252928,3.238905933380127
1758274246914309000,10.15430908203125,4.614823699951172,-9.09751739578247,1.0550947441101073
1758274246924267000,10.16426708984375,1.9987094734191893,-8.693046952819824,0.3221697608947754
1758274246934225200,10.17422509765625,-0.26650457229614255,-8.613439747619628,0.4294599227905273
1758274246944184000,10.18418408203125,0.12030863342285156,-9.086144937896728,1.356614515686035
1758274246954142200,10.19414208984375,0.10639233627319335,-9.095272831726074,2.701706935882568
1758274246964100000,10.20410009765625,0.4607341819763183,-8.79090994567871,3.345896820068359
1758274246974059000,10.21405908203125,0.750133307647705,-9.948057535552978,3.5576340293884274
1758274246984017200,10.22401708984375,0.7393594001770019,-11.43410857849121,3.621230010986328
1758274246993975000,10.23397509765625,0.14155717315673827,-11.0447515335083,2.774580448913574
1758274247003934200,10.243934326171875,3.9688381645202635,-11.712135246276855,1.226429800415039
1758274247013892000,10.25389208984375,2.562543964385986,-9.605985973358154,1.7769465446472168
1758274247023850200,10.263850341796875,-0.2599205177307129,-10.619032550811767,1.0941501586914062
1758274247033809200,10.27380908203125,1.638980673980713,-12.885144422149658,0.9463082061767577
1758274247043767300,10.283767333984375,2.137423532104492,-12.375927656555175,1.250671092224121
1758274247053725000,10.293724853515625,1.2042834350585936,-12.2330237449646,1.8742109870910644
1758274247063684400,10.303684326171876,0.36361937713623044,-13.102118947601317,2.9327473960876462
1758274247073642000,10.31364208984375,0.7003039855957031,-13.460501008605956,3.650409343719482
1758274247083600100,10.32360009765625,1.324143155670166,-12.39747547149658,3.788524851989746
1758274247093559000,10.33355908203125,1.0365396812438965,-11.342380727386473,2.7250504020690918
1758274247103517000,10.343516845703125,0.7646481552124023,-11.678616423034667,1.3447931449890136
1758274247113476000,10.35347607421875,0.11462240447998046,-12.72413436050415,0.5621884773254394
1758274247123434000,10.36343408203125,0.8539818046569824,-14.338724105072021,0.876577082824707
1758274247133392100,10.37339208984375,2.141912660217285,-14.501829093170166,2.19608147277832
1758274247143351000,10.38335107421875,3.158849815368652,-14.004433698272704,4.212747458648681
1758274247153309200,10.39330908203125,2.899677485656738,-13.31819564743042,5.915473751831055
1758274247163267000,10.40326708984375,1.9834464378356933,-12.874819427490234,6.434117686462402
1758274247173226200,10.413226318359374,1.357961254119873,-13.045705570983886,4.83928010559082
1758274247183184100,10.42318408203125,1.9479823257446287,-16.003741722106934,1.7643769859313965
1758274247193142300,10.433142333984375,2.7142764945983884,-19.723283638763426,-0.6165069274902344
1758274247203101200,10.44310107421875,-1.051503441619873,-19.374927297210693,-0.0857423469543457
1758274247213059000,10.45305908203125,-2.2176292877197263,-16.303316204833983,4.235642012023925
1758274247223017200,10.463017333984375,2.316988656616211,-11.06450369720459,6.887220350646972
1758274247232976100,10.47297607421875,1.9403508079528808,-11.243769546508789,7.490259893798828
1758274247242934300,10.482934326171875,3.6119524795532225,-12.514342440032959,6.936151847076416
1758274247252892000,10.492891845703125,4.2892122741699215,-10.972775846099854,6.079326927947998
1758274247262851000,10.50285107421875,-5.996128420257568,-11.341632539367675,5.385457359313965
1758274247272809000,10.51280908203125,3.84972663192749,-9.464129524993895,5.455487757873535
1758274247282767000,10.52276708984375,-1.3711293632507324,-6.4469865203857415,4.793640636444091
1758274247292726000,10.53272607421875,-8.123077320098876,-7.11811117324829,1.9702783287048338
1758274247302684200,10.54268408203125,-1.6986860778808592,-7.691073558044433,0.8623615104675293
1758274247312642000,10.55264208984375,13.998298556518554,-10.343998635101318,0.8557774559020995
1758274247322601000,10.56260107421875,0.948103857421875,-7.963114721679687,4.324377111053466
1758274247332559000,10.57255908203125,-6.025008477783203,-4.911106155395507,8.493430389404296
1758274247342517200,10.582517333984375,-4.3439796371459956,-3.365200070953369,10.447847132110596
1758274247352476200,10.59247607421875,-0.020051438903808592,-3.8144121574401852,11.550676271820068
1758274247362434000,10.60243408203125,0.44636897201538084,-3.4075475128173824,12.529306200408934
1758274247372392200,10.61239208984375,4.0352772605895995,-3.125181354522705,14.314183538055419
1758274247382351000,10.62235107421875,7.133673484039306,-3.2921769203186035,16.153977876281736
1758274247392309200,10.632309326171875,8.736741133117675,-3.558831130218506,17.464952922821045
1758274247402267100,10.64226708984375,9.70968483276367,-4.032134870910644,17.819893318939208
1758274247412226300,10.652226318359375,10.575637645721434,-4.811896424102783,17.415123600769043
1758274247422184200,10.66218408203125,11.521646576690673,-5.524769968414306,16.278626000213624
1758274247432142000,10.67214208984375,11.660809548187256,-6.1842228881835934,14.069526055908202
1758274247442101000,10.68210107421875,10.627561894226073,-6.757783823394775,11.227010134887694
1758274247452059100,10.69205908203125,8.901941047668457,-6.900238822174072,7.905354606628418
1758274247462017000,10.70201708984375,7.654113069915771,-7.072770979309082,4.344727825164795
1758274247471976000,10.711975830078124,6.668749449157715,-7.737161940002441,0.2166752502441406
1758274247481934000,10.72193408203125,5.700444515228271,-8.285434120178222,-3.9591117202758785
1758274247491893000,10.73189306640625,5.804293012237548,-8.106916458892822,-7.09312169342041
1758274247501851100,10.74185107421875,6.5628060256958,-7.091475679779053,-8.59892490005493
1758274247511809000,10.75180908203125,6.525845537567139,-5.65001664276123,-8.434173898315429
1758274247521768200,10.761768310546875,6.085910982513427,-3.921851956939697,-7.653664157104492
1758274247531726000,10.77172607421875,5.895123037719726,-3.2888848930358883,-6.72217007369995
1758274247541684200,10.781684326171876,5.984157411956787,-2.3675661666870114,-5.551704737091064
1758274247551643100,10.79164306640625,5.760449194335937,-2.107346373748779,-4.591480233764648
1758274247561601300,10.801601318359374,5.097255334472656,-2.15777424621582,-4.350563691711425
1758274247571559200,10.81155908203125,5.360916792297363,-2.2973861305236816,-3.8310219314575193
1758274247581518000,10.82151806640625,6.372018080902099,-2.350657117462158,-2.796876451873779
1758274247591476200,10.831476318359375,7.100902848815918,-1.9671359390258787,-1.5707459266662598
1758274247601434000,10.84143408203125,7.9749360923767085,-1.6946458625793457,-0.39968203964233395
1758274247611393300,10.851393310546875,8.399308336639404,-1.7311574378967285,0.3333925811767578
1758274247621351000,10.861350830078125,7.827842327880859,-1.9578584075927734,0.30256723480224607
1758274247631309000,10.87130908203125,7.767987286376953,-2.3973440498352048,0.06120177993774414
1758274247641268000,10.88126806640625,17.44983952484131,-2.4322096115112304,6.436062975311279
1758274247651226000,10.89122607421875,20.141071828460692,-1.5240589942932128,13.98842247467041
1758274247661184500,10.9011845703125,1.5361796401977539,-3.2441432495117186,0.002992752075195312
1758274247671143400,10.911143310546874,9.185953219604492,-2.5713725830078125,2.0533271987915036
1758274247681101600,10.9211015625,8.341548221588134,-1.5747861419677733,0.8996212738037109
1758274247691059700,10.931059814453125,6.861781958007812,-1.833509558868408,-0.5571007987976074
1758274247701018600,10.9410185546875,7.024886946105957,-1.4414590370178222,-0.15068506698608397
1758274247710976500,10.9509765625,7.147589781188964,-1.080233861541748,0.0992097312927246
1758274247720934700,10.9609345703125,6.868366012573242,-0.8040028450012207,0.2925415153503418
1758274247730893600,10.9708935546875,6.918045697021484,-0.3360860580444336,-0.10699088668823241
1758274247740851700,10.980851806640626,7.223904959106445,-0.47120881423950195,-1.4103344154357909
1758274247750809600,10.9908095703125,10.54032317123413,-1.0217255584716796,-1.0931026954650878
1758274247760768800,11.000768798828124,9.025242433166504,0.5195417602539062,-2.035370686340332
1758274247770726700,11.0107265625,7.65486125793457,0.4364928901672363,-1.4914379966735838
1758274247780684800,11.020684814453125,9.396792603302002,0.6693290016174316,1.744774459838867
1758274247790643700,11.030643798828125,8.138639630889893,1.3690344367980956,3.997867859649658
1758274247800601600,11.0406015625,7.2155252532958984,1.4990695144653319,5.618742383575439
1758274247810560800,11.050560791015625,7.612364178466796,0.4879682258605957,3.5447651954650876
1758274247820518700,11.0605185546875,7.161506078338623,0.16445172653198242,1.4315829551696777
1758274247830476500,11.0704765625,7.638700396728515,0.9205705383300781,2.424877368927002
1758274247840435500,11.080435546875,7.614159829711913,1.568651000213623,2.3205799591064453
1758274247850393600,11.0903935546875,7.282263624572754,2.0214543891906738,2.0766706649780273
1758274247860351500,11.1003515625,7.9940897056579585,1.730708525085449,1.1553519386291504
1758274247870310700,11.110310546875,9.145251791381835,0.38232407760620113,0.30466216125488277
1758274247880268500,11.1202685546875,9.311648806762694,0.6926724678039551,0.5098153160095215
1758274247890226700,11.130226806640625,9.497797985839844,1.120336739349365,0.9290998817443847
1758274247900185600,11.140185546875,9.656713121032714,1.1635820068359375,1.0375871444702147
1758274247910143500,11.1501435546875,9.324667278289795,1.2184990074157713,1.135749412536621
1758274247920101600,11.1601015625,8.924536325836181,1.3441945945739746,1.3347674255371094
1758274247930060500,11.170060546875,8.760533512115478,1.6098013412475585,1.6557400856018065
1758274247940018700,11.180018798828126,8.806621894073485,1.932569652557373,1.8263269538879394
1758274247949976600,11.1899765625,8.514230016326904,2.109890213012695,1.6422727012634277
1758274247959935700,11.199935791015625,8.355015605926512,2.362777763366699,1.5301941360473632
1758274247969893600,11.2098935546875,8.253411672973632,2.567781280517578,1.5459060844421386
1758274247979851800,11.219851806640625,8.25415986099243,2.6491841369628903,1.4021043472290038
1758274247989810700,11.229810791015625,8.480860830688476,2.61746096496582,1.0455179374694823
1758274247999768800,11.239768798828125,8.921842848968506,2.560748313140869,0.8822633117675781
1758274248009727700,11.249727783203125,9.342025240325928,2.4542063392639157,0.9970353538513183
1758274248019685600,11.259685546875,9.383774131774901,2.412008535003662,0.9964368034362793
1758274248029643500,11.2696435546875,9.268253901672363,2.509721890258789,0.9686042091369629
1758274248039602400,11.2796025390625,9.159018450927734,2.588880182647705,0.8895955543518066
1758274248049560600,11.289560546875,8.965836304473877,2.7193641731262206,0.8762778076171874
1758274248059518500,11.2995185546875,8.802880953979491,2.929754644012451,0.9083002548217773
1758274248069477600,11.3094775390625,8.666112184143065,2.9415760147094723,0.9448118301391601
1758274248079435500,11.319435546875,8.616731774902343,3.031208939361572,1.011849476623535
1758274248089393700,11.3293935546875,8.624812205505371,3.12847338180542,0.7706336593627929
1758274248099352600,11.3393525390625,8.667758197784423,3.028066549682617,0.5340566078186035
1758274248109310700,11.349310791015625,8.911517854309082,3.090764705657959,0.45055882492065424
1758274248119268600,11.3592685546875,9.115024995422363,3.2161610176086426,0.4192845657348633
1758274248129227500,11.3692275390625,9.153332221984863,3.288585617828369,0.40222587890625
1758274248139185700,11.379185546875,9.202413356018067,3.16004691619873,0.48512511138916015
1758274248149143800,11.389143798828124,9.188945971679686,3.017891192626953,0.9080009796142577
1758274248159102700,11.399102783203125,9.243563697052002,3.0268694488525387,1.383399646759033
1758274248169060600,11.409060546875,9.287407514953612,2.9671640449523924,1.6326958946228027
1758274248179018800,11.419018798828125,9.33349589691162,2.9492075325012204,1.6829741294860838
1758274248188977700,11.428977783203125,9.27603505706787,2.9715035354614256,1.5705962890624998
1758274248198935600,11.438935546875,9.131784407043456,3.08358210067749,1.4842553916931152
1758274248208893400,11.4488935546875,9.015067076110839,3.1591490905761717,1.3193547523498534
1758274248218852600,11.4588525390625,8.981099340057373,3.2430957862854,1.1825859825134277
1758274248228810500,11.468810546875,8.86108998184204,3.2568624458312985,0.8882488159179687
1758274248238769400,11.478769287109374,9.005490269470215,3.3494881225585935,0.5321113189697265
1758274248248727600,11.4887275390625,9.189245246887207,3.2218472465515133,0.3094505645751953
1758274248258685700,11.498685791015625,9.312247357177734,3.262997587585449,0.09516951599121093
1758274248268644600,11.50864453125,9.318831411743163,3.285293590545654,0.09636661682128905
1758274248278602500,11.5186025390625,9.445724099731445,3.3481413841247556,0.15427636947631834
1758274248288560600,11.528560546875,9.715371061706543,3.268085266113281,0.29837738189697266
1758274248298519600,11.53851953125,9.878476049804688,3.0713118171691893,0.39220015945434566
1758274248308477700,11.548477783203126,9.996240843963623,3.092560356903076,0.5066729263305664
1758274248318435600,11.558435546875,9.988908601379395,3.1687258972167966,0.48198272171020506
1758274248328394800,11.568394775390624,9.770288062286376,3.165583507537842,0.30526071166992186
1758274248338352600,11.5783525390625,9.57620809020996,3.1893758865356445,0.2088940948486328
1758274248348310800,11.588310791015624,9.314043008422852,3.3533787002563473,0.3790320503234863
1758274248358269700,11.598269775390625,8.962843552398681,3.4775779113769527,0.5499181938171387
1758274248368227800,11.608227783203125,8.748562503814696,3.4961329742431637,0.6386532928466796
1758274248378185500,11.618185546875,8.72087954711914,3.538330778503418,0.7015010864257812
1758274248388144600,11.62814453125,8.648454946899413,3.5535938140869137,0.7586626510620117
1758274248398102500,11.6381025390625,8.627954595184326,3.5749919914245605,0.8349778289794921
1758274248408060700,11.648060791015626,8.74661721496582,3.646668403625488,0.8330325401306152
1758274248418019600,11.65801953125,8.751704893493653,3.4069489624023435,0.6685808135986328
1758274248427977500,11.6679775390625,8.88607946166992,3.3672949974060056,0.620547142791748
1758274248437936600,11.6779365234375,8.93112038040161,3.236212456512451,0.8411129707336426
1758274248447894500,11.68789453125,9.28276874923706,3.8793548774719238,1.0154407791137694
1758274248457852700,11.697852783203125,7.256077043914795,4.261230042266845,0.11043255157470702
1758274248467811600,11.7078115234375,7.555052976226806,3.7419875572204586,-0.2871545616149902
1758274248477769700,11.717769775390625,7.006182245635986,4.389170193481445,0.03980360260009765
1758274248487727600,11.7277275390625,6.758681649017333,5.121496626281738,-0.2885013000488281
1758274248497686500,11.7376865234375,7.7985133575439445,4.708796115112304,-0.40671500701904295
1758274248507644700,11.747644775390626,8.601468739318847,4.102165269470214,-0.6319196006774902
1758274248517602600,11.7576025390625,9.063549659729004,3.5734956153869626,-0.6883329772949218
1758274248527561700,11.767561767578124,9.364620518493652,3.4267011260986324,-0.2472013214111328
1758274248537519600,11.77751953125,9.113079706573485,3.6426281883239744,-0.10609306106567382
1758274248547477800,11.787477783203125,9.159766638946532,3.623175299835205,-0.28176760787963867
1758274248557436700,11.797436767578125,9.306112215423584,3.6797383140563964,-0.4285620971679687
1758274248567394800,11.807394775390625,9.482385312652587,3.8998552291870117,-0.38247371520996093
1758274248577352400,11.8173525390625,9.669432317352294,3.8709751716613767,-0.3329436683654785
1758274248587311600,11.8273115234375,9.803507610321045,3.656993398284912,-0.4369418029785156
1758274248597269500,11.83726953125,9.802609784698486,3.404704398345947,-0.24271219329833982
1758274248607227600,11.8472275390625,9.504531678009032,3.6935049736022947,-0.10504559783935546
1758274248617186600,11.8571865234375,9.203161544036865,4.042160590362548,-0.22131401596069333
1758274248627144400,11.86714453125,8.889221851348877,3.965246862030029,-0.313490779876709
1758274248637103600,11.877103515625,8.960898263549804,3.5537434516906736,0.06898293533325195
1758274248647061500,11.8870615234375,8.96359174041748,3.668365856170654,0.026036943054199218
1758274248657019600,11.89701953125,9.114127169799804,4.030937770080566,-0.4421791191101074
1758274248666978600,11.906978515625,9.18131445388794,3.9018005180358886,-0.8860042518615722
1758274248676936400,11.9169365234375,9.109189128875732,3.95836353225708,-1.0121487518310546
1758274248686894300,11.926894287109375,8.996960926055907,3.615394144439697,-0.7556698989868164
1758274248696853500,11.936853515625,8.850615349578858,3.525461944580078,-0.999130280303955
1758274248706811400,11.946811279296876,8.826074782562255,3.9827544616699218,-1.7114052742004393
1758274248716769500,11.95676953125,8.930372192382812,4.338891958618164,-1.9443910232543944
1758274248726728400,11.966728515625,8.821735292053223,4.800823241424561,-1.801636749267578
1758274248736686600,11.9766865234375,9.045144234466552,4.603750517272949,-1.1680711349487305
1758274248746644500,11.98664453125,9.098265583801268,4.391265119934082,-0.7202057868957519
1758274248756603400,11.996603271484375,8.63124662246704,4.16920291595459,-0.5114613296508789
1758274248766561500,12.0065615234375,8.166771500396727,4.249408671569824,-0.5976525894165039
1758274248776520400,12.0165205078125,8.31865366821289,4.629488185119628,-0.8851064262390136
1758274248786478600,12.026478515625,8.48490104598999,5.103839389038086,-1.510441972351074
1758274248796436500,12.0364365234375,8.832509199523924,5.615749631500244,-2.0196587379455564
1758274248806395600,12.046395751953124,9.018359103393554,6.236895324707031,-2.2719477378845214
1758274248816353500,12.056353515625,9.06609349899292,6.6437599693298335,-2.385223403930664
1758274248826311700,12.066311767578124,9.226056097412108,6.610241146087646,-2.4500164863586424
1758274248836270600,12.0762705078125,9.411457088470458,6.373963369750976,-2.000355487060547
1758274248846228500,12.086228515625,9.433004903411865,5.961262858581542,-1.464652865600586
1758274248856186400,12.096186279296875,9.094973556518553,5.073462955474853,-1.154903025817871
1758274248866145500,12.1061455078125,8.81694688873291,4.436754951477051,-0.43798926620483397
1758274248876103400,12.116103515625,8.705915786743164,4.147355825805664,-0.40222587890625
1758274248886061300,12.126061279296875,8.45302823638916,4.153640605163574,-0.7815572044372558
1758274248896020500,12.1360205078125,8.354865968322754,4.314800304412842,-0.7600093894958496
1758274248905978400,12.145978271484376,8.308478311157225,4.537760334014893,-0.5725134719848632
1758274248915936500,12.1559365234375,8.277802602386474,4.696226556396484,-0.5340566078186035
1758274248925895400,12.1658955078125,8.100182766723632,4.760421088409424,-0.6663362495422362
1758274248935853600,12.175853515625,8.089708134460448,4.721216036224365,-0.8613140472412109
1758274248945812500,12.1858125,8.316708379364012,4.489726663208008,-1.0178349807739258
1758274248955770400,12.195770263671875,8.3256866355896,4.3622354248046875,-0.860565859222412
1758274248965728500,12.205728515625,8.078934226989746,4.367772016143799,-0.6036380935668945
1758274248975687400,12.2156875,7.883806791687011,4.3363481193542475,-0.42886137237548827
1758274248985645600,12.2256455078125,7.7781626434326165,4.312555740356445,-0.3763385734558105
1758274248995603500,12.235603515625,7.781753945922851,4.32213254699707,-0.6428431457519531
1758274249005562600,12.245562744140624,7.8724343338012694,4.376151721954345,-0.8325836273193359
1758274249015520500,12.2555205078125,8.128464273834227,4.4577042160034175,-0.7703343841552734
1758274249025478700,12.265478759765625,8.488492348480223,4.604498705291748,-0.9852139831542969
1758274249035437600,12.2754375,8.781782051849365,4.651784188079834,-1.307533381652832
1758274249045395500,12.2853955078125,8.424896366882324,4.515165055847167,-1.35990654296875
1758274249055353300,12.295353271484375,8.207472928619385,4.499453107452393,-1.7471686614990234
1758274249065312500,12.3053125,8.646808933258056,4.567687854766845,-1.8906711235046385
1758274249075270400,12.3152705078125,9.439140045166015,4.614674062347412,-1.2502221794128416
1758274249085229300,12.325229248046876,8.988581220245361,4.731391393280029,-0.21308394775390624
1758274249095187500,12.3351875,8.406042028808594,5.162497329711914,-0.20545242996215818
1758274249105145300,12.345145263671874,8.009352741241454,5.3387704269409175,-0.2498947982788086
1758274249115104500,12.3551044921875,6.7277066650390625,4.99235937423706,-0.3491045295715332
1758274249125062400,12.3650625,6.454019487762451,5.221454545593262,-0.5725134719848632
1758274249135020500,12.3750205078125,7.152228546905517,5.4996308509826655,-0.28266543350219725
1758274249144979500,12.3849794921875,7.987356013488769,4.922628250885009,0.010324994659423827
1758274249154937600,12.3949375,8.611494458770752,4.479850581359863,-0.07227496261596679
