time,seconds_elapsed,z,y,x
1758274236817845000,0.057844970703125,8.725527080664039,4.47610671865642,0.005761395375445136
1758274236827804000,0.067803955078125,8.737529653146863,4.451933815908432,0.07900877351616509
1758274236837761800,0.07776171875,8.748402344816922,4.428601163376867,0.15274244704046286
1758274236847720000,0.087719970703125,8.753540292227267,4.414892956019938,0.2337526600395329
1758274236857677800,0.097677734375,8.75153830475509,4.413263601252436,0.3225891553506255
1758274236867636000,0.107635986328125,8.741940455326437,4.424564747467636,0.4148363906869664
1758274236877595000,0.117594970703125,8.724636853826045,4.450119167701899,0.4975276795076206
1758274236887553000,0.127552978515625,8.698711554452776,4.494340294483304,0.5511002797411755
1758274236897510700,0.1375107421875,8.666092894920705,4.554254080437124,0.5726968657277525
1758274236907468800,0.14746875,8.632315128481387,4.615790499156713,0.5899163326086476
1758274236917427700,0.157427734375,8.607689805790782,4.656847901210188,0.6259644916653633
1758274236927385900,0.1673857421875,8.602094177740812,4.658666933330894,0.6864235634770244
1758274236937343700,0.17734375,8.614365045771002,4.6251773361831905,0.7555382354311645
1758274236947302000,0.187302001953125,8.636850433823465,4.570184055496752,0.8298303100232034
1758274236957259800,0.197259765625,8.660914030978082,4.509516236305236,0.9073153354376554
1758274236967219000,0.207218994140625,8.674614639550446,4.464779853478074,0.9935728653725237
1758274236977176800,0.2171767578125,8.669972951224446,4.453688550621271,1.0800973756805061
1758274236987135000,0.227135009765625,8.646921161460876,4.477361102631688,1.1637760681033134
1758274236997092900,0.2370927734375,8.607586345416307,4.526945217750966,1.259606386090815
1758274237007050800,0.24705078125,8.556689101871848,4.587703345574439,1.380738610856235
1758274237017010000,0.257010009765625,8.49931710935533,4.645737893652916,1.5326812766879796
1758274237026967800,0.2669677734375,8.446180562451481,4.687369003941119,1.6914473587989807
1758274237036925700,0.27692578125,8.408946518078446,4.706509465479851,1.8190014333054423
1758274237046883800,0.2868837890625,8.393585282817483,4.7023213661402465,1.8990235029168425
1758274237056842800,0.2968427734375,8.399507074081898,4.670661322507262,1.9502799351625144
1758274237066801000,0.30680078125,8.419913317772746,4.616161378295719,1.9916072401985525
1758274237076758800,0.3167587890625,8.44489753690362,4.550957961501181,2.035406342175603
1758274237086717000,0.326717041015625,8.46533709834218,4.485982215982675,2.09389827863276
1758274237096674800,0.3366748046875,8.477528471395372,4.424903770163655,2.1730445883229375
1758274237106634000,0.346634033203125,8.4801453758955,4.364950821243227,2.2813873280115424
1758274237116591900,0.356591796875,8.471995387187599,4.302207072560489,2.426251579889655
1758274237126550000,0.366550048828125,8.452906655836104,4.234546910263598,2.605256732431054
1758274237136507600,0.376507568359375,8.424180327567457,4.159426787349582,2.811181456080079
1758274237146465800,0.3864658203125,8.383981588169933,4.075087000669539,3.04514452573359
1758274237156424700,0.3964248046875,8.327986144703626,3.9802074075356124,3.3125498462617395
1758274237166382800,0.4063828125,8.252941132852435,3.8728856814578174,3.613876141092181
1758274237176340700,0.4163408203125,8.16115541408062,3.7522581913441417,3.935288069356978
1758274237186299000,0.426298828125,8.061381619164347,3.6166479438930748,4.254922466555238
1758274237196257800,0.4362578125,7.961181707790494,3.459778343053162,4.562883669355512
1758274237206216000,0.4462158203125,7.8589283710181705,3.2740260543391106,4.8670714910969135
1758274237216173800,0.456173828125,7.749912700504064,3.055876055367291,5.174056250080466
1758274237226132000,0.466132080078125,7.630621719691157,2.8069971561327574,5.48313505873382
1758274237236091000,0.4760908203125,7.498712664845585,2.535874568647146,5.7886985527426
1758274237246049000,0.486049072265625,7.354675949832797,2.256981639420986,6.081542850431799
1758274237256007000,0.4960068359375,7.20205728443563,1.983049547472596,6.353603887811302
1758274237265965000,0.505965087890625,7.0397098367065185,1.7192000197298825,6.60736179125905
1758274237275922700,0.515922607421875,6.86627985394895,1.461922271592915,6.847435452747344
1758274237285881900,0.5258818359375,6.683973321774602,1.2050724665444343,7.074085569038987
1758274237295839700,0.53583984375,6.498750609892606,0.9415703639999031,7.2835478191643945
1758274237305798000,0.5457978515625,6.321145971798896,0.6662305241454393,7.467907776737213
1758274237315755800,0.555755859375,6.160418234226107,0.38124413688238706,7.620648022687435
1758274237325714000,0.5657138671875,6.0156111193627115,0.0915937215973623,7.744314734366536
1758274237335672800,0.5756728515625,5.877789041081071,-0.19811892700260503,7.847466481283306
1758274237345631000,0.585630859375,5.734607481592893,-0.48447654781993477,7.940399032002687
1758274237355588900,0.5955888671875,5.581418907353282,-0.7670296435214579,8.02681825530529
1758274237365547000,0.605547119140625,5.426655046620965,-1.039050129694864,8.101986016753315
1758274237375506000,0.615505859375,5.274909656926989,-1.2918348772615194,8.16559076617956
1758274237385464000,0.625464111328125,5.129238034188747,-1.5220612446047366,8.218554879125952
1758274237395422000,0.635421875,4.9909232039541,-1.730079141140729,8.262439613559842
1758274237405379800,0.6453798828125,4.8558518856853246,-1.9177647360049186,8.30140208916068
1758274237415337700,0.655337646484375,4.72185901030302,-2.088368117034435,8.337455399316548
1758274237425297000,0.665296875,4.597403194072842,-2.244988857679814,8.366258299952746
1758274237435254800,0.6752548828125,4.501299904362857,-2.3871536413408814,8.379152268317341
1758274237445213000,0.685212890625,4.4393890993729235,-2.5098332416787743,8.376332534721493
1758274237455170800,0.6951708984375,4.403975840686261,-2.6104177684560415,8.364275601702928
1758274237465129700,0.705129638671875,4.379470637243986,-2.693728796610236,8.350715278384088
1758274237475088000,0.715087890625,4.349246763893961,-2.764520534931123,8.343371929883956
1758274237485046000,0.7250458984375,4.306787970609963,-2.826980205975473,8.344468492949009
1758274237495004000,0.73500390625,4.248492725768685,-2.8808211017563936,8.355929798161982
1758274237504962000,0.744962158203125,4.173851034021378,-2.9198098808422683,8.379979366791249
1758274237514921000,0.7549208984375,4.091885282996297,-2.94102977900356,8.412918928840757
1758274237524879000,0.764879150390625,4.020542925055325,-2.9471283881396055,8.44512023974359
1758274237534836700,0.774836669921875,3.967990900041163,-2.943226120004058,8.471295714485645
1758274237544795000,0.784794921875,3.926659941743314,-2.940514522957802,8.491472241073847
1758274237554753800,0.79475390625,3.876142637427151,-2.9503844673261046,8.511236095207929
1758274237564712000,0.8047119140625,3.7946675925284623,-2.9793071949496865,8.537833594754337
1758274237574669800,0.814669921875,3.684257545046508,-3.028074440728128,8.568978090080618
1758274237584628000,0.8246279296875,3.566728605470061,-3.0927886127009985,8.595550455185771
1758274237594585900,0.8345859375,3.460112689574063,-3.1648297665610907,8.612890297043323
1758274237604544800,0.844544677734375,3.367764368483424,-3.2337121641293165,8.62390035135746
1758274237614503000,0.8545029296875,3.2755972491785883,-3.2958094316020605,8.635884219139815
1758274237624461000,0.8644609375,3.17114347975254,-3.3522651860564947,8.65312410775423
1758274237634419000,0.8744189453125,3.0537802521318196,-3.402462756898999,8.675717047834397
1758274237644377900,0.8843779296875,2.9316739216372367,-3.4448569605141874,8.70107126932144
1758274237654334700,0.894334716796875,2.8123905396088955,-3.482374498003721,8.725475642737745
1758274237664292900,0.90429296875,2.6999697368264197,-3.519297868992388,8.746147259366511
1758274237674250800,0.914250732421875,2.5934198719039556,-3.5584207958519456,8.762544267416
1758274237684209000,0.924208984375,2.4787574276745317,-3.6059035547778007,8.77630800435245
1758274237694167800,0.934167724609375,2.325513031594455,-3.6736245073512195,8.790156496962904
1758274237704126000,0.9441259765625,2.138574894096702,-3.7658620615437624,8.798587640699743
1758274237714083800,0.954083740234375,1.9456293328776955,-3.878238440662622,8.794553855139016
1758274237724042000,0.9640419921875,1.7814736666828392,-4.00290789964348,8.773451445877551
1758274237734001000,0.9740009765625,1.6735829085454343,-4.133813622665405,8.733904448387026
1758274237743959000,0.983958984375,1.6367174052238462,-4.2693823690623045,8.675478562903404
1758274237753917000,0.9939169921875,1.6661802310734986,-4.35964803865999,8.624829741162062
1758274237763874800,1.003874755859375,1.63602489291504,-4.493177095922827,8.561844000416993
1758274237773832700,1.013832763671875,1.4992128684587775,-4.775557867264747,8.433077335250378
1758274237783791900,1.0237919921875,1.3912193805992603,-5.131351665341854,8.240394955012201
1758274237793749800,1.033749755859375,1.4246879349589348,-5.3997886670053,8.061199832856655
1758274237803708000,1.0437080078125,1.5558113923847674,-5.544426855042577,7.937831227341293
1758274237813665800,1.053665771484375,1.6345549664929508,-5.654328660741448,7.843926616719365
1758274237823625000,1.063625,1.6564986488841473,-5.791839773377776,7.738280714899301
1758274237833582800,1.073582763671875,1.6653002333685756,-5.971930967590213,7.59823803795874
1758274237843541000,1.083541015625,1.6867409346736966,-6.193064950808882,7.414259188657999
1758274237853499000,1.093498779296875,1.7404203562825917,-6.439168540111184,7.188771101883053
1758274237863457000,1.10345703125,1.8441176082529127,-6.686060649442672,6.932978477737307
1758274237873416000,1.113416015625,1.9577510016955435,-6.923128114852309,6.663922467392682
1758274237883374000,1.1233740234375,2.011685274848342,-7.151180499157309,6.401885980421304
1758274237893331700,1.133331787109375,1.9905470636211335,-7.366617732039094,6.159631467762589
1758274237903289900,1.143289794921875,1.9212750822134315,-7.565777783858776,5.936169333857298
1758274237913248800,1.153248779296875,1.8355327352590858,-7.742282936277985,5.732210941845178
1758274237923207000,1.16320703125,1.7375548838488757,-7.876642306885123,5.577614838895201
1758274237933164800,1.173164794921875,1.6265895405717192,-7.970852037933469,5.476322456109523
1758274237943123000,1.183123046875,1.5094422937892376,-8.061427796393632,5.376368043929338
1758274237953081900,1.193081787109375,1.343012983573973,-8.162991397336125,5.266146504756808
1758274237963040000,1.2030400390625,1.139730444996804,-8.263920792028307,5.1554824825137855
1758274237972998000,1.212997802734375,0.9488058682113886,-8.347423251101374,5.058724236026406
1758274237982956000,1.2229560546875,0.7542918886318802,-8.393935411429405,5.014307002151012
1758274237992914000,1.232913818359375,0.6446726992666721,-8.431160103452205,4.966922735163569
1758274238002872800,1.242872802734375,0.6245777134820819,-8.508052204474806,4.836666123700142
1758274238012831000,1.2528310546875,0.6188693457726389,-8.635764392152428,4.605536231645941
1758274238022788900,1.262788818359375,0.5839823029171675,-8.765562153932452,4.3582387563839555
1758274238032746800,1.272746826171875,0.5196947223259136,-8.861882009002565,4.167413694450259
1758274238042705700,1.28270556640625,0.4339583301883191,-8.916060173913836,4.0602904135540125
1758274238052663800,1.292663818359375,0.3388785017745569,-8.932543106681107,4.0330169144421815
1758274238062622000,1.3026220703125,0.27829346549566836,-8.928544976955651,4.046481960693002
1758274238072579800,1.312579833984375,0.30091327531645073,-8.931683859503268,4.037925437010824
1758274238082538800,1.322538818359375,0.3246962836977094,-8.9609438562572,3.970697820912301
1758274238092497000,1.332496826171875,0.31841267338357865,-8.993192513433097,3.8976252781778573
1758274238102454800,1.342454833984375,0.3189823995629325,-8.992025807741284,3.9002731623381375
1758274238112413000,1.352412841796875,0.32590975114069876,-8.982643062368036,3.921262174353003
1758274238122371000,1.36237109375,0.3314985841237008,-8.971552928555012,3.946103185620904
1758274238132330000,1.372330078125,0.3350135334420949,-8.95939428872764,3.973339275331795
1758274238142288000,1.382287841796875,0.33782373202461746,-8.946383415985107,4.002313733142614
1758274238152245800,1.392245849609375,0.34040845128819347,-8.931172402849793,4.035921111451089
1758274238162204000,1.402203857421875,0.34839287417083975,-8.917204083251953,4.066015513202548
1758274238172162800,1.412162841796875,0.3562135213265195,-8.903983951672911,4.094214310465753
1758274238182120700,1.42212060546875,0.3587307648444548,-8.887100621411204,4.130514288859069
1758274238192078800,1.432078857421875,0.3823336856847629,-8.87638282804191,4.151389319105446
1758274238202036700,1.44203662109375,0.41528117531239983,-8.887328000426292,4.124721092410385
1758274238211995000,1.451994873046875,0.4258331105954945,-8.909813388478755,4.074835071735084
1758274238221953800,1.461953857421875,0.422513829979673,-8.92841696666181,4.034256685370207
1758274238231912000,1.471911865234375,0.42803982685953373,-8.938955896332859,4.010266445712745
1758274238241869800,1.481869873046875,0.44186493859440085,-8.945179885414243,3.994858156439662
1758274238251828000,1.491827880859375,0.4546737128935754,-8.949259848204255,3.9842707114517686
1758274238261787000,1.501786865234375,0.4626833798153326,-8.94965849213302,3.982452848374843
1758274238271745000,1.5117451171875,0.47365642658732826,-8.946671000754833,3.9878701972484585
1758274238281702700,1.52170263671875,0.4905179103434086,-8.944794685488938,3.99004023476392
1758274238291660800,1.531660888671875,0.5090521861499175,-8.942027558863163,3.993916491675377
1758274238301619700,1.54161962890625,0.5282862442562356,-8.936706656101345,4.003317357227206
1758274238311577900,1.551577880859375,0.5522607383552939,-8.929999851939082,4.015034683027864
1758274238321535700,1.56153564453125,0.5795525403087959,-8.926016919782757,4.0200414052739735
1758274238331494000,1.571493896484375,0.6017834056109189,-8.923726763018966,4.021859560611844
1758274238341452800,1.581452880859375,0.6233209183540195,-8.919860150718689,4.027151237279177
1758274238351411000,1.591410888671875,0.6443496778573841,-8.915314908504486,4.033901296061277
1758274238361368800,1.601368896484375,0.6611421880304813,-8.911528375703096,4.039544270384312
1758274238371327000,1.611326904296875,0.6740790456887334,-8.907855824670195,4.045505224615336
1758274238381284900,1.621284912109375,0.6844555513396858,-8.903875230601429,4.052519195030629
1758274238391244000,1.631244140625,0.6937683732818811,-8.898567187321186,4.062580862578749
1758274238401202000,1.641201904296875,0.705016985592246,-8.891611961355805,4.075850678518414
1758274238411159800,1.651159912109375,0.7204083967957645,-8.883537375971674,4.090737282004953
1758274238421117700,1.66111767578125,0.7375154528107494,-8.874120143806934,4.1080917369097465
1758274238431076900,1.671076904296875,0.7568636388160288,-8.863733189827203,4.126956304116547
1758274238441034800,1.68103466796875,0.7813072482641786,-8.853419885605573,4.144500436374545
1758274238450993000,1.690992919921875,0.8088567878384143,-8.845412520238757,4.156298718456924
1758274238460950800,1.70095068359375,0.8350518440637738,-8.84134190979898,4.159778961788118
1758274238470910000,1.710909912109375,0.8615778858091682,-8.83813522271216,4.161185905976593
1758274238480867800,1.720867919921875,0.8901140983331948,-8.833848923695086,4.164275688685477
1758274238490826000,1.730825927734375,0.9190179020605981,-8.829581329378485,4.16704807600826
1758274238500783900,1.740783935546875,0.9439066249277442,-8.826651121145487,4.16769075782597
1758274238510742800,1.75074267578125,0.9644843527279794,-8.825698934987187,4.164996111914515
1758274238520701000,1.760700927734375,0.9833286077991127,-8.826543569117783,4.15879550370872
1758274238530659000,1.7706591796875,1.001443671812862,-8.828702208456397,4.149878914542496
1758274238540616700,1.78061669921875,1.0186035539936273,-8.832313384690881,4.138004352353513
1758274238550575900,1.790575927734375,1.0344073453903198,-8.83759220187664,4.122787201738357
1758274238560533800,1.80053369140625,1.0489281843043863,-8.844366810578107,4.104546903909743
1758274238570492000,1.810491943359375,1.063490670403093,-8.85266000714898,4.082865233455598
1758274238580449800,1.82044970703125,1.0790382950816302,-8.862658838593958,4.057010953491926
1758274238590408700,1.83040869140625,1.096564380226284,-8.873385984313488,4.028764809955656
1758274238600366800,1.840366943359375,1.1169928357489407,-8.883520424836874,4.000720034210383
1758274238610324700,1.85032470703125,1.1421559185780583,-8.892002421978116,3.9746924435064193
1758274238620283000,1.860282958984375,1.173039790206775,-8.899238218450545,3.9494218086495994
1758274238630241800,1.87024169921875,1.2077099023759363,-8.906475768488646,3.9225633200794454
1758274238640200000,1.880199951171875,1.2438864005200565,-8.91480228280723,3.8922254649609327
1758274238650158600,1.89015869140625,1.2794279617615043,-8.924693562224506,3.857885972985625
1758274238660116700,1.90011669921875,1.3138821661576627,-8.936068942719697,3.819787712998688
1758274238670075600,1.91007568359375,1.3474915902927518,-8.948724426153301,3.778224407249689
1758274238680033800,1.92003369140625,1.3779977877154945,-8.962470627433062,3.7343846810013055
1758274238689991700,1.92999169921875,1.4025025527663528,-8.976700228315591,3.690827571086585
1758274238699949800,1.93994970703125,1.4175196507647632,-8.991164222475886,3.6496570640474557
1758274238709908700,1.94990869140625,1.4149603216707705,-9.007052696481347,3.6112718038126825
1758274238719867000,1.959866943359375,1.3887519675724207,-9.024306029099225,3.5782203058212994
1758274238729824500,1.969824462890625,1.3427208687596022,-9.040175798404217,3.5556609757497903
1758274238739782700,1.97978271484375,1.2849326966576278,-9.05102101754546,3.549415943880379
1758274238749740500,1.989740478515625,1.220983736903593,-9.05395239482224,3.5644846259355543
1758274238759699500,1.999699462890625,1.1466436584513633,-9.04932765763104,3.6007352122291922
1758274238769657600,2.00965771484375,1.0490228768505157,-9.0403353728801,3.6527082683116197
1758274238779615700,2.01961572265625,0.9185995305180549,-9.03196092776656,3.7081302958041427
1758274238789573600,2.02957373046875,0.7522624286308884,-9.026282297608256,3.759081315362453
1758274238799532500,2.039532470703125,0.5540018829341977,-9.01972980722487,3.8089287575930353
1758274238809490700,2.04949072265625,0.32971889763269574,-9.008029432559013,3.8622622883737083
1758274238819448800,2.05944873046875,0.0852741266543977,-8.988907967981696,3.919520883643627
1758274238829406700,2.06940673828125,-0.16675830470761283,-8.961940466079115,3.978214187891781
1758274238839365600,2.07936572265625,-0.4170946910077706,-8.925975418728589,4.040220562210679
1758274238849323800,2.08932373046875,-0.6603216654278338,-8.87987417728901,4.108798131613433
1758274238859281700,2.09928173828125,-0.8969888064082712,-8.825314904105662,4.180860036000609
1758274238869239600,2.109239501953125,-1.1272783021155743,-8.764844945573806,4.2517195788607
1758274238879198500,2.119198486328125,-1.3485134806863963,-8.700600729200243,4.318736182557046
1758274238889156600,2.129156494140625,-1.5590988896228373,-8.634183260440826,4.380691703471541
1758274238899114500,2.139114501953125,-1.7588034235827623,-8.562152043452858,4.445959125413
1758274238909073700,2.14907373046875,-1.948338299575448,-8.481497959548234,4.520900092367827
1758274238919031600,2.159031494140625,-2.1257307562232017,-8.393561901941895,4.604321302898228
1758274238928989700,2.16898974609375,-2.293991665779799,-8.300717029505968,4.691065812632441
1758274238938947600,2.178947509765625,-2.459234396559,-8.202003557297587,4.780133212356269
1758274238948905700,2.18890576171875,-2.6265111173838376,-8.098074396267533,4.867545538349449
1758274238958864600,2.19886474609375,-2.7970211210414764,-7.993350869989395,4.945041158223152
1758274238968822800,2.20882275390625,-2.9714164416998625,-7.885179249083995,5.016473824796081
1758274238978780700,2.21878076171875,-3.1429666020601985,-7.772366524374484,5.087480959433317
1758274238988739800,2.22873974609375,-3.30370836815834,-7.662160767292976,5.152392115283012
1758274238998697700,2.23869775390625,-3.459684527289867,-7.558849445900321,5.20237867372334
1758274239008655600,2.248655517578125,-3.6218086876571176,-7.458860546928643,5.2362482100993395
1758274239018613500,2.258613525390625,-3.7922131851136682,-7.358374804350733,5.257738741895556
1758274239028572700,2.26857275390625,-3.97083050738126,-7.270076927694678,5.248699695393443
1758274239038530600,2.278530517578125,-4.158363542032242,-7.19961281389296,5.200383700513839
1758274239048488700,2.28848876953125,-4.347484430396556,-7.12937607910633,5.142157721516489
1758274239058446600,2.298446533203125,-4.53774630548954,-7.040298450249433,5.100339856484532
1758274239068405500,2.308405517578125,-4.744365441143512,-6.935735667490959,5.055387200558186
1758274239078363600,2.31836376953125,-4.963703188595176,-6.824549082678556,4.995749601197242
1758274239088321800,2.32832177734375,-5.185844887551665,-6.713334440815449,4.920217098090053
1758274239098279700,2.33827978515625,-5.410334610939025,-6.606041356310248,4.822743104548752
1758274239108238600,2.348238525390625,-5.6304152857124805,-6.504426317441463,4.707579725059866
1758274239118196700,2.35819677734375,-5.831010923293233,-6.413392878341674,4.586727778540552
1758274239128155000,2.36815478515625,-6.005652619928121,-6.336950859174132,4.466049435022473
1758274239138112500,2.378112548828125,-6.152720080938935,-6.272969677650928,4.354794753409922
1758274239148071700,2.38807177734375,-6.259857682621479,-6.218163151708245,4.280066844683885
1758274239158029600,2.398029541015625,-6.330615226411819,-6.172838739860057,4.241438131082058
1758274239167987700,2.40798779296875,-6.374948289135098,-6.146136610895395,4.213713088810444
1758274239177945600,2.417945556640625,-6.396449926847219,-6.137669226801395,4.193424041758478
1758274239187904500,2.427904541015625,-6.394462552422285,-6.1451604593396185,4.18548360414803
1758274239197862700,2.437862548828125,-6.371202672865986,-6.166408999073505,4.189691869492829
1758274239207820500,2.447820556640625,-6.330248146665096,-6.200730955392122,4.201101152257621
1758274239217778700,2.45777880859375,-6.274374283751845,-6.247455297166109,4.215679712708294
1758274239227737600,2.467737548828125,-6.208749426674842,-6.301994696605205,4.231624300815165
1758274239237695700,2.47769580078125,-6.1392404216408725,-6.356957289892435,4.250789312273263
1758274239247653600,2.487653564453125,-6.076598964288831,-6.402891942593455,4.2718101807311175
1758274239257611800,2.49761181640625,-6.032871466243266,-6.430289068084955,4.29257385955751
1758274239267570700,2.50757080078125,-6.014870530128479,-6.436535268998146,4.308446843732893
1758274239277528800,2.51752880859375,-6.0036371884524815,-6.437852781337499,4.322123779168725
1758274239287486500,2.527486572265625,-5.94953734947443,-6.477894868868589,4.337085201457143
1758274239297446000,2.53744580078125,-5.833185929244756,-6.56614539925158,4.3623508678779
1758274239307403500,2.547403564453125,-5.677983092573284,-6.680642716047167,4.393163354770839
1758274239317361700,2.557361572265625,-5.5213604522317645,-6.812309778830409,4.390603441154957
1758274239327319600,2.567319580078125,-5.380508796995878,-6.921266997155547,4.395067727087437
1758274239337278700,2.57727880859375,-5.206412459284067,-7.009521034669875,4.4643373704075815
1758274239347236600,2.587236572265625,-5.003562320774793,-7.099542081856727,4.553163070330023
1758274239357194800,2.59719482421875,-4.846687459237874,-7.182711947974562,4.592241573525965
1758274239367152600,2.607152587890625,-4.730106614166498,-7.247806059175729,4.611483157351612
1758274239377111600,2.617111572265625,-4.588353626176715,-7.311126146441698,4.654548392096162
1758274239387069700,2.627069580078125,-4.409678143981099,-7.3850640738338225,4.710195168255269
1758274239397027800,2.63702783203125,-4.223307431107759,-7.464404737052321,4.755708380673825
1758274239406985700,2.64698583984375,-4.040228160995245,-7.542109323501586,4.792028525072336
1758274239416944600,2.656944580078125,-3.8590909648612137,-7.617551810237765,4.821902562071383
1758274239426902800,2.66690283203125,-3.679009999781847,-7.691845126938819,4.844669689674675
1758274239436860700,2.676860595703125,-3.4945182325229047,-7.765337064129113,4.863977908995747
1758274239446819600,2.686819580078125,-3.302043649816513,-7.838952335438131,4.880340137992799
1758274239456777500,2.696777587890625,-3.108325204528868,-7.911533003002405,4.890432785201073
1758274239466735600,2.706735595703125,-2.920987107928097,-7.979881147563457,4.894868429560959
1758274239476693500,2.716693603515625,-2.7388609007567166,-8.04192463902235,4.8986193065270776
1758274239486652700,2.726652587890625,-2.552013802543282,-8.097821882811187,4.907428928187489
1758274239496610600,2.736610595703125,-2.3550430774614215,-8.149158102294802,4.920910925573111
1758274239506568700,2.746568603515625,-2.149508522173762,-8.195270449650288,4.938376439636945
1758274239516526600,2.756526611328125,-1.9444446531377733,-8.237517353749274,4.953066059246659
1758274239526485800,2.76648583984375,-1.7532681474179028,-8.277094161856175,4.958441907066106
1758274239536443600,2.776443603515625,-1.5771889653258024,-8.313847729235887,4.956089206460118
1758274239546401800,2.78640185546875,-1.4104875601708888,-8.348508123728632,4.948065474480391
1758274239556359700,2.796359619140625,-1.2580378215998411,-8.384018997570871,4.929094816550612
1758274239566318800,2.80631884765625,-1.1249744090873748,-8.420691900929809,4.898649409404396
1758274239576276500,2.8162763671875,-1.0154203208476305,-8.458261460867524,4.857691083811223
1758274239586234600,2.826234619140625,-0.9279218509409576,-8.49739461686015,4.806623159874976
1758274239596192500,2.836192626953125,-0.8449402739368379,-8.537453655526042,4.750613395622373
1758274239606151700,2.846151611328125,-0.7583754316184669,-8.573425717139244,4.700175001761317
1758274239616109600,2.856109619140625,-0.6669903295367956,-8.601381061035394,4.66280505604893
1758274239626067700,2.866067626953125,-0.5745281362755223,-8.622936474761365,4.635223806162179
1758274239636026600,2.876026611328125,-0.48306609650012106,-8.643148657184838,4.6079307255670425
1758274239645984800,2.88598486328125,-0.389015282340534,-8.665707110473512,4.574339421610534
1758274239655942700,2.895942626953125,-0.29808793396372346,-8.689877090612054,4.535147228907048
1758274239665900800,2.90590087890625,-0.21778374120900407,-8.713915553325414,4.493400967806577
1758274239675859700,2.915859619140625,-0.14422552471631206,-8.738369611102343,4.448652602280676
1758274239685817600,2.925817626953125,-0.07547920658395159,-8.76412773721516,4.399403710465133
1758274239695775700,2.935775634765625,-0.011830635140644153,-8.792603305593133,4.342854724769294
1758274239705734700,2.945734619140625,0.04061417006431147,-8.821021590825914,4.284659433171153
1758274239715692800,2.95569287109375,0.08513018813906237,-8.847949929761887,4.228107524865865
1758274239725650700,2.965650634765625,0.12911803588755427,-8.872944085764884,4.174276273696124
1758274239735608800,2.97560888671875,0.16992736319778487,-8.895964895868302,4.123511716620624
1758274239745567700,2.985567626953125,0.20687477264916523,-8.917615002140403,4.074767559456825
1758274239755526000,2.99552587890625,0.24615164796141906,-8.93804053505361,4.027559818080068
1758274239765483800,3.00548388671875,0.29180205862727016,-8.95534647464156,3.9858486282929775
1758274239775441700,3.015441650390625,0.346442105429247,-8.96685687969327,3.955481839340925
1758274239785400600,3.025400634765625,0.4152509993698448,-8.97196443196535,3.937234527249634
1758274239795358700,3.035358642578125,0.4981702882600948,-8.973210632634162,3.9247564462095497
1758274239805316600,3.045316650390625,0.5880241621864959,-8.972919540733098,3.912970439086854
1758274239815274800,3.055274658203125,0.6725814275421201,-8.972126929050683,3.9011476070851083
1758274239825233700,3.065233642578125,0.7356435945242643,-8.971524871504306,3.891135331636667
1758274239835191800,3.07519189453125,0.7629579371031373,-8.973210632634162,3.881981718844175
1758274239845149700,3.085149658203125,0.7532016091771423,-8.977370090401172,3.874260769203305
1758274239855108900,3.09510888671875,0.7143154136829077,-8.983172639200092,3.8681685898080467
1758274239865066800,3.105066650390625,0.6520599599737673,-8.987769319340586,3.8684859851941464
1758274239875025000,3.11502490234375,0.5692724442370236,-8.988064502894877,3.8808492076829073
1758274239884982800,3.124982666015625,0.46382699689250434,-8.985233078861237,3.9013869687989353
1758274239894941700,3.134941650390625,0.32940935675948857,-8.980734013876319,3.9253383377507327
1758274239904899800,3.14489990234375,0.1648409633115865,-8.973841331753134,3.9513782034143805
1758274239914857700,3.154857666015625,-0.02742697035720339,-8.963121784818172,3.9789524390384554
1758274239924817000,3.16481689453125,-0.24543933497359974,-8.94598535657823,4.009925669451058
1758274239934774500,3.1747744140625,-0.48644839588217437,-8.920494941490889,4.044569989591837
1758274239944732700,3.184732666015625,-0.7433866098664701,-8.884483132389187,4.084573790939152
1758274239954690800,3.19469091796875,-1.0029984269741923,-8.838501133415102,4.128595303495228
1758274239964649700,3.204649658203125,-1.258540364294499,-8.780897670230269,4.181182984344661
1758274239974607600,3.214607666015625,-1.5071324094116687,-8.706690278246999,4.253524290195108
1758274239984565800,3.224565673828125,-1.7444132253110407,-8.62046803882122,4.3376188699424265
1758274239994523600,3.234523681640625,-1.963286277860403,-8.528029409098625,4.425905348421633
1758274240004482800,3.24448291015625,-2.153852981118858,-8.435836278569697,4.5130917567044495
1758274240014440700,3.254440673828125,-2.3099312854506073,-8.349194936949015,4.596253439515829
1758274240024398800,3.26439892578125,-2.4439522178836164,-8.264571364891529,4.679140397039055
1758274240034357800,3.274357666015625,-2.576388073082268,-8.176735845050215,4.761682486647367
1758274240044316000,3.28431591796875,-2.71144828543514,-8.082409209623933,4.846971536876261
1758274240054273800,3.294273681640625,-2.8385888107046484,-7.986268802773952,4.932778473499417
1758274240064231700,3.304231689453125,-2.963227582286298,-7.891569826903939,5.011269241890311
1758274240074190800,3.31419091796875,-3.0952094101071355,-7.800587241208553,5.073548880192637
1758274240084148700,3.324148681640625,-3.240839239530265,-7.713715597963333,5.115266207459569
1758274240094106600,3.334106689453125,-3.400320191912353,-7.626582088911533,5.142320218601823
1758274240104065500,3.3440654296875,-3.5678611166313288,-7.53570530167818,5.162742828905582
1758274240114023700,3.354023681640625,-3.735459324495494,-7.4427259892076245,5.179049236062169
1758274240123981800,3.36398193359375,-3.9063077663272616,-7.348480602324009,5.187576825910806
1758274240133939700,3.373939697265625,-4.089313971203565,-7.256282795619964,5.176314258140326
1758274240143898600,3.383898681640625,-4.28988622790873,-7.163185409727692,5.143545961004495
1758274240153856800,3.393856689453125,-4.503278510959446,-7.061721762028336,5.1012715843766925
1758274240163814700,3.403814697265625,-4.728370291893184,-6.959260919985175,5.038015794518589
1758274240173773800,3.41377392578125,-4.95506044793427,-6.853060891413688,4.965208916983008
1758274240183731700,3.423731689453125,-5.180502942001819,-6.745798786568641,4.8812873557150365
1758274240193689900,3.43368994140625,-5.400586539384722,-6.6404007220298045,4.7863446342170235
1758274240203647700,3.443647705078125,-5.6155140691787,-6.543868100991845,4.670565753178298
1758274240213607000,3.45360693359375,-5.816213167133927,-6.461750958797335,4.537385655483603
1758274240223564500,3.463564453125,-5.985294891554116,-6.396604825147986,4.4079608186692
1758274240233522700,3.473522705078125,-6.118751175841688,-6.3485799221694466,4.292651016446948
1758274240243481600,3.483481689453125,-6.223669347909093,-6.3125383024513715,4.19382969994992
1758274240253439700,3.493439697265625,-6.306898835259676,-6.283482888358831,4.112330689653754
1758274240263397600,3.503397705078125,-6.372172979202866,-6.259073838767409,4.048430756673216
1758274240273355800,3.513355712890625,-6.417872654104232,-6.239550807651877,4.006154918740689
1758274240283314700,3.523314697265625,-6.444410532417893,-6.227213304126263,3.9826898720011115
1758274240293272800,3.53327294921875,-6.451510719811916,-6.223932382759451,3.976311861401796
1758274240303230700,3.543230712890625,-6.440525215417146,-6.23115298166275,3.982807945422828
1758274240313188900,3.55318896484375,-6.41319706350863,-6.249357915917039,3.9983556431666014
1758274240323147800,3.563147705078125,-6.369644922029972,-6.278482888114452,4.02227690924108
1758274240333106000,3.57310595703125,-6.310647374138235,-6.316599560540914,4.055454371699691
1758274240343063800,3.583063720703125,-6.238174843123555,-6.360197294726968,4.099205542881786
1758274240353022700,3.593022705078125,-6.154868783405423,-6.406454018989205,4.15275213189125
1758274240362980900,3.60298095703125,-6.06572568809688,-6.451310813325644,4.214020547324418
1758274240372938800,3.612938720703125,-5.973475274422764,-6.491960803622007,4.282806498780847
1758274240382898000,3.62289794921875,-5.879611580333114,-6.528307543766498,4.356811061668396
1758274240392855600,3.63285546875,-5.787615433681011,-6.560129499962925,4.431548322744668
1758274240402813700,3.642813720703125,-5.693704977840185,-6.589499971354007,4.508950711376965
1758274240412771600,3.652771484375,-5.583367703333496,-6.626337125363945,4.592173768986761
1758274240422730800,3.662730712890625,-5.464731971558928,-6.6760717548698185,4.662308796964585
1758274240432688600,3.672688720703125,-5.376981791913509,-6.726879566565156,4.691221003194153
1758274240442646800,3.682646728515625,-5.309781648343801,-6.773405170896649,4.700805700880289
1758274240452604700,3.692604736328125,-5.237515453556179,-6.8119514669120305,4.7261122838333245
1758274240462563800,3.702563720703125,-5.122697818765044,-6.866953223165869,4.7721395832538605
1758274240472521700,3.712521728515625,-4.939530870369077,-6.941610112482309,4.856491937154531
1758274240482479900,3.72247998046875,-4.716843520228564,-7.022875606283545,4.959942374756932
1758274240492438800,3.732438720703125,-4.498668094554543,-7.104026533794403,5.046299638739228
1758274240502397000,3.74239697265625,-4.314663818551599,-7.176305588063597,5.1043800717860455
1758274240512354800,3.752354736328125,-4.158557018777728,-7.237681555524468,5.147114467141032
1758274240522313700,3.762313720703125,-4.001472021621465,-7.295967740276455,5.189171401625871
1758274240532271900,3.77227197265625,-3.8389801969856023,-7.359697577387094,5.221826301515102
1758274240542229800,3.782229736328125,-3.694826869855821,-7.427869780859351,5.229279540130496
1758274240552187600,3.792187744140625,-3.567092178085446,-7.4969889097929,5.2193268859148025
1758274240562146600,3.802146484375,-3.4300624192252753,-7.567717812010645,5.209097752845287
1758274240572104700,3.812104736328125,-3.2739296082273124,-7.640691862806677,5.2030397679805755
1758274240582062800,3.822062744140625,-3.1054359128281472,-7.714092030060291,5.198022232079506
1758274240592021800,3.832021728515625,-2.9343191754490134,-7.782870382732153,5.194911991104483
1758274240601979600,3.841979736328125,-2.7666069858163596,-7.845098583108186,5.193332028436661
1758274240611937800,3.851937744140625,-2.5982699422836304,-7.901959118971228,5.194072617670893
1758274240621895700,3.861895751953125,-2.4275612011834977,-7.955980047494172,5.194200627964735
1758274240631854800,3.871854736328125,-2.2556721642576156,-8.007371796557306,5.192718864974379
1758274240641812700,3.881812744140625,-2.0768540587209166,-8.054450943118333,5.194503410303592
1758274240651769600,3.89176953125,-1.8859679142497479,-8.097343743905425,5.2006280306637285
1758274240661728800,3.901728759765625,-1.6846104985162615,-8.137258405664562,5.207446478506922
1758274240671686700,3.911686767578125,-1.4809075425699352,-8.176940427711605,5.207203317400813
1758274240681644800,3.921644775390625,-1.2894592341713607,-8.221925232341885,5.187260015046596
1758274240691602700,3.931602783203125,-1.125861347989738,-8.278529163095355,5.135053442469239
1758274240701561600,3.9415615234375,-1.0004651091042907,-8.341085280251502,5.059223417720198
1758274240711519700,3.951519775390625,-0.9143806707140057,-8.399195523914694,4.978735338032245
1758274240721477600,3.9614775390625,-0.8447299921870232,-8.451005790650845,4.902787532122433
1758274240731436800,3.971436767578125,-0.7654404015686362,-8.498369014850258,4.833446869392692
1758274240741394700,3.981394775390625,-0.6743258600566536,-8.543205935442447,4.767526536500454
1758274240751352800,3.991352783203125,-0.5773503906220198,-8.585045427784323,4.704684880401194
1758274240761311700,4.001311767578125,-0.48176754458956417,-8.627134510973095,4.637978950089216
1758274240771270000,4.011269775390625,-0.39747645588945596,-8.664901054787636,4.575140216599404
1758274240781227800,4.021227783203125,-0.3235311123758554,-8.690302622547746,4.53258877659589
1758274240791186000,4.03118603515625,-0.2548345927685499,-8.705372181385755,4.507986250258982
1758274240801144800,4.041144775390625,-0.18874016368472948,-8.717153804594277,4.488429024612904
1758274240811102700,4.051102783203125,-0.12433152313022873,-8.730226052135228,4.465208308023214
1758274240821060600,4.061060546875,-0.06267684375925454,-8.74450825998783,4.438468769657612
1758274240831019500,4.07101953125,-0.003336917308034026,-8.75900089572072,4.410246591518819
1758274240840977700,4.080977783203125,0.05339133908224757,-8.773949458527564,4.380104843494296
1758274240850935800,4.090935791015625,0.10613279942101798,-8.7882240675956,4.350426913589239
1758274240860894700,4.100894775390625,0.15475757712200283,-8.80155934998691,4.321920365551114
1758274240870852600,4.1108525390625,0.19783316886378452,-8.814169240713118,4.294376525065303
1758274240880810800,4.120810791015625,0.23291418165508657,-8.826750489866733,4.26668596958518
1758274240890768600,4.1307685546875,0.26071941302344204,-8.839416494694351,4.238762482132017
1758274240900727800,4.140727783203125,0.2856713921188377,-8.852067301952838,4.21066188454628
1758274240910685700,4.150685791015625,0.31177301617339254,-8.865542285075783,4.1803488716080786
1758274240920643800,4.160643798828125,0.33634496470894665,-8.880562744075059,4.146427020522951
1758274240930602800,4.170602783203125,0.35986049952674654,-8.895981847003101,4.111251369984448
1758274240940561000,4.180560791015625,0.389122724770382,-8.911956830248236,4.073820341734588
1758274240950518800,4.190518798828125,0.42597997172027824,-8.927973899069428,4.034872186920047
1758274240960476700,4.2004765625,0.4707867529025301,-8.942470041933655,3.997619730107486
1758274240970435800,4.210435791015625,0.5219502461677417,-8.95611278283894,3.960552858994901
1758274240980393700,4.220393798828125,0.5736402475250885,-8.96993321839869,3.921941681049764
1758274240990351600,4.2303515625,0.6263883431006223,-8.983120032230019,3.8835008912354705
1758274241000310800,4.240310791015625,0.679632368966937,-8.99337839139402,3.850663035994768
1758274241010268700,4.2502685546875,0.7263506463263183,-9.000719986328482,3.8248955575317143
1758274241020226800,4.260226806640625,0.7641445896044373,-9.005607173848151,3.8059804291814565
1758274241030185700,4.270185791015625,0.7942959822401404,-9.009724546039104,3.7900326262041926
1758274241040143600,4.2801435546875,0.8080299816254526,-9.016032121750712,3.7720869274079796
1758274241050101800,4.290101806640625,0.7959367351844906,-9.024936143696308,3.7533176372691988
1758274241060060000,4.300059814453125,0.7660197358265519,-9.033068012225627,3.7399572204366325
1758274241070018800,4.310018798828125,0.7253565937876701,-9.037830112060904,3.7365570566043256
1758274241079976700,4.319976806640625,0.6560602816563099,-9.041700231492518,3.740004858970642
1758274241089934800,4.329934814453125,0.5386699833655729,-9.046089406362176,3.7481297132372853
1758274241099893800,4.339893798828125,0.37897224642764776,-9.048763594007491,3.76120342208296
1758274241109852000,4.349851806640625,0.1912263727435842,-9.04732976181209,3.77883757071197
1758274241119809500,4.3598095703125,-0.01595392104915227,-9.039942574170231,3.801260414922237
1758274241129769000,4.36976904296875,-0.23697195087959988,-9.025947366565465,3.8270764087021347
1758274241139726600,4.3797265625,-0.46963882497642184,-9.005203853744268,3.8543674434706565
1758274241149684700,4.389684814453125,-0.7148088232230395,-8.975814677652716,3.8851232317402955
1758274241159643600,4.3996435546875,-0.9715067256454378,-8.936336653745174,3.9202603038340804
1758274241169601800,4.409601806640625,-1.2364999435305595,-8.883175556921959,3.966185019662976
1758274241179559700,4.4195595703125,-1.4986021892145276,-8.815372186762094,4.0266345199286935
1758274241189517800,4.429517822265625,-1.7463383481547234,-8.73997879986465,4.090651065026224
1758274241199476700,4.439476806640625,-1.9734652881778776,-8.66073224467039,4.15541988979578
1758274241209434600,4.4494345703125,-2.179810283065587,-8.57865309639871,4.222029081735014
1758274241219392800,4.459392822265625,-2.367383649726957,-8.493228729352355,4.293133831527829
1758274241229351700,4.4693515625,-2.54033417840451,-8.407032208889722,4.363358291354775
1758274241239309800,4.479309814453125,-2.7075924867898222,-8.317541907578706,4.4337133918240665
1758274241249267700,4.489267822265625,-2.8719024667635558,-8.224114851340651,4.504049495331943
1758274241259227000,4.499226806640625,-3.0297388668090104,-8.129415290948748,4.572057155892253
1758274241269184800,4.509184814453125,-3.1816295101925727,-8.034513485983014,4.636186805975437
1758274241279143000,4.519142822265625,-3.3372835977628825,-7.937245536407828,4.693939322242141
1758274241289100500,4.5291005859375,-3.501022792111337,-7.838241556820273,4.740804241530597
1758274241299059700,4.539059814453125,-3.6722462047353384,-7.743303511497378,4.767201542329788
1758274241309017600,4.549017578125,-3.847783973427117,-7.654740846425295,4.771777764204145
1758274241318975700,4.558975830078125,-4.024185665471852,-7.559440982052683,4.778198444901406
1758274241328934700,4.5689345703125,-4.201342852059007,-7.451122646152973,4.795821779875457
1758274241338892800,4.578892822265625,-4.3799844319850205,-7.337228555947542,4.811569384105503
1758274241348850700,4.5888505859375,-4.560851286745071,-7.218484103101492,4.823122751516103
1758274241358809600,4.5988095703125,-4.753105504699051,-7.098651855018734,4.815338381250203
1758274241368767700,4.608767822265625,-4.956779526811838,-6.9768228801608085,4.787968143765628
1758274241378726000,4.618725830078125,-5.167998265215754,-6.848766993612051,4.749370994345844
1758274241388684800,4.628684814453125,-5.380718055832386,-6.715145289629698,4.7037324019819495
1758274241398642700,4.638642578125,-5.5921782017767425,-6.5845087389379735,4.641358655655384
1758274241408600800,4.648600830078125,-5.793408045607805,-6.465674854242801,4.560902724671363
1758274241418558700,4.658558837890625,-5.958944644767046,-6.366566829758882,4.486448079928755
1758274241428518000,4.668517822265625,-6.09265636512041,-6.28613311060667,4.41978511197567
1758274241438475800,4.678475830078125,-6.205826817226409,-6.223967454072833,4.349755590198934
1758274241448433700,4.68843359375,-6.30092326798141,-6.175438108703494,4.281667850139737
1758274241458392800,4.698392822265625,-6.372851609116792,-6.1390048593193285,4.2272611371696
1758274241468350700,4.708350830078125,-6.418792691558599,-6.117643506860733,4.18855146728605
1758274241478308600,4.71830859375,-6.438613244315982,-6.1111389472723,4.167571807621419
1758274241488267800,4.728267822265625,-6.434537373179197,-6.118503338560462,4.1630546224579215
1758274241498225700,4.7382255859375,-6.407572793886065,-6.137420804998278,4.176773643469811
1758274241508183800,4.748183837890625,-6.357214479523897,-6.165482531878352,4.212249153737724
1758274241518141700,4.7581416015625,-6.288313377255201,-6.2035419211596246,4.259527622263133
1758274241528100600,4.7681005859375,-6.202330207282304,-6.250978795117139,4.315867933644354
1758274241538058800,4.778058837890625,-6.1026458442151545,-6.306467458105087,4.376818953691423
1758274241548017000,4.788016845703125,-5.9965925306379795,-6.366576766631007,4.4359909813672305
1758274241557975800,4.797975830078125,-5.892106904768943,-6.425751424655318,4.490341287975013
1758274241567933700,4.80793359375,-5.794812651708722,-6.476721733435988,4.5434164600804445
1758274241577891800,4.817891845703125,-5.707206264448166,-6.51401715260744,4.600629462642967
1758274241587850800,4.827850830078125,-5.62890429662764,-6.540950752240419,4.6585208028584715
1758274241597809000,4.837808837890625,-5.557333682888746,-6.566277501198649,4.70855266174525
1758274241607766500,4.8477666015625,-5.515314157804847,-6.587357114106417,4.728473752267658
1758274241617726000,4.857725830078125,-5.49919479765296,-6.603446079120039,4.724800908973813
1758274241627683600,4.86768359375,-5.471884765923023,-6.617720103666186,4.736524664515256
1758274241637641700,4.877641845703125,-5.4022144328475,-6.642538318580389,4.781542494632303
1758274241647599600,4.887599609375,-5.217496747878194,-6.715274468967318,4.883971187971532
1758274241657558800,4.897558837890625,-4.937424253478646,-6.822628928270936,5.024336813256144
1758274241667516700,4.9075166015625,-4.670648755286634,-6.934388929057121,5.125397140851616
1758274241677474800,4.917474853515625,-4.492552534283697,-7.030528166863322,5.153545376971364
1758274241687433700,4.927433837890625,-4.36159712690115,-7.1079895922064775,5.159784563621878
1758274241697391900,4.937391845703125,-4.22963809543401,-7.174708089739084,5.177268782386183
1758274241707349800,4.947349853515625,-4.087467758814991,-7.241858548948168,5.197927539533376
1758274241717308700,4.95730859375,-3.9451343405887482,-7.313304075002669,5.207869087833166
1758274241727266800,4.967266845703125,-3.8065056220993396,-7.3884665757536885,5.204949400994181
1758274241737224700,4.977224609375,-3.657091597962379,-7.467079509219527,5.1998868569076055
1758274241747183900,4.987183837890625,-3.4913156370893117,-7.549498264709115,5.194820221167802
1758274241757141800,4.997141845703125,-3.3204590119510886,-7.634850735563039,5.182081151103973
1758274241767100000,5.007099853515625,-3.154152597463131,-7.7166931524693965,5.164720266458392
1758274241777058800,5.017058837890625,-2.9954543198913335,-7.7902078860133885,5.148813087752461
1758274241787017000,5.027016845703125,-2.838317300286889,-7.855991148522496,5.137875514152646
1758274241796974800,5.036974853515625,-2.675988849519193,-7.917077777647972,5.131214302697777
1758274241806932700,5.0469326171875,-2.504613168942928,-7.975452809727192,5.127323140478134
1758274241816891600,5.0568916015625,-2.318206215712428,-8.03101453795135,5.128268896895647
1758274241826849800,5.066849853515625,-2.11438971638903,-8.083231047400831,5.134309930625558
1758274241836807700,5.0768076171875,-1.8991402611643076,-8.131229646894335,5.1426387830317015
1758274241846766600,5.0867666015625,-1.676412871274352,-8.175450481414794,5.149956997090578
1758274241856724700,5.096724853515625,-1.4379311551526188,-8.218603978964685,5.153374112057685
1758274241866683000,5.106682861328125,-1.2041845777940003,-8.267882681396603,5.13443560283184
1758274241876641800,5.116641845703125,-1.009216205510497,-8.325823998233675,5.08257097555995
1758274241886599700,5.126599609375,-0.8540843882486223,-8.385710603919625,5.012064776182174
1758274241896557800,5.136557861328125,-0.7295857557900249,-8.437817223253846,4.943816000342369
1758274241906516700,5.146516845703125,-0.6245886732675134,-8.480349374035,4.885073011733591
1758274241916475000,5.156474853515625,-0.5234154964147135,-8.51775994401872,4.831583705869317
1758274241926432800,5.166432861328125,-0.42281241106744855,-8.553910869330167,4.777263502138853
1758274241936391000,5.176390869140625,-0.32897659136541185,-8.59100170584023,4.717717088192701
1758274241946349800,5.186349853515625,-0.2482534790788777,-8.629429928433895,4.652066219891608
1758274241956308000,5.196307861328125,-0.17924312601573764,-8.662591608801483,4.593230000041425
1758274241966265600,5.206265625,-0.11899862853651866,-8.684888196283579,4.552905296176672
1758274241976225000,5.21622509765625,-0.06888987762178293,-8.700020298963784,4.5249607659354805
1758274241986182700,5.2261826171875,-0.027646862468868494,-8.71901492229104,4.488697027899325
1758274241996140800,5.236140869140625,0.005835685596006806,-8.74573809404373,4.436486655929684
1758274242006099700,5.246099609375,0.03577827205717331,-8.775707115849851,4.376764008633792
1758274242016057900,5.256057861328125,0.07034038695734925,-8.805762646895646,4.315548784692585
1758274242026015700,5.266015625,0.10835336154731921,-8.834374993395805,4.255873483669758
1758274242035974700,5.275974609375,0.15565631606001407,-8.862522644993662,4.195456716629862
1758274242045932800,5.285932861328125,0.2129685229470022,-8.889688299816846,4.1350303049787875
1758274242055890700,5.295890625,0.2716416794562712,-8.915687833470106,4.075183446781337
1758274242065849900,5.305849853515625,0.32846020280849186,-8.941106936886905,4.014858741939068
1758274242075807700,5.315807861328125,0.3864332299580797,-8.965938011282683,3.953860667879879
1758274242085766000,5.325765869140625,0.44562114932276303,-8.989567893195153,3.8935166738152502
1758274242095724800,5.335724853515625,0.5021534761447459,-9.011787323787807,3.834833306439221
1758274242105683000,5.345682861328125,0.5553867979539558,-9.031099342501163,3.7816917910993095
1758274242115640800,5.355640869140625,0.61050838119518,-9.045992960250377,3.7373362242832777
1758274242125598700,5.3655986328125,0.67039516954422,-9.056703739356994,3.700953536042571
1758274242135558000,5.375557861328125,0.7327124364431947,-9.063867055115104,3.67148837210536
1758274242145515800,5.385515869140625,0.7912585142403841,-9.068058077064157,3.6489185206398367
1758274242155473700,5.3954736328125,0.8408185178317129,-9.069892306753992,3.633242520341277
1758274242165432600,5.4054326171875,0.8793013932220637,-9.071562285792828,3.619941432480514
1758274242175390700,5.415390625,0.9024963177833706,-9.074394878870248,3.6071100079581138
1758274242185348900,5.425348876953125,0.9100646341457962,-9.078442108434437,3.5950048518836497
1758274242195307800,5.435307861328125,0.9060380089782177,-9.083261491414904,3.5838331772670147
1758274242205265700,5.445265625,0.8896679620008915,-9.089149380409717,3.5729870813429354
1758274242215223800,5.455223876953125,0.8555033151358366,-9.095918143892288,3.564093288530409
1758274242225182700,5.4651826171875,0.7978454914152622,-9.102948188659548,3.5595158976122736
1758274242235140900,5.475140869140625,0.7150671088330447,-9.10846315268874,3.563000817118585
1758274242245098800,5.4850986328125,0.6070826445301994,-9.111082395276426,3.576315056721866
1758274242255057000,5.495056884765625,0.47214803131837396,-9.110659201428293,3.597687515096366
1758274242265015800,5.505015869140625,0.3097426063243299,-9.105943278822302,3.627154724860191
1758274242274974000,5.514973876953125,0.12044016911434009,-9.095198012924193,3.665139587600529
1758274242284931800,5.524931884765625,-0.09477038800525478,-9.077559480381012,3.7093577917724847
1758274242294891000,5.53489111328125,-0.33029965666271743,-9.05197320370376,3.7580683389276266
1758274242304848600,5.5448486328125,-0.5773066245455295,-9.018021249741315,3.8095141562655566
1758274242314806800,5.554806884765625,-0.8280828087687492,-8.975534691667557,3.8632135977491733
1758274242324765700,5.564765625,-1.0783864801093936,-8.924076891630888,3.9202448140040036
1758274242334723600,5.5747236328125,-1.3290227444052696,-8.861489210292696,3.9847333605274557
1758274242344681700,5.584681640625,-1.5777582896463571,-8.784913335612416,4.062800935070216
1758274242354640600,5.594640625,-1.8135317697227,-8.695406667688488,4.155886046002805
1758274242364598800,5.604598876953125,-2.0246518700577316,-8.601188168811797,4.253319999794662
1758274242374556700,5.614556640625,-2.2141323855146764,-8.507889122867583,4.345550247463584
1758274242384515800,5.624515869140625,-2.389209258696437,-8.41416103785634,4.434406050263345
1758274242394473700,5.6344736328125,-2.557693309484422,-8.319616375765204,4.518029797628522
1758274242404432000,5.644431884765625,-2.725960210390389,-8.224195515361428,4.59370580085963
1758274242414390800,5.654390869140625,-2.888338053257763,-8.129843745493888,4.661924766083062
1758274242424349000,5.664348876953125,-3.0533012364432213,-8.03334502672553,4.72367833468467
1758274242434306800,5.674306884765625,-3.226806914785504,-7.932824797356128,4.777905307173729
1758274242444265000,5.684264892578125,-3.409528749762475,-7.837141486623882,4.808812778873741
1758274242454224000,5.694223876953125,-3.604103519618511,-7.745059415253996,4.816110242405533
1758274242464182000,5.70418212890625,-3.80099445746243,-7.655325952836871,4.808202245759964
1758274242474139600,5.7141396484375,-3.996719274136424,-7.566588515719771,4.789928045661747
1758274242484098600,5.7240986328125,-4.194460983590782,-7.4714926494866605,4.77007943585366
1758274242494056700,5.734056640625,-4.4019925579145545,-7.370987033164501,4.739350243330001
1758274242504014800,5.744014892578125,-4.632724682822824,-7.270075758650899,4.674855267065763
1758274242513973800,5.753973876953125,-4.880507603514194,-7.1660004671484225,4.582519220934808
1758274242523931600,5.763931640625,-5.125676542314887,-7.055496603903174,4.4852845891073345
1758274242533889800,5.773889892578125,-5.362354716145992,-6.943702116325497,4.381842919333279
1758274242543848700,5.7838486328125,-5.589613904246687,-6.833211697083711,4.270105714900791
1758274242553806800,5.793806884765625,-5.802554059615731,-6.728797967407107,4.150187834361195
1758274242563764700,5.8037646484375,-5.984511047700047,-6.636859103900194,4.038328172592818
1758274242573724000,5.813723876953125,-6.131102123370766,-6.56025166503787,3.9424657059013843
1758274242583681800,5.823681884765625,-6.245092659687995,-6.500615234720707,3.8615029944390056
1758274242593640000,5.833639892578125,-6.335620487353205,-6.45683746779263,3.7867651488408445
1758274242603598800,5.843598876953125,-6.410388435828685,-6.42291123279333,3.7179973175629972
1758274242613556700,5.853556640625,-6.473688064828515,-6.394329865953326,3.6570860450044274
1758274242623515000,5.863514892578125,-6.524932514375448,-6.368401643970608,3.6109646375596522
1758274242633472800,5.87347265625,-6.563247924244403,-6.345647960370779,3.5814743391811845
1758274242643432000,5.883431884765625,-6.585066957342624,-6.32710634150803,3.5742116547018288
1758274242653390600,5.893390625,-6.589311170783638,-6.315915085408091,3.5861648350849746
1758274242663348700,5.9033486328125,-6.576505465224385,-6.3135302360981695,3.613763912889361
1758274242673307600,5.9133076171875,-6.548140371483564,-6.321999373757839,3.6502909780368205
1758274242683265800,5.923265869140625,-6.503688650816678,-6.343394043964147,3.6923923361852764
1758274242693223700,5.9332236328125,-6.442735292682051,-6.3764119319468735,3.7420425022780894
1758274242703182600,5.9431826171875,-6.366910528630018,-6.4189405755966895,3.7986917334780093
1758274242713140700,5.953140625,-6.281129018709064,-6.465387269473076,3.8621988677486776
1758274242723099000,5.963098876953125,-6.194129365170002,-6.507765690997243,3.9309263670161365
1758274242733057800,5.973057861328125,-6.1126855921924115,-6.541573852574825,4.001656730538606
1758274242743015700,5.983015625,-6.0316486464500425,-6.573152063143253,4.072257914723456
1758274242752973800,5.992973876953125,-5.93008504550755,-6.618336774259805,4.147541703766584
1758274242762932700,6.0029326171875,-5.802435401672125,-6.678067897123098,4.231489276258647
1758274242772891000,6.012890869140625,-5.71805148358941,-6.719214731025695,4.280941581691802
1758274242782848800,6.022848876953125,-5.656680776825547,-6.759283706563711,4.299356651565432
1758274242792806700,6.032806640625,-5.548412125286459,-6.8115604217678305,4.357544052118063
1758274242802765800,6.042765869140625,-5.356641014674306,-6.888776347917318,4.474543707123399
1758274242812723700,6.0527236328125,-5.146090969312191,-6.979195454511046,4.580281963402032
1758274242822681600,6.062681640625,-4.976604171222448,-7.052214513492584,4.655107487283646
1758274242832640800,6.072640869140625,-4.834766135297715,-7.115809910568594,4.707517473478615
1758274242842598700,6.0825986328125,-4.702735499899089,-7.178084288173913,4.746548922662437
1758274242852556800,6.092556884765625,-4.552630278627574,-7.244341013413667,4.792017419156432
1758274242862515700,6.102515625,-4.379650377725064,-7.318181325650214,4.840796063111722
1758274242872473600,6.1124736328125,-4.195827888029814,-7.3984922952055925,4.881365681648254
1758274242882431700,6.122431640625,-4.0091923867404455,-7.484871771019697,4.906475572985411
1758274242892390700,6.132390625,-3.8212434647649522,-7.577562914198636,4.914163789400458
1758274242902348800,6.142348876953125,-3.639369478788972,-7.673415151757001,4.903476975691318
1758274242912306700,6.152306640625,-3.4705145488619804,-7.7671946746945375,4.878180621871352
1758274242922265900,6.162265869140625,-3.311193170955777,-7.851350629240274,4.854137775243818
1758274242932223700,6.1722236328125,-3.158891608683765,-7.922328537783026,4.840303311158716
1758274242942182000,6.182181884765625,-3.010199761341512,-7.981700179684162,4.8375128036573525
1758274242952140800,6.192140869140625,-2.860134579819441,-8.031319658377766,4.846433776737749
1758274242962099000,6.202098876953125,-2.7046114251524207,-8.074102569049597,4.864601593852043
1758274242972056600,6.212056640625,-2.5413497851878404,-8.112260158008336,4.889086046767234
1758274242982015700,6.222015625,-2.3670874432593583,-8.14714500890672,4.918465870508551
1758274242991973600,6.2319736328125,-2.1803397137671707,-8.18114840079546,4.948261289313435
1758274243001931800,6.241931884765625,-1.9778996173635124,-8.215157637903094,4.976894094079733
1758274243011889700,6.2518896484375,-1.7622126475043594,-8.250259930944443,4.999822549724579
1758274243021848600,6.2618486328125,-1.5412699490740895,-8.290595448464154,5.006083948206901
1758274243031806700,6.271806640625,-1.332674691041559,-8.338837793585657,4.985792855328321
1758274243041764900,6.281764892578125,-1.1633275936834513,-8.392869243502616,4.9372851372689
1758274243051723800,6.291723876953125,-1.045814801524207,-8.449192603749037,4.867010700820386
1758274243061681700,6.301681640625,-0.9632385173853486,-8.503352063959836,4.789109715016186
1758274243071639800,6.311639892578125,-0.9015406975589692,-8.551472244006394,4.71486579041481
1758274243081598700,6.3215986328125,-0.8480281569495797,-8.592751179856062,4.649285649262368
1758274243091556900,6.331556884765625,-0.7922187375746667,-8.634477859473227,4.581326504018903
1758274243101514800,6.3415146484375,-0.7280586192879825,-8.676682093474268,4.511706147564947
1758274243111474000,6.351473876953125,-0.6530192334599793,-8.712278307512403,4.45423040241301
1758274243121431800,6.361431884765625,-0.5700320304326713,-8.738744289633631,4.413590641249716
1758274243131390000,6.371389892578125,-0.4822342487858608,-8.758198931688069,4.385405580250919
1758274243141348900,6.381348876953125,-0.4026033339165151,-8.778402346283197,4.352920776231587
1758274243151306800,6.391306640625,-0.33322708841674026,-8.802049763852358,4.310832277564704
1758274243161264600,6.4012646484375,-0.2665134862549603,-8.823951799058914,4.270505820134282
1758274243171223600,6.4112236328125,-0.1994755292433314,-8.843993301090597,4.232539369833469
1758274243181181700,6.421181640625,-0.13167083477606065,-8.86454041455686,4.1920135904386635
1758274243191139600,6.4311396484375,-0.06316345366584136,-8.884782992118597,4.150546730801463
1758274243201097700,6.44109765625,0.0014296737559809116,-8.904291410186886,4.10900855949372
1758274243211056600,6.451056640625,0.05786264841055963,-8.922676961705088,4.068520189499854
1758274243221014800,6.461014892578125,0.1091457905666437,-8.940458702111243,4.028233771818876
1758274243230972700,6.47097265625,0.15849986892286688,-8.9590622802943,3.9850297131255266
1758274243240931800,6.480931884765625,0.20181314187804236,-8.97847483677268,3.9391140573859214
1758274243250889700,6.4908896484375,0.2340088450239971,-8.997748861563204,3.893086757965386
1758274243260847900,6.500847900390625,0.25834090212276206,-9.016156040391325,3.848712194187939
1758274243270806800,6.510806884765625,0.28146667043799534,-9.033086716926098,3.807167300878465
1758274243280765000,6.520764892578125,0.3092901863817125,-9.047373600953817,3.7709123306706545
1758274243290722800,6.530722900390625,0.34562867015451193,-9.058685268563032,3.740471307438612
1758274243300681700,6.540681640625,0.3901507161112502,-9.066776805081963,3.7164115096762775
1758274243310639900,6.550639892578125,0.43852377494033423,-9.07336495130062,3.694880645869672
1758274243320597800,6.56059765625,0.4911843748955056,-9.07911021695435,3.674082480251789
1758274243330556700,6.570556640625,0.5485955303786322,-9.083909141668677,3.65404127048105
1758274243340514600,6.5805146484375,0.6077591920848936,-9.08806275421679,3.6343005049616095
1758274243350472700,6.59047265625,0.6591509411480277,-9.092541945457459,3.6140824773192404
1758274243360431600,6.600431640625,0.6907984906256198,-9.098788730892538,3.592387655122578
1758274243370389800,6.6103896484375,0.6952078315004706,-9.107071990591287,3.5704786056533453
1758274243380347600,6.62034765625,0.6752522541865706,-9.11611045257151,3.5511885065108535
1758274243390305800,6.630305908203125,0.6345581324875355,-9.124008512344956,3.5383866003438826
1758274243400264700,6.6402646484375,0.5753726973408833,-9.128439772790669,3.5370775635719296
1758274243410222800,6.650222900390625,0.4950155870888382,-9.12995017735362,3.5453307203933595
1758274243420180700,6.6601806640625,0.3867639232171699,-9.129753193476796,3.559270982940495
1758274243430140000,6.670139892578125,0.24730361274182794,-9.126209821781515,3.5807191368997096
1758274243440097800,6.680097900390625,0.08005889449045062,-9.117014707934857,3.6116479436486957
1758274243450056000,6.690055908203125,-0.11044159339768811,-9.101221510997414,3.6504707185178993
1758274243460014800,6.700014892578125,-0.32404713560659437,-9.078589992472528,3.693856855779886
1758274243469972700,6.70997265625,-0.5605686210386455,-9.04770210225582,3.741017250883579
1758274243479930600,6.7199306640625,-0.8141003875803202,-9.007917204356193,3.7901235193580387
1758274243489889800,6.729889892578125,-1.0769189648400992,-8.95993555599749,3.8379944008186455
1758274243499847700,6.73984765625,-1.343897072932124,-8.903642590889334,3.8845170825406905
1758274243509805600,6.7498056640625,-1.6135155394650995,-8.8377587906152,3.9320451419129965
1758274243519764700,6.7597646484375,-1.8828645414069294,-8.759010248070954,3.9880993298292156
1758274243529722600,6.76972265625,-2.1383330481648444,-8.668003696978092,4.057543745194375
1758274243539680800,6.7796806640625,-2.369551787546277,-8.576715406334399,4.122563914376497
1758274243549639700,6.7896396484375,-2.5818723497122527,-8.489222416320443,4.1758118127003305
1758274243559597800,6.799597900390625,-2.781538889749348,-8.398558979576826,4.230558717410267
1758274243569555700,6.8095556640625,-2.9646532311752436,-8.300703585502506,4.298783527852595
1758274243579514600,6.8195146484375,-3.1339956523582337,-8.201825862643123,4.367895642523467
1758274243589472800,6.82947265625,-3.2937653585538267,-8.106069486674667,4.428676274439693
1758274243599431000,6.839430908203125,-3.4523972928911446,-8.010439367434381,4.481536342489719
1758274243609389800,6.849389892578125,-3.6192721549168225,-7.9156848619848486,4.518092049209773
1758274243619347700,6.85934765625,-3.797829271429777,-7.825951399567723,4.527847135026753
1758274243629305900,6.869305908203125,-3.9880835477381944,-7.7388915402740235,4.5138782309070224
1758274243639263700,6.879263671875,-4.185403524649143,-7.653156792104244,4.48129201233983
1758274243649223000,6.889222900390625,-4.394259333314001,-7.56409143820703,4.432309370245039
1758274243659180300,6.89918017578125,-4.604412488313019,-7.466464592191577,4.384255241172015
1758274243669138200,6.90913818359375,-4.816481706066429,-7.360707631212472,4.334956664995849
1758274243679097000,6.91909716796875,-5.030802209877968,-7.253457801327109,4.271853143090009
1758274243689055200,6.92905517578125,-5.240207761380076,-7.145482579776644,4.201510609841346
1758274243699013000,6.93901318359375,-5.449160308417677,-7.042706680434942,4.108204257373512
1758274243708972300,6.94897216796875,-5.657418443450331,-6.952658160719275,3.978007267142832
1758274243718930200,6.95893017578125,-5.853421492543816,-6.872698488819599,3.83064783744812
1758274243728888300,6.968888427734375,-6.0212511710762975,-6.794008982986211,3.708952718102932
1758274243738847200,6.97884716796875,-6.1541942451447245,-6.715932056093216,3.6321582322359083
1758274243748805400,6.988805419921875,-6.262214474880695,-6.649408788871765,3.5693683063238857
1758274243758763300,6.99876318359375,-6.350232365551591,-6.598209932032227,3.508355619217455
1758274243768722200,7.00872216796875,-6.418570573240518,-6.560833264318108,3.4536677512183784
1758274243778680300,7.018680419921875,-6.47050768122673,-6.532340744805335,3.4104853198349474
1758274243788638500,7.028638427734375,-6.508768146038055,-6.510193794927001,3.3798911518678065
1758274243798597400,7.038597412109375,-6.535891130763292,-6.492880841076373,3.36080651216954
1758274243808555300,7.04855517578125,-6.551513647308945,-6.479830805367231,3.3555729954302307
1758274243818513400,7.058513427734375,-6.553868101480603,-6.471706535622477,3.366629226973653
1758274243828472300,7.068472412109375,-6.541400249573588,-6.469726759982109,3.3945655739083884
1758274243838430200,7.07843017578125,-6.513391129663586,-6.476208523216843,3.4358120687931772
1758274243848388000,7.08838818359375,-6.469323439878225,-6.492953906312584,3.4870901283487674
1758274243858346200,7.09834619140625,-6.410084484446048,-6.520317714056373,3.544951073426008
1758274243868305200,7.10830517578125,-6.339725000062584,-6.556357580208778,3.6045001177206633
1758274243878263300,7.11826318359375,-6.263034559091925,-6.596762071311473,3.6643542824417352
1758274243888221200,7.12822119140625,-6.184791043460368,-6.635846127465367,3.7261674722760914
1758274243898180400,7.138180419921875,-6.110652040538191,-6.667777389255166,3.7909187613889572
1758274243908138200,7.14813818359375,-6.043501581329107,-6.689432171702385,3.8597842078223823
1758274243918096400,7.158096435546875,-5.988044482523202,-6.70219696072936,3.9235578840747474
1758274243928055300,7.16805517578125,-5.936394959306717,-6.710825672864914,3.986781817489862
1758274243938013400,7.178013427734375,-5.863468839305639,-6.7268953486561776,4.066816600452364
1758274243947971300,7.187971435546875,-5.771281553995609,-6.759666568401456,4.143618100582063
1758274243957930200,7.19793017578125,-5.658621974021196,-6.823830705276131,4.193538608048856
1758274243967888400,7.207888427734375,-5.530456781879067,-6.9038850697219365,4.233301294116676
1758274243977846300,7.21784619140625,-5.390871785578131,-6.983921313989162,4.281790015214681
1758274243987805400,7.227805419921875,-5.228083608344197,-7.061890688854455,4.35514342071712
1758274243997763300,7.237763427734375,-5.048642402473091,-7.132068386930227,4.451421774733066
1758274244007721200,7.24772119140625,-4.876684830355644,-7.195390812283754,4.540340413635969
1758274244017680100,7.25768017578125,-4.7169314907729625,-7.25556324917376,4.612783718556165
1758274244027638300,7.26763818359375,-4.5549894089743495,-7.317382284227013,4.677433008599281
1758274244037596200,7.27759619140625,-4.387184280361235,-7.379110133865475,4.740437454044819
1758274244047554300,7.28755419921875,-4.208565496788919,-7.4420280700713395,4.803602935270964
1758274244057513200,7.29751318359375,-4.02301253003925,-7.508295316705107,4.859139821314812
1758274244067471400,7.307471435546875,-3.844042156550288,-7.5761542164444915,4.898529290156066
1758274244077429200,7.31742919921875,-3.6736595786646005,-7.644122421777248,4.923614339312911
1758274244087388200,7.32738818359375,-3.5024764980509877,-7.710304328215122,4.945121237722039
1758274244097346300,7.33734619140625,-3.321364436358213,-7.771597293567657,4.974056240305305
1758274244107304400,7.347304443359375,-3.1369580092951654,-7.828486471003293,5.004468914225697
1758274244117263400,7.357263427734375,-2.955704493305087,-7.883145697429776,5.028939338615537
1758274244127221200,7.36722119140625,-2.7810288944005963,-7.935904058670997,5.0455567114174364
1758274244137179400,7.377179443359375,-2.617884451074898,-7.987640091127156,5.051207284525036
1758274244147138300,7.38713818359375,-2.4718594848543405,-8.04000331557095,5.0416918526828285
1758274244157096400,7.397096435546875,-2.3389165569163857,-8.094581293454766,5.017727039727569
1758274244167054000,7.40705419921875,-2.199892263238132,-8.149003203994035,4.992455235826969
1758274244177013500,7.417013427734375,-2.050025088506192,-8.204222402390837,4.965737909293175
1758274244186971100,7.42697119140625,-1.8907938731014728,-8.25912128279209,4.937831080713868
1758274244196929300,7.43692919921875,-1.7285579229228198,-8.311626546055079,4.909108259576559
1758274244206888200,7.44688818359375,-1.564474883572757,-8.361237841442227,4.87980559272468
1758274244216846300,7.456846435546875,-1.4036172360099852,-8.41000450269878,4.844797699968517
1758274244226804200,7.46680419921875,-1.2550877396225928,-8.458245094254613,4.801378537219763
1758274244236763100,7.47676318359375,-1.1308418398160487,-8.50340291736424,4.752233105778694
1758274244246721300,7.48672119140625,-1.0297486328642815,-8.545469204199314,4.699465684448183
1758274244256679400,7.496679443359375,-0.9402231141094117,-8.587219849213957,4.641768405500054
1758274244266638300,7.506638427734375,-0.8568613786812871,-8.629152865058183,4.5797257908239954
1758274244276596200,7.51659619140625,-0.7804938129894435,-8.668017140981554,4.5195907633349295
1758274244286554400,7.526554443359375,-0.717768403680995,-8.703878143435716,4.4606852776408195
1758274244296513300,7.53651318359375,-0.6567103430628776,-8.735224883335828,4.40851056150645
1758274244306471400,7.546471435546875,-0.5937138251954689,-8.76088422524929,4.36632327864021
1758274244316429300,7.55642919921875,-0.5341276272282004,-8.784488972720503,4.32641329305619
1758274244326387200,7.56638720703125,-0.4759328836193308,-8.808109502282738,4.284982381515205
1758274244336346400,7.576346435546875,-0.415735933342576,-8.83151200518012,4.242871086494624
1758274244346304300,7.58630419921875,-0.3556024767560884,-8.851219745212793,4.207115882502496
1758274244356262100,7.59626220703125,-0.2983318257221952,-8.865473311492801,4.181476706594228
1758274244366221300,7.60622119140625,-0.24294749989155678,-8.877381191429496,4.159743890474736
1758274244376179200,7.61617919921875,-0.1885684786459431,-8.889918601441384,4.135720333069563
1758274244386137300,7.626137451171875,-0.13585474199773742,-8.903453790318965,4.10858010494858
1758274244396096300,7.63609619140625,-0.08561625462295487,-8.917120496621727,4.080200982682407
1758274244406054100,7.64605419921875,-0.038458119975007136,-8.930521245464682,4.051505926334857
1758274244416012300,7.65601220703125,0.005193634536780883,-8.944293165707588,4.021190575309098
1758274244425971200,7.66597119140625,0.0468671066789655,-8.958431581175327,3.989322441883385
1758274244435929300,7.675929443359375,0.08794904495207592,-8.973113017478585,3.9554885613426563
1758274244445887200,7.68588720703125,0.12777543477271683,-8.988483605089783,3.9193367592483757
1758274244455846400,7.695846435546875,0.16625952487261964,-9.00502966622114,3.879715819738805
1758274244465804300,7.70580419921875,0.20474225413249805,-9.022143298107386,3.837890063661337
1758274244475762400,7.715762451171875,0.244687712888699,-9.039897565984726,3.793516668927669
1758274244485721300,7.725721435546875,0.2872850743931718,-9.05779270363748,3.7475682799622416
1758274244495679500,7.735679443359375,0.3310849252888933,-9.074434041836858,3.7034327856376765
1758274244505637000,7.74563720703125,0.37733595046270635,-9.089077484217286,3.6628739807561037
1758274244515596300,7.75559619140625,0.42774223215244705,-9.101644704845548,3.6259471026360988
1758274244525554200,7.76555419921875,0.4797759323809296,-9.112672294816374,3.591575754217803
1758274244535512300,7.77551220703125,0.5277343459945172,-9.122329180955886,3.560200957266986
1758274244545470200,7.78547021484375,0.5653022984970361,-9.130555742031335,3.533239008322358
1758274244555429000,7.79542919921875,0.5945178715873509,-9.136005824130773,3.514305467532575
1758274244565387300,7.80538720703125,0.6199083334315568,-9.138612207236886,3.503124440565705
1758274244575345200,7.81534521484375,0.6386912137042731,-9.13892141931653,3.498938971574604
1758274244585304300,7.82530419921875,0.6432241078935563,-9.138275522628426,3.4997964651867743
1758274244595262200,7.83526220703125,0.6225382435437291,-9.13789499887824,3.504527877622843
1758274244605220400,7.845220458984375,0.5741040656445547,-9.13737243630886,3.51414647757858
1758274244615179300,7.85517919921875,0.49750042617451395,-9.136333156388998,3.52849795127511
1758274244625137400,7.865137451171875,0.3845276885977015,-9.134770729377864,3.546612869158387
1758274244635095300,7.87509521484375,0.2366494409269653,-9.130311996403336,3.5709628820389505
1758274244645054500,7.885054443359375,0.06441858655977994,-9.120147745263576,3.604045944212377
1758274244655012400,7.895012451171875,-0.1257791737884283,-9.103491794016957,3.644311319105327
1758274244664970500,7.904970458984375,-0.3336066988514736,-9.079802875393629,3.6900247302711007
1758274244674929400,7.914929443359375,-0.5590959546701982,-9.048947133880853,3.738229081469774
1758274244684887300,7.92488720703125,-0.7990992178034036,-9.009844373026489,3.7887341108262538
1758274244694845200,7.93484521484375,-1.0492452143643052,-8.962419189506768,3.8398578566029666
1758274244704804000,7.94480419921875,-1.3060164012186228,-8.905825195625424,3.892428294056654
1758274244714762200,7.95476220703125,-1.5661689741395413,-8.835116751673818,3.9570466044396158
1758274244724720000,7.96472021484375,-1.8233014685869215,-8.753470734122395,4.027738097256422
1758274244734679300,7.97467919921875,-2.071605198282003,-8.666668064460158,4.094840333409607
1758274244744637200,7.98463720703125,-2.3031394333533943,-8.578933082383871,4.155461683110892
1758274244754595300,7.99459521484375,-2.5183918111875654,-8.491664548775553,4.209482319372892
1758274244764554200,8.00455419921875,-2.7281518752157687,-8.402121640494466,4.258161886867881
1758274244774512400,8.014512451171875,-2.932317187976837,-8.305583174237608,4.311522890177369
1758274244784470300,8.02447021484375,-3.124258102197945,-8.20619282568097,4.366664347162843
1758274244794429200,8.03442919921875,-3.307575272719562,-8.109645591595768,4.411804926876724
1758274244804387300,8.04438720703125,-3.492359593184292,-8.011566910159587,4.448441005356609
1758274244814345500,8.054345458984375,-3.683769177007675,-7.908672937396168,4.4780712967276575
1758274244824304400,8.064304443359376,-3.8796494765043255,-7.8016738674014805,4.500293065407872
1758274244834262300,8.07426220703125,-4.075690811781585,-7.6924050989091395,4.515092867393792
1758274244844220400,8.084220458984374,-4.2686476250469685,-7.583954076540469,4.520255656984448
1758274244854178300,8.09417822265625,-4.455602275288105,-7.475225990796089,4.520952699337899
1758274244864137200,8.10413720703125,-4.641085976193845,-7.364685887193679,4.515758637826145
1758274244874095000,8.11409521484375,-4.833391632074117,-7.256317282411455,4.489387640511989
1758274244884053200,8.12405322265625,-5.034065011066198,-7.149025951471924,4.440726777717471
1758274244894012200,8.13401220703125,-5.2459173711985345,-7.040831534212828,4.367770262578129
1758274244903970300,8.14397021484375,-5.453963909307122,-6.923896176615357,4.299337070082128
1758274244913928200,8.15392822265625,-5.655003199002146,-6.802522544309497,4.232846243825555
1758274244923887400,8.163887451171876,-5.851307861390709,-6.686857352778315,4.149518556797505
1758274244933845200,8.17384521484375,-6.04308540174365,-6.581559826004505,4.041607048133016
1758274244943803400,8.183803466796874,-6.221264040333033,-6.494833728709817,3.909403686515987
1758274244953762300,8.19376220703125,-6.376147143530845,-6.42660541113615,3.7701325784698128
1758274244963720400,8.203720458984375,-6.505203731554746,-6.368234470710158,3.6466906154572962
1758274244973678300,8.21367822265625,-6.613108225956559,-6.317243703663348,3.5397184334695337
1758274244983637200,8.22363720703125,-6.704520435240864,-6.274279006683826,3.442844451647997
1758274244993595400,8.233595458984375,-6.783507462716102,-6.238865163475275,3.351266530407965
1758274245003553300,8.24355322265625,-6.849188433894515,-6.208000069612265,3.274105841577053
1758274245013512400,8.253512451171876,-6.899979878976941,-6.180422326856851,3.2191648755997417
1758274245023470300,8.26347021484375,-6.935828021949529,-6.158004158821702,3.184909847037494
1758274245033428200,8.27342822265625,-6.956888930156826,-6.141728146803379,3.170373956684768
1758274245043387100,8.28338720703125,-6.962991338685154,-6.132209207829833,3.1754025985017416
1758274245053345300,8.29334521484375,-6.954361457505822,-6.130821552863717,3.1969150498688217
1758274245063303200,8.30330322265625,-6.932061947414279,-6.139193659889697,3.2291166530326008
1758274245073262300,8.313262451171875,-6.8954434045910835,-6.15875351588428,3.2700150651320814
1758274245083220200,8.32322021484375,-6.8426014567196365,-6.190217744684219,3.3212074922308323
1758274245093178400,8.333178466796875,-6.773882140758634,-6.2318374567955725,3.383651088923216
1758274245103137300,8.34313720703125,-6.691393827164172,-6.280810454279184,3.456445106977224
1758274245113095200,8.35309521484375,-6.596902941086888,-6.335144686535,3.53797246658504
1758274245123053300,8.36305322265625,-6.4924693376660345,-6.392293976211548,3.6272324662715194
1758274245133012200,8.37301220703125,-6.3808385162174694,-6.450321802288293,3.721371762432158
1758274245142970400,8.382970458984374,-6.271508372926712,-6.503080163529515,3.814252582964301
1758274245152928300,8.39292822265625,-6.178923612731695,-6.538847642481326,3.9031744367375967
1758274245162886400,8.402886474609375,-6.111622931396961,-6.54727177195549,3.9939536088153718
1758274245172845300,8.41284521484375,-6.0745262496680015,-6.530135928237438,4.077726409262419
1758274245182803500,8.422803466796875,-6.032300972878932,-6.525733309364319,4.146875056551397
1758274245192761000,8.432760986328125,-5.964063302955031,-6.566627045288682,4.180879617483914
1758274245202720500,8.442720458984375,-5.873502742063999,-6.630918607935309,4.2075227097377175
1758274245212678100,8.45267822265625,-5.762929905235767,-6.722874422577023,4.2145033624053
1758274245222636300,8.46263623046875,-5.662498523193597,-6.816490279385447,4.200235475338995
1758274245232595200,8.47259521484375,-5.556110278573632,-6.885700593733787,4.229322161352634
1758274245242553300,8.48255322265625,-5.412867928808927,-6.951513082337379,4.3067064298063515
1758274245252511200,8.49251123046875,-5.243012881928682,-7.022196976369619,4.401130388127267
1758274245262470100,8.50247021484375,-5.059416894465684,-7.095960131716728,4.496673998127878
1758274245272428300,8.51242822265625,-4.886719609896838,-7.163445521968603,4.579895886693895
1758274245282386200,8.52238623046875,-4.718555000321567,-7.224869420224428,4.659065869520604
1758274245292345300,8.532345458984375,-4.541912777519226,-7.289315881171822,4.733631573422253
1758274245302303200,8.54230322265625,-4.369926856090128,-7.358105339759588,4.788779752409458
1758274245312261400,8.552261474609375,-4.203765403030813,-7.4307631642133,4.825196342919766
1758274245322220300,8.56222021484375,-4.042739851555228,-7.504828517377376,4.848116907519102
1758274245332178400,8.572178466796874,-3.8836815084993836,-7.576557536548376,4.866535192263126
1758274245342136300,8.58213623046875,-3.72166577694267,-7.644549707278609,4.886764910343289
1758274245352095500,8.592095458984375,-3.559396947407722,-7.7069515106558795,4.909581722307205
1758274245362053400,8.602053466796875,-3.40232042581886,-7.761949175256491,4.934240362745523
1758274245372011300,8.61201123046875,-3.2536829390123483,-7.80973033260703,4.959036950349807
1758274245381970200,8.62197021484375,-3.1132877953723073,-7.854651424351334,4.978177704149484
1758274245391928300,8.63192822265625,-2.977942044076323,-7.900994073331356,4.98764052902162
1758274245401886200,8.64188623046875,-2.8362530612334607,-7.948219350364804,4.9951837840080255
1758274245411845000,8.65184521484375,-2.677018484827876,-7.996927559432387,5.0053100412249565
1758274245421803300,8.66180322265625,-2.493567166532576,-8.044974674242734,5.023038005617261
1758274245431761200,8.67176123046875,-2.2922421917639673,-8.089660203665494,5.047122645559907
1758274245441720300,8.68172021484375,-2.0910662700772282,-8.130628758391737,5.06860090239644
1758274245451678200,8.69167822265625,-1.9043316923275588,-8.168264953824877,5.081669642806053
1758274245461636400,8.70163623046875,-1.7369027035504578,-8.20462630701661,5.083075417950749
1758274245471595300,8.71159521484375,-1.5859063786581158,-8.242849946948885,5.070571910208463
1758274245481553400,8.721553466796875,-1.4498277830429374,-8.282421494358777,5.046770178860426
1758274245491511300,8.73151123046875,-1.3348014739371836,-8.32076320771277,5.015334591633081
1758274245501470200,8.74147021484375,-1.2372707817725836,-8.356948619815707,4.980057526546716
1758274245511428400,8.751428466796876,-1.148637316486612,-8.39099760441184,4.9439042631477115
1758274245521386500,8.761386474609376,-1.060278284227848,-8.42234843596518,4.910217097601294
1758274245531345400,8.771345458984374,-0.967996014110744,-8.451178224608302,4.879647771814465
1758274245541303300,8.78130322265625,-0.8788193087935448,-8.47768278517425,4.850458502209186
1758274245551261200,8.79126123046875,-0.7990444188762456,-8.50259803072214,4.82055611589849
1758274245561220000,8.80122021484375,-0.7226015959911049,-8.524077456602454,4.794616495738923
1758274245571178200,8.81117822265625,-0.6465569055780768,-8.539642690002918,4.777743102349341
1758274245581136100,8.82113623046875,-0.5711440833278,-8.554322957262396,4.761065816053748
1758274245591095300,8.83109521484375,-0.5039455106606706,-8.57136177034676,4.737949436621368
1758274245601053200,8.84105322265625,-0.448954458463937,-8.586292212975025,4.716396068722009
1758274245611011300,8.85101123046875,-0.40179293084908274,-8.59879747428298,4.697829315418005
1758274245620970200,8.86097021484375,-0.35759814408533275,-8.609847276085615,4.681133908943831
1758274245630928400,8.870928466796874,-0.31682229891959574,-8.62031781669557,4.664776648382842
1758274245640886300,8.88088623046875,-0.2813693658096716,-8.631095815819501,4.647088431479037
1758274245650845200,8.89084521484375,-0.24974642105037345,-8.643134044137597,4.626472636690735
1758274245660803600,8.900803466796875,-0.2213767607322894,-8.656669817537068,4.602548155745864
1758274245670761500,8.910761474609375,-0.19936207719780505,-8.671057239329814,4.576397230923176
1758274245680720600,8.920720703125,-0.18259278350351377,-8.685923969072103,4.548819195906818
1758274245690678500,8.930678466796875,-0.16831461250521243,-8.701603768762945,4.519307562479376
1758274245700636400,8.940636474609375,-0.1515856142886914,-8.717941740101576,4.488306275016069
1758274245710595600,8.950595703125,-0.12651349767865613,-8.734948404482006,4.455902135017514
1758274245720553500,8.960553466796876,-0.09328688971553929,-8.752349036616087,4.42245111631453
1758274245730511400,8.970511474609374,-0.05542063011988066,-8.770493180593848,4.387001909531652
1758274245740470500,8.980470458984374,-0.014444614748033926,-8.789825073051452,4.348462627778947
1758274245750428400,8.990428466796875,0.029707500776124652,-8.810347052076459,4.306656453184783
1758274245760386600,9.000386474609375,0.07857992624538018,-8.83210880202949,4.261230334527791
1758274245770345500,9.010345458984375,0.13317692849007434,-8.854906909292936,4.212277210788429
1758274245780303400,9.020303466796875,0.19311441497989,-8.87769040350914,4.161694732281566
1758274245790261500,9.030261474609375,0.2596724795200862,-8.899483133122324,4.111224481977522
1758274245800220400,9.040220458984376,0.3324083559123799,-8.920811752355098,4.059437303856015
1758274245810178600,9.050178466796876,0.4089855457669124,-8.941728283655642,4.006070163066685
1758274245820136400,9.060136474609376,0.48901828290279953,-8.960624707305431,3.954546019795537
1758274245830094600,9.070094482421876,0.5685340104272589,-8.976924684721231,3.906656141373515
1758274245840053500,9.080053466796874,0.6367376684837043,-8.992997283121943,3.8588770298495887
1758274245850011600,9.09001171875,0.6842066180799156,-9.010786622312665,3.808933726029098
1758274245859969300,9.09996923828125,0.7074626982439309,-9.02681538157165,3.766497436837852
1758274245869928700,9.1099287109375,0.7189385434389114,-9.03608356065452,3.742019121402502
1758274245879886300,9.11988623046875,0.7301322837568819,-9.03927154304087,3.7321430395543573
1758274245889844500,9.129844482421875,0.7353613435167818,-9.03888108241856,3.732057407097518
1758274245899803400,9.139803466796875,0.7192720862422138,-9.038147507447004,3.736966806448996
1758274245909761500,9.149761474609376,0.6748568981934339,-9.040143649700283,3.740423961165547
1758274245919719400,9.159719482421876,0.5989277604514732,-9.044322981211543,3.74324398702234
1758274245929678300,9.16967822265625,0.4912366165393963,-9.04900850867927,3.7476033512756226
1758274245939636500,9.179636474609374,0.3552184458745643,-9.052638389614224,3.7541929587990044
1758274245949594600,9.1895947265625,0.19781280192919073,-9.053266750645637,3.764255210869014
1758274245959553500,9.199553466796875,0.02733716176545713,-9.049573156824707,3.778209794202447
1758274245969511400,9.209511474609375,-0.15118834946625864,-9.040330696704983,3.797363407483697
1758274245979469600,9.219469482421875,-0.3357650093965232,-9.024603550741077,3.822848269613087
1758274245989428500,9.229428466796875,-0.5245636800691486,-9.001915918114781,3.854960148666799
1758274245999386600,9.23938671875,-0.7141348694842309,-8.972672287973761,3.892496683117747
1758274246009344500,9.249344482421876,-0.9013320963095873,-8.937544275969266,3.934246743610501
1758274246019303700,9.2593037109375,-1.08558976255171,-8.89591287342012,3.9817853243768213
1758274246029261600,9.269261474609374,-1.2665294633522628,-8.84915521389842,4.032213489104807
1758274246039219500,9.279219482421874,-1.4395000119045376,-8.800402581167221,4.080581214171648
1758274246049178600,9.2891787109375,-1.6063075077824294,-8.74990105894208,4.1266684270858764
1758274246059136500,9.299136474609375,-1.7698700303897261,-8.697008842188119,4.171325899457932
1758274246069094400,9.309094482421875,-1.928464847587049,-8.64292244721353,4.213229689207673
1758274246079053300,9.31905322265625,-2.0794107574664054,-8.5882035995543,4.253141136096418
1758274246089011500,9.329011474609375,-2.2218045275777576,-8.531817110943793,4.294427378469705
1758274246098969300,9.33896923828125,-2.3587964386455713,-8.474019586491584,4.335601100379228
1758274246108928500,9.348928466796876,-2.494322661074996,-8.415333004245161,4.373891375806927
1758274246118886400,9.358886474609376,-2.6283038460195063,-8.356411444199084,4.408261262920498
1758274246128844500,9.368844482421874,-2.760334189157188,-8.298111230921744,4.437596955259144
1758274246138803500,9.378803466796874,-2.8836981184974313,-8.242212233567237,4.463253374563157
1758274246148761600,9.38876171875,-2.995057721789181,-8.18944568901956,4.486980287109315
1758274246158719500,9.398719482421875,-3.094182697407901,-8.138950012013316,4.511531960041821
1758274246168678400,9.408678466796875,-3.18050635138154,-8.088878697898984,4.541453051052987
1758274246178636500,9.418636474609375,-3.2582030467852947,-8.03804458271861,4.576503321646154
1758274246188594700,9.4285947265625,-3.327886823864281,-7.9883847720146175,4.613158689348399
1758274246198553600,9.4385537109375,-3.386750516243279,-7.943145700362324,4.648305113792419
1758274246208511500,9.448511474609376,-3.4385683817639947,-7.903832511627674,4.677188386188448
1758274246218469400,9.458469482421876,-3.489680144841969,-7.868059187456965,4.6995951560467475
1758274246228428500,9.468428466796874,-3.5435493899345394,-7.836925798046589,4.7112870551452035
1758274246238386400,9.478386474609374,-3.594190612891316,-7.813914924815297,4.711150277023017
1758274246248344300,9.48834423828125,-3.6368139490872617,-7.802504473006725,4.697326918853819
1758274246258303500,9.498303466796875,-3.6666897396519778,-7.806894232398271,4.6667076164454215
1758274246268261400,9.508261474609375,-3.6792937851592895,-7.826810646745562,4.6232302937686445
1758274246278219500,9.518219482421875,-3.6752863030835985,-7.858418667930364,4.572514544270932
1758274246288178400,9.528178466796875,-3.6570889676138756,-7.900629331672191,4.513995427545905
1758274246298136600,9.538136474609376,-3.6274899481639262,-7.951803638592362,4.447527982164919
1758274246308094500,9.548094482421876,-3.584336450614035,-8.008611567485332,4.3800729870513075
1758274246318053400,9.558053466796874,-3.519970069165528,-8.070751505056023,4.3177693833515045
1758274246328011500,9.568011474609374,-3.4301445445507763,-8.137596843838692,4.264274232268333
1758274246337969700,9.5779697265625,-3.3182100639805197,-8.207516183239221,4.2185976459816095
1758274246347928600,9.587928466796875,-3.190786337855458,-8.278522148832678,4.177962853254377
1758274246357886500,9.597886474609375,-3.0507410305663942,-8.34944569683969,4.141271537455916
1758274246367844600,9.6078447265625,-2.8996885915726422,-8.420058863723277,4.1066807010680435
1758274246377803500,9.617803466796875,-2.7409230939835307,-8.489886433187127,4.0717964346915485
1758274246387761700,9.62776171875,-2.580922209380567,-8.558723238047957,4.032062390196323
1758274246397719300,9.63771923828125,-2.4306181045360864,-8.624450970977545,3.985142233589291
1758274246407678700,9.6476787109375,-2.2987715935327113,-8.68471634684801,3.9321404189810156
1758274246417636400,9.65763623046875,-2.1792475346162914,-8.739732716149092,3.877929813104868
1758274246427594500,9.667594482421874,-2.091840323189646,-8.786182332634926,3.820675017227232
1758274246437553400,9.677553466796875,-2.0729867157682773,-8.812368913292884,3.770316118343174
1758274246447511600,9.687511474609375,-2.1036755762815473,-8.808620374414325,3.7620688067406416
1758274246457469400,9.697469482421875,-2.108563786714524,-8.784379667127132,3.8156314701020717
1758274246467428400,9.707428466796875,-2.02671552458927,-8.762966876742244,3.9080952342659234
1758274246477386500,9.717386474609375,-1.8769360281407832,-8.759959511619806,3.9888118620127435
1758274246487344400,9.727344482421875,-1.71416903982535,-8.783111839148402,4.011103773319721
1758274246497303600,9.737303466796876,-1.5845307063907383,-8.828878149545192,3.9636555011853574
1758274246507261400,9.747261474609376,-1.5982050114780664,-8.875243010357021,3.853076234616339
1758274246517219600,9.757219482421876,-1.654161291977763,-8.911095829504728,3.7451992127433416
1758274246527178500,9.767178466796874,-1.6182355537243187,-8.946251314038038,3.67644920938313
1758274246537136600,9.77713671875,-1.5216332284510135,-8.983272592443226,3.6270942268446085
1758274246547094500,9.787094482421875,-1.4279989592030644,-9.013004298362135,3.591233224390447
1758274246557053400,9.797053466796875,-1.341706723280996,-9.035457537710666,3.568017183975875
1758274246567011600,9.807011474609375,-1.2387763640299438,-9.058281948459149,3.547301435944438
1758274246576969500,9.816969482421875,-1.1158346056245267,-9.08451821347773,3.520914948800206
1758274246586928600,9.8269287109375,-0.9846917128458619,-9.111102853542565,3.491212761236727
1758274246596886300,9.83688623046875,-0.8619033914364874,-9.133864720448852,3.4641038050368427
1758274246606844400,9.846844482421876,-0.7653673363324255,-9.152716720435023,3.4369147693380713
1758274246616803300,9.85680322265625,-0.7086874907985329,-9.171067785161734,3.399950774078071
1758274246626761500,9.866761474609374,-0.6759793263521046,-9.191519621559976,3.3510341829568144
1758274246636719400,9.87671923828125,-0.6367761738631874,-9.21564751612246,3.2919232378184793
1758274246646678500,9.886678466796875,-0.5839694069029763,-9.241371155443787,3.228998287349939
1758274246656636000,9.896635986328125,-0.5287203978898003,-9.26576033129096,3.168044052432477
1758274246666594000,9.906593994140625,-0.4829338118899613,-9.285916399613022,3.1159111296132207
1758274246676553000,9.916552978515625,-0.4457118232809007,-9.301039149942994,3.0761022663161155
1758274246686511000,9.926510986328125,-0.4148823852531612,-9.312443756532668,3.045758565978706
1758274246696469000,9.936468994140625,-0.38547187411263584,-9.321440717458724,3.0220065189912915
1758274246706428200,9.94642822265625,-0.35039497124087066,-9.328880512070656,3.0032649936422704
1758274246716386000,9.956385986328126,-0.3071309625212103,-9.33569837539196,2.9867709549590944
1758274246726345000,9.966344970703124,-0.2576319318694994,-9.342232745596766,2.9709795115873217
1758274246736303000,9.97630322265625,-0.20781777085401115,-9.348466671550273,2.9552298615306616
1758274246746261000,9.986260986328125,-0.16236666388623416,-9.354016706892848,2.940478574861586
1758274246756220200,9.99622021484375,-0.12009781281691975,-9.359369758358596,2.925433273681998
1758274246766178000,10.006177978515625,-0.07377390963656362,-9.362733097311853,2.916191690345108
1758274246776136200,10.01613623046875,-0.025415014046861324,-9.364826270198822,2.910285681171715
1758274246786095000,10.02609521484375,0.018121417264366755,-9.368853626018762,2.8973472891435024
1758274246796053200,10.03605322265625,0.05784998529180884,-9.373218250969051,2.8826772510170935
1758274246806011100,10.04601123046875,0.09072830954021774,-9.3756638905555,2.873860030572116
1758274246815970300,10.05597021484375,0.1147146402075421,-9.37706498952508,2.8684280686512587
1758274246825928200,10.06592822265625,0.13186896029720083,-9.380371629855036,2.8568568733230233
1758274246835886000,10.075885986328124,0.14788019303265026,-9.386162488216161,2.8369842981174584
1758274246845845200,10.08584521484375,0.15909620911451056,-9.392850587677955,2.8141490737140176
1758274246855803100,10.09580322265625,0.1668805611141026,-9.403366136473418,2.7783506151020525
1758274246865761000,10.105760986328125,0.18990051270099356,-9.417836560374498,2.7273876128450034
1758274246875720000,10.115719970703125,0.2964955867383629,-9.429925057575106,2.6756258614256976
1758274246885678000,10.125677978515625,0.4349819376150146,-9.44334275755286,2.608534731188416
1758274246895636000,10.135635986328126,0.5004108702611177,-9.458080307957529,2.542577573417127
1758274246905595100,10.14559521484375,0.5118786052148789,-9.469372101822495,2.497873047032952
1758274246915553000,10.155552978515624,0.53752041147165,-9.476260107770562,2.4661630267784
1758274246925511200,10.16551123046875,0.5817060650808736,-9.482300556978583,2.4326881888084113
1758274246935470000,10.175469970703125,0.623092004968971,-9.492706800180674,2.381312367966771
1758274246945428200,10.18542822265625,0.6642077130809426,-9.508224687308072,2.3071365401655433
1758274246955386000,10.19538623046875,0.7060019780416041,-9.5261893830657,2.2189370093174277
1758274246965345000,10.205344970703125,0.748318659441173,-9.545450548374653,2.120092604205757
1758274246975303200,10.21530322265625,0.7879591804340481,-9.566795534220338,2.0064764541588724
1758274246985261300,10.22526123046875,0.8320549272701143,-9.58993558678925,1.873820964860171
1758274246995220200,10.23522021484375,0.8710679640144109,-9.617530865201353,1.7072624753072856
1758274247005178000,10.24517822265625,0.9358746365763246,-9.643343936371803,1.516717691619694
1758274247015136000,10.255135986328124,1.0225628130134194,-9.655730539736151,1.3753613017320632
1758274247025095200,10.26509521484375,1.090267106712982,-9.657555417075752,1.3089452942773698
1758274247035053000,10.275052978515625,1.1334943270862101,-9.655511928549409,1.2871150091327725
1758274247045011000,10.285010986328125,1.157692510405928,-9.652519176474213,1.2880273016721009
1758274247054970000,10.29497021484375,1.1694340938650072,-9.648303604605793,1.308839641945809
1758274247064928000,10.304927978515625,1.17321207803376,-9.643398296907543,1.3412035960644482
1758274247074886100,10.31488623046875,1.1795193614844233,-9.636332596305012,1.3857142073117197
1758274247084845000,10.324844970703126,1.2075845224305988,-9.62195978755951,1.459455004696548
1758274247094803200,10.33480322265625,1.259277154136449,-9.597106501331925,1.574853215854615
1758274247104761000,10.344760986328126,1.303660778003186,-9.566713116633892,1.7172170292191207
1758274247114720000,10.354719970703124,1.3135596562050282,-9.537301144188643,1.8667659317821264
1758274247124678100,10.36467822265625,1.2880480521991848,-9.507927165666223,2.0274689733050764
1758274247134636300,10.37463623046875,1.238334173220396,-9.471296347883342,2.220691013377905
1758274247144595200,10.38459521484375,1.1739369582422077,-9.41952875124514,2.462669923965633
1758274247154553000,10.394552978515625,1.0959702137254177,-9.35007878292203,2.7468656357750296
1758274247164511200,10.40451123046875,1.0157956569660453,-9.260552241253853,3.0627973790630696
1758274247174470100,10.41447021484375,0.9294709800790995,-9.158810361135005,3.37974472913444
1758274247184428300,10.42442822265625,0.8480359749298543,-9.067797380301355,3.6367967056915163
1758274247194386000,10.434385986328126,0.8174392496794461,-9.009685383072496,3.785200676003098
1758274247204345300,10.444345458984374,0.8476246907152235,-8.976244301241636,3.8573257087543604
1758274247214303000,10.454302978515624,0.8905953790441155,-8.956451221013069,3.893485986416042
1758274247224261000,10.46426123046875,0.9340176105327904,-8.935352318882941,3.931598859450221
1758274247234220000,10.474219970703125,1.0324016315910964,-8.891890778297185,4.00484851231724
1758274247244178200,10.48417822265625,1.1909123507015407,-8.84202872301936,4.070702794235944
1758274247254136000,10.494135986328125,1.4350554535858333,-8.77440480107963,4.137728750282526
1758274247264095000,10.504094970703125,1.6821879475444554,-8.700106808203458,4.201045914939046
1758274247274053000,10.51405322265625,1.9857969464845955,-8.622977391293645,4.227444092521071
1758274247284011000,10.524010986328125,2.316570285073668,-8.532537826433778,4.242605713556706
1758274247293970200,10.53397021484375,2.606811852918565,-8.439639177983999,4.259976535074412
1758274247303928000,10.543927978515624,2.91694367775619,-8.356371112188697,4.222901188394427
1758274247313886200,10.55388623046875,3.375513082914054,-8.256462292715907,4.075184615825116
1758274247323845000,10.56384521484375,3.8646731489077206,-8.15690184828937,3.8340091305747626
1758274247333803300,10.57380322265625,4.287010964733362,-8.06716020256579,3.5655084160253403
1758274247343762200,10.58376220703125,4.633036817511916,-7.971702517282963,3.340257352876663
1758274247353720000,10.593719970703125,4.929170219874382,-7.859978756853938,3.1771678546085953
1758274247363678200,10.60367822265625,5.183604999670386,-7.73770437631607,3.070594316549599
1758274247373637000,10.61363720703125,5.429649552261829,-7.598507502549886,2.9919837211713194
1758274247383595300,10.62359521484375,5.692973156434297,-7.4271595867633815,2.932192392553389
1758274247393553000,10.633552978515626,5.979723228901625,-7.208102994340658,2.908015982674062
1758274247403512000,10.643511962890624,6.288049757882952,-6.932430196204781,2.9278382889971137
1758274247413470000,10.653469970703124,6.615201398843526,-6.593939999628066,2.988218523418903
1758274247423428000,10.663427978515625,6.963295874589681,-6.1819701408207415,3.076709876820445
1758274247433387000,10.673386962890625,7.328846512049436,-5.695718071228265,3.1649946017339823
1758274247443345200,10.68334521484375,7.6971192679494616,-5.14894518969953,3.2269349250793455
1758274247453303000,10.693302978515625,8.044538620913029,-4.564297335545718,3.2592905497610567
1758274247463262200,10.70326220703125,8.352855797544121,-3.9623274674519893,3.271106952022016
1758274247473220000,10.71322021484375,8.611486275464296,-3.369452467700839,3.2648864700719713
1758274247483178200,10.72317822265625,8.81625481481552,-2.8142852673143146,3.2440465111389756
1758274247493137200,10.73313720703125,8.97588306671381,-2.3113453900322316,3.2033722631841894
1758274247503095000,10.743094970703124,9.106129741305113,-1.8598076370768248,3.1288816703453657
1758274247513053200,10.75305322265625,9.216532482263446,-1.4562779820956289,3.017476766607165
1758274247523012000,10.76301220703125,9.311551776129006,-1.104477199177444,2.871501777008176
1758274247532970200,10.77297021484375,9.393819724971056,-0.8049576615080237,2.6978844549849628
1758274247542928100,10.78292822265625,9.464493097609282,-0.5509846905374899,2.5080215160816905
1758274247552887300,10.79288720703125,9.52083808516562,-0.3389878439005464,2.325749616829306
1758274247562845200,10.80284521484375,9.560983048549295,-0.17093971857810392,2.17457384371683
1758274247572803000,10.812802978515625,9.587637831240892,-0.0399333390601445,2.0605805309206247
1758274247582762000,10.822761962890626,9.607045127022266,0.06708436256977729,1.967375154609233
1758274247592720100,10.83272021484375,9.622650107911229,0.1607312447041273,1.8839201879397034
1758274247602678000,10.842677978515624,9.636035074663162,0.2500887134157121,1.8040699677638707
1758274247612637000,10.852636962890625,9.644929159736632,0.34828696611095217,1.7390876463741063
1758274247622595000,10.862594970703125,9.645295070439577,0.4568022858874872,1.7117225234560667
1758274247632553200,10.87255322265625,9.637969842118025,0.5735737216275185,1.7178285852462052
1758274247642512100,10.88251220703125,9.646634794610739,0.7572855174899101,1.5935308821871876
1758274247652470000,10.892469970703125,9.663068043017386,0.9977010512184351,1.3416757436208426
1758274247662429700,10.9024296875,9.659598905602097,1.195313581335172,1.1973972557414323
1758274247672387600,10.9123876953125,9.650421327412127,1.3716276681616901,1.0762841010026634
1758274247682345700,10.922345703125,9.639704703086615,1.5295460474021731,0.9523500436242669
1758274247692304600,10.9323046875,9.627378305476903,1.6683045297510921,0.8370991319824009
1758274247702262500,10.942262451171874,9.613641456547379,1.790329465572536,0.7368847536917775
1758274247712220700,10.952220703125,9.599363924869895,1.8982003499656914,0.6476390747915953
1758274247722179600,10.9621796875,9.58579424920082,1.9889758687816559,0.5717561142789199
1758274247732137700,10.9721376953125,9.574647416764497,2.060102684275806,0.5024772282063961
1758274247742095600,10.982095703125,9.56415934049785,2.1155963156998157,0.4706253883283585
1758274247752054800,10.9920546875,9.548019522079825,2.186192239187658,0.4756768630316481
1758274247762012700,11.0020126953125,9.532896187227964,2.250881276719272,0.47729156821928914
1758274247771970600,11.011970458984376,9.51807680375874,2.3040572788506744,0.5176103537999093
1758274247781929700,11.0219296875,9.500538808980584,2.3632241919599473,0.5703610066587105
1758274247791887600,11.0318876953125,9.482115263539551,2.422999738486856,0.6236608178328722
1758274247801845500,11.041845458984374,9.463683534792064,2.4782524007618427,0.6836254571910947
1758274247811804400,11.051804443359375,9.44696387065947,2.5266151573926208,0.7358500038165599
1758274247821762600,11.061762451171875,9.435752156293391,2.5576561923444268,0.7715998740464448
1758274247831720700,11.071720703125,9.429718721348047,2.573551680612564,0.7922266286201775
1758274247841679600,11.0816796875,9.429944346797466,2.574310097764432,0.787056313310191
1758274247851637500,11.091637451171875,9.436951010689139,2.5579297485888004,0.7558668097984045
1758274247861595600,11.101595703125,9.44537630920708,2.5399860956192013,0.7097353193510323
1758274247871554600,11.111554443359376,9.449681897446512,2.538416362084448,0.6560061403162777
1758274247881512700,11.1215126953125,9.447643669617175,2.5573423040896652,0.6102556485431269
1758274247891470600,11.131470703125,9.440579138058423,2.5900834209576247,0.5807914709866047
1758274247901429800,11.1414296875,9.432085450479388,2.6247382624924183,0.5629389303665607
1758274247911387600,11.1513876953125,9.42413536825776,2.654763398399949,0.5552398637639359
1758274247921346600,11.1613466796875,9.416642966675758,2.6805270774707197,0.5585625419132411
1758274247931304700,11.1713046875,9.409553885197639,2.703389189881086,0.5677695653934032
1758274247941262800,11.181262939453125,9.403307684284448,2.7239444866538047,0.5729903687816112
1758274247951221800,11.1912216796875,9.398274950814246,2.741340442612767,0.5725956338429823
1758274247961179600,11.2011796875,9.394883554810285,2.7540985096380113,0.5670024534784257
1758274247971137500,11.211137451171876,9.39334626224041,2.760749199698865,0.5600893496217206
1758274247981096400,11.221096435546874,9.393933122217655,2.759706997169554,0.5553562201526016
1758274247991054600,11.2310546875,9.396130924522875,2.7531854864463208,0.5505228817120195
1758274248001012500,11.241012451171875,9.397557742455602,2.7489570550963283,0.5472953345002606
1758274248010971600,11.2509716796875,9.396152551832795,2.754353945703804,0.544275438689813
1758274248020929500,11.260929443359375,9.39095673675537,2.772269249361753,0.54298722551018
1758274248030887700,11.2708876953125,9.381867421370744,2.8020360265940427,0.5473045772526413
1758274248040846600,11.2808466796875,9.370276352298259,2.8390508752584456,0.5550596118262038
1758274248050804700,11.2908046875,9.358612217989563,2.8758132104665037,0.5625430994493886
1758274248060762600,11.3007626953125,9.348283131676911,2.908017736239731,0.5686979688173159
1758274248070721500,11.310721435546874,9.34007936695516,2.93359845995903,0.5721067178148775
1758274248080679700,11.3206796875,9.334626362246274,2.9510204271420837,0.5714969518860802
1758274248090637600,11.330637451171874,9.332056219497323,2.959479335668683,0.5697356778346002
1758274248100596700,11.3405966796875,9.331583341288566,2.961082679212093,0.5691409633444622
1758274248110554600,11.3505546875,9.331975555476546,2.9593811359912157,0.571562418337725
1758274248120512800,11.3605126953125,9.332458955079316,2.956232024310529,0.5799009153550491
1758274248130471700,11.3704716796875,9.333147521865367,2.9510683579370376,0.5949255756054074
1758274248140429800,11.380429931640625,9.334190308916568,2.9438974433943628,0.6137914579864591
1758274248150388700,11.390388671875,9.335047802528738,2.937395806415379,0.6316427564974874
1758274248160346600,11.4003466796875,9.334646820512413,2.9362486822068687,0.6428057363510131
1758274248170304500,11.410304443359376,9.331784416818618,2.944921233484149,0.6446916962280869
1758274248180263400,11.420263427734374,9.325909971827269,2.9651196796432138,0.6370625165238976
1758274248190221600,11.4302216796875,9.317820773395896,2.9939117666244504,0.6205532072063535
1758274248200179500,11.440179443359375,9.309040670090914,3.026023937939107,0.596092354362458
1758274248210138600,11.450138671875,9.300743381866813,3.0572239628449083,0.5656312381904572
1758274248220096500,11.460096435546875,9.293973449340463,3.084265991288423,0.5289089061992243
1758274248230054700,11.4700546875,9.288934870651364,3.1058620292857286,0.48958618245124813
1758274248240013600,11.480013671875,9.284889979174732,3.123387164582312,0.45349071365408594
1758274248249971700,11.4899716796875,9.280805924731492,3.1393507496505975,0.42602929075472057
1758274248259929600,11.4999296875,9.276468187788128,3.154441351276636,0.4086779045898467
1758274248269888500,11.509888427734374,9.272505129376054,3.167202048650384,0.3998255762988701
1758274248279846700,11.5198466796875,9.269667275601625,3.1760204381391404,0.39565238226745275
1758274248289804800,11.5298046875,9.267586377674341,3.1825024936348196,0.3923034736983478
1758274248299763700,11.539763671875,9.265005129009484,3.190620625899732,0.3873049712913111
1758274248309721600,11.5497216796875,9.260507817590236,3.2045573813155293,0.37972708338294175
1758274248319680800,11.5596806640625,9.253584155806898,3.2256463465735314,0.3698294107574969
1758274248329638700,11.569638671875,9.244353386124969,3.25314839374423,0.35964601652584965
1758274248339596500,11.579596435546875,9.233359113901853,3.2851457065075635,0.3511189746664837
1758274248349555700,11.5895556640625,9.221461755359172,3.3191394537851213,0.34399946151748295
1758274248359513600,11.599513671875,9.20964272274971,3.3523622166901825,0.3384213691242039
1758274248369471500,11.609471435546874,9.199038911148905,3.3817505159989,0.3344135947875678
1758274248379430700,11.6194306640625,9.190275174456835,3.4059859625890847,0.3293697188688442
1758274248389388500,11.629388427734375,9.182402833646535,3.4279356363296505,0.3211263893216848
1758274248399346700,11.6393466796875,9.17392901981175,3.451807218043506,0.307301021858491
1758274248409305600,11.6493056640625,9.16475202614367,3.4779426530361173,0.28570028941975906
1758274248419263500,11.659263427734375,9.156181766197085,3.5025361192837354,0.2587749461584724
1758274248429221600,11.6692216796875,9.148243958935142,3.5254350565731523,0.22656256587235254
1758274248439180500,11.6791806640625,9.134145290955901,3.5643972399130464,0.18123137722350655
1758274248449138700,11.689138671875,9.096077133846283,3.662983870871365,0.11964254333009011
1758274248459096600,11.6990966796875,9.054014938664436,3.7667987578719853,0.08019370898441411
1758274248469055700,11.7090556640625,9.02640563172698,3.833090846686065,0.04241023686795961
1758274248479013600,11.719013671875,9.02386939124763,3.839291747152805,0.001393394154796988
1758274248488971800,11.7289716796875,9.045399670532346,3.788196642948687,-0.02644467903829645
1758274248498930700,11.7389306640625,9.078785807305573,3.70733417699039,-0.041284392909496086
1758274248508888800,11.748888916015625,9.107817840522527,3.6354157727271317,-0.04231768604656681
1758274248518847700,11.75884765625,9.126223265784978,3.589056172612309,-0.03331036812327802
1758274248528805600,11.7688056640625,9.137001264908909,3.5615783831000325,-0.027463292912754695
1758274248538763500,11.778763427734376,9.14720175640583,3.5353131842479106,-0.025432773465837815
1758274248548722400,11.788722412109376,9.160764417812228,3.500002509152889,-0.027611820838239508
1758274248558680600,11.7986806640625,9.176553523096441,3.4583632155582307,-0.031244918926875104
1758274248568638500,11.808638427734374,9.191664582988619,3.418016884383559,-0.029085544369323178
1758274248578597600,11.81859765625,9.204486070638895,3.383421079559624,-0.016933582019555613
1758274248588555500,11.828555419921875,9.21462343377173,3.355755366259813,0.002541358756228874
1758274248598513700,11.838513671875,9.221311533233523,3.337258171060681,0.022425638955552128
1758274248608472600,11.84847265625,9.225372791323066,3.3258307681173083,0.04157954449774697
1758274248618430700,11.8584306640625,9.228530963093041,3.3167522663876414,0.06125339139397256
1758274248628388600,11.868388671875,9.231716022869945,3.3074627522557973,0.08053891482604666
1758274248638347500,11.878347412109376,9.235950299438834,3.2954043579325076,0.08900428049289622
1758274248648305700,11.8883056640625,9.241054344579577,3.28121655036509,0.08315531700267456
1758274248658263600,11.898263671875,9.244492502334714,3.2720240668669343,0.06002513737380504
1758274248668222500,11.908222412109374,9.2439944896847,3.2738869381293654,0.024675575590098742
1758274248678180400,11.918180419921875,9.239348125183582,3.2870138384670016,-0.019295327873458154
1758274248688138500,11.928138427734375,9.231483967679738,3.308215324188769,-0.0761249754078919
1758274248698097400,11.938097412109375,9.219631032800674,3.3386630694225428,-0.14872193195326253
1758274248708055600,11.9480556640625,9.202767576283216,3.380431542354822,-0.22834048053137956
1758274248718014500,11.958014404296875,9.18127587544322,3.4330049024179576,-0.2983943147654645
1758274248727972600,11.96797265625,9.158427499297261,3.489888234634697,-0.3380367902534082
1758274248737930500,11.977930419921876,9.136936382979155,3.543985443264246,-0.35629886152241375
1758274248747889400,11.987889404296874,9.11876125934124,3.589748246529698,-0.36371509259566664
1758274248757847600,11.99784765625,9.105749217554926,3.621957448478043,-0.3703194227641448
1758274248767805700,12.0078056640625,9.09841405236125,3.6390474072277543,-0.38286220307089386
1758274248777764600,12.0177646484375,9.094615244600176,3.6460099397167562,-0.4061664332255721
1758274248787722500,12.027722412109375,9.092343792536854,3.6488776041075583,-0.43053558919802304
1758274248797680400,12.037680419921875,9.091080056211352,3.6500615531951186,-0.4468764466134831
1758274248807639600,12.0476396484375,9.09319018023312,3.6443215482383966,-0.45077798409666864
1758274248817597400,12.057597412109375,9.100886579954624,3.626037995789945,-0.4428238832870498
1758274248827555300,12.067555419921876,9.112918963053822,3.5978660865336654,-0.4248012467971071
1758274248837514500,12.077514404296876,9.125879566913843,3.567340599888563,-0.40347595203258096
1758274248847472400,12.087472412109374,9.1363103600353,3.542496958272159,-0.3859104116603732
1758274248857431300,12.097431396484374,9.143316439405083,3.5257314091712235,-0.3733153531771153
1758274248867389400,12.107389404296875,9.147242088416219,3.516387242242694,-0.3651993398040533
1758274248877347600,12.11734765625,9.14858239710927,3.5129017382144925,-0.36517194034047423
1758274248887306500,12.127306396484375,9.147656514436006,3.514624616484344,-0.37171770872212945
1758274248897264400,12.137264404296875,9.144952516174316,3.520456099116802,-0.3829095858765766
1758274248907222500,12.147222412109375,9.141360629162191,3.52812561083138,-0.3977968834828585
1758274248917181400,12.157181396484376,9.138253310796618,3.534201715874672,-0.4148899109724909
1758274248927139600,12.1671396484375,9.1375401940912,3.5344539370700714,-0.4282310385826975
1758274248937097500,12.177097412109376,9.139726305958629,3.528132625094056,-0.433661283470504
1758274248947056600,12.187056640625,9.143532712504268,3.5182618039429188,-0.43362076879702505
1758274248957014500,12.1970146484375,9.147482326912879,3.507910505798459,-0.434181142626144
1758274248966972700,12.20697265625,9.150345899650453,3.4997198928192255,-0.4399091283515095
1758274248976931600,12.216931640625,9.151171829080582,3.4957179637014866,-0.45430327214598654
1758274248986889700,12.2268896484375,9.150150669339299,3.495289801417291,-0.4775754997272044
1758274248996847400,12.236847412109375,9.148169724655151,3.4961280058071016,-0.5083954027416184
1758274249006806500,12.246806640625,9.14563582226336,3.4976723126396534,-0.542233119207248
1758274249016764400,12.256764404296876,9.14294935965836,3.4998300751954314,-0.5727599940918385
1758274249026723300,12.266723388671876,9.141105777618288,3.501524311892688,-0.5915238043379039
1758274249036681500,12.276681396484374,9.139567316004634,3.505144840477407,-0.5938470961863175
1758274249046639400,12.286639404296874,9.137706782829762,3.5129148899570106,-0.5763045713635161
1758274249056598500,12.2965986328125,9.134096775639057,3.5284991203188896,-0.5369859027361497
1758274249066556400,12.306556396484375,9.126606127622724,3.554877131895721,-0.4881554189957678
1758274249076514600,12.3165146484375,9.099902829614281,3.6272213603556156,-0.45323228191360826
1758274249086473500,12.326473388671875,9.057982088729739,3.7346938930809497,-0.4188090571776032
1758274249096431600,12.336431640625,9.017850569349527,3.834176011574268,-0.3845120891697705
1758274249106389500,12.346389404296875,8.99081993908286,3.898984876093268,-0.36532322191204875
1758274249116348400,12.356348388671876,8.987971563914417,3.90770038972944,-0.3415026032004505
1758274249126306600,12.366306640625,9.012056788378953,3.8546021290093657,-0.3086398327142
1758274249136265500,12.376265380859374,9.055062401890755,3.7544720680013297,-0.2831459652944468
1758274249146223600,12.3862236328125,9.101268857270478,3.642259647272527,-0.266901553990785
