time,seconds_elapsed,z,y,x
1758974132151190000,0.05418994140625,1.0749849081039429,-2.4112250804901123,1.1009043455123901
1758974132161148200,0.064148193359375,1.1402488946914673,-2.2406439781188965,0.9612647294998169
1758974132171106000,0.07410595703125,1.110941767692566,-1.969728946685791,0.7671434283256531
1758974132181064200,0.084064208984375,1.0295336246490479,-1.7822786569595337,0.5427404046058655
1758974132191022000,0.09402197265625,1.0428543090820312,-1.7137565612792969,0.33222848176956177
1758974132200980000,0.10397998046875,1.3360010385513306,-1.5309845209121704,0.21806779503822327
1758974132210937900,0.113937744140625,1.8903480768203735,-1.410929560661316,0.23433491587638855
1758974132220896000,0.12389599609375,2.4790172576904297,-1.605313777923584,0.36175182461738586
1758974132230854100,0.133854248046875,2.8785810470581055,-1.9647412300109863,0.49349918961524963
1758974132240812000,0.14381201171875,3.166114568710327,-2.480903148651123,0.6531268954277039
1758974132250770200,0.153770263671875,3.3706552982330322,-3.0217037200927734,0.8729524612426758
1758974132260728000,0.16372802734375,3.531501531600952,-3.446000576019287,1.1264759302139282
1758974132270686200,0.173686279296875,3.6755177974700928,-3.841120481491089,1.3689929246902466
1758974132280643800,0.183643798828125,3.845323324203491,-4.2868828773498535,1.5770423412322998
1758974132290601200,0.193601318359375,3.8085196018218994,-4.486912727355957,1.8134812116622925
1758974132300559400,0.203559326171875,3.557572841644287,-4.4875593185424805,1.9314603805541992
1758974132310518300,0.213518310546875,3.3262741565704346,-4.168898582458496,1.889209270477295
1758974132320476400,0.223476318359375,3.4279279708862305,-3.766860008239746,1.6629796028137207
1758974132330434300,0.233434326171875,3.850196361541748,-3.4347457885742188,1.3201082944869995
1758974132340392400,0.243392333984375,4.117358207702637,-3.330150604248047,1.0483810901641846
1758974132350350300,0.253350341796875,4.132801055908203,-3.481804609298706,1.1636672019958496
1758974132360308500,0.26330859375,4.025502681732178,-3.679293155670166,1.7201340198516846
1758974132370266000,0.27326611328125,3.828956127166748,-3.9784743785858154,2.4405808448791504
1758974132380224300,0.283224365234375,3.646016836166382,-4.230832099914551,3.1257288455963135
1758974132390182100,0.29318212890625,3.56225323677063,-4.1636552810668945,3.5826573371887207
1758974132400140300,0.303140380859375,3.530973434448242,-3.8304479122161865,3.738790273666382
1758974132410098400,0.313098388671875,3.418304681777954,-3.543809413909912,3.6593682765960693
1758974132420056300,0.323056396484375,3.279980182647705,-3.218801498413086,3.5660624504089355
1758974132430014500,0.333014404296875,3.033609628677368,-3.024449110031128,3.544658899307251
1758974132439972400,0.342972412109375,2.6680657863616943,-3.020958423614502,3.5639984607696533
1758974132449930200,0.35293017578125,2.360593318939209,-3.0004470348358154,3.63686466217041
1758974132459888000,0.36288818359375,2.0537383556365967,-2.943476676940918,3.6902782917022705
1758974132469847300,0.372847412109375,1.6672439575195312,-2.983931541442871,3.6021924018859863
1758974132479805200,0.38280517578125,1.3336684703826904,-3.133509635925293,3.3902745246887207
1758974132489763300,0.392763427734375,1.1369704008102417,-3.3547627925872803,3.093834400177002
1758974132499721200,0.40272119140625,1.1425130367279053,-3.6216208934783936,2.696526050567627
1758974132509679400,0.412679443359375,1.36255943775177,-4.043593883514404,1.9642618894577026
1758974132519637200,0.42263720703125,1.5763953924179077,-5.2284464836120605,-0.22424554824829102
1758974132529595400,0.432595458984375,1.7611958980560303,-5.766834735870361,-2.4001617431640625
1758974132539553300,0.44255322265625,1.9207899570465088,-5.92585563659668,-3.3874564170837402
1758974132549511200,0.45251123046875,1.837528109550476,-5.364902973175049,-2.9421067237854004
1758974132559469300,0.46246923828125,1.5058231353759766,-4.619913101196289,-1.4525748491287231
1758974132569427200,0.47242724609375,0.9496315717697144,-3.9763875007629395,0.06665069609880447
1758974132579385300,0.48238525390625,0.6036054491996765,-3.1040127277374268,1.4034016132354736
1758974132589343200,0.49234326171875,0.47124233841896057,-2.3795928955078125,2.2324233055114746
1758974132599301400,0.50230126953125,0.5029928088188171,-2.173523187637329,2.0833613872528076
1758974132609259300,0.51225927734375,0.5476362109184265,-1.5140714645385742,1.420070767402649
1758974132619217400,0.522217529296875,1.2114819288253784,-0.9207669496536255,1.0483019351959229
1758974132629175300,0.53217529296875,2.196568727493286,-0.9468070268630981,0.8937062621116638
1758974132639133200,0.54213330078125,3.132070779800415,-1.973048448562622,0.6168410181999207
1758974132649091300,0.55209130859375,3.8083648681640625,-2.824948787689209,0.3044322431087494
1758974132659050200,0.56205029296875,4.400603294372559,-3.0177676677703857,0.4624461829662323
1758974132669008100,0.572008056640625,5.013723373413086,-1.612708330154419,0.7357200384140015
1758974132678966300,0.58196630859375,5.350436687469482,-0.2069542557001114,0.9338313341140747
1758974132688924400,0.59192431640625,5.308694362640381,-0.45818352699279785,0.37293896079063416
1758974132698882300,0.60188232421875,3.946991443634033,-0.7330389618873596,-0.15992482006549835
1758974132708840400,0.61184033203125,1.044034481048584,-0.219388946890831,-0.02535901963710785
1758974132718798300,0.62179833984375,0.7536331415176392,-0.2102113515138626,-0.13469989597797394
1758974132728756200,0.631756103515625,0.5679184198379517,0.27241307497024536,-0.26707762479782104
1758974132738714000,0.641714111328125,0.14815953373908997,0.3399457633495331,-0.33154574036598206
1758974132748672300,0.65167236328125,0.16631455719470978,0.18043890595436096,-0.2649952173233032
1758974132758630400,0.66163037109375,0.10536237061023712,0.17679743468761444,-0.19129297137260437
1758974132768588300,0.67158837890625,0.029897702857851982,0.4099172353744507,-0.241921529173851
1758974132778546400,0.68154638671875,-0.15163423120975494,0.450955331325531,-0.8403234481811523
1758974132788504300,0.69150439453125,-0.14246682822704315,1.249480128288269,-0.8003959655761719
1758974132798462500,0.70146240234375,-0.22750447690486908,1.4667404890060425,-0.6434450745582581
1758974132808420400,0.71142041015625,-0.26812779903411865,1.0332255363464355,-0.5326325297355652
1758974132818378200,0.721378173828125,-0.17726613581180573,0.6128429174423218,-0.3724960386753082
1758974132828336000,0.731336181640625,-0.031155796721577644,0.27562281489372253,-0.22185806930065155
1758974132838294300,0.741294189453125,0.11960328370332718,-0.18759743869304657,-0.1360161304473877
1758974132848253200,0.751253173828125,0.19396859407424927,-0.4580928385257721,-0.06638724356889725
1758974132858211300,0.76121142578125,0.2817758023738861,-0.5263566970825195,0.0107246283441782
1758974132868169200,0.771169189453125,0.4731588065624237,-0.5098989009857178,0.10635927319526672
1758974132878127400,0.78112744140625,0.5176826119422913,-0.43708133697509766,0.2199699431657791
1758974132888085200,0.791085205078125,0.5706230401992798,-0.672936201095581,0.3028152883052826
1758974132898043400,0.80104345703125,0.7164689898490906,-0.8739683032035828,0.27791911363601685
1758974132908001300,0.811001220703125,0.6711456775665283,-0.9100152850151062,0.24621817469596863
1758974132917959200,0.820959228515625,0.5786283612251282,-0.9324368834495544,0.21940970420837402
1758974132927917300,0.830917236328125,0.5603731870651245,-0.790199339389801,0.20715464651584625
1758974132937875200,0.840875244140625,0.5098357796669006,-0.5842586159706116,0.2958108186721802
1758974132947833300,0.850833251953125,0.34110158681869507,-0.56807941198349,0.28056129813194275
1758974132957791200,0.860791259765625,0.10071849077939987,-0.5014846920967102,0.36362650990486145
1758974132967749400,0.870749267578125,-0.031937554478645325,-0.23864053189754486,0.09286290407180786
1758974132977707300,0.880707275390625,-0.10320909321308136,0.2628714144229889,-0.3680305480957031
1758974132987665400,0.89066552734375,-0.013922625221312046,0.6778779625892639,-0.6717289686203003
1758974132997623300,0.900623291015625,-0.05340096727013588,0.8391250967979431,-0.6376538276672363
1758974133007581200,0.910581298828125,0.028894705697894096,0.7204112410545349,-0.34789469838142395
1758974133017539300,0.920539306640625,0.1691281497478485,0.3998415768146515,-0.021156545728445053
1758974133027497200,0.930497314453125,0.28551602363586426,-0.08088988065719604,0.2078705132007599
1758974133037455400,0.940455322265625,0.2615150809288025,-0.2900569438934326,0.36757922172546387
1758974133047413200,0.950413330078125,0.17293567955493927,-0.18859077990055084,0.4857098460197449
1758974133057371400,0.960371337890625,-0.05045129358768463,0.3241834044456482,0.4573817849159241
1758974133067330300,0.970330322265625,-0.23624727129936218,0.764283299446106,0.24162901937961578
1758974133077288400,0.980288330078125,-0.21636377274990082,0.5661618113517761,0.01760256290435791
1758974133087246300,0.990246337890625,0.21455620229244232,-0.036745890974998474,-0.12080191820859909
1758974133097204200,1.000204345703125,1.1926649808883667,-0.8903828263282776,-0.09018035233020782
1758974133107162000,1.010162109375,1.9659767150878906,-1.6492375135421753,0.14382201433181763
1758974133117120300,1.020120361328125,2.921746015548706,-0.8797595500946045,0.5557900071144104
1758974133127078400,1.030078369140625,3.8850207328796387,-0.07214051485061646,1.1081604957580566
1758974133137036300,1.040036376953125,4.3876776695251465,-0.14226903021335602,1.6386072635650635
1758974133146994400,1.049994384765625,4.79679536819458,-0.8862470388412476,2.0106406211853027
1758974133156952300,1.059952392578125,5.136599540710449,-1.3394449949264526,2.038606882095337
1758974133166910500,1.069910400390625,5.200865268707275,-1.6760659217834473,1.8139710426330566
1758974133176868000,1.0798681640625,5.0829901695251465,-1.777707576751709,1.5546717643737793
1758974133186826200,1.089826171875,4.754884719848633,-3.247681140899658,2.330065965652466
1758974133196784400,1.099784423828125,4.518023490905762,-4.316757678985596,2.496880531311035
1758974133206742300,1.1097421875,4.797065258026123,-4.47983980178833,1.5777324438095093
1758974133216700400,1.119700439453125,5.023617267608643,-3.8260979652404785,0.6153363585472107
1758974133226658300,1.129658203125,5.546196460723877,-3.307847261428833,0.7840862274169922
1758974133236616400,1.139616455078125,4.559505939483643,-2.9582560062408447,0.7718489170074463
1758974133246574300,1.14957421875,3.252981185913086,-2.7339107990264893,0.5325167179107666
1758974133256532200,1.1595322265625,2.6068708896636963,-1.8174597024917603,0.09901753813028336
1758974133266490000,1.169489990234375,2.0701537132263184,-1.011055588722229,-0.18379871547222137
1758974133276448300,1.1794482421875,1.4020391702651978,-0.9174503087997437,-0.046460144221782684
1758974133286406400,1.189406494140625,0.965668261051178,-1.7685267925262451,0.08538950234651566
1758974133296365000,1.199364990234375,1.0523864030838013,-2.5606303215026855,0.00929931178689003
1758974133306323000,1.209322998046875,0.9726972579956055,-2.5428194999694824,-0.2386535108089447
1758974133316282000,1.2192822265625,0.665265679359436,-2.406646728515625,-0.3470403850078583
1758974133326240000,1.229239990234375,0.3748549520969391,-2.0624496936798096,-0.3367193043231964
1758974133336198100,1.2391982421875,0.09430231153964996,-1.6789740324020386,-0.3922264277935028
1758974133346156000,1.249156005859375,-0.05040374770760536,-1.3050686120986938,-0.5393394827842712
1758974133356114200,1.2591142578125,-0.13597382605075836,-0.7048152685165405,-0.7734220027923584
1758974133366072000,1.269072021484375,-0.14021863043308258,0.18904995918273926,-1.1158078908920288
1758974133376030000,1.279030029296875,-0.1763422042131424,0.9844706654548645,-1.4295586347579956
1758974133385988000,1.288988037109375,-0.25118398666381836,1.3433659076690674,-1.6909724473953247
1758974133395946000,1.298946044921875,-0.4302228093147278,1.2143235206604004,-1.7796061038970947
1758974133405904100,1.308904052734375,-0.3008483052253723,0.8142536282539368,-1.6349884271621704
1758974133415862000,1.318862060546875,0.016120636835694313,0.39188268780708313,-1.2906757593154907
1758974133425820200,1.328820068359375,0.15524284541606903,0.15437720715999603,-0.7394930720329285
1758974133435778000,1.338778076171875,0.178297221660614,0.022504208609461784,-0.08730396628379822
1758974133445736200,1.348736083984375,0.14776194095611572,0.07803325355052948,0.4358724355697632
1758974133455694000,1.358694091796875,0.12670472264289856,0.32846736907958984,0.6381471157073975
1758974133465652000,1.36865185546875,0.19635756313800812,0.44459450244903564,0.5801247954368591
1758974133475610000,1.378610107421875,0.28081074357032776,0.46660250425338745,0.3260844945907593
1758974133485568000,1.388568115234375,0.2799968719482422,0.4260084927082062,-0.07576066255569458
1758974133495526100,1.398526123046875,0.18825627863407135,0.2102941870689392,-0.4455815255641937
1758974133505484000,1.408484130859375,0.18102526664733887,-0.05222077667713165,-0.6381763219833374
1758974133515442200,1.418442138671875,0.180515855550766,-0.29652607440948486,-0.5891854763031006
1758974133525400000,1.428400146484375,0.16058050096035004,-0.4363095462322235,-0.39598751068115234
1758974133535358000,1.43835791015625,0.10481053590774536,-0.461078405380249,-0.16510923206806183
1758974133545316000,1.448316162109375,0.049664996564388275,-0.4056617319583893,-0.00343671184964478
1758974133555274000,1.45827392578125,0.015888197347521782,-0.2818484604358673,0.056275248527526855
1758974133565232000,1.468232177734375,0.00006981886690482497,-0.16816025972366333,0.05425684154033661
1758974133575190000,1.47818994140625,-0.017580758780241013,-0.11330895125865936,0.047896191477775574
1758974133585148200,1.488148193359375,-0.02779877558350563,-0.07453758269548416,0.06864248216152191
1758974133595106000,1.49810595703125,-0.03703238070011139,0.011678069829940796,0.11105981469154358
1758974133605064200,1.508064208984375,-0.03871842473745346,0.1159496158361435,0.15171271562576294
1758974133615021800,1.518021728515625,-0.03373178094625473,0.19085179269313812,0.17431581020355225
1758974133624980000,1.52797998046875,-0.018773606047034264,0.1988295465707779,0.17597602307796478
1758974133634938000,1.537938232421875,0.005912806373089552,0.13769520819187164,0.17093317210674286
1758974133644897000,1.54789697265625,0.033499427139759064,0.03015410341322422,0.16463986039161682
1758974133654855000,1.55785498046875,0.05192544311285019,-0.1032939925789833,0.1683020144701004
1758974133664813000,1.56781298828125,0.05069080367684364,-0.21929489076137543,0.18876761198043823
1758974133674771000,1.57777099609375,0.033049535006284714,-0.2638598680496216,0.21666662395000458
1758974133684729000,1.58772900390625,0.009758329018950462,-0.23743945360183716,0.2530216872692108
1758974133694687200,1.597687255859375,-0.020655237138271332,-0.12545566260814667,0.287786066532135
1758974133704645000,1.60764501953125,-0.06301494687795639,0.044033244252204895,0.3052867650985718
1758974133714603000,1.61760302734375,-0.11501745134592056,0.21059224009513855,0.30098772048950195
1758974133724561000,1.627560791015625,-0.1605125069618225,0.311464786529541,0.27835431694984436
1758974133734519000,1.63751904296875,-0.18762382864952087,0.3451961874961853,0.2477673888206482
1758974133744477000,1.647476806640625,-0.19835743308067322,0.33575955033302307,0.198729008436203
1758974133754435000,1.65743505859375,-0.19933576881885529,0.3039018511772156,0.132873997092247
1758974133764393200,1.667393310546875,-0.1930515021085739,0.26943841576576233,0.057430632412433624
1758974133774351000,1.67735107421875,-0.17873957753181458,0.2658613920211792,-0.01594492793083191
1758974133784309200,1.687309326171875,-0.16702407598495483,0.2636831998825073,-0.07112056761980057
1758974133794267000,1.697266845703125,-0.16803552210330963,0.2432636022567749,-0.09070301055908203
1758974133804225000,1.70722509765625,-0.18070150911808014,0.20908460021018982,-0.07405079901218414
1758974133814183000,1.717182861328125,-0.19798023998737335,0.16352269053459167,-0.0344625860452652
1758974133824141000,1.72714111328125,-0.20442508161067963,0.09979909658432007,0.0018794439965859056
1758974133834099000,1.737098876953125,-0.19798319041728973,0.02649751678109169,0.017474869266152382
1758974133844057000,1.74705712890625,-0.17962709069252014,-0.06705693155527115,0.021388119086623192
1758974133854015200,1.75701513671875,-0.15742382407188416,-0.14348869025707245,0.024831581860780716
1758974133863973000,1.76697314453125,-0.14165817201137543,-0.12566575407981873,0.04912040755152702
1758974133873931300,1.77693115234375,-0.14903292059898376,-0.00019679288379848003,0.09818398952484131
1758974133883889000,1.786888916015625,-0.18300047516822815,0.14813941717147827,0.16244658827781677
1758974133893847000,1.796846923828125,-0.22717078030109406,0.21098381280899048,0.22620421648025513
1758974133903805000,1.806804931640625,-0.26308774948120117,0.18520547449588776,0.2694728374481201
1758974133913763000,1.81676318359375,-0.26937350630760193,0.09964586794376373,0.278609037399292
1758974133923721000,1.826720947265625,-0.2553146779537201,-0.011108345352113247,0.25717243552207947
1758974133933679000,1.83667919921875,-0.23931995034217834,-0.130518838763237,0.20750541985034943
1758974133943637200,1.84663720703125,-0.22611252963542938,-0.18670329451560974,0.15498201549053192
1758974133953595100,1.85659521484375,-0.20928063988685608,-0.14131490886211395,0.1375337392091751
1758974133963553000,1.866552978515625,-0.19275866448879242,-0.04959910362958908,0.13994097709655762
1758974133973511000,1.876510986328125,-0.16922427713871002,0.004760642535984516,0.14436395466327667
1758974133983469000,1.886468994140625,-0.1278560608625412,-0.014551802538335323,0.12574845552444458
1758974133993427000,1.896427001953125,-0.09270810335874557,-0.07727064937353134,0.0792919471859932
1758974134003385000,1.906385009765625,-0.07398634403944016,-0.11006615310907364,0.017658144235610962
1758974134013343000,1.916343017578125,-0.06518301367759705,-0.0676129162311554,-0.028220243752002716
1758974134023301000,1.926301025390625,-0.07122465968132019,0.014546936377882957,-0.04370545968413353
1758974134033259300,1.93625927734375,-0.09608320891857147,0.07293543219566345,-0.02925504371523857
1758974134043217000,1.946216796875,-0.11455036699771881,0.033820245414972305,0.0002945938613265753
1758974134053175000,1.956175048828125,-0.1302795261144638,-0.10084174573421478,0.014075764454901218
1758974134063133000,1.9661328125,-0.13444790244102478,-0.2983790636062622,0.004575203638523817
1758974134073091000,1.976091064453125,-0.12611863017082214,-0.5142041444778442,-0.007125663571059704
1758974134083049000,1.986049072265625,-0.11588330566883087,-0.6767722368240356,-0.005791686475276947
1758974134093007000,1.996007080078125,-0.11418242007493973,-0.7421936392784119,0.005940621718764305
1758974134102965000,2.005965087890625,-0.10907234251499176,-0.6888047456741333,0.01777038350701332
1758974134112923100,2.015923095703125,-0.09784100204706192,-0.5611639022827148,0.03590985760092735
1758974134122881000,2.025881103515625,-0.0755026787519455,-0.429616242647171,0.054941073060035706
1758974134132839000,2.0358388671875,-0.04539725184440613,-0.3748634159564972,0.06571147590875626
1758974134142797000,2.045797119140625,-0.01385583821684122,-0.39464113116264343,0.05515097454190254
1758974134152755000,2.0557548828125,0.01425936073064804,-0.43732282519340515,0.015818698331713676
1758974134162713000,2.065713134765625,0.031546205282211304,-0.45934557914733887,-0.044002290815114975
1758974134172672000,2.075672119140625,0.02214273251593113,-0.4500390291213989,-0.08975645154714584
1758974134182629000,2.085629150390625,-0.001963935559615493,-0.3896244168281555,-0.09147312492132187
1758974134192588000,2.095588134765625,-0.04598869010806084,-0.2808727025985718,-0.05696852505207062
1758974134202546200,2.105546142578125,-0.11402340233325958,-0.13863006234169006,0.010850470513105392
1758974134212504000,2.115504150390625,-0.16545143723487854,-0.005542633589357138,0.11197453737258911
1758974134222462000,2.1254619140625,-0.18357504904270172,0.07841884344816208,0.2086329162120819
1758974134232419800,2.135419921875,-0.18664716184139252,0.12087089568376541,0.25415775179862976
1758974134242378000,2.1453779296875,-0.17885661125183105,0.1357092261314392,0.26064226031303406
1758974134252336000,2.155336181640625,-0.15776053071022034,0.11376368999481201,0.26049554347991943
1758974134262294000,2.1652939453125,-0.13333773612976074,0.03280438482761383,0.26415953040122986
1758974134272252200,2.175252197265625,-0.0907040536403656,-0.07133542001247406,0.275745689868927
1758974134282210000,2.1852099609375,-0.04264571890234947,-0.12810708582401276,0.2675918936729431
1758974134292167700,2.195167724609375,0.009267281740903854,-0.11233936995267868,0.22402028739452362
1758974134302125600,2.20512548828125,0.08184321224689484,-0.04029553011059761,0.1546952724456787
1758974134312083500,2.21508349609375,0.13531889021396637,0.08797893673181534,0.041733983904123306
1758974134322041600,2.22504150390625,0.10935252904891968,0.18984751403331757,-0.11078072339296341
1758974134331999500,2.23499951171875,0.041380975395441055,0.22641515731811523,-0.24966712296009064
1758974134341957600,2.24495751953125,-0.01701788417994976,0.28882500529289246,-0.32251977920532227
1758974134351915500,2.25491552734375,-0.07564397901296616,0.343696266412735,-0.2684929072856903
1758974134361873700,2.264873779296875,-0.10451291501522064,0.3465628921985626,-0.0967741385102272
1758974134371831600,2.27483154296875,-0.09034194052219391,0.314276784658432,0.10939931124448776
1758974134381789400,2.28478955078125,-0.07918089628219604,0.273258775472641,0.26133662462234497
1758974134391747600,2.29474755859375,-0.08427565544843674,0.22151711583137512,0.32957762479782104
1758974134401705500,2.30470556640625,-0.09337487816810608,0.1935262233018875,0.331598162651062
1758974134411663600,2.31466357421875,-0.09396692365407944,0.2003423124551773,0.29801201820373535
1758974134421621500,2.32462158203125,-0.09080708771944046,0.22411048412322998,0.2593887150287628
1758974134431579600,2.33457958984375,-0.07247140258550644,0.2527857720851898,0.2295246422290802
1758974134441537500,2.34453759765625,-0.044169459491968155,0.26161283254623413,0.21035495400428772
1758974134451495700,2.35449560546875,-0.014290974475443363,0.28252169489860535,0.187851682305336
1758974134461453300,2.364453369140625,0.00439642695710063,0.3227410316467285,0.1524907499551773
1758974134471411500,2.374411376953125,0.016201486811041832,0.34584131836891174,0.12509965896606445
1758974134481369600,2.38436962890625,0.01489094365388155,0.2872864007949829,0.11354900151491165
1758974134491327500,2.394327392578125,0.011680537834763527,0.18061168491840363,0.11347135156393051
1758974134501285600,2.40428564453125,0.0002739533083513379,0.0720420554280281,0.1168341264128685
1758974134511243500,2.414243408203125,-0.010734922252595425,-0.004878632724285126,0.111984983086586
1758974134521201700,2.42420166015625,-0.003731873817741871,-0.030918223783373833,0.08147847652435303
1758974134531159600,2.43415966796875,-0.01724761538207531,-0.025479312986135483,0.047249674797058105
1758974134541117700,2.44411767578125,-0.04432078078389168,0.014226820319890976,0.03133488819003105
1758974134551075600,2.45407568359375,-0.07528618723154068,0.12193822115659714,0.04459993541240692
1758974134561033500,2.464033447265625,-0.10680842399597168,0.2635824382305145,0.08372283726930618
1758974134570991600,2.47399169921875,-0.13631774485111237,0.4253166615962982,0.12495996057987213
1758974134580949500,2.483949462890625,-0.14769130945205688,0.569876492023468,0.1582963466644287
1758974134590907600,2.49390771484375,-0.14270012080669403,0.6283974051475525,0.19000959396362305
1758974134600865500,2.503865478515625,-0.12995874881744385,0.5646405220031738,0.21874190866947174
1758974134610823700,2.51382373046875,-0.1030040979385376,0.46214404702186584,0.21700194478034973
1758974134620781600,2.523781494140625,-0.07706756889820099,0.335605263710022,0.20175482332706451
1758974134630739500,2.533739501953125,-0.05760309472680092,0.16584959626197815,0.18514171242713928
1758974134640697600,2.543697509765625,-0.04710012301802635,-0.021898731589317322,0.17565074563026428
1758974134650655500,2.553655517578125,-0.03909555822610855,-0.1808949112892151,0.17464053630828857
1758974134660613600,2.563613525390625,-0.02981790527701378,-0.2813591957092285,0.17942970991134644
1758974134670571500,2.573571533203125,-0.02681545726954937,-0.32400545477867126,0.19455379247665405
1758974134680529700,2.58352978515625,-0.039425525814294815,-0.2941999137401581,0.21013224124908447
1758974134690487600,2.593487548828125,-0.05552200600504875,-0.19416707754135132,0.2247670441865921
1758974134700445700,2.60344580078125,-0.06870092451572418,-0.05943909287452698,0.22734525799751282
1758974134710403300,2.6134033203125,-0.077415332198143,0.05208924412727356,0.20234042406082153
1758974134720361500,2.623361572265625,-0.07653249055147171,0.0743924230337143,0.15859054028987885
1758974134730319600,2.633319580078125,-0.06371065974235535,0.03681648522615433,0.12015638500452042
1758974134740277500,2.643277587890625,-0.042997125536203384,-0.04777989163994789,0.09648673981428146
1758974134750235600,2.653235595703125,-0.03892435505986214,-0.1265106499195099,0.0783921554684639
1758974134760193500,2.663193603515625,-0.026387255638837814,-0.14591418206691742,0.062419578433036804
1758974134770151700,2.673151611328125,-0.026547951623797417,-0.11933708935976028,0.041537266224622726
1758974134780109600,2.683109619140625,-0.033337946981191635,-0.0597429983317852,0.032073188573122025
1758974134790067500,2.6930673828125,-0.03904871642589569,0.017382653430104256,0.027193035930395126
1758974134800025300,2.703025390625,-0.04216647893190384,0.07404966652393341,0.016942795366048813
1758974134809983500,2.7129833984375,-0.039525315165519714,0.0995953232049942,-0.0021468743216246367
1758974134819941600,2.722941650390625,-0.03691967576742172,0.10337887704372406,-0.020261695608496666
1758974134829899500,2.7328994140625,-0.03400643542408943,0.09936900436878204,-0.020969148725271225
1758974134839857700,2.742857666015625,-0.03519979864358902,0.08513760566711426,-0.0118219880387187
1758974134849814500,2.752814453125,-0.03332897648215294,0.06237643212080002,0.006169222295284271
1758974134859772400,2.7627724609375,-0.0359942689538002,0.03001422807574272,0.023754075169563293
1758974134869730600,2.77273046875,-0.031627360731363297,-0.00013091578148305416,0.03875628113746643
1758974134879688400,2.7826884765625,-0.022895390167832375,-0.014688819646835327,0.04686028137803078
1758974134889646600,2.792646484375,-0.015550262294709682,-0.020929964259266853,0.04715275391936302
1758974134899604500,2.8026044921875,-0.012415987439453602,-0.030079253017902374,0.051009275019168854
1758974134909562600,2.812562744140625,-0.010714247822761536,-0.034321773797273636,0.054068416357040405
1758974134919520500,2.8225205078125,-0.011431969702243805,-0.04095757007598877,0.05583355948328972
1758974134929478700,2.832478759765625,-0.0107196643948555,-0.05013277754187584,0.06214428320527077
1758974134939436500,2.8424365234375,-0.00970526598393917,-0.06079607456922531,0.06649242341518402
1758974134949394400,2.85239453125,-0.003446544986218214,-0.05476737767457962,0.0607362724840641
1758974134959352600,2.8623525390625,0.0020456921774894,-0.056427326053380966,0.0567479245364666
1758974134969310500,2.872310546875,0.008703339844942093,-0.061643343418836594,0.0476914644241333
1758974134979268600,2.8822685546875,0.007905189879238605,-0.045516569167375565,0.038448162376880646
1758974134989226500,2.8922265625,0.007171515841037035,-0.007806641515344381,0.021683571860194206
1758974134999184600,2.9021845703125,0.0028449445962905884,0.029329007491469383,0.012278085574507713
1758974135009142500,2.912142578125,-0.00004378642188385129,0.045952994376420975,0.007650043815374374
1758974135019100700,2.9221005859375,-0.001021432806737721,0.06368990987539291,0.003122936701402068
1758974135029058600,2.93205859375,-0.0031192046590149403,0.07912399619817734,-0.010898872278630733
1758974135039016400,2.942016357421875,-0.006857750471681356,0.09123604744672775,-0.024958232417702675
1758974135048974600,2.951974609375,-0.006993901915848255,0.0905846580862999,-0.028808526694774628
1758974135058932500,2.961932373046875,-0.007294838782399893,0.09609846770763397,-0.02749611996114254
1758974135068890600,2.971890625,-0.0073796664364635944,0.11054129153490067,-0.028457462787628174
1758974135078848500,2.9818486328125,-0.00690296059474349,0.12077023088932037,-0.035751327872276306
1758974135088806700,2.991806640625,-0.004748500883579254,0.11770398169755936,-0.037698253989219666
1758974135098764500,3.0017646484375,-0.0022057145833969116,0.0972951129078865,-0.034203387796878815
1758974135108722400,3.011722412109375,-0.001476612058468163,0.06330066919326782,-0.022149845957756042
1758974135118680600,3.0216806640625,0.0014190429355949163,0.03691966459155083,-0.0146101713180542
1758974135128638500,3.031638427734375,0.00314780930057168,0.01820630580186844,-0.010719213634729385
1758974135138596600,3.0415966796875,0.00017332483548671007,0.013479725457727909,-0.009280307218432426
1758974135148554500,3.051554443359375,-0.0003059172013308853,0.020893407985568047,-0.008770786225795746
1758974135158512600,3.0615126953125,-0.00347241573035717,0.018782587721943855,-0.011372694745659828
1758974135168470500,3.071470458984375,-0.0018069762736558914,0.009046996012330055,-0.011529341340065002
1758974135178428700,3.0814287109375,0.0008684353088028729,0.004722554702311754,-0.012629227712750435
1758974135188386600,3.091386474609375,-0.00019472400890663266,0.005128851626068354,-0.014208486303687096
1758974135198344400,3.101344482421875,0.0010218080133199692,0.01622677594423294,-0.021530581638216972
1758974135208302600,3.111302490234375,0.0001985712442547083,0.0084991455078125,-0.023488283157348633
1758974135218260500,3.121260498046875,0.0007248119218274951,0.01021129172295332,-0.02551468089222908
1758974135228218600,3.131218505859375,0.002627821173518896,0.010501221753656864,-0.027605727314949036
1758974135238176500,3.141176513671875,-0.00003028003266081214,0.019867558032274246,-0.03159381076693535
1758974135248134700,3.151134765625,0.0018210227135568857,0.03456024453043938,-0.0321616530418396
1758974135258092500,3.161092529296875,0.004740912467241287,0.03426969423890114,-0.029393300414085388
1758974135268050700,3.17105078125,0.01030463445931673,0.030018145218491554,-0.03185388818383217
1758974135278008600,3.181008544921875,0.01451828796416521,0.027818642556667328,-0.034960731863975525
1758974135287966500,3.190966552734375,0.016048727557063103,0.032278865575790405,-0.03576478362083435
1758974135297924400,3.20092431640625,0.012840417213737965,0.05025520548224449,-0.03101237118244171
1758974135307882200,3.21088232421875,0.007549327798187733,0.06913545727729797,-0.021158630028367043
1758974135317840400,3.22084033203125,0.008541622199118137,0.05455438047647476,-0.01170147955417633
1758974135327798300,3.23079833984375,0.015315310098230839,0.0019561643712222576,-0.0028639419469982386
1758974135337756400,3.24075634765625,0.017487915232777596,-0.03757180646061897,0.002901802072301507
1758974135347714300,3.25071435546875,0.015069399029016495,-0.03517856076359749,0.005996343679726124
1758974135357672200,3.260672119140625,0.010954014956951141,-0.033349767327308655,0.014712071046233177
1758974135367629300,3.27062939453125,0.009118134155869484,-0.05408766493201256,0.025948798283934593
1758974135377587200,3.280587158203125,0.009528260678052902,-0.06797204911708832,0.03133158013224602
1758974135387545300,3.29054541015625,0.012625481933355331,-0.0729818269610405,0.02536872960627079
1758974135397503500,3.30050341796875,0.016674552112817764,-0.07406386733055115,0.017832249402999878
1758974135407461400,3.31046142578125,0.020877161994576454,-0.07502418011426926,0.011301054619252682
1758974135417419300,3.320419189453125,0.024600794538855553,-0.08208315819501877,0.010105295106768608
1758974135427377200,3.330377197265625,0.022369271144270897,-0.07588005810976028,0.009920167736709118
1758974135437335300,3.340335205078125,0.024272367358207703,-0.05761796236038208,0.005994934588670731
1758974135447293200,3.350293212890625,0.012581069022417068,-0.039906445890665054,0.005478007718920708
1758974135457251300,3.360251220703125,0.006995887029916048,-0.0160991158336401,-0.0010605850256979465
1758974135467209200,3.370209228515625,0.0046026273630559444,0.026537533849477768,-0.009300880134105682
1758974135477167400,3.38016748046875,0.0022244241554290056,0.06434856355190277,-0.02131386660039425
1758974135487125500,3.39012548828125,-0.003523539751768112,0.07349302619695663,-0.03040751814842224
1758974135497083100,3.400083251953125,-0.005464717745780945,0.06975634396076202,-0.03389279544353485
1758974135507041300,3.410041259765625,-0.0032898758072406054,0.059689249843358994,-0.03466333821415901
1758974135516999200,3.419999267578125,-0.002839535241946578,0.05189710482954979,-0.03451872989535332
1758974135526957300,3.429957275390625,-0.0011048547457903624,0.05593165382742882,-0.03315310925245285
1758974135536915200,3.439915283203125,-0.0010971315205097198,0.08057761192321777,-0.03501492738723755
1758974135546873300,3.449873291015625,-0.0009933504043146968,0.11043022572994232,-0.03291332721710205
1758974135556831200,3.459831298828125,-0.005956417415291071,0.12491676211357117,-0.029620865359902382
1758974135566789400,3.469789306640625,-0.005277680233120918,0.12595951557159424,-0.025920454412698746
1758974135576747500,3.47974755859375,-0.004307756666094065,0.11088868975639343,-0.015519212000072002
1758974135586705200,3.489705078125,0.00031430250965058804,0.07993829995393753,-0.004894996993243694
1758974135596663300,3.499663330078125,0.004450457636266947,0.04382424056529999,0.004215143620967865
1758974135606621200,3.50962109375,0.004841222893446684,0.02534944750368595,0.010552837513387203
1758974135616579300,3.519579345703125,0.005328048951923847,0.028797175735235214,0.013520664535462856
1758974135626537200,3.529537109375,-0.0006488396902568638,0.03740381449460983,0.023230846971273422
1758974135636495400,3.539495361328125,-0.0019902740605175495,0.04149016737937927,0.027263937518000603
1758974135646453500,3.54945361328125,-0.002794200088828802,0.050698671489953995,0.02291649580001831
1758974135656411400,3.559411376953125,-0.0033321590162813663,0.05224357172846794,0.014755239710211754
1758974135666369300,3.569369384765625,-0.0012052764650434256,0.03427259996533394,-0.0002662746701389551
1758974135676327200,3.5793271484375,-0.0009453519014641643,0.018106676638126373,-0.015638839453458786
1758974135686285300,3.589285400390625,-0.002918069250881672,0.024120856076478958,-0.025131212547421455
1758974135696242400,3.599242431640625,-0.005851807538419962,0.0500296875834465,-0.03290284797549248
1758974135706200300,3.609200439453125,-0.008580085821449757,0.07948150485754013,-0.03969797119498253
1758974135716158500,3.619158447265625,-0.012427288107573986,0.10288456827402115,-0.04715908318758011
1758974135726116400,3.629116455078125,-0.016353828832507133,0.12104791402816772,-0.05596227943897247
1758974135736074200,3.63907421875,-0.016000693663954735,0.13251522183418274,-0.06124492362141609
1758974135746032000,3.6490322265625,-0.018460588529706,0.1264294981956482,-0.06624817848205566
1758974135755990300,3.658990234375,-0.01342401746660471,0.09949775040149689,-0.06476426869630814
1758974135765948400,3.668948486328125,-0.004937560297548771,0.06584183871746063,-0.055544786155223846
1758974135775906300,3.67890625,-0.000004853471182286739,0.018745696172118187,-0.045366715639829636
1758974135785864400,3.688864501953125,0.0023020796943455935,-0.0362420454621315,-0.036632828414440155
1758974135795822300,3.698822265625,-0.00016214314382523298,-0.07340645790100098,-0.029654014855623245
1758974135805780500,3.708780517578125,-0.001881137490272522,-0.0685514286160469,-0.018442468717694283
1758974135815738000,3.718738037109375,-0.010428019799292088,-0.04258480668067932,-0.0038454164750874043
1758974135825696300,3.7286962890625,-0.02135106921195984,-0.012985562905669212,0.008982586674392223
1758974135835654100,3.738654052734375,-0.026185771450400352,0.003406193107366562,0.025402838364243507
1758974135845612300,3.7486123046875,-0.02277742512524128,-0.007853714749217033,0.03303387388586998
1758974135855570400,3.7585703125,-0.016067856922745705,-0.05107841640710831,0.026195676997303963
1758974135865528300,3.7685283203125,-0.004160536918789148,-0.11125015467405319,0.014954902231693268
1758974135875486500,3.778486572265625,0.0018763162661343813,-0.15253528952598572,0.012196933850646019
1758974135885444400,3.7884443359375,0.0033183670602738857,-0.14836986362934113,0.02009078674018383
1758974135895402200,3.79840234375,-0.0021208729594945908,-0.11312612891197205,0.031015340238809586
1758974135905360100,3.808360107421875,-0.004963850136846304,-0.06612862646579742,0.03768865764141083
1758974135915318300,3.818318359375,-0.008339405991137028,-0.030975963920354843,0.034913111478090286
1758974135925275400,3.828275390625,-0.005387265235185623,-0.02764882706105709,0.029076408594846725
1758974135935233300,3.8382333984375,0.0036541668232530355,-0.04790749400854111,0.020424865186214447
1758974135945191400,3.84819140625,0.01040155254304409,-0.08316599577665329,0.0035325689241290092
1758974135955149300,3.8581494140625,0.013799745589494705,-0.0990818440914154,-0.009809069335460663
1758974135965107200,3.868107177734375,0.00969730969518423,-0.06726972758769989,-0.01737223193049431
1758974135975065300,3.8780654296875,-0.00027010368648916483,-0.008327045477926731,-0.016255302354693413
1758974135985023200,3.888023193359375,-0.007554531563073397,0.036264631897211075,-0.011535855010151863
1758974135994981400,3.8979814453125,-0.014120022766292095,0.04557264596223831,-0.012640268541872501
1758974136004939300,3.907939208984375,-0.009517648257315159,0.025974150747060776,-0.015937713906168938
1758974136014897400,3.9178974609375,-0.0003204217937309295,-0.011836346238851547,-0.016328666359186172
1758974136024855300,3.927855224609375,0.006594218313694,-0.046382881700992584,-0.014732490293681622
1758974136034813400,3.9378134765625,0.009874433279037476,-0.057337794452905655,-0.01098941732198
1758974136044771000,3.94777099609375,0.008169557899236679,-0.04362071305513382,-0.0033069613855332136
1758974136054729200,3.957729248046875,0.0053527322597801685,-0.025605494156479836,0.006126753985881805
1758974136064687400,3.967687255859375,0.0036533998791128397,-0.013303505256772041,0.017641611397266388
1758974136074645200,3.977645263671875,0.0033806918654590845,-0.016037240624427795,0.025365309789776802
1758974136084603400,3.987603271484375,0.002760794246569276,-0.011601287871599197,0.027454473078250885
1758974136094561300,3.997561279296875,0.0008704825886525214,-0.0011041725520044565,0.027141284197568893
1758974136104519400,4.00751953125,0.0006173367728479207,0.009992508217692375,0.028731118887662888
1758974136114477300,4.017477294921875,-0.0016016090521588922,0.013254880905151367,0.02656969428062439
1758974136124435200,4.027435302734375,-0.0017549924086779356,0.011864280328154564,0.025225339457392693
1758974136134392300,4.037392333984375,0.0006833978113718331,-0.0006997152231633663,0.021857772022485733
1758974136144350200,4.04735009765625,0.00248498166911304,-0.01699335314333439,0.02006797306239605
1758974136154308400,4.057308349609375,0.004513511434197426,-0.022981736809015274,0.015521158464252949
1758974136164266200,4.067266357421875,0.0031130884308367968,-0.018063487485051155,0.013848092406988144
1758974136174224400,4.077224365234375,0.0029897838830947876,-0.0015774554340168834,0.0142438393086195
1758974136184182500,4.0871826171875,-0.001474882708862424,0.01732908934354782,0.016115712001919746
1758974136194140200,4.09714013671875,-0.004257885739207268,0.030413199216127396,0.010979273356497288
1758974136204098300,4.107098388671875,-0.003464206587523222,0.029186533764004707,0.00943959690630436
1758974136214056200,4.11705615234375,-0.0033888390753418207,0.013894131407141685,0.006219835020601749
1758974136224014300,4.127014404296875,-0.0004385530191939324,-0.004967923276126385,-0.0025660532992333174
1758974136233972200,4.13697216796875,0.000718590512406081,0.0018034297972917557,-0.006189017556607723
1758974136243930400,4.146930419921875,-0.0034608703572303057,0.021236920729279518,-0.0014581265859305859
1758974136253888300,4.15688818359375,-0.008619680069386959,0.04116615280508995,0.006242670118808746
1758974136263846400,4.166846435546875,-0.011517073027789593,0.05433423072099686,0.013580013066530228
1758974136273804300,4.17680419921875,-0.011408681981265545,0.04411168769001961,0.010877437889575958
1758974136283762200,4.18676220703125,-0.0036764033138751984,0.008620260283350945,0.009608871303498745
1758974136293720300,4.19672021484375,0.0020150381606072187,-0.02437657117843628,0.005770190618932247
1758974136303678200,4.20667822265625,0.006300291512161493,-0.026464005932211876,0.001684756251052022
1758974136313635000,4.216635009765625,0.0016381614841520786,0.00880450289696455,0.005552198737859726
1758974136323593200,4.22659326171875,-0.00707586295902729,0.04668571054935455,0.014441083185374737
1758974136333551000,4.236551025390625,-0.010059402324259281,0.06681068986654282,0.01385944802314043
1758974136343509200,4.24650927734375,-0.007767838425934315,0.05840465798974037,0.0074865808710455894
1758974136353467100,4.256467041015625,-0.0013951605651527643,0.035568319261074066,0.003474795026704669
1758974136363425300,4.26642529296875,-0.0002443749108351767,0.020387284457683563,-0.00033018295653164387
1758974136373383200,4.276383056640625,0.00011302129132673144,0.013189025223255157,0.0008701039478182793
1758974136383341300,4.28634130859375,-0.0014258448500186205,0.01696428470313549,0.0023798064794391394
1758974136393299200,4.29629931640625,-0.0006047923234291375,0.03598910570144653,0.0009390362538397312
1758974136403257000,4.306257080078125,-0.004210956860333681,0.05344446748495102,-0.00218643294647336
1758974136413215200,4.31621533203125,-0.004990996792912483,0.059678129851818085,-0.007560958154499531
1758974136423173000,4.326173095703125,-0.0025103301741182804,0.05526811257004738,-0.010909256525337696
1758974136433131300,4.33613134765625,-0.0011180297005921602,0.0395839586853981,-0.013143648393452168
1758974136443089200,4.346089111328125,0.0002703351201489568,0.014944145455956459,-0.013342246413230896
1758974136453047300,4.35604736328125,0.0026160473935306072,-0.007739594206213951,-0.01487436331808567
1758974136463005200,4.366005126953125,0.0038712136447429657,-0.00965396873652935,-0.01700212061405182
1758974136472962000,4.375962158203125,-0.00005188887007534504,0.022269342094659805,-0.015171464532613754
1758974136482920200,4.385920166015625,-0.005238338373601437,0.052213117480278015,-0.01148734986782074
1758974136492878000,4.395878173828125,-0.0031464253552258015,0.05313803255558014,-0.01016242802143097
1758974136502836200,4.405836181640625,-0.0004114637849852443,0.030391298234462738,-0.010402962565422058
1758974136512794400,4.41579443359375,0.004643215797841549,0.00510165560990572,-0.012812323868274689
1758974136522752300,4.425752197265625,0.005005510523915291,-0.010415911674499512,-0.010505177080631256
1758974136532710400,4.43571044921875,0.0051426636055111885,-0.011089424602687359,-0.007316041272133589
1758974136542668000,4.44566796875,0.002935902215540409,-0.004644133150577545,-0.0015177130699157715
1758974136552626200,4.455626220703125,0.0017976672388613224,0.002986356383189559,0.0002801869995892048
1758974136562584000,4.465583984375,-0.00008383835665881634,0.011549156159162521,0.0015726372366771102
1758974136572542200,4.475542236328125,0.0008823564276099205,0.02183348499238491,0.00025330716744065285
1758974136582500000,4.4855,0.0005153550882823765,0.027745764702558517,-0.0033337227068841457
1758974136592458200,4.495458251953125,0.0019622505642473698,0.016481125727295876,-0.006377182900905609
1758974136602416400,4.50541650390625,0.004630868323147297,-0.0024212785065174103,-0.0058050574734807014
1758974136616731100,4.519731201171875,0.00882667861878872,-0.013394301757216454,-0.008885802701115608
1758974136627311000,4.53031103515625,0.00544037576764822,-0.011960921809077263,-0.011196925304830074
1758974136637269200,4.540269287109375,0.0019114215392619371,0.000462458236142993,-0.012352204881608486
1758974136647227400,4.550227294921875,-0.0020040429662913084,0.020360935479402542,-0.012190485373139381
1758974136657185300,4.560185302734375,-0.0031643821857869625,0.024598553776741028,-0.014035522937774658
1758974136667143200,4.57014306640625,0.0021570317912846804,0.009407909587025642,-0.01870490424335003
1758974136677100300,4.580100341796875,0.00495894392952323,-0.0044549088925123215,-0.026028329506516457
1758974136687058200,4.59005810546875,0.00976088922470808,-0.013446805998682976,-0.029069658368825912
1758974136697016300,4.600016357421875,0.010260499082505703,-0.016268424689769745,-0.02544749528169632
1758974136706974200,4.60997412109375,0.008215457201004028,-0.012308305129408836,-0.02194863371551037
1758974136716932400,4.619932373046875,0.008767154067754745,-0.01180613785982132,-0.019147394225001335
1758974136726890200,4.62989013671875,0.009716181084513664,-0.020072873681783676,-0.015327446162700653
1758974136736848100,4.63984814453125,0.01131381094455719,-0.02226758562028408,-0.017865704372525215
1758974136746806300,4.64980615234375,0.009334927424788475,-0.01353936456143856,-0.017887216061353683
1758974136756764200,4.65976416015625,0.006780955940485001,-0.0048915487714111805,-0.013613642193377018
1758974136766722300,4.669722412109375,0.0033141584135591984,-0.0037909913808107376,-0.008978624828159809
1758974136776680200,4.67968017578125,0.0022526225075125694,-0.0014974770601838827,-0.005986830219626427
1758974136786638300,4.689638427734375,0.0029390298295766115,-0.011473170481622219,-0.011008691042661667
1758974136796596200,4.69959619140625,0.007926331833004951,-0.026647329330444336,-0.01583700254559517
1758974136806554400,4.709554443359375,0.011228043586015701,-0.03226875886321068,-0.011255758814513683
1758974136816511200,4.71951123046875,0.012047498486936092,-0.028534207493066788,-0.013624108396470547
1758974136826469000,4.72946923828125,0.010667853988707066,-0.024331945925951004,-0.014498038217425346
1758974136836427300,4.73942724609375,0.011348824016749859,-0.014854555949568748,-0.013830117881298065
1758974136846385200,4.74938525390625,0.00868836697191,-0.0017415739130228758,-0.01472135353833437
1758974136856343300,4.75934326171875,0.00989291537553072,0.011333748698234558,-0.014801780693233013
1758974136866301200,4.76930126953125,0.0068796975538134575,0.0122295580804348,-0.015633024275302887
1758974136876259300,4.77925927734375,0.008911955170333385,0.0063889785669744015,-0.015429024584591389
1758974136886217200,4.78921728515625,0.00826958566904068,0.0021567444782704115,-0.0167734082788229
1758974136896175000,4.799175048828125,0.011697872541844845,0.010898836888372898,-0.02148027904331684
1758974136906133200,4.80913330078125,0.011172563768923283,0.018830545246601105,-0.021949173882603645
1758974136916091100,4.819091064453125,0.009571737609803677,0.022437531501054764,-0.023882094770669937
1758974136926049300,4.82904931640625,0.009428725577890873,0.02734067663550377,-0.023621106520295143
1758974136936007200,4.839007080078125,0.0075623830780386925,0.021162942051887512,-0.0209552813321352
1758974136945964300,4.84896435546875,0.009304134175181389,0.005018110387027264,-0.020132752135396004
1758974136955922200,4.858922119140625,0.011581669561564922,-0.01184795517474413,-0.01812206581234932
1758974136965880000,4.868880126953125,0.012883543968200684,-0.019000757485628128,-0.02202751114964485
1758974136975838200,4.878838134765625,0.013524566777050495,-0.021069500595331192,-0.02297426573932171
1758974136985796000,4.888796142578125,0.012255932204425335,-0.01935955323278904,-0.02013024315237999
1758974136995754200,4.898754150390625,0.009213270619511604,-0.016303574666380882,-0.017955506220459938
1758974137005712400,4.90871240234375,0.008085067383944988,-0.017758352681994438,-0.01724737323820591
1758974137015670300,4.918670166015625,0.009227829985320568,-0.020043345168232918,-0.015639089047908783
1758974137026251300,4.929251220703125,0.007170792669057846,-0.014737406745553017,-0.01794329658150673
1758974137036208000,4.9392080078125,0.0036711329594254494,-0.007754332385957241,-0.017855145037174225
1758974137046166300,4.949166259765625,0.005636329296976328,-0.012080751359462738,-0.01631009206175804
1758974137056124200,4.959124267578125,0.005951647646725178,-0.0223818589001894,-0.015382247976958752
1758974137066082300,4.969082275390625,0.007658683694899082,-0.026409244164824486,-0.012792743742465973
1758974137076040200,4.979040283203125,0.00945099163800478,-0.018176613375544548,-0.014082511886954308
1758974137085998300,4.988998291015625,0.011515040881931782,-0.0007307406049221754,-0.016896367073059082
1758974137095956200,4.998956298828125,0.012560597620904446,0.0032355051953345537,-0.016979191452264786
1758974137105914000,5.0089140625,0.01122001837939024,-0.001429832773283124,-0.015316948294639587
1758974137115872300,5.018872314453125,0.008957928977906704,-0.011431866325438023,-0.011987198144197464
1758974137125830100,5.028830078125,0.00787776056677103,-0.00687792245298624,-0.01297015231102705
1758974137135788300,5.038788330078125,0.005082506686449051,0.01036071963608265,-0.013215695507824421
1758974137145746200,5.04874609375,0.003144459566101432,0.020099706947803497,-0.010576419532299042
1758974137155704300,5.058704345703125,0.0028046402148902416,0.020638197660446167,-0.007996348664164543
1758974137165661400,5.068661376953125,0.0006057174177840352,0.013593754731118679,-0.00595621345564723
1758974137175619000,5.078619140625,0.001676041865721345,-0.0020421957597136497,-0.003815297968685627
1758974137185577200,5.0885771484375,0.0020173469092696905,-0.015336671844124794,-0.0052470737136900425
1758974137195535000,5.09853515625,0.0002620575833134353,-0.009015658870339394,-0.008264169096946716
1758974137205493200,5.1084931640625,0.0010370374657213688,-0.00300676841288805,-0.009142745286226273
1758974137215451100,5.118451171875,0.0028123005758970976,-0.005679517053067684,-0.012001648545265198
1758974137225409300,5.1284091796875,0.004970817361027002,-0.01129427831619978,-0.014689263887703419
1758974137235367400,5.138367431640625,0.00616231607273221,-0.013701243326067924,-0.01750262640416622
1758974137245325300,5.1483251953125,0.003223083447664976,-0.00758003443479538,-0.017669042572379112
1758974137255283200,5.158283203125,0.0019367765635251999,0.013317524455487728,-0.014518257230520248
1758974137265241000,5.168240966796875,-0.0019003503257408738,0.027358829975128174,-0.012134862132370472
1758974137275199200,5.17819921875,-0.003167482325807214,0.028014766052365303,-0.012568158097565174
1758974137285157000,5.1881572265625,-0.00017218064749613404,0.005726981908082962,-0.01332223229110241
1758974137295115300,5.198115234375,0.0017149352934211493,-0.024025585502386093,-0.015694309026002884
1758974137305073000,5.208072998046875,0.004627896007150412,-0.03245725855231285,-0.019749779254198074
1758974137315031000,5.218031005859375,0.0010997399222105742,-0.012389539740979671,-0.019918890669941902
1758974137324989200,5.2279892578125,-0.0012344022979959846,0.013146627694368362,-0.013928827829658985
1758974137334947000,5.237947021484375,-0.0035649347119033337,0.023333752527832985,-0.010602540336549282
1758974137344905200,5.2479052734375,-0.0046421829611063,0.027490412816405296,-0.011885917745530605
1758974137354863000,5.257863037109375,-0.004094371106475592,0.025862423703074455,-0.017381083220243454
1758974137364821000,5.267821044921875,-0.0005703783826902509,0.015079749748110771,-0.021867945790290833
1758974137374779000,5.27777880859375,0.0012805184815078974,-0.0023610251955688,-0.024311130866408348
1758974137384737000,5.287737060546875,0.002411201363429427,-0.009892009198665619,-0.02522248588502407
1758974137394695200,5.297695068359375,0.0001248775515705347,0.00568535178899765,-0.027594828978180885
1758974137404653000,5.307653076171875,-0.0022275971714407206,0.03821859508752823,-0.027975957840681076
1758974137414611200,5.317611083984375,-0.005496893543750048,0.06579962372779846,-0.024016903713345528
1758974137424568000,5.327568115234375,-0.007497839163988829,0.06946597248315811,-0.02106701210141182
1758974137434526000,5.33752587890625,-0.008138862438499928,0.05292428657412529,-0.01955859735608101
1758974137444484000,5.347484130859375,-0.004944557789713144,0.031705792993307114,-0.02109997346997261
1758974137454442000,5.35744189453125,0.00023449142463505268,0.022338388487696648,-0.02315327152609825
1758974137464400100,5.367400146484375,0.0020672164391726255,0.025553962215781212,-0.018631141632795334
1758974137474358000,5.37735791015625,0.0019303299486637115,0.031955406069755554,-0.013317068107426167
1758974137484316200,5.387316162109375,0.00015390361659228802,0.03755449876189232,-0.010885634459555149
1758974137494274000,5.397274169921875,-0.0021529265213757753,0.042396921664476395,-0.010962866246700287
1758974137504232200,5.407232177734375,-0.004584068898111582,0.03712938725948334,-0.008857985027134418
1758974137514190000,5.417190185546875,-0.005934291053563356,0.028275707736611366,-0.006757816299796104
1758974137524148000,5.42714794921875,-0.004326648078858852,0.02041807398200035,-0.0070332493633031845
1758974137534106000,5.437106201171875,-0.003178026992827654,0.020099027082324028,-0.006093420088291168
1758974137544064000,5.44706396484375,-0.002681559417396784,0.01194798108190298,-0.006773683242499828
1758974137554021000,5.457021240234375,-0.0025638476945459843,-0.008115475997328758,-0.005165133625268936
1758974137563979300,5.466979248046875,-0.000920304621104151,-0.01813308335840702,-0.012281847186386585
1758974137573937000,5.47693701171875,-0.0007690371130593121,-0.010658388957381248,-0.013440588489174843
1758974137583895000,5.48689501953125,0.000002212938852608204,0.0006453380919992924,-0.013591569848358631
1758974137593853000,5.49685302734375,-0.0015224467497318983,0.00582119170576334,-0.016004659235477448
1758974137603811000,5.50681103515625,-0.0030013523064553738,0.0022475679870694876,-0.01864670030772686
1758974137613769000,5.51676904296875,-0.0014820187352597713,0.006135251373052597,-0.02105259895324707
1758974137623727000,5.52672705078125,-0.001978859305381775,0.015216665342450142,-0.02197001688182354
1758974137633685000,5.53668505859375,-0.002339451340958476,0.012476272881031036,-0.026509376242756844
1758974137643643100,5.54664306640625,-0.00445405300706625,0.010705756023526192,-0.029506906867027283
1758974137653601300,5.556601318359375,-0.000005242472980171442,0.0062401676550507545,-0.031030233949422836
1758974137663558000,5.566557861328125,0.0007959917420521379,-0.0057623484171926975,-0.03214937821030617
1758974137673516000,5.57651611328125,0.0015874832170084119,-0.03270794823765755,-0.03433583304286003
1758974137683474200,5.58647412109375,0.0012091589160263538,-0.04217956215143204,-0.03304891288280487
1758974137693432000,5.59643212890625,-0.0007242959691211581,-0.03281162679195404,-0.0277516171336174
1758974137703390200,5.60639013671875,-0.0027084574103355408,-0.02690167911350727,-0.02498677372932434
1758974137713348000,5.61634814453125,-0.0025939415208995342,-0.02851289138197899,-0.02077072486281395
1758974137723306000,5.626305908203125,-0.000984334503300488,-0.03574482351541519,-0.01777888648211956
1758974137733264000,5.636263916015625,0.0006186221144162118,-0.04092280939221382,-0.016063811257481575
1758974137743222000,5.646221923828125,0.0013328349450603127,-0.035587094724178314,-0.018319694325327873
1758974137753180000,5.656179931640625,0.0015110004460439086,-0.02707003988325596,-0.016705818474292755
1758974137763138000,5.666137939453125,-0.0010285915341228247,-0.03574010729789734,-0.012091933749616146
1758974137773095200,5.67609521484375,0.00011869828449562192,-0.05193771794438362,-0.003701378358528018
1758974137783053000,5.686052978515625,0.003107566386461258,-0.056010711938142776,-0.002258979482576251
1758974137793011000,5.696010986328125,0.0031637591309845448,-0.04521159455180168,-0.003534633433446288
1758974137802969000,5.705968994140625,0.002520499285310507,-0.03026793897151947,-0.006908909883350134
1758974137812927000,5.715927001953125,0.00243554450571537,-0.012488143518567085,-0.009240508079528809
1758974137822885000,5.725885009765625,-0.0007578626973554492,-0.015433453023433685,-0.01145168673247099
1758974137832843000,5.735843017578125,-0.003655115608125925,-0.03316051885485649,-0.017517834901809692
1758974137842801200,5.74580126953125,-0.0014270124956965446,-0.056406211107969284,-0.023271532729268074
1758974137852759000,5.755759033203125,0.0011346819810569286,-0.06767617166042328,-0.023948507383465767
1758974137862717200,5.76571728515625,-0.00032286596251651645,-0.06383003294467926,-0.016641858965158463
1758974137872674800,5.7756748046875,-0.0023878810461610556,-0.04764547571539879,-0.007002813741564751
1758974137882632000,5.7856318359375,-0.005513746757060289,-0.020976083353161812,-0.004317853599786758
1758974137892590000,5.795590087890625,-0.007897542789578438,0.009523768909275532,-0.007671306375414133
1758974137902548000,5.8055478515625,-0.006272836588323116,0.031078310683369637,-0.017634287476539612
1758974137912506000,5.815506103515625,0.00034671660978347063,0.03689252585172653,-0.02707439474761486
1758974137922464300,5.82546435546875,0.007311453111469746,0.023147447034716606,-0.03189771622419357
1758974137932422100,5.835422119140625,0.008032371290028095,-0.0008122139843180776,-0.030459342524409294
1758974137942380000,5.845380126953125,0.008241228759288788,-0.01154294516891241,-0.02758752554655075
1758974137952338000,5.855337890625,0.0023266144562512636,-0.011759459972381592,-0.02606632560491562
1758974137962296000,5.865296142578125,0.0006208298145793378,-0.0024197688326239586,-0.023807642981410027
1758974137972254000,5.87525390625,-0.001006361679174006,-0.0006239993963390589,-0.022113870829343796
1758974137982211000,5.885211181640625,-0.0033158399164676666,-0.0012218198971822858,-0.025905970484018326
1758974137992169200,5.895169189453125,-0.003296398790553212,0.00221765274181962,-0.03296840563416481
1758974138002127000,5.905127197265625,-0.00002007704460993409,0.004347625188529491,-0.04292669892311096
1758974138012085000,5.9150849609375,0.0034803817979991436,0.0029127139132469893,-0.045427143573760986
1758974138022043000,5.92504296875,0.004771074280142784,-0.0012478475691750646,-0.04463909938931465
1758974138032001000,5.9350009765625,0.009467026218771935,-0.00571263674646616,-0.03926324099302292
1758974138041959200,5.944959228515625,0.011131693609058857,-0.013504886999726295,-0.03529951348900795
1758974138051917000,5.9549169921875,0.00964831281453371,-0.01212297286838293,-0.03161289915442467
1758974138061875200,5.964875244140625,0.009058580733835697,-0.010339060798287392,-0.02705974131822586
1758974138071833000,5.9748330078125,0.009668710641562939,-0.013827268034219742,-0.018497413024306297
1758974138081790000,5.9847900390625,0.009274577721953392,-0.013829605653882027,-0.012560984119772911
1758974138091748000,5.994748046875,0.009244217537343502,-0.009349636733531952,-0.00555447256192565
1758974138101706000,6.0047060546875,0.005430290475487709,-0.004696886986494064,0.0007154301274567842
1758974138111664000,6.0146640625,0.00505851348862052,-0.013789450749754906,0.003933327738195658
1758974138121622000,6.0246220703125,0.005771058611571789,-0.03634299710392952,0.004519983194768429
1758974138131580200,6.034580078125,0.008371901698410511,-0.05312544107437134,0.0023601597640663385
1758974138141538000,6.0445380859375,0.008732243441045284,-0.04704751446843147,0.0015926130581647158
1758974138151496000,6.054495849609375,0.00766777852550149,-0.02687700092792511,0.0016101899091154337
1758974138161454000,6.0644541015625,0.004747497383505106,-0.006999364122748375,0.004263469949364662
1758974138171411000,6.074410888671875,0.002577553503215313,-0.0012453383533284068,0.0068986681289970875
1758974138181369000,6.084369140625,0.0041013453155756,-0.009980287402868271,0.002161296783015132
1758974138191327000,6.094326904296875,0.009314216673374176,-0.02454032003879547,-0.008314247243106365
1758974138201285000,6.10428515625,0.010861699469387531,-0.02361505664885044,-0.013109090737998486
1758974138211243300,6.1142431640625,0.010485394857823849,-0.00713728042319417,-0.00838384311646223
1758974138221201000,6.124200927734375,0.010229849256575108,-0.00809361133724451,0.0011353581212460995
1758974138231159000,6.134158935546875,0.010097223334014416,-0.01811322197318077,0.006848371587693691
1758974138241117000,6.144116943359375,0.012069789692759514,-0.012123066931962967,0.0009269216097891331
1758974138251075000,6.154074951171875,0.009500638581812382,0.012663505971431732,-0.0037575785536319017
1758974138261032200,6.1640322265625,0.008144616149365902,0.030368618667125702,-0.004514297004789114
1758974138270990000,6.173989990234375,0.0037477370351552963,0.03174573928117752,-0.0048935310915112495
1758974138280948200,6.1839482421875,0.0057707722298800945,0.027309155091643333,-0.005892419256269932
1758974138290905900,6.19390576171875,0.00424105254933238,0.030916405841708183,-0.00970127247273922
1758974138300863200,6.20386328125,0.006723760161548853,0.03908712416887283,-0.01396174542605877
1758974138310821400,6.2138212890625,0.005269940476864576,0.043137528002262115,-0.01602010428905487
1758974138320779300,6.223779296875,0.006801307201385498,0.04758818820118904,-0.017312638461589813
1758974138330737200,6.233737060546875,0.009897763840854168,0.048463836312294006,-0.018945688381791115
1758974138340695000,6.243695068359375,0.013440419919788837,0.03851643204689026,-0.019492661580443382
1758974138350652200,6.253652099609375,0.014733385294675827,0.027526896446943283,-0.018011411651968956
1758974138360610300,6.2636103515625,0.01511527132242918,0.018775587901473045,-0.015247038565576077
1758974138370568200,6.273568115234375,0.012080066837370396,0.018667729571461678,-0.011788657866418362
1758974138380526300,6.2835263671875,0.00832349807024002,0.041351817548274994,-0.011525994166731834
1758974138390484200,6.293484130859375,0.004784422926604748,0.06891313940286636,-0.007115799933671951
1758974138400442000,6.303442138671875,0.002687340835109353,0.08034808188676834,-0.008450626395642757
1758974138410400300,6.313400146484375,0.0056578307412564754,0.07331041246652603,-0.01187198981642723
1758974138420358100,6.323358154296875,0.006613070145249367,0.049585551023483276,-0.016244811937212944
1758974138430315300,6.333315185546875,0.011164412833750248,0.02311345934867859,-0.016868257895112038
1758974138440273400,6.3432734375,0.012567571364343166,0.010028134100139141,-0.018429288640618324
1758974138450231300,6.353231201171875,0.00901251845061779,0.013024990446865559,-0.01719597913324833
1758974138460189200,6.363189208984375,0.00627228245139122,0.03521430864930153,-0.014975486323237419
1758974138470147000,6.37314697265625,0.0020024366676807404,0.06565556675195694,-0.012842826545238495
1758974138480105200,6.383105224609375,-0.0014623242896050215,0.07070588320493698,-0.015718253329396248
1758974138490063000,6.39306298828125,-0.0015555348945781589,0.05284513160586357,-0.021376406773924828
1758974138500021200,6.403021240234375,-0.002203433308750391,0.028091834858059883,-0.028902335092425346
1758974138509978400,6.412978271484375,-0.00035200375714339316,0.012866276316344738,-0.034071262925863266
1758974138519936300,6.422936279296875,0.0003346561570651829,0.006948176771402359,-0.037993770092725754
1758974138529894100,6.43289404296875,-0.0027018801774829626,0.004194734618067741,-0.03570212051272392
1758974138539852000,6.44285205078125,-0.0013642010744661093,0.009054945781826973,-0.03767469897866249
1758974138549810200,6.45281005859375,-0.0035282857716083527,0.013513077050447464,-0.03657267987728119
1758974138559768300,6.462768310546875,-0.0030151898972690105,0.009656310081481934,-0.04328151419758797
1758974138569726200,6.472726318359375,-0.0017491232138127089,-0.00673171691596508,-0.05026698857545853
1758974138579684400,6.482684326171875,-0.0014135469682514668,-0.010769671760499477,-0.05840754508972168
1758974138589641200,6.49264111328125,0.0013500152854248881,-0.016336742788553238,-0.056947868317365646
1758974138599599000,6.50259912109375,-0.0019023166969418526,-0.01105254516005516,-0.05629846081137657
1758974138609557200,6.51255712890625,-0.0021736929193139076,0.0062348321080207825,-0.05693309009075165
1758974138619515100,6.52251513671875,-0.004697021096944809,0.023077623918652534,-0.057301685214042664
1758974138629473300,6.532473388671875,-0.006892264820635319,0.03308791294693947,-0.059004247188568115
1758974138639431200,6.54243115234375,-0.004752743989229202,0.03572429344058037,-0.060385510325431824
1758974138649389300,6.552389404296875,-0.006658768747001886,0.02146386355161667,-0.06482793390750885
1758974138659347200,6.56234716796875,-0.007322381716221571,0.004289091564714909,-0.06748820096254349
1758974138669304000,6.572303955078125,0.0006945317727513611,-0.014904309995472431,-0.06865040957927704
1758974138679262200,6.58226220703125,0.00459579611197114,-0.023338239639997482,-0.06954901665449142
1758974138689220000,6.59222021484375,0.003186184912919998,-0.01147279143333435,-0.07255279272794724
1758974138699178200,6.60217822265625,0.002029011957347393,0.010676093399524689,-0.07557086646556854
1758974138709136100,6.61213623046875,0.0020918622612953186,0.017323076725006104,-0.07727901637554169
1758974138719094300,6.62209423828125,0.0005174594116397202,0.008785169571638107,-0.07558862119913101
1758974138729052400,6.632052490234375,0.0035819585900753736,-0.012123841792345047,-0.07380377501249313
1758974138739009000,6.642009033203125,0.008081357926130295,-0.033308688551187515,-0.07738538831472397
1758974138748967200,6.65196728515625,0.012925115413963795,-0.04403563216328621,-0.08496607840061188
1758974138758925300,6.66192529296875,0.015524829737842083,-0.04689868167042732,-0.09141506999731064
1758974138768883200,6.67188330078125,0.018116619437932968,-0.04463872313499451,-0.0980663150548935
1758974138778841300,6.68184130859375,0.014469539746642113,-0.030355853959918022,-0.10703985393047333
1758974138788799200,6.69179931640625,0.013955816626548767,-0.010828757658600807,-0.11809410899877548
1758974138798757400,6.70175732421875,0.01202629879117012,0.001209343085065484,-0.13041824102401733
1758974138808714200,6.71171435546875,0.015059373341500759,0.0026929902378469706,-0.1410093754529953
1758974138818672000,6.721672119140625,0.016203437000513077,0.008423221297562122,-0.1514936089515686
1758974138828630300,6.73163037109375,0.015717409551143646,0.01291730534285307,-0.16420860588550568
1758974138838588200,6.741588134765625,0.025740841403603554,0.02887677773833275,-0.17846991121768951
1758974138848546300,6.75154638671875,0.0348144955933094,0.04813462495803833,-0.19836266338825226
1758974138858504200,6.761504150390625,0.04768894985318184,0.06142637878656387,-0.21907146275043488
1758974138868462300,6.77146240234375,0.06509802490472794,0.05287949740886688,-0.23718015849590302
1758974138878419200,6.781419189453125,0.0743231400847435,0.03013285994529724,-0.2463916391134262
1758974138888377000,6.791377197265625,0.08594091236591339,0.007588404230773449,-0.24883854389190674
1758974138898335200,6.801335205078125,0.09066073596477509,-0.026397235691547394,-0.2505835294723511
1758974138908293000,6.811293212890625,0.09417131543159485,-0.07000996172428131,-0.2563870847225189
1758974138918251300,6.821251220703125,0.09556124359369278,-0.10635855793952942,-0.26559266448020935
1758974138928209400,6.83120947265625,0.09006261825561523,-0.10236168652772903,-0.27992260456085205
1758974138938167300,6.841167236328125,0.08443978428840637,-0.04991063475608826,-0.29490047693252563
1758974138948124200,6.851124267578125,0.07496905326843262,0.022176608443260193,-0.31311461329460144
1758974138958082300,6.861082275390625,0.06564496457576752,0.09554462134838104,-0.33570873737335205
1758974138968040200,6.871040283203125,0.0605950728058815,0.15200842916965485,-0.35326775908470154
1758974138977998300,6.880998291015625,0.06262406706809998,0.18669302761554718,-0.3606952130794525
1758974138987956200,6.890956298828125,0.06792429089546204,0.2066028118133545,-0.35943979024887085
1758974138997914400,6.900914306640625,0.0805816724896431,0.21677850186824799,-0.3582734167575836
1758974139007872000,6.9108720703125,0.09240344166755676,0.18662992119789124,-0.355334609746933
1758974139017829000,6.9208291015625,0.11053331196308136,0.09592203795909882,-0.3504459261894226
1758974139027787300,6.930787353515625,0.13081595301628113,-0.04197990894317627,-0.343688428401947
1758974139037745200,6.9407451171875,0.15193559229373932,-0.20497459173202515,-0.33883747458457947
1758974139047703300,6.950703369140625,0.15774686634540558,-0.337799996137619,-0.33205118775367737
1758974139057661200,6.9606611328125,0.15128429234027863,-0.38691407442092896,-0.33584263920783997
1758974139067619300,6.970619384765625,0.13230393826961517,-0.3401321768760681,-0.34488752484321594
1758974139077577200,6.9805771484375,0.11646454781293869,-0.20793424546718597,-0.3681080937385559
1758974139087534000,6.9905341796875,0.1038115993142128,-0.038929518312215805,-0.3908051550388336
1758974139097492200,7.0004921875,0.10575952380895615,0.07687362283468246,-0.40871819853782654
1758974139107450400,7.010450439453125,0.1186676025390625,0.11067207157611847,-0.4192033112049103
1758974139117408300,7.020408203125,0.13110390305519104,0.07199348509311676,-0.41575199365615845
1758974139127366400,7.030366455078125,0.14874733984470367,0.017685767263174057,-0.4131607413291931
1758974139137324300,7.04032421875,0.17195011675357819,-0.036834895610809326,-0.42268314957618713
1758974139147281200,7.05028125,0.18760603666305542,-0.10321205109357834,-0.4444885849952698
1758974139157239300,7.0602392578125,0.20920732617378235,-0.17308278381824493,-0.48198243975639343
1758974139167197200,7.070197265625,0.2291184514760971,-0.2112637162208557,-0.524620771408081
1758974139177155300,7.0801552734375,0.24190109968185425,-0.18862925469875336,-0.5732609629631042
1758974139187113200,7.09011328125,0.2649174630641937,-0.09579437971115112,-0.6269077062606812
1758974139197071400,7.1000712890625,0.2925627827644348,0.020844751968979836,-0.6898548603057861
1758974139207029000,7.110029052734375,0.30482611060142517,0.09100839495658875,-0.7531550526618958
1758974139216986000,7.119986083984375,0.3120694160461426,0.13259728252887726,-0.7916976809501648
1758974139226944300,7.1299443359375,0.3243865370750427,0.1757146567106247,-0.8056004643440247
1758974139236902100,7.139902099609375,0.3425081670284271,0.16148172318935394,-0.8261479139328003
1758974139246860300,7.1498603515625,0.33825480937957764,0.11703063547611237,-0.8790814280509949
1758974139256818200,7.159818115234375,0.32331231236457825,0.04955875128507614,-0.9405372738838196
1758974139266776300,7.1697763671875,0.3135598301887512,0.04616881161928177,-1.0160174369812012
1758974139276733200,7.179733154296875,0.2954876124858856,0.08416616916656494,-1.0909459590911865
1758974139286691000,7.189691162109375,0.28123757243156433,0.1401388794183731,-1.1500859260559082
1758974139296649200,7.199649169921875,0.28267115354537964,0.16225078701972961,-1.1813781261444092
1758974139306607900,7.20960791015625,0.29772040247917175,0.11879198998212814,-1.170413851737976
1758974139316566000,7.21956591796875,0.3298773169517517,0.09141161292791367,-1.1401079893112183
1758974139326524000,7.22952392578125,0.3740580976009369,0.14283165335655212,-1.1324408054351807
1758974139336480800,7.239480712890625,0.3966130018234253,0.20721548795700073,-1.155211091041565
1758974139346439000,7.24943896484375,0.380685418844223,0.1027119904756546,-1.1697708368301392
1758974139356396800,7.259396728515625,0.3463188707828522,-0.040570780634880066,-1.1987873315811157
1758974139366355000,7.26935498046875,0.303973525762558,-0.14242497086524963,-1.222212553024292
1758974139376313000,7.27931298828125,0.28734642267227173,-0.15901082754135132,-1.2355307340621948
1758974139386271000,7.28927099609375,0.2872769236564636,-0.12706060707569122,-1.2464169263839722
1758974139396229000,7.29922900390625,0.28746306896209717,-0.08168048411607742,-1.2612531185150146
1758974139406186000,7.30918603515625,0.2893019914627075,-0.05190208554267883,-1.2887800931930542
1758974139416144000,7.319143798828125,0.29315781593322754,-0.030408136546611786,-1.317458152770996
1758974139426102000,7.32910205078125,0.29410749673843384,-0.049834828823804855,-1.3292135000228882
1758974139436060000,7.339059814453125,0.30900758504867554,-0.11314002424478531,-1.3375489711761475
1758974139446018000,7.34901806640625,0.340311199426651,-0.18747150897979736,-1.3495928049087524
1758974139455976000,7.358975830078125,0.3853228986263275,-0.16654786467552185,-1.3510184288024902
1758974139465933000,7.36893310546875,0.41165891289711,0.0004973155446350574,-1.3420137166976929
1758974139475891000,7.378890869140625,0.42613038420677185,0.19546979665756226,-1.31070077419281
1758974139485848800,7.388848876953125,0.4367729127407074,0.30801713466644287,-1.2585365772247314
1758974139495807000,7.398806884765625,0.41182100772857666,0.23731160163879395,-1.22465181350708
1758974139505764900,7.408764892578125,0.37755250930786133,-0.03630902245640755,-1.2468953132629395
1758974139515722000,7.418721923828125,0.32705041766166687,-0.33415019512176514,-1.3245432376861572
1758974139525680000,7.42868017578125,0.26074010133743286,-0.424718976020813,-1.4139189720153809
1758974139535637800,7.4386376953125,0.20071226358413696,-0.325920432806015,-1.4537992477416992
1758974139545596000,7.448595947265625,0.16191187500953674,-0.26362937688827515,-1.4794856309890747
1758974139555553800,7.4585537109375,0.13909390568733215,-0.28463214635849,-1.5273334980010986
1758974139565512000,7.468511962890625,0.14243750274181366,-0.3722360134124756,-1.553081750869751
1758974139575469000,7.478468994140625,0.1668916791677475,-0.4746784567832947,-1.5402147769927979
1758974139585427000,7.488427001953125,0.18136648833751678,-0.5933994650840759,-1.484760046005249
1758974139595385000,7.498385009765625,0.21169260144233704,-0.6219615936279297,-1.4495139122009277
1758974139605343000,7.508343017578125,0.3117542266845703,-0.41161787509918213,-1.466460943222046
1758974139615300900,7.51830078125,0.38318052887916565,-0.1546536535024643,-1.4960196018218994
1758974139625259000,7.528259033203125,0.41312137246131897,-0.12658368051052094,-1.498764991760254
1758974139635216000,7.5382158203125,0.42930442094802856,-0.327574223279953,-1.5068567991256714
1758974139645174000,7.548174072265625,0.4288865625858307,-0.5466498732566833,-1.5424216985702515
1758974139655132200,7.558132080078125,0.37228235602378845,-0.5350567102432251,-1.5832228660583496
1758974139665090000,7.568090087890625,0.3217589855194092,-0.34506654739379883,-1.5248003005981445
1758974139675048000,7.5780478515625,0.26181498169898987,-0.2070782631635666,-1.4214458465576172
1758974139685005800,7.588005859375,0.22424443066120148,-0.24656201899051666,-1.3837559223175049
1758974139694963000,7.597962890625,0.16004115343093872,-0.2761209309101105,-1.4254730939865112
1758974139704921000,7.607921142578125,0.11854217946529388,-0.17179906368255615,-1.4644287824630737
1758974139714879000,7.61787890625,0.09052549302577972,-0.06047649309039116,-1.4940240383148193
1758974139724837000,7.627837158203125,0.0546276830136776,-0.08612886071205139,-1.5285487174987793
1758974139734794800,7.637794677734375,0.14412610232830048,-0.3062483072280884,-1.5368742942810059
1758974139744751900,7.647751953125,0.22040888667106628,-0.46019259095191956,-1.5167522430419922
1758974139754710000,7.6577099609375,0.26708391308784485,-0.3974040150642395,-1.4472566843032837
1758974139764668000,7.66766796875,0.295280396938324,-0.23434294760227203,-1.3546870946884155
1758974139774626000,7.6776259765625,0.32704365253448486,-0.11794352531433105,-1.3230761289596558
1758974139784584000,7.687583984375,0.35567182302474976,-0.09436362981796265,-1.365259051322937
1758974139794542000,7.6975419921875,0.3814326822757721,-0.10976659506559372,-1.4347460269927979
1758974139804499000,7.7074990234375,0.37402936816215515,-0.17173008620738983,-1.478588581085205
1758974139814456800,7.717456787109375,0.36054912209510803,-0.24363486468791962,-1.4792652130126953
1758974139824415000,7.7274150390625,0.30948859453201294,-0.38349074125289917,-1.4485708475112915
1758974139834373000,7.737373046875,0.2502494752407074,-0.41622188687324524,-1.4587128162384033
1758974139844331000,7.7473310546875,0.20583964884281158,-0.30798596143722534,-1.4901114702224731
1758974139854289200,7.7572890625,0.20996256172657013,-0.09687206149101257,-1.4969574213027954
1758974139864246000,7.76724609375,0.24300599098205566,0.07609172910451889,-1.491385817527771
1758974139874204000,7.777203857421875,0.24493397772312164,0.17444473505020142,-1.5156193971633911
1758974139884162000,7.787162109375,0.2532614469528198,0.183853417634964,-1.5475826263427734
1758974139894120000,7.797119873046875,0.3149266242980957,0.08347345888614655,-1.559084177017212
1758974139904078000,7.807078125,0.4475797414779663,-0.06761805713176727,-1.564011573791504
1758974139914035200,7.81703515625,0.46464720368385315,-0.0717579647898674,-1.497550129890442
1758974139923992800,7.826992919921875,0.39380979537963867,0.23397745192050934,-1.3325175046920776
1758974139933951000,7.836950927734375,0.47145986557006836,0.40904513001441956,-1.308026909828186
1758974139943908900,7.846908935546875,0.4688265323638916,0.19215542078018188,-1.6365286111831665
1758974139953867000,7.856866943359375,0.3916265070438385,-0.010652192868292332,-1.5303038358688354
1758974139963824000,7.86682421875,0.30771777033805847,-0.05479035899043083,-1.141661524772644
1758974139973782000,7.876781982421875,0.3384155035018921,-0.010671151801943779,-1.1178536415100098
1758974139983740000,7.886739990234375,0.5012102723121643,0.07922970503568649,-1.194116473197937
1758974139993697800,7.89669775390625,0.6778947710990906,0.13437139987945557,-1.2304648160934448
1758974140003656000,7.906656005859375,0.7559717297554016,0.013047639280557632,-1.267797827720642
1758974140013613800,7.91661376953125,0.6435300707817078,0.025531260296702385,-1.2446136474609375
1758974140023571000,7.926571044921875,0.524115800857544,0.18897850811481476,-1.195096731185913
1758974140033529000,7.936529052734375,0.4576953947544098,0.2923910319805145,-1.1935386657714844
1758974140043487000,7.946487060546875,0.43397167325019836,0.28701305389404297,-1.2151411771774292
1758974140053444900,7.95644482421875,0.48443180322647095,0.21261751651763916,-1.3100159168243408
1758974140063403000,7.966403076171875,0.5494904518127441,0.12057093530893326,-1.3769252300262451
1758974140073360000,7.97635986328125,0.5724167227745056,0.0852736160159111,-1.396361231803894
1758974140083318000,7.986318115234375,0.541451096534729,0.12908661365509033,-1.342132329940796
1758974140093276000,7.99627587890625,0.48845893144607544,0.28824517130851746,-1.2439334392547607
1758974140103234000,8.006234130859376,0.4613841474056244,0.4516628682613373,-1.1887156963348389
1758974140113192200,8.016192138671874,0.4568193554878235,0.44854411482810974,-1.1648845672607422
1758974140123148800,8.026148681640626,0.45191437005996704,0.30456244945526123,-1.1384060382843018
1758974140133107000,8.03610693359375,0.43657052516937256,0.24027897417545319,-1.139770746231079
1758974140143065000,8.046065185546874,0.41029366850852966,0.3065005838871002,-1.1628150939941406
1758974140153023000,8.05602294921875,0.43396902084350586,0.30696287751197815,-1.190263271331787
1758974140162981000,8.065981201171875,0.42193204164505005,0.3183404207229614,-1.1764427423477173
1758974140172938000,8.07593798828125,0.42422786355018616,0.3051617443561554,-1.1792951822280884
1758974140182895900,8.085895751953124,0.46347033977508545,0.35178807377815247,-1.214421272277832
1758974140192854000,8.09585400390625,0.5015478730201721,0.38489022850990295,-1.234700322151184
1758974140202812000,8.10581201171875,0.5150162577629089,0.3630475103855133,-1.238673448562622
1758974140212770000,8.11577001953125,0.5140896439552307,0.40525054931640625,-1.2427560091018677
1758974140222727200,8.12572705078125,0.4847504198551178,0.4661077857017517,-1.2138590812683105
1758974140232684800,8.135684814453125,0.45807868242263794,0.6127535700798035,-1.1772489547729492
1758974140242643000,8.145642822265625,0.4235689043998718,0.8048769235610962,-1.0945380926132202
1758974140252600800,8.155600830078125,0.4187406301498413,0.8347571492195129,-1.0471031665802002
1758974140262559000,8.16555908203125,0.4797152876853943,0.7057499289512634,-1.0559488534927368
1758974140272516000,8.17551611328125,0.5296976566314697,0.5833541750907898,-1.0873610973358154
1758974140282474000,8.185473876953125,0.5169991850852966,0.3641033172607422,-1.1177475452423096
1758974140292432100,8.19543212890625,0.3666951358318329,0.1448470503091812,-1.1285338401794434
1758974140302389500,8.205389404296875,0.2522449791431427,-0.09122033417224884,-1.1614081859588623
1758974140312347600,8.21534765625,0.2262846678495407,-0.30805301666259766,-1.2012888193130493
1758974140322304500,8.225304443359375,0.10692498087882996,-0.7115541696548462,-0.9190901517868042
1758974140332262400,8.235262451171875,-0.02986794151365757,-0.8727250099182129,-0.16878534853458405
1758974140342220500,8.245220458984376,0.15047599375247955,0.039876338094472885,0.42231497168540955
1758974140352178700,8.2551787109375,0.43954622745513916,1.1066794395446777,0.5987145304679871
1758974140362136600,8.265136474609376,0.3832786977291107,1.5593805313110352,0.6837657690048218
1758974140372093400,8.275093505859376,0.16660566627979279,1.414406180381775,0.6224189400672913
1758974140382051600,8.285051513671876,0.010562264360487461,1.0131537914276123,0.3731100857257843
1758974140392009500,8.295009521484374,-0.0741337463259697,0.39199456572532654,0.08068424463272095
1758974140401967600,8.304967529296874,-0.11436053365468979,-0.2869589030742645,-0.17971351742744446
1758974140411925500,8.314925537109374,-0.1313118040561676,-0.697026789188385,-0.29185405373573303
1758974140421882600,8.324882568359374,-0.17237241566181183,-0.7676181197166443,-0.294877290725708
1758974140431840800,8.3348408203125,-0.20841675996780396,-0.5618067979812622,-0.3198472559452057
1758974140441798400,8.34479833984375,-0.23313967883586884,-0.382233589887619,-0.37553954124450684
1758974140451756500,8.354756591796875,-0.2508770823478699,-0.3480134904384613,-0.4216691553592682
1758974140461714400,8.36471435546875,-0.22599998116493225,-0.44139429926872253,-0.41086313128471375
1758974140471671600,8.374671630859375,-0.158675879240036,-0.5496891140937805,-0.3517739176750183
1758974140481629700,8.384629638671875,-0.031431373208761215,-0.5868394374847412,-0.28613874316215515
1758974140491587600,8.394587646484375,0.10736217349767685,-0.5773186087608337,-0.22309796512126923
1758974140501545700,8.404545654296875,0.17921613156795502,-0.5594064593315125,-0.1429365575313568
1758974140511503400,8.41450341796875,0.2008175402879715,-0.513168215751648,-0.07745828479528427
1758974140521460500,8.42446044921875,0.16946014761924744,-0.46506884694099426,-0.048856206238269806
1758974140531418600,8.434418701171875,0.1068158969283104,-0.4246053099632263,-0.031135961413383484
1758974140541376500,8.44437646484375,0.07720687240362167,-0.40302038192749023,-0.008149420842528343
1758974140551334700,8.454334716796875,0.08630838245153427,-0.39190006256103516,0.019856413826346397
1758974140561292500,8.46429248046875,0.10144872218370438,-0.3656162619590759,0.02716066502034664
1758974140571249400,8.47424951171875,0.09511952102184296,-0.3487827181816101,0.029289131984114647
1758974140581207600,8.48420751953125,0.06737764179706573,-0.3345523774623871,0.05125674977898598
1758974140591165400,8.49416552734375,0.06851498037576675,-0.3747098743915558,0.0479743555188179
1758974140601123600,8.50412353515625,0.09568934887647629,-0.42066192626953125,0.0151983005926013
1758974140611080700,8.514080810546876,0.10588671267032623,-0.3975621163845062,-0.022143349051475525
1758974140621038300,8.524038330078126,0.10039767622947693,-0.3081382215023041,-0.0409948006272316
1758974140630996500,8.53399658203125,0.08545957505702972,-0.21067191660404205,-0.03133181855082512
1758974140640954400,8.543954345703124,0.04950424283742905,-0.10961293429136276,-0.007730086334049702
1758974140650912500,8.55391259765625,-0.006566361989825964,-0.04694525524973869,0.02169184945523739
1758974140660869600,8.56386962890625,-0.03448614478111267,-0.062295716255903244,0.02880248986184597
1758974140670827500,8.57382763671875,-0.07527980953454971,-0.10144704580307007,0.023305611684918404
1758974140680785700,8.58378564453125,-0.11014405637979507,-0.12852632999420166,-0.0008204965852200985
1758974140690743600,8.59374365234375,-0.14365774393081665,-0.14757144451141357,-0.02870364859700203
1758974140700701400,8.603701416015625,-0.17128431797027588,-0.13491290807724,-0.042811475694179535
1758974140710658600,8.613658447265625,-0.2082221657037735,-0.06913979351520538,-0.03419291973114014
1758974140720616700,8.62361669921875,-0.23871269822120667,0.009878858923912048,-0.018707171082496643
1758974140730574600,8.63357470703125,-0.24160997569561005,0.059317346662282944,0.004117103293538094
1758974140740532700,8.64353271484375,-0.22434230148792267,0.07032791525125504,0.022051628679037094
1758974140750489600,8.653489501953125,-0.2043304741382599,0.09430541098117828,0.0274921003729105
1758974140760447500,8.663447509765625,-0.17868982255458832,0.12917950749397278,0.02063073217868805
1758974140770405600,8.673405517578125,-0.14117911458015442,0.16743110120296478,-0.0031418197322636843
1758974140780363500,8.683363525390625,-0.11047312617301941,0.2036879062652588,-0.019200947135686874
1758974140790321700,8.69332177734375,-0.07603703439235687,0.2190120369195938,-0.006082785315811634
1758974140800278800,8.70327880859375,-0.05597783625125885,0.22766944766044617,0.024932656437158585
1758974140810236400,8.713236328125,-0.04198409616947174,0.27039164304733276,0.04825345799326897
1758974140820194600,8.723194580078125,-0.04438067600131035,0.32343220710754395,0.052923575043678284
1758974140830152400,8.73315234375,-0.05900641903281212,0.3542359173297882,0.044854793697595596
1758974140840109600,8.743109619140625,-0.05955423042178154,0.3245890736579895,0.052316971123218536
1758974140850067700,8.753067626953126,-0.04564647749066353,0.23628000915050507,0.056657060980796814
1758974140860025600,8.763025634765626,-0.021474558860063553,0.14295166730880737,0.03206409886479378
1758974140869983500,8.7729833984375,-0.011212601326406002,0.046131111681461334,0.007596306502819061
1758974140879941400,8.78294140625,-0.011783583089709282,-0.028407573699951172,0.010697823949158192
1758974140889898500,8.7928984375,-0.027796657755970955,-0.03868751972913742,0.01995987631380558
1758974140899856600,8.802856689453124,-0.04288799315690994,-0.027605578303337097,0.023479243740439415
1758974140909814500,8.812814453125,-0.040383223444223404,-0.027227085083723068,0.03317693993449211
1758974140919772700,8.822772705078124,-0.03627236932516098,0.005760960280895233,0.029233330860733986
1758974140929730600,8.83273046875,-0.03183421120047569,0.05208584666252136,0.024696368724107742
1758974140939687400,8.8426875,-0.033592499792575836,0.0878119021654129,0.025261957198381424
1758974140949645600,8.8526455078125,-0.03847683593630791,0.09012161940336227,0.02358447015285492
1758974140959603500,8.862603515625,-0.02753044106066227,0.0652594119310379,0.028442874550819397
1758974140969561600,8.8725615234375,-0.02194419503211975,0.05909552425146103,0.024891549721360207
1758974140979518700,8.882518798828125,-0.01646670699119568,0.05406457558274269,0.015560928732156754
1758974140989476400,8.892476318359375,-0.00030554592376574874,0.04677736014127731,-0.00020481785759329796
1758974140999434500,8.9024345703125,0.007927616126835346,0.07907164841890335,-0.005248579196631908
1758974141009392400,8.912392333984375,0.009582586586475372,0.0990833267569542,-0.009565413929522038
1758974141019349500,8.922349609375,0.006913566961884499,0.11410728096961975,0.0033927287440747023
1758974141029307600,8.9323076171875,0.012991145253181458,0.08060861378908157,0.01755985990166664
1758974141039265500,8.942265625,0.013625243678689003,0.05148002877831459,0.012786943465471268
1758974141049223700,8.9522236328125,0.005548791028559208,0.019594404846429825,-0.006384304724633694
1758974141059181600,8.962181640625,-0.0002246755175292492,-0.019589481875300407,-0.023411225527524948
1758974141069138400,8.972138427734375,-0.0013144409749656916,-0.041486259549856186,-0.028815578669309616
1758974141079096600,8.9820966796875,-0.01735829748213291,-0.045046571642160416,-0.035277847200632095
1758974141089054500,8.992054443359375,-0.030286546796560287,-0.03132598474621773,-0.027161266654729843
1758974141099012600,9.0020126953125,-0.038647010922431946,0.004008304327726364,-0.007609136402606964
1758974141108969500,9.011969482421875,-0.045392028987407684,0.04921600595116615,0.0070229023694992065
1758974141118927400,9.02192724609375,-0.04691296070814133,0.0654040277004242,0.011048536747694016
1758974141128885500,9.031885498046876,-0.04490959644317627,0.0644116997718811,0.006421697326004505
1758974141138843600,9.04184375,-0.04689791426062584,0.06825970113277435,-0.006137770600616932
1758974141148800500,9.051800537109376,-0.04631413519382477,0.030572861433029175,-0.017770370468497276
1758974141158758700,9.061758544921876,-0.037320371717214584,-0.02889632061123848,-0.015353284776210785
1758974141168716500,9.071716552734374,-0.028188329190015793,-0.05914585664868355,-0.01284212339669466
1758974141178674400,9.08167431640625,-0.019224928691983223,-0.05939832329750061,-0.016914095729589462
1758974141188632600,9.091632568359374,-0.011152750812470913,-0.042837418615818024,-0.014745887368917465
1758974141198589400,9.10158935546875,-0.0018098491709679365,-0.029470745474100113,-0.0011046433355659246
1758974141208547600,9.111547607421874,0.005665869917720556,-0.00789947435259819,0.011832566931843758
1758974141218505700,9.121505615234375,0.014569882303476334,0.04981015995144844,0.007176562678068876
1758974141228463600,9.131463623046875,0.01852544955909252,0.07946161180734634,0.002878577681258321
1758974141238420500,9.14142041015625,0.020887674763798714,0.06213269755244255,0.004901248496025801
1758974141248378600,9.151378662109375,0.017754264175891876,0.037121061235666275,0.0005819364450871944
1758974141258336500,9.16133642578125,0.019011275842785835,0.023394066840410233,-0.011274988763034344
1758974141268294700,9.171294677734375,0.019532203674316406,0.020863886922597885,-0.025676211342215538
1758974141278251500,9.18125146484375,0.016822969540953636,0.013751914724707603,-0.017250768840312958
1758974141288209400,9.19120947265625,0.016879616305232048,0.017877880483865738,0.019503893330693245
1758974141298167600,9.20116748046875,0.007421666756272316,0.042834363877773285,0.05267249792814255
1758974141308125400,9.21112548828125,0.004586373455822468,0.061477597802877426,0.06657486408948898
1758974141318082300,9.221082275390625,-0.0029394535813480616,0.06762842833995819,0.07678674906492233
1758974141328040400,9.23104052734375,-0.0006971507682465017,0.054655853658914566,0.07085289806127548
1758974141337998300,9.240998291015625,-0.005314806010574102,0.06172122433781624,0.050490640103816986
1758974141347956500,9.25095654296875,-0.014808056876063347,0.08618727326393127,0.040438756346702576
1758974141357914400,9.260914306640625,-0.024771740660071373,0.09031224250793457,0.04063929244875908
1758974141367871500,9.27087158203125,-0.028358785435557365,0.10884758830070496,0.048388391733169556
1758974141377829400,9.280829345703125,-0.013681039214134216,0.10581984370946884,0.046393416821956635
1758974141387787300,9.290787353515626,-0.0034160532522946596,0.08747436106204987,0.027173617854714394
1758974141397745400,9.300745361328126,-0.006143663078546524,0.0671195536851883,-0.0004217899404466152
1758974141407702500,9.31070263671875,-0.00850585475564003,0.04535192996263504,-0.009816989302635193
1758974141417660400,9.320660400390626,-0.002557950560003519,0.04214787855744362,-0.011630333960056305
1758974141427618600,9.33061865234375,0.00479495245963335,0.06469058990478516,-0.010148166678845882
1758974141437576400,9.340576416015624,0.02208259515464306,0.10670941323041916,-0.0003687734715640545
1758974141447533300,9.350533203125,0.0327896885573864,0.13214433193206787,0.004648671019822359
1758974141457491500,9.360491455078124,0.02875632792711258,0.14160680770874023,0.00047017144970595837
1758974141467449300,9.370449462890624,0.023868810385465622,0.13238894939422607,-0.009770629927515984
1758974141477407500,9.380407470703124,0.020804578438401222,0.10614854097366333,-0.03193345665931702
1758974141487364600,9.390364501953124,0.0041748289950191975,0.07803165912628174,-0.049620870500802994
1758974141497322200,9.400322265625,0.0005966058233752847,0.030477989464998245,-0.07504713535308838
1758974141507280400,9.4102802734375,-0.015469370409846306,0.034343358129262924,-0.08638548105955124
1758974141517238300,9.42023828125,-0.026486868038773537,0.02817494422197342,-0.0809616893529892
1758974141527195400,9.4301953125,-0.04700537770986557,0.03501303866505623,-0.04843173176050186
1758974141537153500,9.440153564453125,-0.049921803176403046,0.0374239981174469,-0.02079211361706257
1758974141547111400,9.450111328125,-0.046751439571380615,0.04446037486195564,-0.008429057896137238
1758974141557069600,9.460069580078125,-0.03803570941090584,0.023904765024781227,-0.009767829440534115
1758974141567026400,9.4700263671875,-0.028100725263357162,-0.027433009818196297,-0.02338396944105625
1758974141576984300,9.479984375,-0.02638937719166279,-0.0974203497171402,-0.0503186471760273
1758974141586942500,9.4899423828125,-0.026402749121189117,-0.14979183673858643,-0.07199888676404953
1758974141596900400,9.499900390625,-0.030305346474051476,-0.19789625704288483,-0.07026570290327072
1758974141606857500,9.509857421875,-0.03711120784282684,-0.22327318787574768,-0.042593635618686676
1758974141616815400,9.5198154296875,-0.03292711451649666,-0.2085011750459671,-0.011433321982622147
1758974141626773200,9.529773193359375,-0.025170858949422836,-0.16225077211856842,0.007387395948171616
1758974141636731400,9.5397314453125,-0.021298089995980263,-0.10451078414916992,0.004091201350092888
1758974141646688500,9.5496884765625,-0.022512046620249748,-0.06853482127189636,-0.010325170122087002
1758974141656646400,9.559646484375,-0.016670135781168938,-0.07159771770238876,-0.011743569746613503
1758974141666604500,9.5696044921875,-0.003514696378260851,-0.09112286567687988,-0.006242355797439814
1758974141676562400,9.5795625,0.006638072431087494,-0.09413036704063416,-0.010034697130322456
1758974141686519300,9.589519287109376,0.010886302217841148,-0.06888464093208313,-0.01840508170425892
1758974141696477400,9.5994775390625,0.006196210160851479,-0.031674690544605255,-0.009534891694784164
1758974141706435300,9.609435302734376,0.00676523894071579,-0.0006170528940856457,0.003330692183226347
1758974141716393500,9.6193935546875,0.012412205338478088,0.02034575492143631,0.00797258224338293
1758974141726350300,9.629350341796876,0.017087172716856003,0.06587734818458557,0.002753742039203644
1758974141736308200,9.63930810546875,0.02033196948468685,0.09678412973880768,-0.002322508953511715
1758974141746266400,9.649266357421874,0.02188057266175747,0.09380718320608139,-0.006157716270536184
1758974141756224500,9.659224609375,0.015120403841137886,0.06499923765659332,-0.00915776751935482
1758974141766181400,9.669181396484374,0.010932465083897114,0.030711429193615913,-0.010857446119189262
1758974141776139500,9.679139404296874,0.005484169814735651,0.023369893431663513,-0.011976506561040878
1758974141786097400,9.689097412109374,0.0013033018913120031,0.02777998521924019,-0.013907486572861671
1758974141796055300,9.69905517578125,-0.0010882167844101787,0.024013210088014603,-0.01203288696706295
1758974141806012400,9.709012451171875,-0.0006262462702579796,0.010993401519954205,0.004445540718734264
1758974141815970300,9.71897021484375,0.0007237101090140641,0.019393011927604675,0.015786612406373024
1758974141825928400,9.728928466796875,0.0019015377620235085,0.06865229457616806,0.01322530210018158
1758974141835886600,9.738886474609375,-0.000985861523076892,0.07753366976976395,0.010610343888401985
1758974141845843200,9.74884326171875,-0.00036253483267500997,0.04922128841280937,0.014286613091826439
1758974141855801300,9.75880126953125,0.002950437366962433,0.034386150538921356,0.016237910836935043
1758974141865759500,9.768759521484375,0.009753779508173466,0.01736125908792019,0.017590075731277466
1758974141875717400,9.77871728515625,0.014445203356444836,0.025479905307292938,0.022409599274396896
1758974141885674500,9.788674560546875,0.016775883734226227,0.055797286331653595,0.015315243974328041
1758974141895632400,9.79863232421875,0.01811252348124981,0.08082114160060883,0.0018444430315867066
1758974141905590500,9.808590576171875,0.019261559471488,0.06328337639570236,0.0008343437220901251
1758974141915548400,9.81854833984375,0.025659805163741112,0.008859016001224518,-0.00276784785091877
1758974141925505300,9.82850537109375,0.02649553492665291,-0.000059294747188687325,-0.006696285679936409
1758974141935463400,9.83846337890625,0.025370614603161812,0.03206881508231163,0.005404851399362087
1758974141945421600,9.848421630859375,0.026007257401943207,0.07150733470916748,0.008465483784675598
1758974141955379500,9.85837939453125,0.024437058717012405,0.0794222503900528,0.006361852865666151
1758974141965336300,9.86833642578125,0.021869387477636337,0.04739396646618843,0.009279653429985046
1758974141975294500,9.87829443359375,0.021951943635940552,0.017038455232977867,0.003555188188329339
1758974141985252400,9.88825244140625,0.020850393921136856,0.009040122851729393,-0.008662484586238861
1758974141995209500,9.89820947265625,0.019273536279797554,0.003531640162691474,-0.014754466712474823
1758974142005167400,9.90816748046875,0.027192987501621246,-0.020277565345168114,-0.028513427823781967
1758974142015125500,9.91812548828125,0.023034993559122086,-0.0005400783848017454,-0.021381478756666183
1758974142025083600,9.928083740234374,0.02797897346317768,-0.012107637710869312,-0.012653887271881104
1758974142035040300,9.938040283203126,0.023548271507024765,-0.013772379606962204,-0.000775389838963747
1758974142044998400,9.947998291015624,0.018402449786663055,-0.0032102542463690042,0.004971379414200783
1758974142054956500,9.95795654296875,0.013450035825371742,0.011454442515969276,0.006093368865549564
1758974142064914400,9.96791455078125,0.017011040821671486,0.007043144665658474,0.009242791682481766
1758974142074871600,9.97787158203125,0.014872787520289421,-0.003424410242587328,0.01221301406621933
1758974142084829400,9.987829345703124,0.013954438269138336,-0.01602618396282196,0.0031985128298401833
1758974142094787300,9.997787353515625,0.013271870091557503,-0.019012385979294777,-0.009079725481569767
1758974142104745500,10.007745361328125,0.015578318387269974,-0.010946433991193771,-0.010682288557291031
1758974142114702300,10.017702392578125,0.01838715560734272,0.020371273159980774,-0.0037074689753353596
1758974142124660500,10.027660400390625,0.02375776693224907,0.048636265099048615,-0.003163856454193592
1758974142134618600,10.03761865234375,0.032160576432943344,0.05452877655625343,-0.0032639913260936737
1758974142144576300,10.047576171875,0.0360865481197834,0.04322873428463936,0.004447387997061014
1758974142154533400,10.057533447265625,0.03648069500923157,0.03626483678817749,0.006201080046594143
1758974142164491500,10.067491455078125,0.03846321627497673,0.03430543839931488,0.0015996495494619012
1758974142174449400,10.077449462890625,0.0396115705370903,0.029145032167434692,-0.004557312466204166
1758974142184406500,10.087406494140625,0.03815993666648865,0.012220358476042747,-0.00587843731045723
1758974142194364400,10.097364501953125,0.0375165194272995,-0.0034675244241952896,-0.0011449346784502268
1758974142204322300,10.107322265625,0.03220342844724655,0.003964053466916084,0.001580839161761105
1758974142214280400,10.117280517578125,0.031026842072606087,0.018116625025868416,0.0002716293092817068
1758974142224237600,10.127237548828125,0.028332224115729332,0.020528750494122505,0.000790867954492569
1758974142234195500,10.137195556640625,0.028287747874855995,0.005225961096584797,0.0034028964582830667
1758974142244153600,10.147153564453125,0.02683078870177269,-0.004403514787554741,0.0019819033332169056
1758974142254111500,10.157111572265626,0.01792171597480774,-0.002991240471601486,-0.005766563583165407
1758974142264068400,10.167068359375,0.014623208902776241,-0.003911921288818121,-0.0026626777835190296
1758974142274026500,10.177026611328126,0.011854852549731731,-0.005247230641543865,-0.0002668979577720165
1758974142283984400,10.186984375,0.013782777823507786,-0.0013202441623434424,0.004180826246738434
1758974142293942500,10.196942626953126,0.01588001847267151,0.0077368998900055885,0.009733250364661217
1758974142303900000,10.20689990234375,0.015210084617137909,0.01852843351662159,0.011211887001991272
1758974142313858000,10.216858154296874,0.016988543793559074,0.009454510174691677,0.006681850180029869
1758974142323816000,10.22681591796875,0.015153085812926292,0.004662511870265007,-0.0011581385042518377
1758974142333772800,10.236772705078126,0.016417821869254112,0.00561352726072073,-0.012656603008508682
1758974142343731000,10.24673095703125,0.01910024881362915,0.02032177895307541,-0.01583600416779518
1758974142353688800,10.256688720703124,0.02085101045668125,0.022838199511170387,-0.007897652685642242
1758974142363647000,10.26664697265625,0.019005604088306427,0.01417728140950203,-0.00031915190629661083
1758974142373603800,10.276603759765624,0.015187163837254047,-0.007251843810081482,0.002733363304287195
1758974142383561700,10.286561767578124,0.008800206705927849,-0.027605265378952026,0.006075952667742968
1758974142393519900,10.296519775390625,0.005892834160476923,-0.03430471569299698,-0.0006075161509215832
1758974142403477000,10.30647705078125,0.003494022414088249,-0.029552089050412178,-0.009421836584806442
1758974142413435000,10.316434814453125,-0.0005555801326408982,-0.02963384799659252,-0.005122163332998753
1758974142423393000,10.32639306640625,-0.006105183623731136,-0.030463121831417084,0.007722388952970505
1758974142433351000,10.336350830078125,-0.010514846071600914,-0.02814963273704052,0.010300861671566963
1758974142443307800,10.346307861328125,-0.015891699120402336,-0.022907664999365807,0.004077384248375893
1758974142453266000,10.356265869140625,-0.01509834360331297,-0.02973387949168682,0.002380950842052698
1758974142463223800,10.366223876953125,-0.016011008992791176,-0.03871352598071098,-0.0035539036616683006
1758974142473182000,10.376181884765625,-0.017616629600524902,-0.02562808431684971,-0.015523746609687805
1758974142483139000,10.38613916015625,-0.018054772168397903,-0.027735427021980286,-0.013962939381599426
1758974142493096700,10.3960966796875,-0.02073897235095501,-0.03316374868154526,-0.010294967330992222
1758974142503054800,10.406054931640625,-0.020415479317307472,-0.02787228673696518,-0.0023142448626458645
1758974142513012000,10.416011962890625,-0.022973710671067238,-0.017628971487283707,-0.001387997530400753
1758974142522969900,10.425969970703125,-0.023371292278170586,-0.027916504070162773,0.0003000821452587843
1758974142532928000,10.435927978515625,-0.019837278872728348,-0.02638252265751362,-0.00540547352284193
1758974142542886100,10.44588623046875,-0.014058051630854607,-0.006129947025328875,-0.01443151943385601
1758974142552842800,10.4558427734375,-0.010622307658195496,-0.0014997750986367464,-0.015982812270522118
1758974142562801000,10.46580078125,-0.0088739525526762,-0.011133761145174503,-0.007514039054512978
1758974142572759000,10.475759033203126,-0.009410046972334385,-0.01557085383683443,-0.003535542404279113
1758974142582716000,10.4857158203125,-0.01196786668151617,-0.02244674041867256,-0.0015526020433753729
1758974142592674000,10.495674072265626,-0.016105620190501213,-0.03273027017712593,-0.0011906784493476152
1758974142602631700,10.505631591796876,-0.015324289910495281,-0.031919319182634354,0.0028370958752930164
1758974142612589800,10.51558984375,-0.016506200656294823,-0.015518776141107082,0.00008152308873832226
1758974142622547000,10.525546875,-0.017219511792063713,0.00047718221321702003,-0.0013223649002611637
1758974142632504800,10.5355048828125,-0.017461061477661133,-0.006957031786441803,0.002923513064160943
1758974142642463000,10.545462890625,-0.017703842371702194,-0.024032272398471832,0.008912391029298306
1758974142652421000,10.555421142578124,-0.016573064029216766,-0.022238634526729584,0.015121817588806152
1758974142662377700,10.565377685546874,-0.014815745875239372,-0.007495074532926083,0.019663963466882706
1758974142672336000,10.5753359375,-0.014602161012589931,-0.004601017571985722,0.01544604916125536
1758974142682294000,10.5852939453125,-0.01280510425567627,-0.001095660962164402,0.005965119693428278
1758974142692251000,10.5952509765625,-0.011081240139901638,-0.0030797161161899567,-0.0073911650106310844
1758974142702209000,10.605208984375,-0.010654221288859844,-0.027117092162370682,-0.008144786581397057
1758974142712167000,10.6151669921875,-0.005601406563073397,-0.03998468443751335,-0.0005651633255183697
1758974142722124800,10.625124755859375,-0.0021570201497524977,-0.014159077778458595,0.0023095018696039915
1758974142732082000,10.63508203125,-0.0022598181385546923,0.019655875861644745,0.0038416185416281223
1758974142742039800,10.645039794921875,-0.003568995511159301,0.03388335928320885,0.004074275493621826
1758974142751998000,10.654998046875,-0.0052574397996068,0.029008178040385246,0.004722755402326584
1758974142761955000,10.664955078125,-0.008290031924843788,0.019462628290057182,-0.005217830650508404
1758974142771912700,10.67491259765625,-0.005520077422261238,-0.0005504954606294632,-0.01271276455372572
1758974142781870800,10.684870849609375,-0.002397616859525442,-0.01509682647883892,-0.005019837990403175
1758974142791829000,10.6948291015625,-0.0016633833292871714,-0.0025203151162713766,0.0008130173664540052
1758974142801785900,10.704785888671875,0.00036362349055707455,0.006281673908233643,0.0002806244883686304
1758974142811744000,10.714743896484375,0.0021569961681962013,-0.002826603129506111,0.0013080721255391836
1758974142821702000,10.724701904296875,0.0019499175250530243,-0.008163794875144958,0.0005067808087915182
1758974142831658800,10.73465869140625,0.00024549459340050817,-0.011474103666841984,-0.010674234479665756
1758974142841617000,10.744616943359375,-0.001336759189143777,-0.0001544917467981577,-0.015794940292835236
1758974142851574800,10.75457470703125,-0.004291802644729614,-0.00038405624218285084,-0.010555170476436615
1758974142861532000,10.764531982421875,-0.00531108770519495,-0.007571452297270298,-0.0022965921089053154
1758974142871490000,10.774489990234375,-0.007159055210649967,-0.01128949224948883,0.0027682078070938587
1758974142881448000,10.784447998046875,-0.008303876034915447,-0.01059824787080288,-0.003844709601253271
1758974142891405800,10.79440576171875,-0.001061409479007125,-0.009609682485461235,-0.01170742604881525
1758974142901363000,10.804363037109376,-0.0008263770141638815,-0.0010217458475381136,-0.011203600093722343
1758974142911320800,10.81432080078125,-0.0015824483707547188,0.004747460130602121,-0.0057057710364460945
1758974142921279000,10.824279052734376,-0.0034917194861918688,0.02268999256193638,0.0029385131783783436
1758974142931236000,10.834236083984376,-0.002524991985410452,0.03859465569257736,0.0020586047321558
1758974142941193700,10.84419384765625,-0.0009242861997336149,0.04701703414320946,-0.00501400139182806
1758974142951151900,10.85415185546875,-0.0007562406826764345,0.03156137838959694,-0.007734154351055622
1758974142961109800,10.86410986328125,-0.002299577696248889,0.002654815325513482,-0.00371028040535748
1758974142971067000,10.87406689453125,-0.01055804081261158,-0.010242873802781105,-0.004773946478962898
1758974142981025000,10.88402490234375,-0.02008342742919922,-0.02655826508998871,-0.005190182477235794
1758974142990983000,10.89398291015625,-0.024820392951369286,-0.037248194217681885,-0.009242715314030647
1758974143000939800,10.903939697265624,-0.02905379980802536,-0.03968221694231033,-0.007164459675550461
1758974143010898000,10.91389794921875,-0.03354601934552193,-0.03218861669301987,0.010587905533611774
1758974143020855800,10.923855712890624,-0.039663009345531464,-0.025945108383893967,0.019573314115405083
1758974143030814000,10.93381396484375,-0.044310227036476135,-0.0331079475581646,0.01967984065413475
1758974143040771000,10.94377099609375,-0.04607224464416504,-0.03957514464855194,0.012194253504276276
1758974143050729000,10.95372900390625,-0.04738331958651543,-0.06013607978820801,0.009371303021907806
1758974143060686800,10.963686767578125,-0.05089915171265602,-0.07787825912237167,0.021205294877290726
1758974143070644000,10.97364404296875,-0.05971687659621239,-0.08618225902318954,0.034920040518045425
1758974143080601900,10.983601806640625,-0.06988109648227692,-0.09255360811948776,0.0440799854695797
1758974143090560000,10.99356005859375,-0.08085039258003235,-0.09730707854032516,0.05109688267111778
1758974143100517000,11.00351708984375,-0.08524060994386673,-0.12564294040203094,0.05469614639878273
1758974143110474800,11.013474853515625,-0.08166877925395966,-0.1628504991531372,0.049841735512018204
1758974143120433000,11.023432861328125,-0.07595758140087128,-0.15765202045440674,0.03596806898713112
1758974143130390800,11.033390869140625,-0.07382705062627792,-0.11983593553304672,0.02484351396560669
1758974143140348000,11.043347900390625,-0.08003783971071243,-0.08424454927444458,0.023378867655992508
1758974143150306000,11.05330615234375,-0.0899842157959938,-0.08467997610569,0.029278036206960678
1758974143160264000,11.063263916015625,-0.09100683033466339,-0.12320217490196228,0.02921844646334648
1758974143170220800,11.073220703125,-0.07927800714969635,-0.15970799326896667,0.025531567633152008
1758974143180179000,11.083178955078125,-0.07502913475036621,-0.1806098222732544,0.00393208023160696
1758974143190136800,11.09313671875,-0.0632915198802948,-0.18238508701324463,-0.022615639492869377
1758974143200094000,11.103093994140625,-0.04668685421347618,-0.17483560740947723,-0.03312815725803375
1758974143210052000,11.113052001953125,-0.03495962545275688,-0.15007299184799194,-0.02367420308291912
1758974143220010000,11.123010009765625,-0.02906602807343006,-0.1262315809726715,-0.01711014099419117
1758974143229968000,11.1329677734375,-0.02713177539408207,-0.09791766107082367,-0.0268597062677145
1758974143239925000,11.142925048828126,-0.02857731468975544,-0.07626084238290787,-0.03888823837041855
1758974143249883000,11.1528828125,-0.053693320602178574,-0.10915593802928925,-0.02601664699614048
1758974143259841000,11.162841064453126,-0.06718206405639648,-0.1799953579902649,0.015607083216309547
1758974143269798100,11.172798095703126,-0.05727643892168999,-0.16953766345977783,0.008893253281712532
1758974143279755800,11.182755859375,-0.06371452659368515,-0.07733737677335739,-0.020161151885986328
1758974143289714000,11.1927138671875,-0.07352907955646515,-0.002208007499575615,-0.020385922864079475
1758974143299671000,11.202671142578126,-0.07192396372556686,0.00694926455616951,-0.005203338339924812
1758974143309629200,11.212629150390624,-0.07646811008453369,-0.009065388701856136,0.000940041383728385
1758974143319587000,11.222587158203124,-0.08030335605144501,-0.028522169217467308,-0.005967302247881889
1758974143329544200,11.232544189453124,-0.07581247389316559,-0.02691628411412239,-0.017241794615983963
1758974143339502000,11.242502197265624,-0.061579085886478424,0.009530368261039257,-0.02818361297249794
1758974143349460200,11.252460205078124,-0.034149859100580215,0.10322623699903488,-0.019414622336626053
1758974143359418000,11.262418212890625,0.003109932644292712,0.19104909896850586,-0.017745284363627434
1758974143369375000,11.272375,0.030706407502293587,0.25816288590431213,-0.03023657388985157
1758974143379333000,11.2823330078125,0.020247824490070343,0.33787232637405396,-0.03340641036629677
1758974143389291000,11.292291015625,-0.017307806760072708,0.451706200838089,0.021252840757369995
1758974143399248100,11.302248046875,-0.01319627184420824,0.5306412577629089,0.07782472670078278
1758974143409206300,11.312206298828125,-0.02490193024277687,0.6152267456054688,0.09438745677471161
1758974143419164200,11.3221640625,-0.06661076098680496,0.6952530741691589,0.09434927254915237
1758974143429121000,11.33212109375,-0.0706196129322052,0.6846297383308411,0.062036603689193726
1758974143439079200,11.3420791015625,0.01767244003713131,0.4763491749763489,-0.009545434266328812
1758974143449037000,11.352037109375,0.12348569184541702,0.2455066293478012,-0.0021197425667196512
1758974143458994200,11.361994140625,0.17543484270572662,0.16737279295921326,0.1389463245868683
1758974143468952000,11.3719521484375,0.15988463163375854,0.18076902627944946,0.3042849600315094
1758974143478910200,11.38191015625,0.11556892842054367,0.1127677634358406,0.4434259235858917
1758974143488868000,11.3918681640625,0.008123165927827358,0.00852923933416605,0.5677117109298706
1758974143498825000,11.401824951171875,-0.14194068312644958,-0.09098304808139801,0.5853917002677917
1758974143508783000,11.411783203125,-0.2903352379798889,-0.09090422093868256,0.41137754917144775
1758974143518741200,11.4217412109375,-0.34975335001945496,-0.23514489829540253,0.1649085134267807
1758974143528698000,11.431697998046875,-0.2833799123764038,-0.7607844471931458,0.02909395843744278
1758974143538656000,11.441656005859375,-0.1541662961244583,-1.2648983001708984,0.08581778407096863
1758974143548614100,11.4516142578125,0.021176759153604507,-1.4595385789871216,0.2348107248544693
1758974143558571000,11.461571044921875,0.19911225140094757,-1.1876319646835327,0.34478533267974854
1758974143568529200,11.471529052734375,0.32708993554115295,-0.754397451877594,0.38067010045051575
1758974143578487000,11.481487060546876,0.3658619523048401,-0.5097705125808716,0.4459173083305359
1758974143588444000,11.49144384765625,0.31814607977867126,-0.7247083187103271,0.5590214729309082
1758974143598402000,11.501402099609376,0.19784992933273315,-0.8592941164970398,0.6830086708068848
1758974143608360000,11.51135986328125,0.12003902345895767,-0.643561601638794,0.7235446572303772
1758974143618317000,11.521317138671876,0.08059187233448029,-0.21783220767974854,0.7955643534660339
1758974143628275200,11.531275146484376,-0.05384450405836105,0.11050838977098465,0.9924145340919495
1758974143638233000,11.541233154296876,-0.2628595232963562,0.21268588304519653,1.2190179824829102
1758974143648190000,11.55118994140625,-0.40168875455856323,0.1831735372543335,1.321563720703125
1758974143658148000,11.561148193359376,-0.421708881855011,0.1905980110168457,1.314325213432312
1758974143668106000,11.57110595703125,-0.38972193002700806,0.22457675635814667,1.2621294260025024
1758974143678064000,11.581064208984374,-0.30653616786003113,0.26761147379875183,1.1958917379379272
1758974143688021200,11.591021240234374,-0.2778802812099457,0.36215928196907043,1.205513834953308
1758974143697979100,11.600979248046874,-0.3097330629825592,0.38410958647727966,1.2164850234985352
1758974143707937000,11.61093701171875,-0.35959115624427795,0.3156309425830841,1.1996644735336304
1758974143717894100,11.62089404296875,-0.35405653715133667,0.19792744517326355,1.1223653554916382
1758974143727852000,11.63085205078125,-0.38245463371276855,0.29360711574554443,1.085924506187439
1758974143737810200,11.64081005859375,-0.3723921477794647,0.4094652831554413,1.1644928455352783
1758974143747767300,11.650767333984374,-0.37941649556159973,0.3741288483142853,1.229377031326294
1758974143757725000,11.660724853515624,-0.3465973138809204,0.2740362286567688,1.2305595874786377
1758974143767683000,11.67068310546875,-0.3031584918498993,0.21840308606624603,1.260727882385254
1758974143777640200,11.68064013671875,-0.27495548129081726,0.1065894216299057,1.2517794370651245
1758974143787598000,11.69059814453125,-0.25822603702545166,0.02801179327070713,1.2508963346481323
1758974143797556200,11.70055615234375,-0.2670633792877197,-0.010486271232366562,1.2856236696243286
1758974143807513000,11.71051318359375,-0.2752763032913208,0.03142575919628143,1.3305615186691284
1758974143817471000,11.720470947265625,-0.30137014389038086,0.07508222758769989,1.348753571510315
1758974143827429000,11.73042919921875,-0.34276527166366577,0.11822783946990967,1.3238937854766846
1758974143837386200,11.74038623046875,-0.3563869893550873,0.19784876704216003,1.3306729793548584
1758974143847344000,11.75034423828125,-0.3564559519290924,0.2707783579826355,1.348132610321045
1758974143857302300,11.76030224609375,-0.34487688541412354,0.33618003129959106,1.382083535194397
1758974143867259100,11.770259033203125,-0.32377904653549194,0.3743889331817627,1.4151411056518555
1758974143877217000,11.780217041015625,-0.3255210816860199,0.3805599808692932,1.4224450588226318
1758974143887175200,11.790175048828125,-0.3346480131149292,0.36228084564208984,1.4235758781433105
1758974143897132000,11.800132080078125,-0.334661066532135,0.30773264169692993,1.4197806119918823
1758974143907090200,11.810090087890625,-0.34331580996513367,0.25363290309906006,1.4011293649673462
1758974143917048000,11.820048095703125,-0.34723201394081116,0.1835179179906845,1.3778667449951172
1758974143927005000,11.8300048828125,-0.3539586067199707,0.06661899387836456,1.3668899536132812
1758974143936963000,11.839963134765625,-0.3519139885902405,-0.012079586274921894,1.3545212745666504
1758974143946921200,11.849921142578125,-0.3393617272377014,-0.06832049041986465,1.3420745134353638
1758974143956878000,11.859878173828125,-0.3316134512424469,-0.09568635374307632,1.3346314430236816
1758974143966836000,11.8698359375,-0.3186500072479248,-0.15031391382217407,1.3319350481033325
1758974143976794000,11.879794189453126,-0.2755228579044342,-0.2211877852678299,1.30669367313385
1758974143986752000,11.889751953125,-0.20978352427482605,-0.2316894382238388,1.2836132049560547
1758974143996709000,11.899709228515626,-0.13135845959186554,-0.2470172643661499,1.3133805990219116
1758974144006667300,11.909667236328126,-0.06627561151981354,-0.2410760074853897,1.354899287223816
1758974144016625200,11.919625244140626,-0.0488690622150898,-0.2526624798774719,1.3707784414291382
1758974144026582000,11.92958203125,-0.042411696165800095,-0.2939039468765259,1.3869662284851074
1758974144036540000,11.939539794921876,-0.051863111555576324,-0.4073355495929718,1.3802168369293213
1758974144046498000,11.949498046875,-0.06251202523708344,-0.5216501355171204,1.3635987043380737
1758974144056455200,11.959455078125,-0.07639315724372864,-0.6061962246894836,1.3808720111846924
1758974144066413000,11.9694130859375,-0.09086743742227554,-0.6053503751754761,1.4194904565811157
1758974144076371200,11.97937109375,-0.10649441927671432,-0.5517652630805969,1.446624755859375
1758974144086328000,11.989328125,-0.1000509038567543,-0.500654399394989,1.4645878076553345
1758974144096286000,11.999285888671874,-0.09153992682695389,-0.4818030595779419,1.4631495475769043
1758974144106244000,12.009244140625,-0.0959882065653801,-0.4910530149936676,1.44499933719635
1758974144116201200,12.019201171875,-0.10901067405939102,-0.5082828402519226,1.3950366973876953
1758974144126159000,12.0291591796875,-0.13854485750198364,-0.5576474666595459,1.3232872486114502
1758974144136117000,12.039116943359375,-0.1701965034008026,-0.6466578245162964,1.2422447204589844
1758974144146074000,12.04907421875,-0.23913589119911194,-0.783873438835144,1.118308424949646
1758974144156032000,12.059031982421875,-0.4557400941848755,-0.8601781129837036,0.9605440497398376
1758974144165990100,12.068990234375,-0.6785222887992859,-0.8170615434646606,0.931376039981842
