time,seconds_elapsed,z,y,x
1758274187527675000,0.0426748046875,8.455871350860596,1.2433388496398925,0.08245031967163086
1758274187537633000,0.052633056640625,8.230517119598389,1.307383744049072,0.08933364944458007
1758274187547592000,0.062592041015625,8.096890739440918,1.4359224456787107,0.045938744354248044
1758274187557550000,0.072550048828125,8.066215030670165,1.472882933807373,0.033818098449707026
1758274187567508000,0.082508056640625,8.279298978424071,1.3753192161560057,0.19018939437866209
1758274187577467000,0.092466796875,8.753949457550048,1.2065279991149902,0.5395931991577149
1758274187587425000,0.102425048828125,9.017461277770996,0.7474398307800293,0.888697728729248
1758274187597383000,0.1123828125,8.990526509094238,0.0626981559753418,0.8473977500915527
1758274187607342300,0.12234228515625,9.044844959259033,-0.1149216796875,0.7435492530822754
1758274187617300200,0.13230029296875,9.382427393341064,0.2454056701660156,0.5131073432922363
1758274187627258400,0.14225830078125,9.188497058868407,-0.09083002548217772,0.3407248237609863
1758274187637216300,0.15221630859375,9.261969122314452,-0.8665513633728027,0.33833062210083004
1758274187647175400,0.162175537109375,10.301800830841064,-1.4163199195861815,0.462829108428955
1758274187657133300,0.17213330078125,10.341155520629883,-2.1130326026916504,0.5747580360412597
1758274187667091500,0.182091552734375,9.444826274108886,-2.5201965225219727,0.672920304107666
1758274187677050400,0.19205029296875,8.24248812789917,-2.15163910446167,1.2333131301879883
1758274187687008300,0.20200830078125,6.794145761108398,-1.3021464279174804,1.7069161460876463
1758274187696966400,0.21196630859375,5.686977130889892,-0.5063736511230469,2.046144593811035
1758274187706925300,0.22192529296875,4.953154322052002,0.7794622779846191,2.8522423652648925
1758274187716883500,0.231883544921875,3.9987656852722164,1.3979144943237305,3.6516064445495604
1758274187726841300,0.24184130859375,3.0527567543029783,0.7296329559326171,3.636941959381103
1758274187736800500,0.251800537109375,2.9785365028381348,-0.07885901718139648,3.616291970062256
1758274187746758400,0.26175830078125,3.9419033958435055,-0.907851342010498,0.636558366394043
1758274187756716300,0.27171630859375,7.195773089599609,-1.1969511924743652,-4.765658404541015
1758274187766674200,0.281674072265625,7.799411183166503,-3.6418800003051754,1.236006607055664
1758274187776633300,0.29163330078125,7.711124996948242,-4.357147746276855,3.100191874694824
1758274187786591200,0.30159130859375,8.540117321777343,-3.520972816467285,2.601150466156006
1758274187796549400,0.31154931640625,8.828319346618652,-3.6644752784729,3.632153556060791
1758274187806508300,0.32150830078125,9.009530484771728,-3.0364462554931637,4.791096797180176
1758274187816466400,0.331466552734375,8.153154478454589,-2.3129484413146972,5.922207444000244
1758274187826424300,0.34142431640625,8.193257356262206,-2.1999720504760742,7.272986093139648
1758274187836383200,0.35138330078125,9.122207600402831,-1.4662988792419434,8.828768259429932
1758274187846341400,0.36134130859375,9.552415711212157,-0.26171616897583005,9.833285493469237
1758274187856299500,0.371299560546875,9.607183074188232,0.5265747276306152,10.265289255523681
1758274187866258400,0.381258544921875,8.89371097946167,0.9736918876647949,10.20214218673706
1758274187876216300,0.39121630859375,7.422773334503173,1.2530652938842772,9.812036953735351
1758274187886174500,0.401174560546875,5.882703116607666,1.6991349906921385,10.039336473846435
1758274187896133400,0.41113330078125,4.778527238464355,2.9746459251403805,11.074828691864013
1758274187906091500,0.421091552734375,3.8552632232666015,3.975272581481933,12.40465807647705
1758274187916049200,0.431049072265625,3.6981437393188474,4.407425981140136,13.525443728637695
1758274187926008600,0.441008544921875,3.663427815246582,4.773738835144043,14.176965855407714
1758274187935966200,0.45096630859375,3.5449148330688476,4.958242000579833,14.627973593139648
1758274187945924400,0.46092431640625,3.8162078086853026,4.747402616882324,14.43494108428955
1758274187955882200,0.47088232421875,3.864391117095947,4.480748406982421,13.712790008544921
1758274187965841400,0.48084130859375,3.4120366409301757,3.639635436248779,12.49369245071411
1758274187975799300,0.49079931640625,2.2007202384948727,2.8877064773559566,11.03143378677368
1758274187985757400,0.50075732421875,1.2853870162963867,2.170194167327881,9.994744467926024
1758274187995716400,0.51071630859375,1.6674118186950682,0.824802471923828,8.859144692993164
1758274188005674200,0.52067431640625,2.4021324531555175,-0.8111854499816894,7.720851441192626
1758274188015632400,0.53063232421875,2.692130129241943,-2.1350293304443357,7.280467973327636
1758274188025591300,0.54059130859375,2.47725053024292,-3.020285394287109,6.985232981109618
1758274188035549400,0.550549560546875,1.834856297302246,-3.733458213806152,6.636727001953124
1758274188045507300,0.56050732421875,1.145326219177246,-4.0538323234558105,7.01635760269165
1758274188055466500,0.570466552734375,0.4578910675048828,-3.830124105834961,8.119486017608642
1758274188065424400,0.58042431640625,-3.8003462226867675,-2.760664151763916,10.064176316070556
1758274188075382300,0.59038232421875,-3.4509424179077146,-2.6321254501342772,9.832836580657958
1758274188085341400,0.600341552734375,-2.7890952964782714,-3.1645360443115234,9.11682064666748
1758274188095299300,0.61029931640625,-4.284423870849609,-4.010736693572998,7.698256163024902
1758274188105257200,0.62025732421875,-4.8309003997802735,-5.327098693847656,6.430676021575928
1758274188115215400,0.63021533203125,-6.443395217895508,-9.115623545837401,8.745120838928223
1758274188125174300,0.64017431640625,-4.525789325714111,-8.249221820068358,6.179284847259521
1758274188135132400,0.65013232421875,-2.099864493560791,-6.853402252197265,6.977451825714111
1758274188145090300,0.66009033203125,3.4572271972656248,-1.8682254829406737,13.641263233947754
1758274188155049200,0.67004931640625,6.265625744628906,0.23927052841186522,23.435044400024413
1758274188165007400,0.68000732421875,7.3006690498352045,-0.34446576385498046,23.892636192321778
1758274188174965500,0.689965576171875,7.428459563446045,-0.7715314849853515,16.86655214538574
1758274188184924400,0.69992431640625,2.6198551666259764,-1.310077220916748,14.432995795440673
1758274188194882300,0.70988232421875,0.6111199737548828,-3.0129531517028805,10.079588989257813
1758274188204840400,0.71984033203125,-2.0485387954711913,-5.813570543670654,7.266252400970458
1758274188214799400,0.72979931640625,-3.714903150939941,-5.18359623184204,7.807192338562011
1758274188224757500,0.739757568359375,-1.631199518585205,-3.283946852111816,6.410175669860839
1758274188234715400,0.74971533203125,0.7345709968566894,-4.493168328094482,7.539191390228271
1758274188244674600,0.759674560546875,3.2769138847351074,-5.303904865264892,5.567566323089599
1758274188254632200,0.769632080078125,2.8426655586242675,-6.279691679382323,4.112939176940918
1758274188264590300,0.77959033203125,-1.88977329788208,-7.851933982086181,5.922955632019042
1758274188274548200,0.78954833984375,-3.038092269134521,-7.7587097549438475,7.098658284759521
1758274188284507400,0.79950732421875,0.72140288772583,-6.44219811706543,6.242581553649902
1758274188294465300,0.80946533203125,3.2727240318298336,-5.812523080444335,5.700743790435791
1758274188304423400,0.81942333984375,5.143343716430664,-6.796988875579833,5.271283867645264
1758274188314382300,0.82938232421875,3.9815573608398434,-6.666504885101318,5.044133985137939
1758274188324340200,0.83934033203125,2.296937217712402,-6.744615714263916,4.895244569396972
1758274188334298400,0.84929833984375,2.382529927062988,-7.023390570068359,3.878008139038086
1758274188344257300,0.85925732421875,3.0741549316406247,-8.022221575164794,2.286761860656738
1758274188354215400,0.86921533203125,0.22221184158325194,-11.09562831878662,2.6734254287719725
1758274188364173300,0.87917333984375,-1.087266828918457,-10.98758996887207,3.583521334838867
1758274188374132500,0.889132568359375,0.36047698745727536,-8.86812294921875,6.526444087982178
1758274188384090400,0.89909033203125,1.009455274963379,-4.34727166442871,8.428487669372558
1758274188394048500,0.909048583984375,2.858676782226562,-1.753154165649414,7.638401121520996
1758274188404007400,0.91900732421875,5.575197840881347,-2.545485277557373,8.258648989105223
1758274188413965600,0.928965576171875,6.188263103485107,-3.6924575103759762,9.158719175720215
1758274188423923200,0.938923095703125,-2.1896470558166503,-4.903923550415039,1.9794062225341795
1758274188433882000,0.948882080078125,-4.802768530273437,-9.991003527832031,-4.731989943695068
1758274188443840300,0.95884033203125,1.5901988151550293,-18.02983487701416,-5.296123709869384
1758274188453798400,0.96879833984375,4.545092576599121,-20.567090086364743,-3.2492309280395504
1758274188463756300,0.97875634765625,-3.333177623748779,-16.26096876296997,-0.7032967376708984
1758274188473715200,0.988715087890625,-3.6743513603210447,-12.014702481079102,0.7507318580627441
1758274188483673300,0.99867333984375,0.20994155807495116,-8.807669357299805,2.9318495704650878
1758274188493631500,1.008631591796875,2.0406080024719238,-6.081870767211914,5.4810757881164545
1758274188503590400,1.01859033203125,2.03656778717041,-4.843918871307372,6.555773058319091
1758274188513548300,1.02854833984375,-0.01062426986694336,-5.341164628601074,7.52692110671997
1758274188523506400,1.03850634765625,0.08334814529418945,-9.316736485290527,10.84633207092285
1758274188533465300,1.04846533203125,1.9416975463867185,-16.205004299163818,13.513622357940672
1758274188543423500,1.058423583984375,0.024390929412841794,-19.118747719573975,13.678223722076416
1758274188553381400,1.06838134765625,-0.27308862686157226,-17.674595205688476,11.522694039916992
1758274188563340500,1.078340576171875,0.7050923889160156,-14.579341371917725,7.235875967407226
1758274188573298400,1.08829833984375,-0.0016460136413574218,-10.35582000579834,4.275744889831543
1758274188583256300,1.09825634765625,-0.7064391273498535,-9.789292037963866,4.414159673309326
1758274188593214200,1.108214111328125,-0.5761047744750977,-9.996689756774902,4.690091414642334
1758274188603173400,1.11817333984375,-0.07870937957763671,-9.648183777618408,4.173542406463623
1758274188613131300,1.12813134765625,0.213233585357666,-9.792584065246581,3.381809844970703
1758274188623089400,1.13808935546875,0.3338414939880371,-10.525957961273193,4.281131843566894
1758274188633048300,1.14804833984375,0.2127846725463867,-10.689212586975097,4.494066153717041
1758274188643006200,1.158006103515625,-0.2624643569946289,-8.77789147415161,3.2338182548522947
1758274188652964400,1.16796435546875,0.07197568740844726,-7.14399847869873,3.1296704826354977
1758274188662923300,1.17792333984375,2.2221184158325196,-6.022315000915527,4.7746366607666015
1758274188672881400,1.18788134765625,-0.29089550170898437,-6.395960097503662,4.796932663726806
1758274188682839300,1.19783935546875,-2.824260133361816,-7.62957250289917,4.381089762878418
1758274188692798500,1.207798583984375,-0.015861585998535155,-8.434173898315429,4.123114533996582
1758274188702756400,1.21775634765625,0.6829460235595702,-8.98977832107544,4.363582163238525
1758274188712714500,1.227714599609375,-0.6480804618835448,-9.616759880828857,3.9380128181457517
1758274188722673400,1.23767333984375,-1.0327987411499022,-9.615562779998779,2.893991256713867
1758274188732631600,1.247631591796875,0.43230303726196284,-9.283965850067139,3.015347353363037
1758274188742589400,1.25758935546875,1.0060136100769042,-8.880243595123291,4.102015631866455
1758274188752548400,1.26754833984375,0.9060556907653808,-7.8532807205200195,5.423166035461425
1758274188762506500,1.277506591796875,1.2319663917541503,-5.979369008636474,5.970540390014648
1758274188772464400,1.28746435546875,1.5179238525390624,-5.651662656402587,6.031592532348633
1758274188782422300,1.29742236328125,1.1635820068359375,-6.723666449737548,6.359897434997558
1758274188792381200,1.307381103515625,0.19033903198242186,-7.889044107818603,6.206069978332519
1758274188802339300,1.31733935546875,-0.08469488372802735,-8.757989672851561,5.895721588134765
1758274188812297500,1.32729736328125,-0.2507926239013672,-9.298331060028076,5.532102210998535
1758274188822256400,1.33725634765625,-0.4634276588439941,-9.979780707550049,5.243151998138427
1758274188832214300,1.34721435546875,-0.4100070343017578,-10.87266828918457,5.450848992156982
1758274188842172400,1.35717236328125,0.022146365356445312,-11.49785419769287,4.887463414001465
1758274188852131300,1.36713134765625,0.023942016601562498,-11.067197174072264,3.923348332977295
1758274188862089500,1.37708935546875,-0.5641337661743163,-8.47233148727417,3.325695743560791
1758274188872047400,1.38704736328125,0.01331774673461914,-6.680421182250976,4.416404237365723
1758274188882006500,1.397006591796875,0.29613281784057616,-6.168062026977538,4.694430905151367
1758274188891964400,1.40696435546875,0.37828386230468747,-7.133823121643066,4.275295977020264
1758274188901922600,1.416922607421875,0.3758896606445312,-8.51063871383667,4.241627516174316
1758274188911880400,1.42688037109375,0.18570026626586913,-8.30563519668579,3.9823055488586423
1758274188921839400,1.43683935546875,0.4896142395019531,-9.715371061706543,5.287295091247558
1758274188931797500,1.446797607421875,-0.2302922721862793,-8.8742580909729,5.690418795776367
1758274188941755400,1.45675537109375,0.029628245544433593,-8.159888170623779,5.02453145904541
1758274188951714300,1.46671435546875,0.7193079612731933,-8.269871809387206,5.181800580596923
1758274188961672200,1.476672119140625,0.6334159767150879,-8.448539108276366,6.291961962890625
1758274188971630300,1.48663037109375,0.00852934341430664,-8.295310202026366,6.574926671600341
1758274188981589200,1.49658935546875,-0.03815758895874023,-8.279448616027832,5.622932236480713
1758274188991547400,1.50654736328125,-0.05491700057983398,-8.39496884613037,4.83314496383667
1758274189001505300,1.51650537109375,-0.16205752487182618,-8.432078971862792,4.598513201141357
1758274189011464400,1.52646435546875,-0.1304839904785156,-8.566154264831543,4.679467144775391
1758274189021422300,1.53642236328125,-0.09292495193481445,-8.639775965881347,4.702810610961913
1758274189031380500,1.54638037109375,-0.06793547210693358,-8.60042127609253,4.89060580368042
1758274189041339400,1.55633935546875,0.14125789794921875,-8.470685473632813,5.275473720550536
1758274189051297500,1.566297607421875,0.2458545829772949,-8.411578620147704,5.242553447723388
1758274189061255400,1.57625537109375,0.2184709014892578,-8.377610884094238,5.402516046142578
1758274189071214300,1.58621435546875,0.16280571289062498,-8.31895294342041,5.644330413818359
1758274189081172500,1.59617236328125,0.06718728408813476,-8.236652261352539,5.3859062721252435
1758274189091130400,1.60613037109375,-0.07945756759643555,-8.229918569183349,5.12000025024414
1758274189101088300,1.616088134765625,-0.19303250885009765,-8.310573237609862,4.924872814941406
1758274189111047400,1.62604736328125,-0.556053335571289,-8.384643851470948,4.653130926513672
1758274189121005300,1.63600537109375,-0.9047089523315429,-8.2996496925354,4.300884007263184
1758274189130963200,1.645963134765625,-0.9009680122375487,-8.166621862792969,4.799476502990722
1758274189140922400,1.65592236328125,-0.501136334991455,-8.252663484954834,5.170428122711181
1758274189150880300,1.66588037109375,-0.36855741806030273,-8.309974687194824,5.171774861145019
1758274189160838400,1.67583837890625,-0.35224691925048823,-8.39496884613037,4.7753848487854
1758274189170797300,1.68579736328125,-0.31184476623535157,-8.28124426727295,4.762516014862061
1758274189180755500,1.69575537109375,-0.303913973236084,-8.088361396026611,4.8427217704772945
1758274189190713300,1.70571337890625,-0.4661211357116699,-7.9566803047180175,4.96033692703247
1758274189200672500,1.715672607421875,-0.510114591217041,-7.902810767364501,5.104886852264404
1758274189210630400,1.72563037109375,-0.6346130775451659,-7.990498403167724,5.166687182617188
1758274189220588500,1.735588623046875,-0.7860463325500487,-8.125621159362792,5.2642509002685545
1758274189230547500,1.74554736328125,-0.7706336593627929,-8.058134600067138,5.476137747192382
1758274189240505300,1.75550537109375,-0.6001964286804199,-7.848193041992187,5.596147105407715
1758274189250463500,1.76546337890625,-0.37888241271972656,-7.587225061035156,5.754762965393066
1758274189260421400,1.77542138671875,0.12015899581909179,-7.471255918121337,5.918616141510009
1758274189270380500,1.785380615234375,0.5392939239501953,-7.710975359344482,6.161328334808349
1758274189280338200,1.795338134765625,1.0446201118469238,-7.893682873535155,6.489932512664795
1758274189290296300,1.80529638671875,1.267280866241455,-8.17185917892456,6.65857409210205
1758274189300255200,1.815255126953125,1.0257657737731933,-8.413374271392822,6.686257048797607
1758274189310213400,1.82521337890625,0.40447044296264645,-8.652495162200927,6.5032502593994135
1758274189320171300,1.835171142578125,-0.34326866302490233,-8.95700768585205,6.448782171630859
1758274189330130400,1.84513037109375,-0.7046434761047363,-9.432705628204346,6.547393352508545
1758274189340088300,1.85508837890625,-0.8672995513916015,-10.20827732849121,6.740575498962402
1758274189350046500,1.86504638671875,-1.114650510406494,-11.193491311645507,6.759130561828613
1758274189360005400,1.87500537109375,-1.4413093994140624,-12.147879948425292,6.57552522201538
1758274189369963500,1.884963623046875,-2.0006547622680664,-12.805836492156981,6.583156739807128
1758274189379921400,1.89492138671875,-2.044797855377197,-13.027898696136473,6.676530604553222
1758274189389880300,1.90488037109375,-1.135150862121582,-12.791321644592285,6.994061599731445
1758274189399838500,1.91483837890625,-0.2659060218811035,-12.133065825653075,7.526322556304931
1758274189409796400,1.92479638671875,-0.2819172454833984,-12.061987963867187,8.166472225189208
1758274189419754500,1.93475439453125,-1.1610381675720214,-12.61579673538208,8.792256684112548
1758274189429713400,1.94471337890625,-2.3995886138916016,-12.983306690216065,9.572616787719726
1758274189439671300,1.95467138671875,-3.452588431549072,-12.712163352203369,9.90181951599121
1758274189449629200,1.964629150390625,-3.4579753852844237,-11.225064846038817,9.492411032104492
1758274189459588400,1.97458837890625,-2.6473884857177734,-9.963919121551513,8.530241239929198
1758274189469546200,1.984546142578125,-1.6472107421875,-9.6020953956604,7.59066672592163
1758274189479504400,1.99450439453125,-0.49200844116210934,-9.542689266967773,6.472724188232421
1758274189489463300,2.00446337890625,0.2302922721862793,-9.74185691757202,5.520131202697754
1758274189499421400,2.01442138671875,0.36391865234375,-9.963170933532714,5.180453842163086
1758274189509379300,2.02437939453125,0.35628713455200195,-10.237755936431885,4.897339495849609
1758274189519338500,2.03433837890625,-0.09995791931152344,-10.69265425186157,4.6161704383850095
1758274189529296400,2.04429638671875,-0.5098153160095215,-10.774954933929443,4.744260227203369
1758274189539254500,2.054254638671875,-0.6034884559631347,-10.714800617218017,4.7761330368041985
1758274189549213400,2.06421337890625,-0.8099883491516113,-10.615890161132812,4.806659107971191
1758274189559171300,2.07417138671875,-0.8993219985961913,-10.628160444641113,4.642805931854248
1758274189569129500,2.08412939453125,-0.9828197814941406,-10.816254912567137,4.023455889892578
1758274189579088400,2.09408837890625,-0.7172130348205566,-10.778995149230957,4.014477633666992
1758274189589046500,2.104046630859375,-0.20380641632080077,-10.401459474945067,3.769969789123535
1758274189599004200,2.114004150390625,-0.2950853546142578,-9.87608184814453,3.7114614860534667
1758274189608962800,2.123962890625,-0.4676175117492676,-9.158270262908935,3.556586566162109
1758274189618921700,2.133921630859375,-1.1358990501403807,-8.471583299255371,4.133289891052246
1758274189628880000,2.1438798828125,-1.1897685874938964,-8.378807984924316,4.673780915832519
1758274189638837800,2.153837646484375,-0.6079775840759277,-8.686013985443115,4.02839393081665
1758274189648796700,2.163796630859375,0.05776011505126953,-8.28079535446167,4.038419650268555
1758274189658754800,2.1737548828125,-1.2174515441894531,-7.927351334381103,3.6831799789428707
1758274189668712700,2.183712646484375,-1.9997569366455077,-8.285883032989501,3.4090438888549803
1758274189678672000,2.193671875,-1.4565724349975586,-8.62496184310913,3.1048306404113766
1758274189688629500,2.20362939453125,-1.350180098724365,-8.776095822906493,3.0193875686645506
1758274189698587600,2.213587646484375,-1.6199766983032227,-9.045144234466552,3.4205659843444822
1758274189708546600,2.223546630859375,-1.034893667602539,-9.038410542297363,3.8099230293273925
1758274189718504700,2.233504638671875,-1.6255132896423339,-8.164078023529052,4.188655804443359
1758274189728462600,2.243462646484375,-2.034472860717773,-7.53320588607788,4.313303928375244
1758274189738421800,2.253421875,-1.7989432723999021,-7.237821256256103,4.340986885070801
1758274189748379600,2.263379638671875,-1.585260774230957,-7.412747615051269,3.907337109375
1758274189758337800,2.273337890625,-1.0209773704528808,-7.24635059967041,3.6548984718322752
1758274189768295700,2.283295654296875,-0.8162731285095214,-7.009324635314941,4.57127915725708
1758274189778254800,2.2932548828125,-0.9130886581420898,-6.711994716644287,5.180154566955566
1758274189788212700,2.303212646484375,-1.3853449356079102,-6.560262186431884,5.109375980377197
1758274189798171000,2.3131708984375,-1.5349825393676757,-6.582558189392089,5.773318028259277
1758274189808129800,2.3231298828125,-2.339284659576416,-6.341043096923828,5.661389100646972
1758274189818088000,2.333087890625,-1.9463363121032713,-5.730372035980224,5.304353778076171
1758274189828045600,2.343045654296875,-1.7146973014831541,-5.085882876586914,5.666327141571045
1758274189838004700,2.353004638671875,-2.139219183349609,-5.054159704589844,5.532850399017334
1758274189847962600,2.362962646484375,-2.6330232757568357,-5.241954897308349,3.8385038116455075
1758274189857920800,2.372920654296875,-3.1932664642333983,-5.409249738311767,2.0395605392456053
1758274189867879700,2.382879638671875,-3.303100465393066,-5.496189186096191,0.8518868782043456
1758274189877837600,2.392837646484375,-3.177853791046142,-5.201552744293212,0.17163433151245117
1758274189887795700,2.402795654296875,-3.0551509559631347,-4.779724339294433,0.03486556167602539
1758274189897753600,2.412753662109375,-2.900276036071777,-4.44333900604248,0.07885901718139648
1758274189907712800,2.422712646484375,-3.0348002418518063,-4.241627516174316,0.15367781906127928
1758274189917670700,2.432670654296875,-3.2692823669433593,-4.19479094619751,0.5500678314208984
1758274189927628800,2.44262890625,-3.582024958801269,-3.8605005393981933,1.0911574066162109
1758274189937587700,2.452587646484375,-3.8352117843627926,-3.8166567214965816,1.5318401496887206
1758274189947545900,2.4625458984375,-4.010736693572998,-4.0991725173950195,1.923591396331787
1758274189957503700,2.472503662109375,-4.206462679290771,-4.408922357177734,2.428468671417236
1758274189967462700,2.482462646484375,-4.7301942924499505,-4.637867890930176,3.0096611244201656
1758274189977420800,2.4924208984375,-5.44561167602539,-4.74964718093872,3.617937983703613
1758274189987379000,2.50237890625,-6.304082608795166,-4.671386714172363,4.2408793281555175
1758274189997337900,2.512337890625,-7.0275804229736325,-4.45605820236206,4.765209491729736
1758274190007295500,2.52229541015625,-7.644236988067626,-4.332158266448975,5.122394451904297
1758274190017253600,2.532253662109375,-8.525602474212645,-4.1754876953124995,5.461622899627685
1758274190027211800,2.542211669921875,-10.345046098327636,-4.021061688232422,5.8183589469909665
1758274190037170700,2.552170654296875,-12.984204515838622,-3.5344402008056637,6.846668560028076
1758274190047128600,2.562128662109375,-14.79915901184082,-2.9008745864868164,8.558373109436035
1758274190057086700,2.572086669921875,-14.780753586578369,-4.113687364959716,10.67454810180664
1758274190067045600,2.582045654296875,-11.512069770050049,-6.664110683441161,11.899182250976562
1758274190077003800,2.592003662109375,-3.224540723419189,-9.286958602142333,8.145074047851562
1758274190086961700,2.601961669921875,4.651185637664795,-9.178471339416504,2.163460475158691
1758274190096920800,2.6119208984375,0.11656769332885741,-6.15429536743164,0.2893991256713867
1758274190106878700,2.621878662109375,-13.154043196105956,-8.356212706756592,-1.2198457458496093
1758274190116836900,2.6318369140625,-17.34569175262451,-10.816853462982177,0.22774843292236327
1758274190126795800,2.641795654296875,-6.9333087326049805,-10.736797344970702,6.0395233253479
1758274190136754000,2.65175390625,-0.9671078330993652,-10.990881996154785,8.112602687835693
1758274190146711800,2.6617119140625,-1.5427636947631835,-11.008838508605956,6.909366716003418
1758274190156669700,2.671669677734375,-0.24735095901489257,-10.491391674804687,5.528361270904541
1758274190166628900,2.68162890625,-2.6900352027893066,-9.82610288848877,4.525190775299072
1758274190176586800,2.691586669921875,-3.674052085113525,-9.389161085510253,4.490325213623047
1758274190186544600,2.701544677734375,-1.3462895210266113,-9.075071755218506,4.882525373077392
1758274190196503600,2.711503662109375,-2.22151986541748,-8.844779483032227,5.148132119750977
1758274190206461700,2.721461669921875,-3.3508348609924314,-8.894459167480468,5.472696082305908
1758274190216419600,2.731419677734375,-3.084928839111328,-8.962095364379882,5.956923368072509
1758274190226378800,2.741378662109375,-2.7482442306518555,-8.811709572601318,6.402244876861572
1758274190236336600,2.751336669921875,-2.4971523315429685,-8.655487914276122,6.634931350708007
1758274190246294800,2.761294677734375,-2.5215432609558106,-8.654889363861084,6.6346320755004875
1758274190256253700,2.771253662109375,-1.73654439163208,-8.3885344291687,6.497863305664062
1758274190266211800,2.7812119140625,-0.9956886154174804,-7.931690824890136,6.1936500572204585
1758274190276169700,2.791169677734375,-0.6871358764648438,-7.521085240173339,6.091297936248779
1758274190286128600,2.801128662109375,-0.7565677246093749,-7.458087808990478,5.753565864562988
1758274190296086800,2.811086669921875,-0.7320271575927734,-7.464522225952148,5.512948597717285
1758274190306045000,2.821044921875,-0.4795885200500488,-7.390152336883545,5.567566323089599
1758274190316002600,2.83100244140625,-0.4605845443725586,-7.3840171951293945,5.723039793395996
1758274190325961700,2.840961669921875,-0.5687725318908691,-7.191732874298095,6.113893214416503
1758274190335919600,2.850919677734375,-0.12524667434692383,-6.993612686920166,6.356904682922363
1758274190345877800,2.860877685546875,0.05102642288208008,-6.835595377349853,6.282684431457519
1758274190355836700,2.870836669921875,0.0618003303527832,-6.452972024536132,6.016479134368896
1758274190365794600,2.880794677734375,0.7257423782348632,-6.158335582733154,5.719897403717041
1758274190375752700,2.890752685546875,0.9412205276489257,-6.278943491363525,6.0012160987854
1758274190385711600,2.900711669921875,0.9320926338195801,-6.694187841796874,6.590638619995117
1758274190395669800,2.910669677734375,1.1330559356689451,-6.858041017913818,6.688351975250244
1758274190405627600,2.920627685546875,-0.0028431144714355467,-6.376207933807373,6.469432160949706
1758274190415586800,2.9305869140625,-0.7914332862854003,-6.188562378692627,6.270114872741699
1758274190425544700,2.940544677734375,-1.1113584831237793,-6.670395462799072,5.9379193923950195
1758274190435502800,2.9505029296875,-1.6555904479980468,-7.655609445953369,4.970213008880615
1758274190445460700,2.960460693359375,-1.8761562759399413,-8.12098239364624,4.009838867950439
1758274190455420000,2.970419921875,-1.5219640678405761,-7.605780123901367,3.6745009979248047
1758274190465377800,2.980377685546875,-1.3672387855529784,-7.184550269317627,3.65804086151123
1758274190475336000,2.9903359375,-1.7631798851013183,-6.93315909500122,3.7102643852233883
1758274190485294800,3.000294921875,-1.6874632575988768,-6.627449470520019,3.8138136070251463
1758274190495252700,3.010252685546875,-0.9142857589721679,-6.95844785003662,4.217236586761475
1758274190505210600,3.020210693359375,-0.4248211570739746,-7.513603359985352,4.294599227905273
1758274190515169500,3.03016943359375,0.6163572898864745,-7.57151311264038,3.693804248809814
1758274190525127700,3.040127685546875,0.5205892234802246,-7.545027256774902,4.174140956878662
1758274190535085600,3.05008544921875,0.048931496429443354,-7.582586295318603,4.6438533950805665
1758274190545044700,3.060044677734375,-0.04384381790161133,-7.783699234771728,5.187935722351074
1758274190555002600,3.070002685546875,0.013467384338378905,-7.612813091278076,6.05239215927124
1758274190564960800,3.079960693359375,0.016460136413574217,-7.596652230072021,6.248267782592773
1758274190574918700,3.089918701171875,0.06419453201293945,-7.707982607269287,6.218040986633301
1758274190584877800,3.0998779296875,0.32785598983764647,-7.69960290145874,6.396259372711182
1758274190594835700,3.109835693359375,0.4917091659545898,-7.791181114959716,6.668899086761474
1758274190604793900,3.1197939453125,0.2246060432434082,-7.8818615028381345,6.957101111602783
1758274190614752000,3.129751953125,-0.07032967376708985,-7.781305033111572,7.002590943145751
1758274190624710100,3.139710205078125,-0.18465280303955078,-7.659051110839843,7.119308274078369
1758274190634667800,3.149667724609375,0.07826046676635742,-7.5625348564147945,7.274632106781006
1758274190644627000,3.159626953125,0.36436756515502927,-7.577348979187011,7.247248425292969
1758274190654584800,3.169584716796875,0.29837738189697266,-7.905504244232177,6.82512074508667
1758274190664543000,3.17954296875,-0.25258827514648435,-8.793004872131347,6.114042852020264
1758274190674500900,3.1895009765625,-0.8280944992065429,-9.874136559295653,5.521627578735351
1758274190684460000,3.1994599609375,-0.8840589630126953,-10.913220079803466,5.175216526031494
1758274190694418000,3.20941796875,-0.7248445526123046,-12.364854473876953,4.760421088409424
1758274190704376000,3.2193759765625,-0.8445546356201171,-13.327622816467285,4.37959338684082
1758274190714335000,3.2293349609375,-1.2075754623413084,-13.484891938018798,4.914847095489502
1758274190724293000,3.239293212890625,-1.181688156890869,-13.41306588821411,5.913378825378418
1758274190734251000,3.2492509765625,-0.9861118087768554,-13.442245220947266,6.835445739746094
1758274190744210000,3.2592099609375,-0.8767267204284668,-13.167809855651855,7.858218761444092
1758274190754168000,3.26916796875,-0.790385823059082,-12.75570789489746,8.434772448730468
1758274190764126000,3.2791259765625,-1.0735001693725585,-12.095955699920653,8.160636358642577
1758274190774085000,3.289085205078125,-1.593490842437744,-11.452514003753661,7.599794619750976
1758274190784043000,3.29904296875,-1.6531962463378904,-11.017667127227783,7.07366880493164
1758274190794001000,3.3090009765625,-1.4021043472290038,-10.677391216278076,6.279542041778564
1758274190803958800,3.318958740234375,-1.3067851936340331,-10.334421828460693,5.698798501586913
1758274190813918000,3.32891796875,-1.5744868667602538,-10.257059187316894,5.379771130371093
1758274190823875800,3.338875732421875,-1.5376760162353516,-10.177900894927978,5.236717581176758
1758274190833834000,3.348833984375,-1.284489190673828,-10.299556266784668,5.366902296447754
1758274190843793000,3.35879296875,-1.1942577156066894,-10.634744499206542,5.795314756011963
1758274190853751000,3.3687509765625,-1.1139023223876952,-10.98175410232544,5.82254879989624
1758274190863709000,3.378708984375,-1.0613795234680174,-10.843040043640135,5.956175180053711
1758274190873667800,3.388667724609375,-1.4053963745117186,-10.85950018005371,6.119280168151855
1758274190883626000,3.3986259765625,-1.412130066680908,-11.106551863861084,5.679794525909424
1758274190893584100,3.408584228515625,-0.9695020347595215,-11.357045212554931,4.96677134399414
1758274190903542000,3.4185419921875,-0.29403789138793945,-11.029638135528565,4.3065702362060545
1758274190913501000,3.4285009765625,0.21921908950805663,-10.72018757095337,4.093635926055908
1758274190923459000,3.438458984375,0.5511152946472168,-10.651653548431396,3.9092823982238767
1758274190933417000,3.4484169921875,0.7059902145385741,-10.475829364013672,3.6100071907043456
1758274190943376100,3.458376220703125,-0.1096843635559082,-9.865307940673828,3.5441666450500486
1758274190953333800,3.468333740234375,-0.9307458953857422,-9.401880281829833,3.7077205459594724
1758274190963292000,3.4782919921875,-1.4321815055847167,-9.133430420684814,3.6323031936645505
1758274190973250800,3.488250732421875,-1.9815011489868164,-9.221118056488036,3.584119885253906
1758274190983209000,3.498208984375,-2.7118822929382325,-8.999953678131103,4.202871376800537
1758274190993166800,3.508166748046875,-1.8285715179443358,-8.44659381942749,3.984250837707519
1758274191003126000,3.5181259765625,-1.510441972351074,-8.231265307617187,4.089146797943115
1758274191013084000,3.528083984375,-1.5129858116149901,-8.123376595306397,4.069693909454346
1758274191023042000,3.5380419921875,-1.3643956710815428,-7.821557548522949,4.356249920654297
1758274191033000000,3.548,-0.6229413444519043,-7.446266438293456,4.650736724853515
1758274191042958800,3.557958740234375,-0.38052842636108397,-7.425616448974609,4.436006763458252
1758274191052917000,3.5679169921875,-0.1427542739868164,-7.554753701019287,3.8284780921936035
1758274191062875100,3.577875244140625,0.21966800231933592,-6.728155577850341,3.5134909362792968
1758274191072834000,3.587833984375,-0.048183308410644526,-5.980715747070312,4.167556902313232
1758274191082792000,3.5977919921875,-0.5828384666442871,-6.184073250579834,4.1301475013732905
1758274191092750000,3.60775,-0.6660369743347168,-6.138882694244384,4.000112423706055
1758274191102708000,3.6177080078125,-1.3344681503295899,-5.897816514587402,3.6049195121765134
1758274191112667100,3.627667236328125,-2.005293527984619,-5.68862314453125,3.3283892204284666
1758274191122624800,3.637624755859375,-1.952321816253662,-5.482721801757812,3.7172973526000974
1758274191132583000,3.6475830078125,-2.126350349426269,-5.250035327911377,3.2212486961364744
1758274191142541800,3.657541748046875,-2.7588685005187985,-4.677821131134033,2.194734734344482
1758274191152500000,3.6675,-3.4572271972656248,-4.453364725494384,1.7932570434570312
1758274191162457900,3.677457763671875,-3.809474116516113,-4.352060067749023,1.465251416015625
1758274191172417000,3.6874169921875,-4.0161236473083495,-4.160224659729003,1.0781389350891113
1758274191182375000,3.697375,-4.064905506134033,-4.062511304473877,1.1059715293884276
1758274191192333000,3.7073330078125,-4.203619564819336,-4.508730638885498,0.9868599967956543
1758274191202291000,3.717291015625,-4.116680117034912,-4.893149642944335,1.3620014694213867
1758274191212250000,3.72725,-3.857956700134277,-4.741866025543213,1.9077298103332518
1758274191222208000,3.7372080078125,-3.789123402404785,-4.537760334014893,2.340481760406494
1758274191232166100,3.747166259765625,-3.8889316841125487,-4.419247351837158,2.6378116790771484
1758274191242125000,3.757125,-4.209455431365966,-4.4087727195739745,3.040336833190918
1758274191252083000,3.7670830078125,-4.525938963317871,-4.384980340576171,3.4606688621520996
1758274191262040800,3.777040771484375,-5.003731832122803,-4.463091169738769,3.9074867469787598
1758274191272000000,3.787,-5.765387235260009,-4.46907667388916,4.140921408843994
1758274191281958000,3.7969580078125,-6.778882725524902,-4.413112210083008,4.0924388252258295
1758274191291915800,3.806915771484375,-7.9378259666442865,-4.303427846527099,4.018667486572266
1758274191301875000,3.816875,-9.10978767929077,-4.031237045288086,4.219181875610351
1758274191311832800,3.826832763671875,-9.809044201660155,-3.969287077331543,4.387973092651367
1758274191321791000,3.836791015625,-9.827898539733885,-4.083161293792724,4.458602041625976
1758274191331748900,3.846748779296875,-8.949675443267822,-4.570680606842041,4.136432280731201
1758274191341708000,3.8567080078125,-7.548917834472656,-5.240608158874512,3.250876941680908
1758274191351666000,3.866666015625,-5.895272675323486,-5.531653298187256,2.402581365966797
1758274191361624000,3.8766240234375,-4.113687364959716,-5.296572622680664,2.0439000297546386
1758274191371583000,3.8865830078125,-7.221959670257568,-7.211036125183105,2.3157915557861326
1758274191381541000,3.896541015625,-13.824718936157225,-12.192771229553221,4.68590156173706
1758274191391499000,3.9064990234375,-13.766360270690917,-16.246753190612793,7.726238394927978
1758274191401457200,3.91645703125,-8.629301333618164,-16.117466300964356,11.35779340057373
1758274191411416000,3.926416015625,2.9761423011779784,-13.652037141418456,10.292224024200438
1758274191421374200,3.936374267578125,3.0404864707946775,-8.626158943939208,8.097489289855957
1758274191431331800,3.946331787109375,-3.944896147918701,-6.802675104522705,4.613476961517334
1758274191441290800,3.956290771484375,-6.75464143371582,-6.7286044906616205,2.4685715492248534
1758274191451249000,3.966248779296875,-4.069394634246826,-6.36513475112915,2.334047343444824
1758274191461207000,3.97620703125,-1.7401356941223143,-6.68461103515625,2.754828285217285
1758274191471166000,3.986166015625,-1.3013982398986816,-7.76289960784912,3.338265302276611
1758274191481123800,3.996123779296875,-3.158251264953613,-9.368211820983886,4.108450048828125
1758274191491082000,4.00608203125,-4.108001136016846,-10.673500638580322,4.801721067047119
1758274191501039900,4.016039794921875,-2.4869769744873045,-10.98729069366455,5.303455952453613
1758274191510999000,4.0259990234375,-1.7776947326660155,-10.454281549072265,5.738901379394531
1758274191520957000,4.03595703125,-1.4341267944335936,-9.643844287109374,6.238092425537109
1758274191530915000,4.0459150390625,-1.248725803375244,-8.993668898773192,6.827514946746826
1758274191540874000,4.0558740234375,-1.0226233840942383,-8.577077809906005,7.059004319763183
1758274191550832000,4.06583203125,-0.7248445526123046,-8.335712355041503,6.553378856658935
1758274191560790000,4.0757900390625,-0.6332663391113281,-8.181735260772705,5.81611438293457
1758274191570749000,4.0857490234375,-0.6700771896362304,-7.979724495697021,4.862922846984863
1758274191580707000,4.09570703125,-0.6624456718444823,-7.8724343338012694,4.047996456909179
1758274191590665000,4.1056650390625,-0.8396165946960449,-7.746589109039306,3.461566687774658
1758274191600622800,4.115622802734375,-1.4680945304870605,-7.624784099578857,3.246537451171875
1758274191610582500,4.12558251953125,-1.4170681076049805,-7.576600791168213,3.21122297668457
1758274191620540700,4.135540771484375,-0.7606079399108886,-7.5327569732666015,3.614945231628418
1758274191630498600,4.14549853515625,-0.45115737533569333,-7.468412803649902,4.312705377960205
1758274191640457700,4.155457763671875,0.4748001167297363,-7.382670456695556,5.163844068145751
1758274191650415600,4.16541552734375,1.6377835731506347,-7.499986338043213,6.156240656280517
1758274191660373800,4.175373779296875,1.8034324005126952,-7.202357144165038,6.899640271759033
1758274191670332700,4.185332763671875,1.2440870376586914,-7.079504671478271,6.430077471160888
1758274191680290800,4.195290771484375,0.5934627365112304,-7.075614093780517,5.635202519989013
1758274191690248700,4.205248779296875,-0.14559738845825196,-6.995857250976562,5.502025052642822
1758274191700206800,4.215206787109375,-1.0703577796936035,-6.68416212234497,6.030694706726074
1758274191710165800,4.225165771484375,-1.0467150382995605,-6.700322983551025,6.4920274391174315
1758274191720123600,4.23512353515625,-1.234809506225586,-6.962936978149414,6.508786850738525
1758274191730081500,4.24508154296875,-1.6359879219055176,-7.104943064117431,5.82224952468872
1758274191740040400,4.25504052734375,-1.5632640464782714,-6.95231270828247,5.544821407318115
1758274191749998600,4.26499853515625,-1.0893617553710937,-6.8599863067626945,5.558887342071533
1758274191759956500,4.27495654296875,-1.1646294700622557,-6.886023249816894,5.482721801757812
1758274191769914600,4.28491455078125,-0.9144353965759277,-6.9235822883605955,5.203946945953369
1758274191779873500,4.29487353515625,-0.4607341819763183,-7.356184600830078,4.891353991699218
1758274191789831700,4.304831787109375,-0.23433248748779295,-7.839364423370361,4.910806880187988
1758274191799789600,4.31478955078125,-0.40491935577392574,-7.868094843292236,5.114463658905029
1758274191809748700,4.324748779296875,-0.48617257461547847,-7.562834131622314,4.860528645324707
1758274191819706600,4.33470654296875,-0.5054758255004882,-7.306953829193115,4.9461213546752925
1758274191829664800,4.344664794921875,-0.6513724891662598,-7.360673728942871,5.147234294128418
1758274191839623700,4.354623779296875,-0.7164648468017578,-7.4880153297424314,5.427355888366699
1758274191849581800,4.364581787109375,-0.680551821899414,-7.568071447753906,5.850231756591796
1758274191859539700,4.374539794921875,-0.8294412376403808,-7.603834835052489,5.996128420257568
1758274191869497600,4.38449755859375,-0.7032967376708984,-7.492354820251465,6.150853702545166
1758274191879456500,4.39445654296875,-0.3215712104797363,-7.270741529083251,6.28178660583496
1758274191889414700,4.40441455078125,-0.22909517135620117,-7.0281789733886715,6.2496145210266105
1758274191899372500,4.41437255859375,-0.5285200164794922,-7.214777065277099,6.336853244018554
1758274191909331500,4.42433154296875,-0.8114847251892089,-7.517942850494384,6.49935968170166
1758274191919289600,4.43428955078125,-1.0251672233581541,-7.73147571105957,6.831854437255859
1758274191929247700,4.444247802734375,-1.0513538040161132,-8.166621862792969,7.2054995338439936
1758274191939205600,4.45420556640625,-1.1104606575012206,-8.510788351440429,7.594407666015624
1758274191949164500,4.46416455078125,-0.9689034843444824,-8.908824377441405,7.770082212829589
1758274191959122700,4.474122802734375,-0.9503484214782715,-9.148992731475829,7.557596815490722
1758274191969080600,4.48408056640625,-0.9868599967956543,-9.39694224090576,7.021445281219482
1758274191979039700,4.494039794921875,-1.1968015548706055,-9.65237363052368,6.533477055358886
1758274191988997600,4.50399755859375,-1.1305120964050293,-10.30479358291626,6.269965235137939
1758274191998955800,4.513955810546875,-0.7996633544921875,-11.60604218521118,6.19933628616333
1758274192008914700,4.523914794921875,-0.5018845230102539,-12.548310176086424,6.28837066040039
1758274192018872800,4.533872802734375,-0.503081623840332,-12.432341033172607,6.3076739112854
1758274192028830500,4.54383056640625,-0.40177696609497066,-12.191424491119385,6.888118176269531
1758274192038788600,4.55378857421875,-0.00239420166015625,-12.57015726623535,8.023568313598632
1758274192048747500,4.56374755859375,-0.1913864952087402,-13.36877315750122,9.059509444427489
1758274192058705700,4.57370556640625,-1.4178162956237792,-14.00787536315918,9.572317512512207
1758274192068663600,4.58366357421875,-2.9602807151794432,-13.812299015045165,9.267505713653565
1758274192078622500,4.59362255859375,-4.255843088531494,-12.628815206909179,8.492981476593018
1758274192088580600,4.60358056640625,-4.812794249725341,-11.202619205474853,8.156745780944824
1758274192098538800,4.613538818359375,-4.356848471069336,-10.325742847442626,8.085967194366454
1758274192108496600,4.62349658203125,-3.680037589263916,-9.757419228363036,7.713818473815918
1758274192118455600,4.63345556640625,-3.2817022880554196,-9.330353507232665,6.86956311340332
1758274192128413700,4.64341357421875,-2.9728502738952636,-9.122357238006591,6.185270351409912
1758274192138371600,4.65337158203125,-2.362628125762939,-8.498518067932128,5.733963338470459
1758274192148330800,4.663330810546875,-2.7226562004089354,-8.478167353820801,5.984456687164307
1758274192158288600,4.67328857421875,-2.9510031837463377,-9.18086554107666,6.778882725524902
1758274192168246800,4.683246826171875,-2.6850971618652344,-10.27845736465454,6.563404576110839
1758274192178205700,4.693205810546875,-2.3313538665771483,-10.950629480743407,5.495889910888671
1758274192188163600,4.70316357421875,-1.607556777191162,-11.148600030517578,4.7764323120117185
1758274192198121500,4.71312158203125,-0.34222119979858395,-11.583147631835937,4.189852905273438
1758274192208079600,4.72307958984375,0.3238157745361328,-11.436053867340087,3.966593600463867
1758274192218038500,4.73303857421875,0.532410594177246,-11.090540640258789,3.923797245788574
1758274192227996700,4.74299658203125,1.0558429321289062,-10.306888509368896,3.4295442405700682
1758274192237954600,4.75295458984375,1.5882535263061524,-9.430012151336669,3.12173968963623
1758274192247913500,4.76291357421875,1.1233294914245604,-9.224709358978272,3.451391330718994
1758274192257871600,4.77287158203125,0.14514847564697264,-9.205106832885741,3.456479009246826
1758274192267829800,4.782829833984375,-0.8794201972961425,-9.119514123535156,2.7281927917480466
1758274192277787600,4.79278759765625,-2.1238065101623533,-8.488492348480223,2.777872476196289
1758274192287746600,4.80274658203125,-2.3126491661071777,-8.030302005767822,2.8281507110595703
1758274192297704700,4.81270458984375,-2.5822961280822754,-7.979125945281982,2.9981390289306638
1758274192307662800,4.822662841796875,-2.5335142692565915,-8.227374729919433,2.8467057739257813
1758274192317621800,4.832621826171875,-2.7641058166503907,-8.294711651611328,3.2939725715637205
1758274192327579600,4.84257958984375,-2.760065601348877,-8.577077809906005,3.2794577239990232
1758274192337537500,4.85253759765625,-2.0171148986816405,-8.311171788024902,2.925864066314697
1758274192347495700,4.86249560546875,-1.4598644622802734,-7.6765587104797355,3.7675755874633787
1758274192357454600,4.87245458984375,-1.2805986129760742,-6.809109521484374,4.338742321014404
1758274192367412500,4.88241259765625,-0.9639654434204101,-6.017526597595214,4.869955814361572
1758274192377370600,4.89237060546875,-0.6405985816955566,-5.236717581176758,4.665251572418213
1758274192387329500,4.90232958984375,-0.2699462371826172,-4.733935232543945,4.457255303192138
1758274192397287700,4.91228759765625,-1.1742062767028807,-4.897489133453369,4.435108937835693
1758274192407245600,4.92224560546875,-1.4634557647705078,-4.623203405761719,4.122964896392822
1758274192417203700,4.93220361328125,-1.8121113815307617,-4.210802169799805,2.9652187561035155
1758274192427162600,4.94216259765625,-2.2373814514160153,-4.166808714294433,1.65992993850708
1758274192437120800,4.952120849609375,-2.9001263984680175,-4.170549654388427,1.125574055480957
1758274192447078700,4.96207861328125,-3.348440659332275,-4.050540296173096,0.9789292037963867
1758274192457037600,4.97203759765625,-3.8079777404785156,-4.550329892730713,0.6040870063781738
1758274192466995700,4.98199560546875,-3.7439328460693355,-4.89689058303833,0.7535749725341796
1758274192476953900,4.991953857421875,-3.8961142890930174,-5.008669873046875,1.0908581314086914
1758274192486911500,5.001911376953125,-3.8226422256469723,-5.067627088928222,1.098788924407959
1758274192496870700,5.01187060546875,-3.5583822174072264,-4.8701054519653315,1.068113215637207
1758274192506828500,5.02182861328125,-3.5048119552612302,-4.586691830444336,1.1047744285583496
1758274192516786700,5.03178662109375,-3.7716158027648925,-4.452766175079345,1.1309610092163085
1758274192526745600,5.04174560546875,-4.0988732421875,-4.420294815063476,1.3558663276672362
1758274192536703500,5.051703369140625,-4.427028507232666,-4.416254599761962,1.8085200790405271
1758274192546661600,5.06166162109375,-5.392939239501953,-4.481047682189941,2.398391513061523
1758274192556619500,5.07161962890625,-6.634781713104248,-4.48778137435913,3.1871313224792477
1758274192566578700,5.08157861328125,-8.186972576904296,-4.478503842926025,4.022408426666259
1758274192576536600,5.09153662109375,-9.560346504211426,-4.4689270362854,4.825663083648681
1758274192586494700,5.10149462890625,-10.371232678985596,-4.46862776107788,5.272181693267822
1758274192596453600,5.11145361328125,-10.897807406616211,-4.431966548156738,5.097554609680175
1758274192606411800,5.121411865234375,-11.210400360870361,-4.603301604461669,4.566640391540527
1758274192616368600,5.13136865234375,-11.68894141769409,-4.699518583679199,4.287266985321045
1758274192626326500,5.141326416015625,-10.17700306930542,-4.383035051727295,4.661510632324219
1758274192636285400,5.151285400390625,-8.244583054351805,-6.181529411315918,5.244947649383545
1758274192646243600,5.16124365234375,-8.454674250030518,-10.980557001495361,5.730372035980224
1758274192656201700,5.17120166015625,-6.347178238677978,-14.945055675506591,5.724236894226074
1758274192666160600,5.18116064453125,-4.34757093963623,-15.2064725692749,6.561908200073241
1758274192676118500,5.191118408203125,-3.7116111236572262,-13.98168878250122,3.8615480026245117
1758274192686076700,5.20107666015625,-4.008641767120361,-9.31434228363037,4.980687641143798
1758274192696035600,5.21103564453125,-4.158728283691406,-5.75865354309082,6.286575009155273
1758274192705993700,5.22099365234375,-5.118204598999023,-6.458957528686523,3.7747581924438474
1758274192715951600,5.23095166015625,-5.039345581817627,-6.73518854522705,2.625691033172607
1758274192725909800,5.24090966796875,-3.772363990783691,-6.923731925964355,2.6110265480041503
1758274192735868700,5.25086865234375,-2.6788123825073242,-7.774720978546142,3.148075907897949
1758274192745826800,5.260826904296875,-0.9527426231384277,-9.076867406463622,3.6228760246276854
1758274192755784700,5.27078466796875,-2.3855226791381834,-10.376170719909668,4.544942938995361
1758274192765742600,5.28074267578125,-2.9836241813659665,-10.934618257141112,5.798756420898437
1758274192775701500,5.290701416015625,-1.7221791816711425,-10.836904901885985,6.547692627716064
1758274192785659600,5.30065966796875,-1.128716445159912,-10.20782841567993,7.132626020812988
1758274192795617500,5.310617431640625,-1.0657190139770507,-9.26466259918213,7.351545835113525
1758274192805576400,5.320576416015625,-0.7532756973266601,-8.16467657394409,7.255777768707275
1758274192815534600,5.33053466796875,-0.9701005851745604,-7.5074682182312005,6.876745718383789
1758274192825492700,5.34049267578125,-1.0468646759033202,-7.448211727142334,5.709871684265137
1758274192835450600,5.35045068359375,-0.5903203468322754,-7.473799757385254,4.697722932434082
1758274192845409500,5.360409423828125,-0.4782417816162109,-7.61041888961792,3.9537247665405273
1758274192855367700,5.37036767578125,-0.6259340965270995,-7.832331455993652,3.6750995483398436
1758274192865325600,5.38032568359375,-0.5481225425720214,-8.043170839691161,4.07298593673706
1758274192875284700,5.39028466796875,-0.6896797157287597,-7.979574858093261,4.820725042724609
1758274192885242600,5.40024267578125,-0.7392097625732421,-7.8918872222900385,5.286696540832519
1758274192895200800,5.41020068359375,-0.4391863670349121,-7.62927322769165,5.559635530090332
1758274192905159700,5.42015966796875,0.3142389678955078,-7.464821501159667,5.828235028839111
1758274192915117800,5.430117919921875,1.0556932945251465,-7.5816884696960445,6.191555130767822
1758274192925074700,5.44007470703125,1.2140098793029785,-7.689726819610596,6.328024625396728
1758274192935033600,5.45003369140625,0.6072293960571289,-7.504774741363525,5.436334144592285
1758274192944991500,5.459991455078125,0.2781763053894043,-7.503278365325928,4.650437449645996
1758274192954949600,5.46994970703125,0.44577042160034175,-7.3472063446044915,4.235043461608886
1758274192964908500,5.479908447265625,-0.9858125335693358,-7.083395249176025,4.455609289550781
1758274192974866700,5.48986669921875,-1.2648866645812988,-6.948871043395996,5.012710088348388
1758274192984824600,5.499824462890625,-0.7466916427612305,-6.854300077819824,5.591957252502441
1758274192994782700,5.50978271484375,-0.9666589202880859,-7.378330966186523,5.221005632781982
1758274193004741600,5.51974169921875,-1.4695909065246582,-7.62957250289917,4.744709140014648
1758274193014699800,5.52969970703125,-1.2891279563903808,-7.566575071716308,4.774935935974121
1758274193024657700,5.53965771484375,-0.6048351943969726,-7.249642626953125,4.921580787658691
1758274193034616800,5.549616943359375,-0.316034619140625,-7.083993799591064,4.780023614501953
1758274193044574700,5.55957470703125,-0.11252747802734374,-7.1303814567565915,4.6987703956604
1758274193054532600,5.56953271484375,-0.1592144104003906,-7.302015788269043,4.805162731933594
1758274193064490500,5.579490478515625,-0.16205752487182618,-7.554903338623046,5.240458521270751
1758274193074449700,5.58944970703125,0.08140285644531249,-7.754220626831054,5.6310126670837395
1758274193084407600,5.599407470703125,0.27787703018188475,-7.710376808929443,5.634753607177734
1758274193094365700,5.60936572265625,0.013168109130859374,-7.751227874755859,5.316025511169434
1758274193104324600,5.61932470703125,-0.40192660369873046,-7.754519902038574,5.200804556274414
1758274193114282500,5.629282470703125,-0.5975029518127442,-7.991845141601562,5.616348181915283
1758274193124240600,5.63924072265625,-0.6539163284301758,-8.204779451751708,5.767631799316406
1758274193134198800,5.64919873046875,-0.8442553604125976,-8.121880219268798,5.66931989364624
1758274193144157700,5.65915771484375,-0.6049848320007324,-7.883657154083251,5.4050598854064935
1758274193154115600,5.669115478515625,-0.45714287948608395,-7.765742722320557,5.239710333251953
1758274193164073700,5.67907373046875,-0.5512649322509765,-7.809885815429687,5.933579901885986
1758274193174032600,5.68903271484375,-0.3124433166503906,-7.990947315979003,6.76721099243164
1758274193183990800,5.69899072265625,0.049530046844482416,-8.273762387084961,7.214926702880859
1758274193193948700,5.70894873046875,0.031872809600830075,-8.526949212646484,7.350947284698486
1758274193203907800,5.718907958984375,-0.4556465034484863,-8.655936827087402,6.9336080078124995
1758274193213865500,5.728865478515625,-1.0467150382995605,-8.821585654449462,6.300042393493652
1758274193223823600,5.73882373046875,-1.2852373786926268,-9.063100746917724,5.9629088722229
1758274193233781500,5.748781494140625,-1.1773486663818358,-9.620201545715332,5.959916120147705
1758274193243740700,5.75874072265625,-0.8014590057373047,-10.718242282104491,5.858162549591064
1758274193253698600,5.768698486328125,-0.3491045295715332,-11.803563822174072,5.613654705047607
1758274193263656700,5.77865673828125,-0.1806125877380371,-12.37263562927246,5.321113189697265
1758274193273615600,5.78861572265625,-0.18076222534179687,-12.466308769226073,5.520879390716552
1758274193283573500,5.798573486328125,-0.17193360671997068,-12.748076377105711,6.044012453460693
1758274193293531600,5.80853173828125,-0.9009680122375487,-13.69423494567871,6.430077471160888
1758274193303489800,5.81848974609375,-2.3591864608764648,-14.906748448944091,6.555473783111572
1758274193313448700,5.82844873046875,-3.5734956153869626,-15.225027632141112,6.650643299102783
1758274193323406600,5.838406494140625,-4.2886137237548825,-13.859584497833252,6.411073495483398
1758274193333364700,5.84836474609375,-4.619462465667724,-11.912350360107421,6.771400845336913
1758274193343323600,5.85832373046875,-4.067898258209229,-10.421810189056396,7.547271820831298
1758274193353281800,5.86828173828125,-3.267636353302002,-9.25747999420166,8.019677735900878
1758274193363239400,5.878239501953125,-2.8030115936279296,-8.677185366821288,8.415469197845459
1758274193373197600,5.888197509765625,-2.4238299057006834,-8.321197507476807,8.319701131439208
1758274193383156500,5.898156494140625,-2.423530630493164,-8.538172032928466,7.624035911560058
1758274193393114600,5.908114501953125,-2.5061305877685545,-9.005490269470215,7.010372098541259
1758274193403072500,5.918072509765625,-2.574215697479248,-9.619004444885253,6.8028247421264645
1758274193413031700,5.92803173828125,-2.4429835189819333,-10.140790769195556,6.851307325744629
1758274193422989600,5.937989501953125,-2.17707749710083,-10.31062944946289,6.28852029800415
1758274193432947700,5.94794775390625,-2.048239520263672,-10.5091985496521,6.291812325286865
1758274193442906600,5.95790673828125,-0.999130280303955,-10.481964505767822,6.2581438644409175
1758274193452864800,5.96786474609375,0.764199242401123,-10.153958878326415,5.021688344573974
1758274193462822700,5.97782275390625,1.989431941986084,-9.782408708190918,4.134337354278564
1758274193472780800,5.98778076171875,1.9053356086730955,-9.585036708831787,3.788375214385986
1758274193482739700,5.99773974609375,1.395071379852295,-9.37808790283203,3.3961750549316405
1758274193492697600,6.007697509765625,0.77886372756958,-9.053523940277099,3.167229521179199
1758274193502655700,6.01765576171875,0.4700117134094238,-8.956858048248291,3.0822353622436522
1758274193512614700,6.02761474609375,-0.07407061386108398,-8.537124569702147,2.6313772621154783
1758274193522572800,6.03757275390625,-2.346317626953125,-8.493131114196776,2.2316952224731446
1758274193532530400,6.047530517578125,-3.4958336990356442,-8.44045867767334,2.7055975135803223
1758274193542488600,6.057488525390625,-3.2288802139282224,-8.302792082214355,2.667290287017822
1758274193552447500,6.067447509765625,-2.9721020858764646,-8.687510361480712,3.004573445892334
1758274193562405600,6.077405517578125,-2.8745383682250973,-8.781931689453124,3.8980595779418943
1758274193572363500,6.087363525390625,-2.563292152404785,-9.100360510253905,4.12401235961914
1758274193582322700,6.09732275390625,-2.456600540924072,-8.675090440368653,4.780622164916992
1758274193592280600,6.107280517578125,-2.192340532684326,-7.852083619689941,5.5732525520324705
1758274193602238700,6.11723876953125,-1.2222399475097656,-7.176619476318359,5.626074626159667
1758274193612196900,6.12719677734375,-0.858022019958496,-6.438307539367675,5.6434325881958
1758274193622156000,6.137156005859375,-0.7993640792846679,-5.701940891265869,5.760748469543457
1758274193632114000,6.147114013671875,-1.0510545288085937,-5.550806911468506,5.738452466583252
1758274193642072000,6.157072021484375,-2.0005051246643064,-5.796212581634522,5.216965417480468
1758274193652031000,6.167031005859375,-1.9991583862304687,-5.979967559051513,4.548384603881836
1758274193661988900,6.17698876953125,-2.4206875160217285,-5.821202061462402,3.1988030555725095
1758274193671947000,6.186947021484375,-2.8725930793762204,-5.191826300048827,2.1187188316345216
1758274193681906000,6.196906005859375,-3.0412346588134764,-4.663156645965576,1.6309002433776854
1758274193691864000,6.206864013671875,-3.393182302856445,-4.454861101531982,1.3643956710815428
1758274193701822000,6.216822021484375,-3.744531396484375,-4.1475054634094235,1.6078560523986816
1758274193711780000,6.226780029296875,-3.929333837127685,-3.918410292053222,1.497124225616455
1758274193721739000,6.236739013671875,-3.9893385162353514,-3.9824551864624023,1.3977648567199705
1758274193731697200,6.246697265625,-3.91347225112915,-4.295945966339111,1.1252747802734375
1758274193741654800,6.25665478515625,-3.680636139678955,-4.438101689910888,0.9680056587219238
1758274193751614000,6.266614013671875,-3.5818753211975096,-4.225167379760742,1.1472715080261229
1758274193761571800,6.27657177734375,-3.5295021598815914,-3.9137715263366695,1.3063362808227539
1758274193771530000,6.286530029296875,-3.8040871627807613,-4.657620054626465,1.460163737487793
1758274193781487900,6.29648779296875,-3.9261914474487303,-4.602254141235352,1.8136077575683593
1758274193791447000,6.306447021484375,-4.040215301513672,-4.433462924194336,2.0567688636779784
1758274193801405000,6.316405029296875,-4.265719170379638,-4.482693695831299,2.264465857696533
1758274193811363000,6.326363037109375,-4.942380414581298,-4.471770150756836,2.4992472579956053
1758274193821322000,6.336322021484375,-5.794716205596924,-4.418349526214599,2.888155390167236
1758274193831279900,6.34627978515625,-6.916998233795166,-4.275744889831543,3.2882863426208493
1758274193841238000,6.356238037109375,-8.255805874633788,-4.129399313354492,3.8284780921936035
1758274193851196200,6.366196044921875,-9.394697676849365,-3.9929298187255857,4.114585190582275
1758274193861155000,6.376155029296875,-10.250475132751465,-4.010886331176757,4.055029424285888
1758274193871113000,6.386113037109375,-11.525836429595946,-4.337096307373047,4.113238452148437
1758274193881070800,6.39607080078125,-13.32433078918457,-4.609885659027099,4.502894772338867
1758274193891030000,6.406030029296875,-12.454487398529052,-5.144690454864501,4.667945049285889
1758274193900988000,6.41598779296875,-8.691550576782227,-7.729231147003174,6.036530573272705
1758274193910945800,6.42594580078125,-2.935291235351562,-12.286594007110596,4.975001412200927
1758274193920904000,6.435904052734375,-4.163516687011718,-14.183849185180664,3.431489529418945
1758274193930862800,6.44586279296875,-6.248567057800293,-13.271209439849853,3.9270892730712887
1758274193940821000,6.455821044921875,-6.466888321685791,-12.585869214630126,3.382408395385742
1758274193950779000,6.46577880859375,-5.990591828918457,-9.723750767517089,6.783820766448974
1758274193960737000,6.475737060546875,-2.8262054222106934,-8.071003433990478,6.574926671600341
1758274193970696000,6.485696044921875,-3.059490446472168,-7.313388246154784,3.5844191604614255
1758274193980654000,6.495654052734375,-2.609230896759033,-6.564601676940917,1.8541595481872557
1758274193990612000,6.505612060546875,-4.742913488769531,-7.3094976684570305,1.1997943069458008
1758274194000571100,6.515571044921875,-4.769848257446289,-8.821136741638183,2.420837153625488
1758274194010529000,6.525529052734375,-1.2550105827331541,-10.399663823699951,3.842693664550781
1758274194020487200,6.535487060546875,-3.143736417388916,-11.653776580810547,4.574720822143554
1758274194030444800,6.54544482421875,-3.95806425704956,-12.427103717041016,5.382464607238769
1758274194040404000,6.555404052734375,-3.454683358001709,-12.241403450775145,6.270264510345458
1758274194050361900,6.56536181640625,-2.659060218811035,-11.31933653640747,7.134122396850586
1758274194060320000,6.575320068359375,-2.1184195564270016,-10.047716179656982,7.774272065734863
1758274194070279000,6.58527880859375,-2.2891560623168945,-8.93201820602417,7.891587947082519
1758274194080236800,6.59523681640625,-2.3036709098815917,-8.028057441711425,7.653514519500732
1758274194090195000,6.60519482421875,-1.7212813560485838,-7.320421213531493,6.955006185150146
1758274194100153000,6.615153076171875,-1.6564882736206055,-6.953809084320068,5.727080008697509
1758274194110112000,6.625112060546875,-1.513584362030029,-6.787412068939209,4.612279860687256
1758274194120070000,6.63506982421875,-0.9573813888549804,-6.545597701263428,4.472518338775634
1758274194130028000,6.645028076171875,-1.073799444580078,-7.162104628753662,4.102165269470214
1758274194139987000,6.654987060546875,-0.7686883705139159,-7.805695962524414,4.312106827545166
1758274194149945000,6.664945068359375,-0.5653308670043945,-7.942614369964599,5.142146615600586
1758274194159903000,6.674903076171875,-0.9120411949157714,-8.086715382385254,5.521477941131591
1758274194169861000,6.684861083984375,-1.2514192802429198,-8.284087381744385,5.901856729888916
1758274194179820000,6.694820068359375,-1.2273276260375976,-8.284536294555664,6.3989528495788575
1758274194189778200,6.704778076171875,-0.5776011505126952,-7.889642658233642,6.661417206573486
1758274194199735800,6.71473583984375,-0.5255272644042969,-7.25248574142456,6.661566844177246
1758274194209695000,6.724695068359375,-0.8370727554321289,-6.774692872619629,6.034435646820068
1758274194219652900,6.73465283203125,-0.3817255271911621,-6.490231787872314,5.090072729492187
1758274194229611000,6.744611083984375,-0.5404910247802734,-6.243180104064941,4.686350474548339
1758274194239569000,6.75456884765625,-0.8438064476013183,-6.410774220275878,4.396801711273193
1758274194249527800,6.76452783203125,-0.6862380508422851,-6.778583450317383,4.116530479431152
1758274194259486000,6.77448583984375,-0.8538321670532226,-6.765415341186523,4.6252983322143555
1758274194269444000,6.784444091796875,-1.3114239593505859,-6.7006222587585444,5.12000025024414
1758274194279403000,6.794403076171875,-1.4642039527893065,-6.955604735565185,5.156661463165283
1758274194289361000,6.80436083984375,-1.2669815910339355,-7.092223867797851,4.547486778259277
1758274194299319000,6.814319091796875,-1.0046668716430665,-6.9606924140930175,4.6341269508361815
1758274194309277200,6.824277099609375,-1.479317350769043,-6.8697127510070795,4.664204109191894
1758274194319236000,6.834236083984375,-1.6707038459777832,-6.297348916625976,4.708197564697265
1758274194329194000,6.844194091796875,-1.4429554130554199,-6.5200096710205075,4.825214170837402
1758274194339152000,6.85415185546875,-1.4437036010742186,-7.192032149505615,5.304204140472412
1758274194349110000,6.864110107421875,-0.9012672874450683,-7.6470801025390625,5.3770776535034175
1758274194359069000,6.87406884765625,-0.5973533142089843,-7.698256163024902,5.5726540016174315
1758274194369026800,6.88402685546875,-0.7155670211791991,-7.693467759704589,5.6681227928161615
1758274194378985000,6.89398486328125,-0.3532943824768066,-7.513154447174072,5.355978751373291
1758274194388944000,6.90394384765625,-0.354940396118164,-7.363367205810547,5.282057775115966
1758274194398902000,6.913902099609375,-0.3778349494934082,-7.510909883117676,5.6492684547424314
1758274194408860000,6.92385986328125,-0.41793782730102536,-7.671919944763183,6.10955372390747
1758274194418818000,6.933818115234375,-1.0001777435302734,-8.13968709411621,6.055684186553955
1758274194428777000,6.94377685546875,-1.3569137908935547,-8.40843623046875,6.190956580352783
1758274194438735000,6.953735107421875,-1.3386580032348632,-8.138789268493651,6.490979975891113
1758274194448693000,6.96369287109375,-1.1671733093261718,-7.9661074737548825,6.938994961547851
1758274194458652000,6.97365185546875,-0.5404910247802734,-8.007257814788819,7.50776749343872
1758274194468610000,6.983610107421875,-0.22909517135620117,-8.21660082244873,7.57809716720581
1758274194478568200,6.993568115234375,-0.6685808135986328,-8.390629355621337,7.002890218353271
1758274194488525800,7.00352587890625,-0.6976105087280273,-8.474725688934326,6.472574550628662
1758274194498485000,7.013485107421875,-0.8066963218688964,-8.802132765960692,6.049698682403564
1758274194508443000,7.02344287109375,-1.4559738845825194,-9.562591068267821,5.464466014099121
1758274194518401000,7.033401123046875,-2.334047343444824,-10.723180323028563,4.7248073387146
1758274194528359000,7.04335888671875,-3.005321633911133,-12.229881355285643,4.79483773727417
1758274194538317800,7.05331787109375,-3.264793238830566,-13.29245797958374,5.607369925689697
1758274194548276000,7.06327587890625,-3.1503204719543456,-13.485640126037596,6.8225769058227534
1758274194558233900,7.07323388671875,-2.2732944763183593,-13.269114513397216,7.846995941162109
1758274194568193000,7.083193115234375,-1.5370774658203123,-12.971186044311523,8.487893798065185
1758274194578151000,7.09315087890625,-1.4712369201660156,-12.650512659454344,8.61254192199707
1758274194588109000,7.103109130859375,-2.177676047515869,-12.228235341644286,7.722048542022705
1758274194598067000,7.11306689453125,-3.2692823669433593,-11.540800189971923,6.706158850097656
1758274194608026600,7.123026611328125,-4.228908319854736,-11.27504380569458,6.585550941467285
1758274194617984300,7.132984375,-4.380640850067138,-11.215188764190673,6.6714429260253905
1758274194627942400,7.1429423828125,-3.684975630187988,-10.691606788635253,6.7167831199645995
1758274194637900300,7.152900390625,-2.792985874176025,-10.159794744873047,6.603357816314697
1758274194647859500,7.162859375,-2.146850701141357,-9.88910031967163,6.310517025756836
1758274194657817300,7.1728173828125,-2.1441572242736817,-10.467898571014404,6.400598863220215
1758274194667775500,7.182775390625,-2.6913819412231446,-11.423783583831787,7.350947284698486
1758274194677734400,7.192734375,-2.9845220069885254,-11.527632080841064,6.932710182189941
1758274194687692300,7.2026923828125,-2.8559833053588863,-11.412111850738524,5.852177045440674
1758274194697650400,7.212650390625,-2.2093992195129393,-11.423334671020507,5.364059181976318
1758274194707608600,7.222608642578125,-0.9690531219482421,-11.544690767669676,4.551227718353271
1758274194717567500,7.2325673828125,0.3399766357421875,-11.57506720123291,4.378994836425781
1758274194727525400,7.242525390625,1.2409446479797364,-10.892869365692137,4.0261493667602535
1758274194737483500,7.2524833984375,2.1262007118225097,-9.974094478607178,3.841496563720703
1758274194747441400,7.26244140625,1.9672855766296387,-9.758915604400634,4.262277505493164
1758274194757400300,7.272400390625,0.8719383171081543,-9.74799205932617,4.052784860229492
1758274194767358200,7.282358154296875,0.0037409400939941405,-9.011924686431884,3.6631285400390623
1758274194777316400,7.29231640625,-1.2460323265075683,-8.149712813568115,3.794809631347656
1758274194787275300,7.302275146484375,-2.066794583129883,-7.663689876556396,3.790919053649902
1758274194797233400,7.3122333984375,-2.7693431327819824,-7.43788673248291,3.8616976402282712
1758274194807191300,7.32219140625,-3.3092356071472167,-7.4764932342529296,3.893720087432861
1758274194817149400,7.3321494140625,-3.754557115936279,-7.970596601867675,4.447528858947754
1758274194827108400,7.3421083984375,-4.174290594482422,-8.202085974884033,5.740996305847168
1758274194837066500,7.35206640625,-3.7063738075256345,-8.08252552947998,6.130054075622558
1758274194847024400,7.3620244140625,-2.3150433677673337,-7.837868047332763,6.086958445739746
1758274194856982500,7.371982421875,-1.1385925270080566,-7.272836455535888,5.654356133270263
1758274194866941400,7.38194140625,-0.2859574607849121,-6.4734723762512205,4.834790977478027
1758274194876899600,7.391899658203125,0.5165490081787109,-5.891232460021972,4.439598065948486
1758274194886857200,7.401857177734375,-0.37334582138061523,-5.455487757873535,3.7858313751220702
1758274194896816400,7.41181640625,-1.3946224670410154,-4.796034838104248,3.1112650573730467
1758274194906774300,7.421774169921875,-1.6775871757507324,-4.345924925994873,3.19850378036499
1758274194916732400,7.431732421875,-2.224213342285156,-4.278438366699218,3.462314875793457
1758274194926690300,7.441690185546875,-2.25384158782959,-4.316895230865478,2.864063735961914
1758274194936649200,7.451649169921875,-2.1417630226135254,-4.451868349456787,2.583942141723633
1758274194946607400,7.461607421875,-2.6222493682861328,-4.682010984039306,1.9258359603881834
1758274194956565500,7.4715654296875,-3.169174810028076,-4.943577515411377,0.9528922607421875
1758274194966523400,7.4815234375,-3.1974563171386716,-5.240159246063232,0.24495675735473632
1758274194976482300,7.491482421875,-2.803310868835449,-5.096956059265136,-0.2537853759765625
1758274194986440400,7.5014404296875,-2.6964696197509763,-5.680991626739502,-0.7326257080078125
1758274194996398300,7.5113984375,-2.7741315361022947,-5.578938780975341,-0.6884826148986816
1758274195006357500,7.521357421875,-3.3188124137878416,-5.121496626281738,-0.2549824768066406
1758274195016315400,7.5313154296875,-3.826682440948486,-4.781071077728271,0.6652887863159179
1758274195026273500,7.5412734375,-4.2420764289855954,-4.5230958488464355,1.6077064147949218
1758274195036231200,7.551231201171875,-4.669142150115967,-4.314501029205322,2.299630694580078
1758274195046190600,7.561190673828125,-5.297320810699462,-4.275744889831543,2.6849475242614744
1758274195056148200,7.571148193359375,-5.824943001556396,-4.387673817443847,3.139097651672363
1758274195066106400,7.5811064453125,-6.043862815856933,-4.425382493591308,3.6954502624511716
1758274195076064300,7.591064208984375,-6.26263299255371,-4.332756816864014,4.363881438446045
1758274195086023400,7.6010234375,-6.715885294342041,-4.371812231445312,4.884321024322509
1758274195095981300,7.610981201171875,-7.556549352264404,-4.298489805603027,5.215319403839111
1758274195105939500,7.620939453125,-8.676886091613769,-4.077325427246094,5.410446839141845
1758274195115897300,7.6308974609375,-9.292944106292724,-3.934122240447998,5.42630842514038
1758274195125856500,7.6408564453125,-9.248801013183593,-4.018068936157226,5.194370139312744
1758274195135814400,7.650814453125,-8.630797709655761,-4.313303928375244,4.872200378417968
1758274195145772500,7.6607724609375,-6.081421854400634,-4.681412433624267,4.655974040985107
1758274195155731500,7.6707314453125,-5.719598128509521,-6.504297722625732,4.043208053588867
1758274195165689300,7.680689453125,-10.674099188995362,-10.985794317626953,3.605368424987793
1758274195175647500,7.6906474609375,-10.857854166412352,-14.34605634765625,5.464316376495361
1758274195185605400,7.70060546875,-8.287080133819579,-15.040374829101562,7.210736849975586
1758274195195564300,7.710564208984375,-4.404433229064941,-14.856769489288329,6.360645623016357
1758274195205522200,7.720522216796875,-1.7503110511779785,-11.14051959991455,7.548020008850097
1758274195215480300,7.730480224609375,-3.812317230987549,-8.059331700897216,7.311442957305908
1758274195225438500,7.7404384765625,-5.885546231079101,-7.955632841491699,4.9251720901489255
1758274195235397400,7.7503974609375,-4.726303714752197,-7.7218989044189446,3.529801435089111
1758274195245355300,7.760355224609375,-2.149544178009033,-7.485172215270996,3.322553353881836
1758274195255313400,7.7703134765625,0.3559878593444824,-7.805546324920654,3.7036803306579587
1758274195265271600,7.780271484375,1.228375089263916,-8.303989183044433,3.9338229652404784
1758274195275230500,7.79023046875,-1.426196001434326,-8.71489404296875,4.074931225585937
1758274195285188400,7.800188232421875,-3.1364041748046874,-9.252242678070068,4.3993455505371095
1758274195295146500,7.810146484375,-1.8222867385864256,-9.41594621658325,4.827159459686279
1758274195305105400,7.82010546875,-0.8848071510314941,-9.179668440246582,5.389497574615478
1758274195315063600,7.8300634765625,-0.9228151023864746,-8.973617459869384,5.678747062683105
1758274195325021400,7.840021484375,-1.1448773063659667,-8.807370082092284,5.647323165893554
1758274195334979300,7.849979248046875,-1.206079086303711,-8.652046249389647,5.663484027099609
1758274195344938200,7.859938232421875,-1.0727519813537596,-8.584709327697754,5.450250441741943
1758274195354896400,7.869896484375,-0.79801734085083,-8.366088788604737,4.793341361236572
1758274195364854300,7.879854248046875,-0.7082347785949706,-8.251316746520995,4.113687364959716
1758274195374812400,7.8898125,-0.6221931564331055,-8.182184173583984,3.905990370941162
1758274195384771300,7.899771240234375,-0.6483797370910644,-8.188169677734374,3.955670055389404
1758274195394729500,7.9097294921875,-0.7206546997070312,-7.83981333618164,4.080916729736328
1758274195404687400,7.919687255859375,-0.6769605194091797,-7.634809819030761,4.331110803222656
1758274195414645500,7.9296455078125,-0.8872013526916503,-7.712621372985839,4.53940634765625
1758274195424604400,7.9396044921875,-0.31872809600830077,-7.8815622276306145,4.678569319152832
1758274195434562600,7.9495625,1.092953057861328,-8.058433875274657,4.682010984039306
1758274195444520400,7.9595205078125,1.412279704284668,-7.95503429107666,4.823418519592285
1758274195454479400,7.969479248046875,0.29074586410522457,-7.726388032531738,5.075108969116211
1758274195464437500,7.9794375,0.10998363876342773,-7.760355768585205,5.210680638122558
1758274195474395400,7.9893955078125,-0.34925416717529295,-7.898321639251709,5.475838471984863
1758274195484353300,7.999353271484375,-1.0866682785034179,-7.72459238128662,5.868936457061767
1758274195494312200,8.009312255859374,-1.3985130447387695,-7.373243287658691,5.914725563812255
1758274195504270300,8.019270263671874,-1.4707880073547361,-6.863876884460449,6.476465128326415
1758274195514228200,8.029228271484374,-0.5023334358215332,-6.638223377990722,6.523900248718261
1758274195524186400,8.039186279296874,-0.8644564369201659,-6.4646437576293945,5.88584550628662
1758274195534145300,8.049145263671875,-0.9642647186279296,-6.366481489562988,5.885097318267822
1758274195544103400,8.059103515625,-1.0598831474304198,-6.817638864898681,6.257246038818359
1758274195554061300,8.069061279296875,-1.0209773704528808,-6.593032821655273,6.230311270141601
1758274195564019500,8.07901953125,-0.5366004470825195,-6.866869636535644,5.370343961334228
1758274195573978400,8.088978271484375,-0.18659809188842771,-7.403769358825683,4.580107775878906
1758274195583936500,8.0989365234375,-0.7231985389709472,-7.793575316619872,4.453514363098145
1758274195593894400,8.108894287109376,-0.31184476623535157,-7.753622076416015,4.367622378540039
1758274195603853600,8.118853515625,0.3425204750061035,-7.588571799468994,4.088847522735596
1758274195613810400,8.128810546875,0.1632546257019043,-7.73791012802124,4.18162283706665
1758274195623768600,8.1387685546875,-0.19303250885009765,-7.550713485717773,5.411643939971923
1758274195633726700,8.148726806640624,-0.5617395645141601,-7.27822340927124,6.121225457000732
1758274195643685600,8.158685546875,-0.8057984962463378,-7.470657367706298,6.369923154449462
1758274195653643500,8.1686435546875,-0.9491513206481933,-7.745092733001709,6.617573388671874
1758274195663601700,8.1786015625,-0.8649053497314453,-7.9755346427917475,6.510432864379882
1758274195673559600,8.1885595703125,-0.6851905876159667,-7.977779206848144,6.850858412933349
1758274195683518700,8.198518798828125,-0.4159925384521484,-8.052298733520507,7.283311087799071
1758274195693476600,8.2084765625,-0.10743979949951171,-8.211962056732178,7.530662046813965
1758274195703434800,8.218434814453126,-0.09950900650024413,-8.537573482513427,7.305158177947997
1758274195713392400,8.228392333984376,-0.7773673515319823,-8.865579109954833,6.616376287841796
1758274195723351600,8.2383515625,-1.1703156990051269,-9.067290599822998,6.057330200195312
1758274195733309400,8.248309326171874,-1.2536638442993164,-9.390208548736572,5.690718070983887
1758274195743267600,8.258267578125,-1.5441104331970215,-9.877578224182129,5.175066888427734
1758274195753225500,8.2682255859375,-1.9442413856506346,-10.308235247802735,4.377049547576904
1758274195763184600,8.2781845703125,-1.9556138435363768,-10.602572414398193,4.262876055908203
1758274195773142500,8.288142578125,-1.765274811553955,-11.179874289703369,5.27966357345581
1758274195783100700,8.2981005859375,-1.0043675964355467,-11.909058332824706,6.637924102783202
1758274195793059600,8.3080595703125,0.37125089492797847,-12.856713277435302,7.70543876800537
1758274195803017700,8.318017822265626,1.2412439231872558,-13.496713308715819,8.279298978424071
1758274195812975600,8.3279755859375,0.9202712631225586,-13.665654163360594,8.233958784484862
1758274195822933800,8.337933837890626,-0.3895066825866699,-13.551181396484374,7.558045728302002
1758274195832892700,8.347892578125,-1.8537106353759765,-13.099575108337401,6.566397328186035
1758274195842850600,8.3578505859375,-2.6122236488342283,-12.520926494598388,6.476614765930176
1758274195852808700,8.36780859375,-2.4615385818481443,-11.931354335784912,6.835296102142333
1758274195862766600,8.3777666015625,-2.0880431228637693,-10.996867500305175,6.807463507843017
1758274195872725500,8.3877255859375,-1.8587983139038085,-9.981875634002686,6.369025328826904
1758274195882683400,8.397683349609375,-1.7482161247253416,-9.56962403564453,5.7514709381103515
1758274195892641500,8.4076416015625,-1.7860744384765623,-9.752181912231444,5.399822569274902
1758274195902599700,8.417599609375,-1.9607015220642088,-10.225186377716064,5.763292308807372
1758274195912558600,8.42755859375,-2.272247013092041,-10.868927349090576,5.894225212097168
1758274195922516500,8.4375166015625,-2.733130832672119,-11.716774011993408,6.024858840179443
1758274195932474600,8.447474609375,-2.5918729347229004,-12.298265740203856,5.7906759902954095
1758274195942432800,8.457432861328124,-1.820191812133789,-12.388347577667236,5.135113648223877
1758274195952391700,8.4673916015625,-0.8776245460510254,-12.231527368927,4.4671313850402825
1758274195962349600,8.477349609375,-0.09202712631225586,-11.915492749786376,3.9173628288269042
1758274195972307700,8.4873076171875,0.6947673942565917,-11.738770739746093,3.372382675933838
1758274195982265600,8.497265625,0.5799953521728515,-11.869554005432128,2.9044658889770507
1758274195992224800,8.507224853515625,-0.24316110610961914,-11.839626484680174,2.740313437652588
1758274196002182400,8.517182373046875,-0.34401685104370117,-11.184513055419922,2.4347534507751463
1758274196012140500,8.527140625,-0.3896563201904297,-10.193762480926512,2.7418098136901854
1758274196022099500,8.537099365234376,-0.7661445312499999,-9.342474153137207,2.8516438148498535
1758274196032057600,8.5470576171875,-1.8659809188842773,-8.863633821105957,2.846855411529541
1758274196042015500,8.557015380859376,-3.0033763450622555,-8.779687125396729,3.2888848930358883
1758274196051973600,8.5669736328125,-2.8501474388122556,-8.826224420166016,3.666420567321777
1758274196061932500,8.5769326171875,-1.9985598358154295,-8.647407483673096,3.9942765571594236
1758274196071890700,8.586890625,-1.206079086303711,-8.303091357421874,4.941781864166259
1758274196081848600,8.5968486328125,-0.577152237701416,-8.043919027709961,4.8798318962097165
1758274196091806700,8.606806640625,-0.8212111694335937,-7.397634217071532,5.091569105529785
1758274196101765600,8.616765625,-1.0342951171875,-6.874800429534912,4.6155718879699705
1758274196111723800,8.626723876953125,-0.7200561492919921,-6.785017867279052,4.562899451446533
1758274196121681700,8.636681640625,-0.07751227874755859,-6.2222308395385735,4.406677793121338
1758274196131639600,8.6466396484375,-0.5391442863464355,-5.72049595413208,4.619163190460204
1758274196141598700,8.6565986328125,-0.9433154541015625,-5.7894788894653315,4.442291542816162
1758274196151556600,8.666556640625,-1.0402806213378906,-5.851428857421874,4.038120375061035
1758274196161514500,8.676514404296874,-1.618480322265625,-5.473593907928467,3.69036258392334
1758274196171472600,8.68647265625,-2.406322306060791,-5.17162522354126,3.386149335479736
1758274196181431600,8.696431640625,-2.5417443374633786,-5.097255334472656,2.648136673736572
1758274196191389400,8.706389404296875,-2.7793688522338864,-4.755632685089111,2.2946926536560057
1758274196201347600,8.71634765625,-3.42849677734375,-4.4391491531372065,1.608903515625
1758274196211305700,8.7263056640625,-4.003853363800048,-4.045153342437744,0.8321347145080565
1758274196221264600,8.7362646484375,-4.033930522155761,-3.819050923156738,0.35778351058959956
1758274196231222500,8.746222412109375,-3.5236662933349607,-4.219481150817871,-0.318578458404541
1758274196241180700,8.7561806640625,-3.238307382965088,-4.1958384094238275,-0.3093009269714355
1758274196251138600,8.766138671875,-3.1235353408813475,-3.8551135856628416,0.2145803237915039
1758274196261097700,8.77609765625,-3.1530139488220215,-3.7569513175964353,0.5942109245300292
1758274196271055600,8.7860556640625,-3.421164534759521,-3.7861306503295897,0.948103857421875
1758274196281013500,8.796013427734374,-3.7671266746520993,-4.001608799743652,1.3513771995544432
1758274196290971400,8.805971435546875,-4.1563340820312495,-4.257938014984131,2.054973212432861
1758274196300930600,8.8159306640625,-4.480898044586182,-4.3914147575378415,2.8693010520935056
1758274196310888400,8.825888427734375,-4.872050740814209,-4.523245486450195,3.4578257476806638
1758274196320846600,8.8358466796875,-5.459079060363769,-4.621407754516602,3.900004866790771
1758274196330805500,8.845805419921875,-6.131999364471435,-4.785709843444824,4.115483016204834
1758274196340763600,8.855763671875,-6.994959425354003,-4.765359129333496,4.236539837646484
1758274196350721500,8.865721435546876,-8.028057441711425,-4.666448673248291,4.1103953376770015
1758274196360679700,8.8756796875,-9.050231912994384,-4.377947373199462,4.027645742797851
1758274196370638600,8.885638671875,-9.54523310623169,-4.272901775360107,3.915567177581787
1758274196380596700,8.8955966796875,-9.344269804382323,-4.420294815063476,3.7761049308776853
1758274196390554600,8.9055546875,-9.304615839385987,-4.727800090789795,3.5514988876342772
1758274196400512800,8.9155126953125,-9.142857589721679,-5.013009363555908,3.642328913116455
1758274196410471700,8.9254716796875,-7.766191635131835,-5.6492684547424314,4.610633847045898
1758274196420429800,8.935429931640625,-11.570877348327636,-9.220669143676757,6.9804445777893065
1758274196430387500,8.945387451171875,-10.307636697387695,-15.73110200805664,8.205378002166748
1758274196440345600,8.955345703125,-5.174468338012695,-17.892317919158934,9.632771104431152
1758274196450304500,8.965304443359376,-1.583914035797119,-15.572037235260009,8.672396963500976
1758274196460262700,8.9752626953125,-5.762244845581054,-11.659013896942138,3.4413656112670896
1758274196470220500,8.985220458984376,-6.705410662078857,-5.88584550628662,3.4495956794738767
1758274196480178700,8.9951787109375,-5.197811804199218,-3.5767876426696774,3.7370495162963864
1758274196490137600,9.0051376953125,-4.067299707794189,-4.14361488571167,2.3130980789184568
1758274196500095500,9.015095458984375,-2.180968074798584,-4.819079029083252,1.9557634811401365
1758274196510053600,9.0250537109375,-1.5225626182556151,-6.16716420135498,1.7663222747802734
1758274196520011800,9.03501171875,-2.101809782409668,-8.22288560180664,2.4693197372436524
1758274196529970700,9.044970703125,-0.5575497116088867,-10.226832391357421,3.8230911384582518
1758274196539928600,9.054928466796875,-1.8721160606384277,-11.774683764648437,4.85184966430664
1758274196549886700,9.06488671875,-2.9946973640441894,-12.09849953918457,6.189310566711425
1758274196559844600,9.0748447265625,-2.421435704040527,-11.45326219177246,7.377133865356445
1758274196569803800,9.0848037109375,-1.9415479087829588,-10.376021082305908,8.117091815948486
1758274196579761400,9.094761474609374,-2.03656778717041,-9.176226775360107,8.144924410247802
1758274196589719600,9.104719482421874,-2.378788986968994,-8.103025881195068,7.25278501663208
1758274196599677400,9.114677490234374,-2.157175695800781,-7.231087564086914,6.161627610015869
1758274196609636600,9.12463671875,-2.136675344085693,-6.611887159729004,5.138405675506592
1758274196619595000,9.134594970703125,-1.632396619415283,-6.48664048538208,4.346523476409912
1758274196629553200,9.14455322265625,-1.1825859825134277,-6.689848351287841,3.8699277084350583
1758274196639511000,9.154510986328125,-0.9371803123474121,-7.210587212371825,3.868431332397461
1758274196649470200,9.16447021484375,-0.9810241302490234,-7.808838352203368,4.546738590240478
1758274196659428000,9.174427978515626,-0.9121908325195311,-8.189516416168212,5.464017101287841
1758274196669386200,9.18438623046875,-0.8699930282592773,-8.303689907836914,6.101622930908203
1758274196679344000,9.19434423828125,-0.6869862388610839,-8.39616594696045,6.475118389892578
1758274196689303000,9.204302978515624,-0.4085106582641601,-8.40185217590332,6.639121203613281
1758274196699261200,9.21426123046875,-0.6606500205993652,-8.03838243637085,6.433668773651123
1758274196709219300,9.22421923828125,-0.48766895065307614,-7.930194448852538,6.042964990234375
1758274196719178200,9.23417822265625,-0.42886137237548827,-8.035090409088134,5.435735594177245
1758274196729136000,9.24413623046875,-0.3161842567443848,-7.774122428131103,4.948665193939209
1758274196739094000,9.254093994140625,-0.2415150924682617,-7.359626265716552,4.742763851165771
1758274196749052200,9.26405224609375,-0.5105635040283203,-7.484872940063476,4.538658159637451
1758274196759011000,9.274010986328125,-1.032948378753662,-7.4119994270324705,4.521000922393799
1758274196768969000,9.283968994140626,-1.3600561805725098,-7.276727033233642,4.624101231384277
1758274196778927000,9.293927001953126,-1.3941735542297362,-7.149086157226562,4.8032174430847165
1758274196788885000,9.303885009765626,-1.142183829498291,-7.204302433013916,4.989516259765625
1758274196798844200,9.31384423828125,-0.7689876457214355,-7.0555626548767085,4.962581491088867
1758274196808802000,9.323802001953124,-0.4664204109191894,-7.008726084899902,4.435408213043212
1758274196818760200,9.33376025390625,-0.5559036979675293,-6.867767462158203,4.779724339294433
1758274196828718000,9.343718017578125,-0.7721300354003906,-7.049427513122558,5.623530786895752
1758274196838677200,9.35367724609375,-1.094299796295166,-7.491606632232665,5.949591125488281
1758274196848635100,9.36363525390625,-0.4896142395019531,-7.570465649414062,5.485714553833008
1758274196858593300,9.37359326171875,-0.34745851593017574,-7.649025391387939,5.1702784851074215
1758274196868551200,9.38355126953125,-0.6266822845458984,-7.6847887786865225,4.958541275787353
1758274196878510300,9.39351025390625,-0.5844844802856445,-7.60368519744873,4.812794249725341
1758274196888468000,9.403468017578126,-0.5690718070983887,-7.341370478057861,4.745457328033447
1758274196898426000,9.413426025390624,-0.5786486137390137,-7.325059979248047,4.798429039764404
1758274196908384000,9.423384033203124,-0.7022492744445801,-7.435642168426513,5.2533273551940916
1758274196918343200,9.43334326171875,-0.932691184234619,-7.462576937103271,5.657199247741699
1758274196928301000,9.443301025390625,-0.9124901077270507,-7.2438067604064935,5.56113190612793
1758274196938259200,9.45325927734375,-0.7864952453613281,-7.0850412628173824,4.99235937423706
1758274196948217000,9.463217041015625,-1.44924019241333,-7.319074475097656,4.756829785919189
1758274196958176300,9.47317626953125,-1.8972551780700682,-7.713219923400878,4.944774616241455
1758274196968134100,9.483134033203125,-1.783081686401367,-7.995735719299316,5.279364298248291
1758274196978092300,9.49309228515625,-1.6276082160949705,-8.035688959503174,5.844096614837646
1758274196988050200,9.50305029296875,-1.2633902885437012,-8.021323749542235,6.212654032897949
1758274196998009000,9.513009033203126,-0.7538742477416992,-7.988253839111327,6.123769296264648
1758274197007967200,9.52296728515625,-0.6127659873962402,-7.93588067779541,5.957372280883789
1758274197017925000,9.532925048828124,-0.8108861747741699,-7.879018388366699,5.864148053741455
1758274197027883000,9.542883056640624,-0.9084498924255371,-7.910591922760009,5.889736083984375
1758274197037842000,9.552842041015625,-0.9168295982360839,-7.8992194648742675,6.0245595649719235
1758274197047800000,9.562800048828125,-1.0027215827941893,-7.891438309478759,6.14202508392334
1758274197057758200,9.57275830078125,-1.256357321166992,-8.068010681915283,6.205022515106201
1758274197067716000,9.582716064453125,-0.9192237998962401,-8.257152613067626,6.0784291023254395
1758274197077675000,9.592675048828125,-0.2825157958984375,-8.533383629608155,5.990741466522216
1758274197087633200,9.602633056640625,0.025139117431640625,-8.981248977661132,5.861155301666259
1758274197097591000,9.612591064453126,0.1892915687561035,-9.700257663726806,5.455787033081054
1758274197107549200,9.622549072265626,0.4438251327514648,-11.017517489624023,5.016301390838623
1758274197117508000,9.632508056640624,1.223137773132324,-12.32086101837158,4.84571452255249
1758274197127466200,9.64246630859375,2.3012767082214354,-12.310835298919677,4.938340199279785
1758274197137424100,9.652424072265624,2.6958710693359373,-11.430966188812254,4.7117888671875
1758274197147382000,9.662382080078125,2.005143890380859,-11.001057353210449,4.624849419403076
1758274197157341200,9.672341064453125,0.6263830093383789,-11.83663373260498,4.374206433105469
1758274197167299000,9.682299072265625,-0.7601590270996094,-13.171251520538329,4.924723177337646
1758274197177257000,9.692257080078125,-1.222539222717285,-15.005060354614256,6.420201389312743
1758274197187215000,9.702215087890625,-0.9490016830444336,-15.90348452758789,7.145195579528808
1758274197197174000,9.712174072265626,-0.7523778717041015,-14.481478379058837,7.221361119842529
1758274197207132200,9.722132080078126,-0.47809214401245115,-11.892448558807372,7.388057410430908
1758274197217090000,9.732090087890626,-0.8815151237487793,-10.159196194458007,7.774122428131103
1758274197227048200,9.742048095703124,-1.2795511497497558,-9.46083749771118,7.802254297637939
1758274197237007000,9.752007080078124,-1.507449220275879,-9.28217019882202,7.378181328582763
1758274197246965200,9.76196533203125,-1.6365864723205565,-9.144653240966797,6.860734494781494
1758274197256923100,9.771923095703125,-1.4339771568298338,-8.814253411865234,6.303633695983886
1758274197266882300,9.78188232421875,-1.1463736824035644,-8.723273748779297,5.65001664276123
1758274197276840200,9.791840087890625,-0.7990648040771484,-8.845078758239746,5.197213253784179
1758274197286798300,9.80179833984375,-0.4604349067687988,-9.107094202423095,5.103689751434326
1758274197296756000,9.811755859375,-0.2736871772766113,-9.119514123535156,5.366603021240234
1758274197306715100,9.821715087890626,-0.4869207626342773,-8.883535622406006,5.691915171813965
1758274197316673000,9.831673095703126,-0.9452607429504394,-8.711751653289795,5.935076277923583
1758274197326631200,9.841631103515626,-1.1457751319885254,-8.562263687133788,5.6878749565124505
1758274197336589000,9.851589111328124,-1.0097545501708984,-8.406640579223632,5.12029952545166
1758274197346548000,9.8615478515625,-0.5479729049682617,-8.787019367980957,4.882525373077392
1758274197356506000,9.871506103515625,0.1997662010192871,-9.011176498413086,4.424783943176269
1758274197366464300,9.88146435546875,0.7228992637634277,-8.805424793243407,3.695749537658691
1758274197376422100,9.891422119140625,0.7363666481018066,-8.824428768920898,3.0858266647338866
1758274197386381000,9.901381103515625,0.5750573112487792,-9.061005820465088,2.6152164009094236
1758274197396339200,9.911339111328125,0.5855319435119628,-9.306710765838622,1.7827824111938475
1758274197406297000,9.921297119140625,0.5087678527832031,-9.431508527374268,0.8788216468811034
1758274197416255200,9.931255126953126,0.3082534637451172,-9.366865082550047,0.2862567359924316
1758274197426214100,9.941214111328126,-0.09068038787841796,-9.510068269348144,0.027682956695556638
1758274197436172300,9.95117236328125,-0.44636897201538084,-9.68469535293579,0.3628711891174316
1758274197446130000,9.9611298828125,-0.5283703788757323,-9.486724803161621,0.8578723823547363
1758274197456088000,9.971088134765624,-0.539443561553955,-9.05876125640869,1.3702315376281737
1758274197466047000,9.981046875,-0.5309142181396485,-8.419509413146972,2.0130746833801267
1758274197476005000,9.991005126953125,-0.5674257934570313,-7.816918782806396,2.461837857055664
1758274197485963000,10.000962890625,-0.7079355033874511,-7.502829452514648,3.01968684387207
1758274197495921200,10.010921142578125,-0.47584757995605464,-7.139658988189697,3.222296159362793
1758274197505880000,10.020880126953125,-0.9039607643127441,-7.213729602050781,3.7391444427490232
1758274197515838200,10.030838134765625,-1.0045172340393065,-7.431601953125,4.173841681671142
1758274197525796000,10.040796142578126,-0.6570587181091309,-7.434445067596435,4.107851498413086
1758274197535754200,10.050754150390626,-0.6382043800354004,-7.304110714721679,3.713556412506103
1758274197545713200,10.060713134765624,-0.9307458953857422,-7.15701695022583,3.6118028419494626
1758274197555671300,10.07067138671875,-0.9421183532714843,-7.130680731964111,3.4931402221679684
1758274197565629200,10.080629150390624,-0.7668927192687988,-7.165546293640136,3.1364041748046874
1758274197575587000,10.090587158203125,-0.5377975479125976,-7.100005023193359,2.7199627235412596
1758274197585546200,10.100546142578125,-0.629525399017334,-6.565798777770996,2.971952448272705
1758274197595504000,10.110504150390625,-0.49365445480346676,-6.43531478729248,2.84745396194458
1758274197605462000,10.1204619140625,-0.4376899909973144,-6.379051048278808,2.6535236274719236
1758274197615420000,10.130419921875,-0.3043628860473633,-6.393715533447265,2.4747066909790036
1758274197625378800,10.14037890625,-0.34671032791137696,-6.392219157409667,2.274341939544678
1758274197635337000,10.1503369140625,-0.4605845443725586,-6.434117686462402,2.294991928863525
1758274197645294800,10.160294921875,-0.5728127471923827,-6.499509319305419,2.49011936416626
1758274197655253000,10.1702529296875,-0.8493430389404296,-6.650344023895263,2.656666017150879
1758274197665212000,10.1802119140625,-1.1086650062561034,-6.8584899307250975,2.755277198028564
1758274197675170000,10.190170166015625,-1.2823942642211914,-7.079953584289551,2.682702960205078
1758274197685127700,10.200127685546875,-1.2101193016052245,-7.306355278778076,2.479046181488037
1758274197695085800,10.2100859375,-1.0740987197875975,-7.516745749664306,2.291550263977051
1758274197705044700,10.220044677734375,-1.0887632049560547,-7.837868047332763,2.248304996490478
1758274197715003000,10.2300029296875,-1.0839748016357422,-8.13923818130493,2.4158991127014158
1758274197724960800,10.239960693359375,-1.0854711776733397,-8.563460787963868,2.381931376647949
1758274197734919000,10.2499189453125,-2.064550019073486,-9.680206224822998,1.9981109230041503
1758274197744876800,10.259876708984375,-4.844367784118652,-13.06934831237793,2.7277438789367676
1758274197754836000,10.2698359375,-6.404040528106689,-16.943166598510743,4.403236128234863
1758274197764793900,10.2797939453125,-7.1309800071716305,-17.560720989227296,5.533000036621093
1758274197774752000,10.289751953125,-9.672724344635009,-14.393341830444335,8.62451293029785
1758274197784710000,10.2997099609375,-13.30472826309204,-10.147374823760986,12.032958268737792
1758274197794668800,10.309668701171875,-11.107300051879882,-7.751826425170898,12.921356722259521
1758274197804627000,10.319626953125,4.456956027984619,-5.887042607116699,9.254038329315184
1758274197814584800,10.329584716796875,10.972027658081053,-6.336853244018554,3.955670055389404
1758274197824542700,10.339542724609375,7.218069092559814,-6.526144812774658,3.3762732536315916
1758274197834501600,10.349501708984375,1.78113639755249,-7.000795291900634,1.970876879119873
1758274197844459800,10.359459716796875,-9.696815998840332,-8.069058145141602,-2.2840683837890623
1758274197854418000,10.36941796875,-13.47097564086914,-8.82308203048706,-4.83314496383667
1758274197864375800,10.379375732421876,-1.0531494552612304,-8.58096838760376,-1.0467150382995605
1758274197874334700,10.389334716796874,3.9591117202758785,-8.74048207321167,3.7880759391784666
1758274197884292900,10.39929296875,2.6910826660156246,-9.476549446105956,7.932139737701416
1758274197894250800,10.409250732421874,2.5151088439941405,-8.692747677612305,10.622025302886962
1758274197904209000,10.419208984375,2.6925790420532225,-8.201038511657714,9.160215551757812
1758274197914167800,10.429167724609375,1.2473790649414063,-7.8261963142395015,6.178835934448242
1758274197924126000,10.4391259765625,-0.2246060432434082,-7.4770917846679685,4.717325458526611
1758274197934083800,10.449083740234375,-1.157446865081787,-7.953089002227783,3.6540006462097168
1758274197944041700,10.459041748046875,-0.5246294387817383,-8.81006355895996,2.2104466827392577
1758274197954001000,10.4690009765625,0.3274070770263672,-9.424924472808838,0.46896425018310545
1758274197963958800,10.478958740234376,-0.3229179489135742,-10.367491738891601,-0.21383213577270507
1758274197973916700,10.488916748046876,-2.6841993362426755,-9.074622842407226,1.9068319847106932
1758274197983874800,10.498874755859376,-5.060743759155273,-8.355464518737792,4.8044145439147945
1758274197993833700,10.508833740234374,-3.4036569351196286,-8.270171084594725,6.152050803375244
1758274198003792000,10.5187919921875,-0.5817910034179687,-9.433902729034424,6.174795719146728
1758274198013749800,10.528749755859375,-0.22400749282836913,-9.404424121093749,5.175366163635253
1758274198023708000,10.5387080078125,-0.6194996795654296,-9.18131445388794,3.831171569061279
1758274198033666800,10.548666748046875,0.001496376037597656,-9.332747708892821,2.5368062965393063
1758274198043625000,10.558625,0.924461116027832,-9.648183777618408,1.9200000938415527
1758274198053582800,10.568582763671875,-0.01631049880981445,-10.171316840362548,1.9167080665588379
1758274198063541000,10.578541015625,-1.569848101043701,-9.707440268707275,2.3802853630065917
1758274198073500000,10.5885,-1.5191209533691405,-8.8742580909729,3.2927754707336425
1758274198083458000,10.5984580078125,-0.6979097839355468,-8.851064262390135,3.9552211425781247
1758274198093415700,10.608415771484376,-0.24001871643066405,-8.544157537078856,4.6865001121521
1758274198103373800,10.618373779296874,0.24256255569458007,-8.266130869293212,5.403862784576416
1758274198113332700,10.628332763671875,0.14544775085449219,-8.362198210906982,5.304353778076171
1758274198123291000,10.638290771484375,-0.41748891448974607,-8.42115542678833,4.899135147094726
1758274198133248800,10.648248779296875,-0.4912602531433105,-8.63184517288208,4.555716846466064
1758274198143207000,10.65820703125,-0.39444472351074217,-9.00923120956421,3.937114992523193
1758274198153165800,10.668165771484375,-0.5029319862365722,-9.286060776519776,3.668515493774414
1758274198163124000,10.6781240234375,-0.5410895751953124,-9.096320294952392,3.44106633605957
1758274198173081900,10.688081787109375,-0.4879682258605957,-8.851213899993896,2.919579286956787
1758274198183040000,10.6980400390625,-0.5187935722351074,-8.509291975402832,2.057816326904297
1758274198192998000,10.707997802734376,-0.5633855781555176,-8.582165488433837,1.2828431770324706
1758274198202956800,10.717956787109374,-0.39160160903930663,-9.1799677154541,1.4101847778320311
1758274198212915000,10.7279150390625,-0.14933832855224607,-9.67811129837036,1.776048719024658
1758274198222872800,10.737872802734374,0.19602526092529296,-9.497947623443602,2.1089923873901366
1758274198232830700,10.747830810546875,0.1457470260620117,-9.355492624664306,2.142660848236084
1758274198242789600,10.75778955078125,0.12195464706420897,-9.710433020782471,1.9761141952514647
1758274198252747800,10.767747802734375,0.4116530479431152,-9.689932669067382,2.046294231414795
1758274198262706000,10.777705810546875,0.3854664672851562,-9.561842880249023,2.2571336151123047
1758274198272663800,10.787663818359375,0.32830490264892576,-9.786448923492431,2.1657050392150876
1758274198282622700,10.797622802734375,-0.026186580657958983,-10.077194787597655,2.162413011932373
1758274198292580900,10.807580810546876,-0.649277562713623,-10.13181251296997,2.167351052856445
1758274198302538800,10.817538818359376,-0.8258499351501465,-10.498723917388915,2.326266188049316
1758274198312497000,10.827496826171876,-0.5967547637939453,-9.898078575897216,2.4275708457946776
1758274198322455800,10.837455810546874,-0.3667617668151855,-8.840739267730712,2.4812907455444333
1758274198332414000,10.8474140625,0.09816226806640624,-8.572887957000733,2.6780641944885253
1758274198342371800,10.857371826171875,0.4740519287109375,-8.891017502593993,3.224690361022949
1758274198352329700,10.867329833984375,0.32351649932861326,-9.402179557037353,3.901950155639648
1758274198362289000,10.877288818359375,0.2597708801269531,-9.271845204162597,4.32811805114746
1758274198372246800,10.887246826171875,0.261117618560791,-9.319280324554443,4.446930308532715
1758274198382204700,10.89720458984375,-0.10115502014160156,-9.234286165618895,4.386775991821289
1758274198392162800,10.907162841796875,-0.22251111679077148,-9.096021019744873,4.0349779853820795
1758274198402121700,10.917121826171876,-0.24211364288330076,-8.954164571380614,3.3268928443908687
1758274198412079900,10.927079833984376,-0.32306758651733397,-9.068786975860595,3.140444390106201
1758274198422037800,10.937037841796876,-0.232387198638916,-9.246706086730956,2.805106520080566
1758274198431996000,10.946995849609374,-0.3318962051391601,-9.265859700012207,2.452410688018799
1758274198441954800,10.956954833984375,-0.347308878326416,-9.757718503570556,2.3880665184020993
1758274198451913000,10.966912841796875,-0.2973299186706543,-9.828197814941406,2.174533657836914
1758274198461870800,10.976870849609375,0.6792050834655762,-8.703671222686767,1.6276082160949705
1758274198471829000,10.9868291015625,0.00718260498046875,-3.1944635650634763,-1.234809506225586
1758274198481786600,10.99678662109375,-1.6542437095642089,-1.9446902984619139,-2.0081366424560545
1758274198491746000,11.00674609375,-1.5325883377075193,-9.57590881500244,0.8777741836547851
1758274198501703700,11.01670361328125,-1.0333972915649414,-14.647276844024658,1.4857517677307128
1758274198511661800,11.026661865234376,1.4015057968139648,-13.790451924896239,0.7876923461914062
1758274198521619700,11.03661962890625,1.6479589302062987,-11.495310358428954,0.8828618621826171
1758274198531579000,11.046578857421874,1.2445359504699707,-10.789020868682861,1.6865654319763184
1758274198541536800,11.056536865234374,0.4599859939575195,-10.249876582336425,3.4955344238281247
1758274198551495000,11.066494873046874,-1.202787059020996,-9.879224237823486,4.893598555755615
1758274198561452800,11.076452880859375,0.18046295013427732,-11.316493421936034,5.306747979736328
1758274198571412000,11.086411865234375,1.5415665939331054,-11.195586238098144,5.378125116729736
1758274198581369900,11.096369873046875,1.3159130874633789,-10.556184757232666,5.679495250701904
1758274198591328000,11.106327880859375,0.26740239791870113,-10.186879151153564,5.959317569732666
1758274198601286000,11.116285888671875,-0.015562310791015624,-10.534487304687499,5.002235456085205
1758274198611244800,11.126244873046875,0.3371335212707519,-10.743979949951171,4.50050057067871
1758274198621203500,11.136203369140626,0.10429740982055663,-9.613318215942382,4.684255548095702
1758274198631161300,11.146161376953126,0.3504512680053711,-9.314491921234131,4.534617944335937
1758274198641119200,11.156119140625,0.5517138450622558,-9.295039032745361,4.021061688232422
1758274198651078400,11.166078369140624,0.48452656097412106,-8.859294330596923,4.924423902130127
1758274198661036300,11.176036376953125,0.7119757186889648,-7.6850880538940425,6.817638864898681
1758274198670994200,11.185994140625,0.5431845016479492,-9.241019857788086,6.894702230834961
1758274198680952300,11.195952392578125,0.4914098907470703,-10.632200659942626,4.917091659545898
1758274198690910500,11.205910400390625,0.9153332221984862,-10.435127935791016,4.496310717773437
1758274198700869400,11.215869384765625,0.25842414169311523,-10.50874963684082,5.460874711608886
1758274198710827300,11.2258271484375,0.5193921226501464,-10.442011265563965,6.8110548103332516
1758274198720785400,11.235785400390625,1.0956465347290039,-10.887183136749266,7.4025722579956055
1758274198730743300,11.245743408203126,1.418714121246338,-11.20471413192749,6.181978324127197
1758274198740702500,11.255702392578126,1.7969979835510252,-11.566088945007323,5.923254907226562
1758274198750660400,11.265660400390624,1.9773112960815429,-11.738022551727294,6.210259831237793
1758274198760618500,11.275618408203124,1.793406681060791,-12.433987046813964,6.19903701095581
1758274198770576100,11.285576171875,0.9430161788940429,-12.265495104980468,5.747131447601318
1758274198780535600,11.29553564453125,-1.4220061485290527,-10.95541788406372,5.981763210296631
1758274198790493200,11.3054931640625,-0.5520131202697753,-10.958560273742675,6.842777982330322
1758274198800451300,11.315451416015625,1.6285060417175292,-11.296591620635986,6.192004043579101
1758274198810409200,11.3254091796875,2.965518031311035,-9.281571648406981,4.439897341156006
1758274198820368400,11.335368408203125,2.952798834991455,-8.257601525878906,3.7970541954040526
1758274198830326300,11.345326171875,2.6636989845275876,-9.666439565277098,4.644003032684326
1758274198840284400,11.355284423828126,1.3401543792724608,-11.502792238616943,6.443395217895508
1758274198850242300,11.3652421875,0.3489548919677734,-12.531101851654052,7.521683790588378
1758274198860201500,11.375201416015624,2.7525837211608883,-14.560038121032713,4.51366867980957
1758274198870159400,11.385159423828124,3.6577415863037106,-16.776919220733642,0.41045594711303707
1758274198880117500,11.395117431640625,0.27787703018188475,-14.024634774780273,-0.7899369102478027
1758274198890075400,11.405075439453125,-1.069310316467285,-13.309067753601074,1.9955670837402342
1758274198900033300,11.415033203125,1.1854290969848633,-12.344503759765624,3.853317934417724
1758274198909992400,11.424992431640625,4.002356987762451,-11.450867990112304,5.169231021881103
1758274198919950300,11.434950439453125,2.0465935066223144,-11.066748261260985,5.161599504089355
1758274198929908200,11.444908203125,6.7290534034729,-11.371859335327148,4.359541947937012
1758274198939866400,11.454866455078125,2.2731448387145994,-11.176133349609374,2.7973253646850584
1758274198949825300,11.4648251953125,-3.5380315032958984,-10.52760397491455,0.3576338729858398
1758274198959783400,11.474783447265626,-0.6388029304504395,-12.702885820770263,-2.1583727966308595
1758274198969741300,11.4847412109375,-1.6256629272460936,-13.339743462371825,-2.7052982383728024
1758274198979699500,11.494699462890624,0.8681973770141601,-11.304223138427734,-1.0773907470703123
1758274198989658400,11.504658447265625,2.658611305999756,-11.175534799194335,0.5599439132690429
1758274198999616500,11.514616455078125,-3.8730700981140136,-12.477980502319335,0.15427636947631834
1758274199009574400,11.524574462890625,6.322039121246338,-12.02757131500244,1.4164695571899413
1758274199019532500,11.534532470703125,10.360009858703613,-10.056694435882568,4.146757275390625
1758274199029491500,11.544491455078125,4.329165514373779,-6.733392893981933,10.670956799316405
1758274199039449300,11.554449462890625,-1.9752163696289062,-2.356492984008789,17.891719368743896
1758274199049407200,11.5644072265625,-8.220491400146484,-1.9648913749694823,17.579874602508543
1758274199059365400,11.574365478515626,-4.882974285888672,-4.365377814483642,12.617891661834715
1758274199069323300,11.5843232421875,5.7137622619628905,-5.116408947753906,10.570250691986084
1758274199079282200,11.5942822265625,7.583633758544922,-4.518157807922363,9.747243871307372
1758274199089240300,11.604240234375,7.1583636886596675,-3.499873914337158,10.51503441619873
1758274199099198500,11.614198486328124,10.741585748291016,-3.236212456512451,11.947215921783446
1758274199109156400,11.62415625,11.241973895263671,-4.211101445007324,11.789946800231933
1758274199119115300,11.634115234375,10.211270080566406,-4.782118540954589,10.717045181274413
1758274199129073400,11.644073486328125,10.309282711029052,-4.328716601562499,10.152462502288818
1758274199139031300,11.65403125,10.211270080566406,-4.084508032226562,9.85782606048584
1758274199148989400,11.663989501953125,9.707739543914794,-4.003703726196289,9.630376902770996
1758274199158948400,11.6739482421875,9.27004955291748,-3.93920991897583,9.470414304351806
1758274199168906500,11.683906494140626,8.818443264770508,-4.158129733276367,8.917652996063232
1758274199178864000,11.693864013671876,8.486846334838866,-4.197783698272705,7.771578588867187
1758274199188822300,11.703822265625,7.8429557258605955,-4.080318179321289,5.909937160491943
1758274199198780400,11.713780517578124,6.507889025115967,-4.6273932586669915,3.9637504859924313
1758274199208739300,11.7237392578125,5.518634826660156,-4.520701647186279,1.7241244705200194
1758274199218697200,11.733697265625,4.855889879608154,-4.985176769256592,-0.30092122116088865
1758274199228655400,11.7436552734375,4.273201050567627,-5.902156005096435,-1.8095675422668456
1758274199238613200,11.75361328125,4.282029669189453,-6.176591370391845,-3.1004911499023438
1758274199248572400,11.763572509765625,4.301482557678223,-6.159383045959473,-3.788524851989746
1758274199258530300,11.7735302734375,4.318690882110595,-5.455487757873535,-3.844040402984619
1758274199268488400,11.783488525390625,4.46877739868164,-3.759644794464111,-3.912125512695312
1758274199278446300,11.7934462890625,4.491223039245606,-2.953995935821533,-3.674800273132324
1758274199288405500,11.803405517578126,4.732139581298828,-2.5157073944091795,-3.3310826972961425
1758274199298363400,11.81336328125,5.534047499847412,-2.1461025131225586,-3.1802479927062985
1758274199308321300,11.8233212890625,6.507739387512206,-2.1848586524963376,-3.212719352722168
1758274199318279200,11.833279052734374,7.430255214691162,-2.136076793670654,-3.398269981384277
1758274199328238300,11.84323828125,8.197147933959961,-2.6458921096801755,-3.225288911437988
1758274199338196200,11.8531962890625,8.49163473815918,-3.238307382965088,-2.2541408630371094
1758274199348154400,11.863154296875,8.402899639129638,-2.0835539947509765,-1.7972972587585447
1758274199358112300,11.8731123046875,12.041188336944579,-1.0398317085266113,0.817769504547119
1758274199368070400,11.8830703125,13.734786736297607,0.0143652099609375,1.5863082374572752
1758274199378029300,11.893029296875,15.387833345031737,-1.661127039337158,2.7726351600646972
1758274199387987500,11.902987548828126,19.457078341674805,-2.618957341003418,5.499331575775146
1758274199397945300,11.9129453125,14.380323358917236,-3.112761433410644,3.7924154296875
1758274199407903500,11.922903564453126,5.275772995758056,-0.040701428222656245,1.3084312072753905
1758274199417862400,11.9328623046875,4.926518828582763,2.8698996025085446,-0.3161842567443848
1758274199427820500,11.942820556640624,4.838083004760742,1.2018892333984375,-0.6851905876159667
1758274199437778200,11.952778076171874,4.163815962219238,1.2065279991149902,-0.2467524085998535
1758274199447736300,11.962736328125,6.52494771194458,1.5963339569091797,0.6675333503723144
1758274199457694200,11.972694091796875,10.530746364593504,1.016338604736328,1.915361328125
1758274199467653400,11.9826533203125,11.637316444396973,0.6105214233398437,2.0732290000915525
1758274199477611300,11.992611328125,9.569025485229492,0.08319850769042968,1.9092261863708495
1758274199487569400,12.0025693359375,9.090035515594481,-0.15367781906127928,2.6604069572448727
1758274199497527300,12.01252734375,10.259154113769531,0.3537432952880859,3.8890813217163083
1758274199507486500,12.022486572265626,10.50859999923706,0.8251017471313477,4.2782887290954585
1758274199517444400,12.0324443359375,10.293421125030516,0.3500023551940918,3.3845033218383787
1758274199527402500,12.042402587890624,10.016441920471191,0.13946224670410157,2.552518244934082
1758274199537360400,12.0523603515625,9.222464794921875,0.5166986457824707,1.6671125434875487
1758274199547319300,12.0623193359375,8.895805905914306,0.92565821685791,0.3950432739257812
1758274199557277400,12.07227734375,9.178022426605224,1.1695675109863282,-0.48811786346435543
1758274199567235300,12.0822353515625,9.631723641204834,0.9238625656127929,-0.7076362281799315
1758274199577193200,12.092193115234375,9.671676881408692,1.215655892944336,-0.09142857589721679
1758274199587151400,12.1021513671875,9.472509230804443,0.9425672660827636,0.8900444671630859
1758274199597110300,12.1121103515625,9.309404242706298,0.8866028022766113,1.8870798210144042
1758274199607068400,12.122068359375,8.879345769500732,1.0260650489807128,2.646341022491455
1758274199617026600,12.132026611328126,8.588150992584229,1.1730091758728027,3.0056209091186523
1758274199626984400,12.141984375,8.360252922058105,1.4927847351074217,2.9427731155395507
1758274199636943600,12.151943603515624,8.117840003967284,2.0145710594177246,2.6158149513244626
1758274199646901200,12.1619013671875,8.079981690216064,2.048987708282471,1.7769465446472168
1758274199656859400,12.171859375,8.447641282653809,1.9496283393859861,0.7547720733642578
1758274199666817500,12.181817626953125,8.852710276031493,1.9015946685791014,0.2075473564147949
1758274199676776400,12.1917763671875,9.05367357788086,1.9671359390258787,0.10714052429199218
1758274199686734300,12.201734375,8.859593605804443,2.1824644508361817,0.34925416717529295
1758274199696692500,12.2116923828125,8.665363996124267,2.4084172325134277,0.6386532928466796
1758274199706650400,12.221650390625,8.621819453430176,2.436698739624023,0.9214683639526366
1758274199716608500,12.2316083984375,8.365041325378417,2.280626718902588,1.2665326782226562
1758274199726567400,12.2415673828125,7.98660782546997,2.4247277313232423,1.343895319366455
1758274199736525600,12.251525634765626,7.858368399047851,2.513313192749023,0.9509469718933105
1758274199746483500,12.2614833984375,7.861211513519287,2.577956637573242,0.6621463966369628
1758274199756441300,12.27144140625,8.033594033050537,2.811391299438476,0.27563246612548825
1758274199766400500,12.281400390625,8.278850065612792,2.953397385406494,-0.1427542739868164
1758274199776358400,12.2913583984375,8.484302495574951,2.9227216766357422,-0.5180453842163085
1758274199786316300,12.30131640625,8.536526019287109,3.0187890182495116,-0.7471405555725097
1758274199796274400,12.3112744140625,8.455871350860596,3.123834616088867,-0.7032967376708984
1758274199806232600,12.321232666015625,8.346486262512206,3.2447417999267576,-0.5086182151794433
1758274199816191500,12.33119140625,8.259696452331543,3.259256647491455,-0.26815058593749996
1758274199826149400,12.3411494140625,8.298302954101562,3.1356559867858884,-0.10609306106567382
1758274199836107500,12.351107421875,8.416067748260497,3.06442848739624,-0.16759411621093748
1758274199846065400,12.3610654296875,8.684218334197997,3.135955261993408,-0.194079972076416
1758274199856024600,12.371024658203124,8.946383415985107,3.134159610748291,-0.2561795776367187
1758274199865982500,12.380982421875,9.148394181060791,3.0723592803955078,-0.4809352584838867
1758274199875940600,12.390940673828124,9.228450299072264,3.0750527572631836,-0.6049848320007324
1758274199885898500,12.4008984375,9.141061938476563,3.0564976943969726,-0.49589901885986326
1758274199895856400,12.4108564453125,9.14929200668335,2.992303162384033,-0.29718028106689454
1758274199905815300,12.420815185546875,9.303718013763428,2.8853122756958007,-0.1452981132507324
1758274199915773400,12.4307734375,9.527426231384277,2.6984149085998532,0.0896329246520996
1758274199925731300,12.4407314453125,9.857077872467041,2.533813544464111,0.3389291725158691
1758274199935689500,12.450689453125,10.213065731811524,2.3986907882690427,0.34057518615722654
1758274199945648400,12.4606484375,11.479748047637939,2.9798832412719727,0.35299510726928707
1758274199955606500,12.4706064453125,8.662520881652831,2.967463320159912,-0.22056582794189453
1758274199965564400,12.480564453125,7.734767738342285,3.294421484375,-1.073200894165039
1758274199975522600,12.4905224609375,7.257124507141113,4.069095359039307,-1.2044330726623536
1758274199985480400,12.50048046875,8.186374026489258,3.8645407546997066,-0.9296984321594238
1758274199995439600,12.510439697265625,10.217255584716796,3.0994436866760253,-0.6358101783752441
