time,seconds_elapsed,z,y,x
1758274187528919000,0.0439189453125,-0.16254177689552307,-0.3261541426181793,0.08659108728170395
1758274187538878000,0.0538779296875,-0.10971610993146896,-0.4370785355567932,0.1026342362165451
1758274187548836000,0.063836181640625,-0.05386429652571678,-0.5237063765525818,0.10232237726449966
1758274187558794000,0.0737939453125,0.002083390951156616,-0.5907756686210632,0.08913440257310867
1758274187568752000,0.083752197265625,0.10036788135766983,-0.5618324279785156,0.08675060421228409
1758274187578711000,0.0937109375,0.24521854519844055,-0.4781423509120941,0.11076752841472626
1758274187588669200,0.103669189453125,0.38784679770469666,-0.5192498564720154,0.15226542949676514
1758274187598626800,0.113626708984375,0.5002351403236389,-0.7333083152770996,0.23423300683498383
1758274187608586200,0.123586181640625,0.5566208958625793,-0.8787217140197754,0.37045902013778687
1758274187618544400,0.13354443359375,0.6419017314910889,-0.9425478577613831,0.5856094360351562
1758274187628502300,0.143502197265625,0.7723188400268555,-1.0401177406311035,0.8240345120429993
1758274187638461400,0.15346142578125,1.0244877338409424,-1.1306074857711792,1.1081568002700806
1758274187648419300,0.16341943359375,1.3919123411178589,-1.0873005390167236,1.4611390829086304
1758274187658377500,0.17337744140625,1.7353473901748657,-1.0348622798919678,1.769755482673645
1758274187668336400,0.18333642578125,2.018282890319824,-1.0912091732025146,1.9940474033355713
1758274187678294500,0.19329443359375,2.222564935684204,-1.4490450620651245,2.097391366958618
1758274187688252400,0.20325244140625,2.3615241050720215,-1.9711120128631592,2.106956958770752
1758274187698210300,0.213210205078125,2.377976179122925,-2.512726068496704,2.048551082611084
1758274187708169500,0.22316943359375,2.329390525817871,-3.045999526977539,1.8588312864303589
1758274187718127400,0.23312744140625,2.238023042678833,-3.5246665477752686,1.4025673866271973
1758274187728085200,0.243085205078125,2.1542325019836426,-3.79923415184021,0.7780667543411255
1758274187738044200,0.253044189453125,2.1767868995666504,-3.9703369140625,0.1808810979127884
1758274187748002300,0.263002197265625,2.5606017112731934,-3.6687803268432617,-0.008175372146070004
1758274187757960200,0.272960205078125,3.4511632919311523,-3.0578532218933105,0.21689076721668243
1758274187767919400,0.28291943359375,3.917433261871338,-3.094639301300049,0.25770875811576843
1758274187777877200,0.292877197265625,4.205014228820801,-3.3592538833618164,0.43644896149635315
1758274187787835400,0.30283544921875,4.56201171875,-3.629636287689209,0.7854087948799133
1758274187797794300,0.312794189453125,4.800894260406494,-3.7534101009368896,1.1361644268035889
1758274187807752400,0.32275244140625,4.945737838745117,-3.666586399078369,1.3947645425796509
1758274187817710300,0.33271044921875,5.070481300354004,-3.6256766319274902,1.5244981050491333
1758274187827669500,0.34266943359375,5.114692211151123,-3.3974668979644775,1.5893044471740723
1758274187837627400,0.35262744140625,4.961309909820557,-3.220553159713745,1.6762279272079468
1758274187847585500,0.36258544921875,4.722343444824219,-3.098194122314453,1.839751124382019
1758274187857543200,0.372543212890625,4.5211591720581055,-2.8138229846954346,1.9754705429077148
1758274187867502300,0.38250244140625,4.427237033843994,-2.4396491050720215,2.0001871585845947
1758274187877460200,0.392460205078125,4.410552501678467,-2.2686524391174316,1.933225154876709
1758274187887418400,0.40241845703125,4.396649360656738,-2.3472907543182373,1.888166069984436
1758274187897377300,0.412377197265625,4.213589668273926,-2.7452383041381836,1.9190973043441772
1758274187907335200,0.422335205078125,3.8517839908599854,-3.2941160202026367,1.9668078422546387
1758274187917293300,0.432293212890625,3.4446022510528564,-3.534003734588623,1.993979573249817
1758274187927252200,0.442252197265625,3.084857702255249,-3.3813066482543945,1.9815425872802734
1758274187937210400,0.45221044921875,2.7833521366119385,-2.9064810276031494,1.937276005744934
1758274187947168300,0.462168212890625,2.5353400707244873,-2.1680519580841064,1.9292809963226318
1758274187957127400,0.47212744140625,2.2928695678710938,-1.4844201803207397,1.9160239696502686
1758274187967085300,0.482085205078125,2.056809902191162,-1.2258397340774536,1.916343331336975
1758274187977043500,0.49204345703125,1.7908532619476318,-1.327216386795044,1.8512903451919556
1758274187987002400,0.50200244140625,1.5943259000778198,-1.716098427772522,1.7615633010864258
1758274187996960500,0.51196044921875,1.596099853515625,-1.911771535873413,1.6394212245941162
1758274188006918400,0.52191845703125,1.7598540782928467,-1.8591878414154053,1.5235161781311035
1758274188016877300,0.531877197265625,1.959930181503296,-1.7905219793319702,1.4379147291183472
1758274188026835500,0.54183544921875,2.1236722469329834,-1.9002593755722046,1.4108690023422241
1758274188036793300,0.55179345703125,2.243988275527954,-2.3050479888916016,1.4225437641143799
1758274188046751200,0.561751220703125,2.315150022506714,-2.86053204536438,1.4078305959701538
1758274188056710100,0.571710205078125,2.2553060054779053,-3.4088733196258545,1.2402220964431763
1758274188066668300,0.581668212890625,1.9641356468200684,-3.939159870147705,0.626960039138794
1758274188076626200,0.591626220703125,1.9347825050354004,-3.613023519515991,0.2653435170650482
1758274188086585300,0.60158544921875,2.0385921001434326,-2.8468408584594727,-0.15932734310626984
1758274188096543200,0.611543212890625,2.3942344188690186,-2.030651330947876,-0.5988711714744568
1758274188106501400,0.62150146484375,2.7674403190612793,-1.2595665454864502,-1.1860179901123047
1758274188116460300,0.631460205078125,2.7816991806030273,-0.5268526077270508,-2.1287944316864014
1758274188126418400,0.64141845703125,3.352041482925415,-0.6247669458389282,-2.5747931003570557
1758274188136376300,0.651376220703125,3.8175418376922607,-0.9715946316719055,-2.3969216346740723
1758274188146335500,0.66133544921875,3.367647409439087,-0.8414837718009949,-1.3143115043640137
1758274188156293400,0.67129345703125,1.8179470300674438,-0.18663272261619568,-0.1196848526597023
1758274188166251500,0.68125146484375,1.1586356163024902,0.22666829824447632,0.966167151927948
1758274188176210400,0.69121044921875,1.3713401556015015,0.6983303427696228,1.3939049243927002
1758274188186168300,0.701168212890625,1.6161960363388062,1.3540176153182983,1.0329853296279907
1758274188196126500,0.71112646484375,2.1387293338775635,2.423675537109375,0.5987688899040222
1758274188206084400,0.72108447265625,2.5527596473693848,2.6302666664123535,0.18652300536632538
1758274188216043300,0.731043212890625,2.7188644409179688,2.4061458110809326,0.14325010776519775
1758274188226001200,0.741001220703125,2.617619514465332,2.017765998840332,0.42427510023117065
1758274188235959300,0.750959228515625,2.456432342529297,1.9550584554672241,0.7893300652503967
1758274188245918200,0.760918212890625,2.518832206726074,2.269620418548584,1.012506365776062
1758274188255876400,0.77087646484375,2.6901447772979736,2.4018020629882812,0.7858051061630249
1758274188265834200,0.780834228515625,2.636211633682251,1.8796743154525757,-0.09767622500658035
1758274188275793400,0.79079345703125,2.4207053184509277,1.6975712776184082,-0.9711853265762329
1758274188285751300,0.800751220703125,2.177835702896118,1.788264513015747,-1.5026074647903442
1758274188295709400,0.81070947265625,1.9522547721862793,1.6605125665664673,-1.415730595588684
1758274188305668400,0.82066845703125,1.7187285423278809,0.9413243532180786,-0.8669036626815796
1758274188315626500,0.83062646484375,1.451401710510254,-0.29064327478408813,-0.38876771926879883
1758274188325584400,0.84058447265625,1.1594351530075073,-1.2575042247772217,-0.14714550971984863
1758274188335543300,0.850543212890625,1.0446665287017822,-1.3049116134643555,0.09914255887269974
1758274188345501400,0.86050146484375,1.5020172595977783,-0.7419750690460205,0.35943618416786194
1758274188355459300,0.870459228515625,1.925327181816101,-0.32938188314437866,0.3573847711086273
1758274188365417200,0.880417236328125,1.8448598384857178,0.138771191239357,-0.007934089750051498
1758274188375376400,0.89037646484375,1.3885016441345215,0.8283469676971436,-0.7082895040512085
1758274188385334300,0.900334228515625,1.055004596710205,1.4033777713775635,-1.276846170425415
1758274188395292200,0.910292236328125,0.7261867523193359,1.147720456123352,-1.7025130987167358
1758274188405251300,0.920251220703125,0.06629540026187897,0.5541154146194458,-2.27648663520813
1758274188415209200,0.930209228515625,-0.7332034111022949,0.8269458413124084,-3.422063112258911
1758274188425167400,0.94016748046875,-1.0235472917556763,-1.529905915260315,-4.1259870529174805
1758274188435126300,0.950126220703125,0.6703914403915405,-3.891749858856201,-3.99165678024292
1758274188445084400,0.96008447265625,2.359058380126953,-3.1488044261932373,-1.3649879693984985
1758274188455042300,0.970042236328125,3.158595561981201,-1.8679784536361694,0.7041642665863037
1758274188465001500,0.98000146484375,3.7117562294006348,-1.3316175937652588,0.0016879114555194974
1758274188474959400,0.98995947265625,4.024310111999512,-0.8173760771751404,-0.7503634691238403
1758274188484917500,0.99991748046875,3.7416462898254395,-0.03374597802758217,-0.720493733882904
1758274188494876400,1.00987646484375,3.035784959793091,0.6212129592895508,-0.4823751747608185
1758274188504834300,1.019834228515625,2.144040107727051,0.7342108488082886,-0.5504269003868103
1758274188514792400,1.02979248046875,1.146622657775879,0.8675710558891296,-0.8362720012664795
1758274188524750300,1.039750244140625,-0.0037119139451533556,1.050232172012329,-0.6813511252403259
1758274188534709500,1.04970947265625,-0.5627807974815369,1.3549199104309082,-0.1376638561487198
1758274188544667100,1.059667236328125,-0.7086842060089111,0.4883614182472229,-0.003973702434450388
1758274188554625300,1.069625244140625,-0.603784441947937,0.11028655618429184,0.1912756860256195
1758274188564584200,1.079584228515625,-0.508601188659668,0.13070048391819,0.22786778211593628
1758274188574542300,1.089542236328125,-0.5955853462219238,0.3148956298828125,0.1768948882818222
1758274188584500200,1.099500244140625,-0.6423171758651733,0.3339737057685852,0.12710468471050262
1758274188594459400,1.10945947265625,-0.7921266555786133,0.360212504863739,0.10949719697237015
1758274188604417300,1.119417236328125,-0.9449161887168884,0.3186264634132385,0.15375760197639465
1758274188614375400,1.12937548828125,-1.1419984102249146,0.42769089341163635,0.19166024029254913
1758274188624334300,1.139334228515625,-1.2897130250930786,0.604391872882843,0.18291176855564117
1758274188634292500,1.14929248046875,-1.0516096353530884,0.6814547181129456,0.19744382798671722
1758274188644250400,1.15925048828125,-0.653323233127594,0.4059981107711792,0.19350607693195343
1758274188654209300,1.169209228515625,-0.46420228481292725,0.8011637926101685,0.06910130381584167
1758274188664167400,1.17916748046875,-0.5513113737106323,1.440382957458496,-0.11317555606365204
1758274188674125300,1.189125244140625,-0.5321685671806335,0.7604294419288635,-0.20844002068042755
1758274188684083500,1.19908349609375,-0.4636792540550232,0.11598412692546844,-0.25110146403312683
1758274188694042400,1.20904248046875,-0.6135305166244507,0.12598562240600586,-0.2791581451892853
1758274188704000500,1.21900048828125,-0.9971373081207275,0.4171799123287201,-0.1286780834197998
1758274188713958400,1.22895849609375,-1.080942153930664,0.20881234109401703,-0.19348052144050598
1758274188723917600,1.23891748046875,-0.7825115323066711,-0.14954873919487,-0.33356013894081116
1758274188733875200,1.248875244140625,-0.42257416248321533,-0.17602428793907166,-0.35987696051597595
1758274188743833300,1.258833251953125,-0.1399182230234146,-0.12654782831668854,-0.37581703066825867
1758274188753792300,1.268792236328125,-0.007210774812847376,0.06137095019221306,-0.43864765763282776
1758274188763750400,1.27875048828125,0.09520747512578964,0.14997990429401398,-0.5614596009254456
1758274188773708300,1.288708251953125,0.12303884327411652,0.32352399826049805,-0.5650226473808289
1758274188783667200,1.298667236328125,0.1454237699508667,0.3421991467475891,-0.4804976284503937
1758274188793625300,1.308625244140625,0.17231051623821259,0.2952313721179962,-0.36002635955810547
1758274188803583500,1.31858349609375,0.20806345343589783,0.2351326197385788,-0.23367373645305634
1758274188813542400,1.32854248046875,0.2371523678302765,0.16532637178897858,-0.10790596157312393
1758274188823500300,1.338500244140625,0.23929087817668915,0.06327484548091888,-0.020770525559782982
1758274188833458400,1.34845849609375,0.1763199120759964,0.01902003027498722,0.02353142574429512
1758274188843416600,1.35841650390625,0.1807205080986023,0.07400312274694443,0.07702607661485672
1758274188853375500,1.36837548828125,0.3459259867668152,0.16749338805675507,0.09286629408597946
1758274188863333400,1.37833349609375,0.5393289923667908,0.17945577204227448,0.007757788058370352
1758274188873291500,1.38829150390625,0.533332109451294,0.28301572799682617,-0.031025027856230736
1758274188883250400,1.39825048828125,0.33912694454193115,0.28894364833831787,-0.09572253376245499
1758274188893208600,1.40820849609375,0.20627647638320923,0.17430096864700317,-0.003061836352571845
1758274188903166200,1.418166259765625,0.19491063058376312,0.044977862387895584,0.03838147595524788
1758274188913125400,1.42812548828125,0.22446106374263763,-0.043712325394153595,0.03074592910706997
1758274188923083300,1.438083251953125,0.0373750701546669,-0.08915197849273682,0.14644509553909302
1758274188933041400,1.44804150390625,-0.052141230553388596,-0.3654029965400696,0.09378933906555176
1758274188943000300,1.458000244140625,-0.06031234189867973,-0.4686167538166046,0.12310941517353058
1758274188952958500,1.46795849609375,0.04556881636381149,-0.10976085066795349,0.11436359584331512
1758274188962916400,1.477916259765625,0.009734386578202248,0.16652213037014008,0.02538205496966839
1758274188972875300,1.487875244140625,-0.05080059543251991,0.11919376999139786,0.019246133044362068
1758274188982833400,1.49783349609375,-0.06625732034444809,0.04841919615864754,0.05492663010954857
1758274188992791300,1.507791259765625,-0.06157175078988075,0.08123306930065155,0.03146125376224518
1758274189002749400,1.51774951171875,-0.06545411050319672,0.15433257818222046,-0.015545936301350594
1758274189012708400,1.527708251953125,-0.04801999032497406,0.1555618941783905,-0.01949460618197918
1758274189022666500,1.53766650390625,-0.029635656625032425,0.14980919659137726,-0.019294869154691696
1758274189032624400,1.547624267578125,-0.041370343416929245,0.2032625675201416,-0.04554617777466774
1758274189042583600,1.55758349609375,-0.04800081625580788,0.26439011096954346,-0.0678621381521225
1758274189052541400,1.56754150390625,-0.03921584412455559,0.37224280834198,-0.08863799273967743
1758274189062499300,1.577499267578125,-0.06527221202850342,0.38444140553474426,-0.06683415919542313
1758274189072458500,1.58745849609375,-0.08307624608278275,0.37365561723709106,-0.02642415091395378
1758274189082416400,1.59741650390625,-0.07682127505540848,0.3674304783344269,0.00723607512190938
1758274189092374300,1.607374267578125,-0.07609796524047852,0.359316349029541,0.03657026216387749
1758274189102333200,1.617333251953125,-0.06460242718458176,0.37686577439308167,0.05662199854850769
1758274189112291300,1.627291259765625,-0.0404835119843483,0.4171580970287323,0.04887353256344795
1758274189122249500,1.63724951171875,-0.004863198380917311,0.4259534478187561,0.03642112389206886
1758274189132208400,1.64720849609375,-0.030173348262906075,0.5392789244651794,-0.01768578588962555
1758274189142166300,1.657166259765625,-0.0639456957578659,0.6059312224388123,-0.03247937932610512
1758274189152124400,1.66712451171875,-0.049192313104867935,0.5952316522598267,-0.017712417989969254
1758274189162083300,1.677083251953125,-0.011141867376863956,0.55186527967453,-0.018221082165837288
1758274189172041500,1.68704150390625,0.008583634160459042,0.48930710554122925,-0.022043783217668533
1758274189181999400,1.696999267578125,0.05139315128326416,0.42501547932624817,-0.04035700857639313
1758274189191957500,1.70695751953125,0.09294591844081879,0.4286371171474457,-0.08342564851045609
1758274189201916400,1.71691650390625,0.15125130116939545,0.44193294644355774,-0.1189626082777977
1758274189211874600,1.72687451171875,0.2099071592092514,0.42167505621910095,-0.13763828575611115
1758274189221832200,1.736832275390625,0.24929744005203247,0.4035551846027374,-0.1460869014263153
1758274189231791600,1.74679150390625,0.26932069659233093,0.40530434250831604,-0.13993579149246216
1758274189241749200,1.756749267578125,0.2904701828956604,0.401309609413147,-0.13628487288951874
1758274189251707400,1.766707275390625,0.29628652334213257,0.3868100345134735,-0.11371538043022156
1758274189261666300,1.776666259765625,0.3228675425052643,0.44119229912757874,-0.07719864696264267
1758274189271624400,1.78662451171875,0.3440455198287964,0.5132198929786682,0.006594519596546888
1758274189281582300,1.796582275390625,0.3601411283016205,0.5167136788368225,0.1514369249343872
1758274189291541200,1.806541259765625,0.3472309410572052,0.5169839859008789,0.28539180755615234
1758274189301499400,1.81649951171875,0.32858559489250183,0.5005962252616882,0.4103046953678131
1758274189311457300,1.826457275390625,0.32534560561180115,0.4686063528060913,0.5083550810813904
1758274189321415400,1.83641552734375,0.32115060091018677,0.4176901876926422,0.5542184710502625
1758274189331374300,1.846374267578125,0.3338155150413513,0.3845263719558716,0.5768854022026062
1758274189341332500,1.85633251953125,0.34660083055496216,0.3795470595359802,0.5429959297180176
1758274189351290400,1.866290283203125,0.3713383972644806,0.41380569338798523,0.4397382140159607
1758274189361249500,1.87624951171875,0.3658120632171631,0.41942018270492554,0.28591376543045044
1758274189371207400,1.88620751953125,0.306119441986084,0.2994423806667328,0.08448692411184311
1758274189381165600,1.89616552734375,0.21574214100837708,0.10913154482841492,-0.1123792752623558
1758274189391124500,1.90612451171875,0.13529151678085327,-0.09959503263235092,-0.2194758951663971
1758274189401082400,1.916082275390625,0.0468820221722126,-0.2875281870365143,-0.25855645537376404
1758274189411040300,1.926040283203125,-0.05482809618115425,-0.47790026664733887,-0.264761358499527
1758274189420999200,1.935999267578125,-0.16625209152698517,-0.7291902899742126,-0.2838072180747986
1758274189430957300,1.945957275390625,-0.2569385766983032,-0.9908232092857361,-0.36760303378105164
1758274189440915500,1.95591552734375,-0.29586175084114075,-1.2280118465423584,-0.5725090503692627
1758274189450874400,1.965874267578125,-0.3334301710128784,-1.292919397354126,-0.8575881719589233
1758274189460832300,1.975832275390625,-0.3759174346923828,-1.2724902629852295,-1.1417107582092285
1758274189470790400,1.985790283203125,-0.4564807116985321,-1.2807978391647339,-1.3180937767028809
1758274189480749300,1.995749267578125,-0.5291123390197754,-1.2762371301651,-1.392594575881958
1758274189490707500,2.00570751953125,-0.5506439805030823,-1.3380695581436157,-1.3950515985488892
1758274189500665300,2.015665283203125,-0.591684877872467,-1.443551778793335,-1.3785141706466675
1758274189510623500,2.02562353515625,-0.6304370760917664,-1.5393736362457275,-1.3692107200622559
1758274189520582400,2.03558251953125,-0.6630802154541016,-1.4387609958648682,-1.4547040462493896
1758274189530540500,2.04554052734375,-0.7207496762275696,-1.3149455785751343,-1.5279250144958496
1758274189540498400,2.05549853515625,-0.7792127132415771,-1.129347324371338,-1.6060595512390137
1758274189550457600,2.06545751953125,-0.8811348080635071,-0.9998475909233093,-1.6353497505187988
1758274189560415500,2.07541552734375,-0.9231259226799011,-0.941584050655365,-1.632262110710144
1758274189570373400,2.085373291015625,-0.9260469079017639,-0.8637670278549194,-1.6336615085601807
1758274189580332300,2.095332275390625,-0.9434061646461487,-0.7655429840087891,-1.583864688873291
1758274189590290400,2.10529052734375,-0.9846585392951965,-0.808671772480011,-1.46280038356781
1758274189600248300,2.115248291015625,-1.018702745437622,-0.9510574340820312,-1.362997055053711
1758274189610207700,2.125207763671875,-1.0724565982818604,-1.0254526138305664,-1.350518822669983
1758274189620166000,2.135165771484375,-1.2356451749801636,-1.0849361419677734,-1.4330482482910156
1758274189630123500,2.14512353515625,-1.315539002418518,-1.173384189605713,-1.5184071063995361
1758274189640083000,2.1550830078125,-1.336168885231018,-1.251207709312439,-1.487112045288086
1758274189650040600,2.16504052734375,-1.3849302530288696,-1.1835956573486328,-1.4836933612823486
1758274189659998700,2.174998779296875,-1.4341745376586914,-1.0950875282287598,-1.538590431213379
1758274189669956600,2.18495654296875,-1.4426589012145996,-0.9750317335128784,-1.5578056573867798
1758274189679915800,2.194915771484375,-1.3662445545196533,-0.8401796221733093,-1.4412468671798706
1758274189689873700,2.204873779296875,-1.2736163139343262,-0.7652340531349182,-1.2889574766159058
1758274189699831800,2.214831787109375,-1.1727887392044067,-0.9758389592170715,-1.0583194494247437
1758274189709790700,2.224790771484375,-1.1275714635849,-0.9947577714920044,-0.9588474631309509
1758274189719748600,2.23474853515625,-1.145723819732666,-0.8699803948402405,-0.9695019721984863
1758274189729706800,2.244706787109375,-1.1693998575210571,-0.8630761504173279,-0.918735146522522
1758274189739665700,2.254665771484375,-1.1736420392990112,-0.8802570104598999,-0.8494855165481567
1758274189749623800,2.264623779296875,-1.1399261951446533,-1.480672001838684,-0.567107081413269
1758274189759581700,2.274581787109375,-1.1242649555206299,-2.0866451263427734,-0.3358011841773987
1758274189769540900,2.284540771484375,-1.210129976272583,-2.376225233078003,-0.1871834695339203
1758274189779498800,2.294498779296875,-1.2353157997131348,-2.607501268386841,-0.14490365982055664
1758274189789456600,2.30445654296875,-1.2116026878356934,-3.0930874347686768,-0.07543803006410599
1758274189799415800,2.314415771484375,-1.2413384914398193,-2.955852746963501,-0.15948206186294556
1758274189809373700,2.324373779296875,-1.1899265050888062,-2.860833168029785,-0.14313584566116333
1758274189819331600,2.33433154296875,-1.2711858749389648,-3.0657570362091064,0.10116762667894363
1758274189829289700,2.344289794921875,-1.3967896699905396,-2.999657392501831,0.22695831954479218
1758274189839248600,2.35424853515625,-1.4547919034957886,-2.9315311908721924,0.2536548972129822
1758274189849206800,2.364206787109375,-1.3256094455718994,-2.5107343196868896,0.1648014634847641
1758274189859164700,2.37416455078125,-1.141469955444336,-2.1391334533691406,0.09253393113613129
1758274189869123600,2.38412353515625,-0.9725536704063416,-1.9904026985168457,0.06398617476224899
1758274189879081700,2.394081787109375,-0.8254899382591248,-1.868229627609253,0.04259806126356125
1758274189889040000,2.404039794921875,-0.7511852979660034,-1.6319129467010498,0.045222338289022446
1758274189898998800,2.413998779296875,-0.6713213920593262,-1.3497451543807983,0.07950548082590103
1758274189908956700,2.423956787109375,-0.5495637655258179,-1.0279388427734375,0.10177003592252731
1758274189918914800,2.433914794921875,-0.44775328040122986,-0.7118224501609802,0.10913793742656708
1758274189928873700,2.443873779296875,-0.37326493859291077,-0.45133736729621887,0.13152606785297394
1758274189938832000,2.453831787109375,-0.29670092463493347,-0.224338561296463,0.16147518157958984
1758274189948789800,2.463789794921875,-0.21568435430526733,-0.033605631440877914,0.19787739217281342
1758274189958747600,2.47374755859375,-0.14064206182956696,0.0253362488001585,0.29342949390411377
1758274189968706600,2.48370654296875,-0.08648934960365295,0.057907506823539734,0.4132128655910492
1758274189978664700,2.493664794921875,-0.04749534651637077,0.12017034739255905,0.5091652274131775
1758274189988622600,2.50362255859375,-0.035460520535707474,0.19631412625312805,0.5647411346435547
1758274189998581800,2.513581787109375,-0.043715257197618484,0.292032390832901,0.6046187877655029
1758274190008539600,2.52353955078125,-0.0600430965423584,0.43302494287490845,0.6219620704650879
1758274190018497800,2.533497802734375,-0.07858961820602417,0.5498948097229004,0.6025396585464478
1758274190028456700,2.543456787109375,-0.11320245265960693,0.5743586421012878,0.46582815051078796
1758274190038414600,2.55341455078125,-0.24659140408039093,0.41619935631752014,0.22841213643550873
1758274190048372700,2.563372802734375,-0.37320712208747864,0.4120296239852905,-0.19514605402946472
1758274190058331600,2.57333154296875,-0.49829474091529846,0.3831695020198822,-0.602377712726593
1758274190068289800,2.583289794921875,-0.45321089029312134,0.5998144745826721,-0.4795681834220886
1758274190078247700,2.59324755859375,0.15231657028198242,1.2468781471252441,0.3702337145805359
1758274190088206800,2.603206787109375,0.7703009843826294,1.8507890701293945,1.2555978298187256
1758274190098164700,2.613164794921875,1.0509240627288818,1.4918261766433716,1.3892086744308472
1758274190108123000,2.623122802734375,1.2684489488601685,0.1575014740228653,0.9166712164878845
1758274190118080500,2.63308056640625,1.037172555923462,0.21705082058906555,0.4071398079395294
1758274190128040000,2.6430400390625,0.7401779294013977,1.4234519004821777,0.39794203639030457
1758274190137997600,2.65299755859375,0.6465851664543152,2.0828499794006348,0.6857306957244873
1758274190147955700,2.662955810546875,0.6831223964691162,2.4001660346984863,0.8914822340011597
1758274190157914600,2.67291455078125,0.7663863897323608,2.552450180053711,0.9231203198432922
1758274190167872800,2.682872802734375,0.8393093347549438,2.392533540725708,0.6565810441970825
1758274190177830700,2.69283056640625,0.8842568397521973,2.5681540966033936,0.4852716326713562
1758274190187789600,2.70278955078125,0.9345359802246094,2.714376211166382,0.4956291913986206
1758274190197747700,2.712747802734375,0.9612738490104675,2.53727388381958,0.5370517373085022
1758274190207705900,2.722705810546875,0.9946288466453552,2.268550157546997,0.5839454531669617
1758274190217664800,2.732664794921875,1.050607442855835,2.0563952922821045,0.6062664985656738
1758274190227622700,2.74262255859375,1.09939706325531,1.956165075302124,0.5820130705833435
1758274190237580800,2.752580810546875,1.1335928440093994,1.885471224784851,0.5078509449958801
1758274190247538700,2.76253857421875,1.1286282539367676,1.8951832056045532,0.4355373680591583
1758274190257497900,2.772497802734375,1.1262239217758179,1.8841712474822998,0.42166441679000854
1758274190267455700,2.782455810546875,1.088994026184082,2.0593080520629883,0.38818156719207764
1758274190277413600,2.79241357421875,1.033341407775879,2.2517709732055664,0.33482593297958374
1758274190287372800,2.802372802734375,1.00922429561615,2.4546701908111572,0.2756134569644928
1758274190297330700,2.81233056640625,1.0050042867660522,2.6213433742523193,0.26726871728897095
1758274190307288600,2.82228857421875,0.9749243855476379,2.772977828979492,0.29203665256500244
1758274190317247700,2.832247802734375,0.9237917065620422,2.9564340114593506,0.3063088059425354
1758274190327205600,2.84220556640625,0.8654996752738953,3.0795271396636963,0.30597350001335144
1758274190337163800,2.852163818359375,0.7920017242431641,3.2704031467437744,0.38230448961257935
1758274190347122700,2.862122802734375,0.804634153842926,3.094787359237671,0.463101863861084
1758274190357080600,2.87208056640625,0.8990868926048279,2.4417006969451904,0.5991063117980957
1758274190367038700,2.882038818359375,0.9881768226623535,1.4363594055175781,0.856852114200592
1758274190376996900,2.891996826171875,0.9592850208282471,0.5888094902038574,1.0282111167907715
1758274190386955800,2.901955810546875,0.8858701586723328,-0.019338810816407204,1.2160494327545166
1758274190396913700,2.91191357421875,0.8468868136405945,-0.17216803133487701,1.3134652376174927
1758274190406871800,2.921871826171875,0.8222078084945679,-0.31026971340179443,1.3634740114212036
1758274190416830700,2.931830810546875,0.8039318919181824,-0.3492405414581299,1.390195369720459
1758274190426788900,2.941788818359375,0.7685078382492065,-0.19124320149421692,1.3471440076828003
1758274190436746800,2.951746826171875,0.7859328985214233,-0.051543351262807846,1.2597012519836426
1758274190446706000,2.961705810546875,0.8105762004852295,-0.0807715430855751,1.219318151473999
1758274190456663600,2.97166357421875,0.7682039737701416,0.08101682364940643,1.0835760831832886
1758274190466621700,2.98162158203125,0.69292813539505,0.4026601016521454,0.8987907767295837
1758274190476580600,2.99158056640625,0.6380744576454163,0.6855892539024353,0.686877429485321
1758274190486538800,3.001538818359375,0.5616771578788757,0.7603612542152405,0.5067795515060425
1758274190496496600,3.01149658203125,0.4788568615913391,0.6698968410491943,0.357143759727478
1758274190506454800,3.021454833984375,0.5066040754318237,0.4658134877681732,0.3135848045349121
1758274190516413700,3.03141357421875,0.5991172194480896,0.28109052777290344,0.368733286857605
1758274190526371800,3.041371826171875,0.5810487270355225,0.06640725582838058,0.42323994636535645
1758274190536329700,3.051329833984375,0.5580888390541077,0.011797004379332066,0.41104426980018616
1758274190546288600,3.06128857421875,0.5113575458526611,0.1400820016860962,0.3778815269470215
1758274190556246800,3.071246826171875,0.41000935435295105,0.3132343590259552,0.35540151596069336
1758274190566204700,3.08120458984375,0.3628719449043274,0.33341923356056213,0.34680694341659546
1758274190576163800,3.091163818359375,0.34204602241516113,0.3103823661804199,0.3470897674560547
1758274190586121700,3.101121826171875,0.34461304545402527,0.3066946864128113,0.353860080242157
1758274190596079900,3.111079833984375,0.3575456142425537,0.2972894608974457,0.3632863163948059
1758274190606037800,3.121037841796875,0.3507409691810608,0.26840031147003174,0.36748000979423523
1758274190615996000,3.130995849609375,0.34328705072402954,0.25058162212371826,0.3483409285545349
1758274190625953800,3.140953857421875,0.3029603958129883,0.17245912551879883,0.3784181475639343
1758274190635912000,3.150911865234375,0.24308668076992035,0.01404577773064375,0.49495968222618103
1758274190645870800,3.160870849609375,0.19379903376102448,-0.18614883720874786,0.6664086580276489
1758274190655829000,3.1708291015625,0.20245963335037231,-0.29884713888168335,0.7762981653213501
1758274190665787000,3.180786865234375,0.2542586326599121,-0.30374470353126526,0.7490707635879517
1758274190675746000,3.19074609375,0.2670269012451172,-0.3126346170902252,0.6675572991371155
1758274190685704000,3.200703857421875,0.2454718053340912,-0.2740379571914673,0.5459837317466736
1758274190695662000,3.210662109375,0.2568855881690979,-0.15046939253807068,0.38978850841522217
1758274190705621000,3.22062109375,0.263899028301239,-0.1661335825920105,0.26126301288604736
1758274190715579100,3.2305791015625,0.2382863312959671,-0.2874022126197815,0.14568635821342468
1758274190725537000,3.240537109375,0.2165972888469696,-0.36853861808776855,0.03063647262752056
1758274190735495000,3.250494873046875,0.16079820692539215,-0.4909611940383911,-0.08377585560083389
1758274190745454000,3.2604541015625,0.049426671117544174,-0.7230189442634583,-0.1438988447189331
1758274190755412000,3.270411865234375,-0.06872206926345825,-0.8747429251670837,-0.21109946072101593
1758274190765369900,3.280369873046875,-0.14153343439102173,-0.8913589715957642,-0.38154974579811096
1758274190775328800,3.290328857421875,-0.2044580727815628,-0.8823119401931763,-0.6347026824951172
1758274190785287000,3.300286865234375,-0.2687648832798004,-0.8604851961135864,-0.8695364594459534
1758274190795245000,3.3102451171875,-0.3220749795436859,-0.8297456502914429,-1.0655741691589355
1758274190805204000,3.320203857421875,-0.3766050636768341,-0.8078302145004272,-1.278876543045044
1758274190815161900,3.330161865234375,-0.4142965078353882,-0.8244478106498718,-1.50652277469635
1758274190825120000,3.3401201171875,-0.44632580876350403,-0.8695939779281616,-1.668149709701538
1758274190835079000,3.350078857421875,-0.4971384108066559,-0.9444115161895752,-1.7754405736923218
1758274190845037000,3.360037109375,-0.5735069513320923,-0.8921685218811035,-1.8822200298309326
1758274190854995000,3.369994873046875,-0.6425869464874268,-0.9863062500953674,-1.8859137296676636
1758274190864953000,3.379953125,-0.763617217540741,-0.9394369721412659,-1.9436111450195312
1758274190874912000,3.389912109375,-0.9188217520713806,-0.7478893995285034,-2.02974009513855
1758274190884870100,3.3998701171875,-1.0195198059082031,-0.5002396702766418,-2.1099891662597656
1758274190894828000,3.409828125,-1.042096734046936,-0.35708117485046387,-2.0919253826141357
1758274190904787000,3.419786865234375,-1.0516631603240967,-0.3289075791835785,-1.9968315362930298
1758274190914744800,3.429744873046875,-1.1067700386047363,-0.421224981546402,-1.8450627326965332
1758274190924703000,3.439702880859375,-1.191680669784546,-0.562168538570404,-1.6684783697128296
1758274190934662000,3.449661865234375,-1.2464765310287476,-0.5814213156700134,-1.5781282186508179
1758274190944619800,3.459619873046875,-1.2450618743896484,-0.567554771900177,-1.5813629627227783
1758274190954578000,3.469577880859375,-1.2052843570709229,-0.6772421002388,-1.6160756349563599
1758274190964536000,3.4795361328125,-1.101039171218872,-0.7333248257637024,-1.6101351976394653
1758274190974495000,3.489494873046875,-1.0425654649734497,-0.9973713755607605,-1.6627027988433838
1758274190984452900,3.499452880859375,-1.0158380270004272,-1.251975178718567,-1.614661455154419
1758274190994411000,3.509410888671875,-0.9869080781936646,-1.3707002401351929,-1.4889326095581055
1758274191004370000,3.519369873046875,-0.9852665066719055,-1.5039522647857666,-1.3620796203613281
1758274191014328000,3.529328125,-1.0395188331604004,-1.4324394464492798,-1.325322151184082
1758274191024286000,3.539285888671875,-1.1289664506912231,-1.3001943826675415,-1.2278647422790527
1758274191034245000,3.5492451171875,-1.1779470443725586,-1.8664796352386475,-0.9659658074378967
1758274191044203000,3.559203125,-1.1990611553192139,-2.2648088932037354,-0.8773373961448669
1758274191054161200,3.5691611328125,-1.1270183324813843,-2.9551033973693848,-0.7316238880157471
1758274191064118800,3.579118896484375,-1.142220139503479,-3.1056549549102783,-0.6881573796272278
1758274191074078200,3.589078125,-1.2708383798599243,-2.923524856567383,-0.6260428428649902
1758274191084035800,3.599035888671875,-1.3671143054962158,-2.787987470626831,-0.5082024931907654
1758274191093994000,3.608993896484375,-1.4223567247390747,-2.8119654655456543,-0.36115872859954834
1758274191103953000,3.618952880859375,-1.3587298393249512,-2.9273295402526855,-0.30843585729599
1758274191113911000,3.6289111328125,-1.2910373210906982,-3.0441129207611084,-0.23187397420406342
1758274191123869000,3.638868896484375,-1.2991054058074951,-3.1046106815338135,-0.1344456970691681
1758274191133827800,3.648827880859375,-1.18807053565979,-2.706501007080078,-0.13077399134635925
1758274191143786000,3.658785888671875,-1.0336151123046875,-2.239469289779663,-0.1521405279636383
1758274191153744000,3.668743896484375,-0.9624078273773193,-1.932021141052246,-0.12348572164773941
1758274191163702000,3.678701904296875,-0.8892406821250916,-1.7022979259490967,-0.06791247427463531
1758274191173661000,3.688660888671875,-0.7793911099433899,-1.5706071853637695,-0.03172064572572708
1758274191183619000,3.698619140625,-0.6617734432220459,-1.4373130798339844,-0.014207165688276291
1758274191193577000,3.708576904296875,-0.5229803919792175,-1.2971551418304443,-0.017853299155831337
1758274191203536100,3.7185361328125,-0.4189178943634033,-1.1249812841415405,0.017780061811208725
1758274191213494000,3.728493896484375,-0.3544422388076782,-0.9134607911109924,0.08310101181268692
1758274191223452000,3.738451904296875,-0.3195721507072449,-0.6919760704040527,0.15658321976661682
1758274191233411000,3.7484111328125,-0.29017511010169983,-0.498134970664978,0.2357022762298584
1758274191243369000,3.758368896484375,-0.2800532281398773,-0.35257482528686523,0.3305363655090332
1758274191253326800,3.768326904296875,-0.3022155165672302,-0.2034977227449417,0.45599842071533203
1758274191263285000,3.778284912109375,-0.3583325743675232,-0.024222515523433685,0.5821358561515808
1758274191273244000,3.788243896484375,-0.4122224450111389,0.17975085973739624,0.6926721930503845
1758274191283202000,3.7982021484375,-0.4329777956008911,0.3483550548553467,0.7672500610351562
1758274191293160000,3.808159912109375,-0.44202110171318054,0.4733142852783203,0.8093269467353821
1758274191303118800,3.818118896484375,-0.4329538345336914,0.5897053480148315,0.7877979278564453
1758274191313077000,3.828076904296875,-0.3701927065849304,0.7584927678108215,0.6833042502403259
1758274191323035000,3.838034912109375,-0.23701786994934082,1.0100016593933105,0.5282989740371704
1758274191332994000,3.847994140625,-0.008234760724008083,1.3257399797439575,0.37029576301574707
1758274191342952000,3.857951904296875,0.29425081610679626,1.6630152463912964,0.23604395985603333
1758274191352910000,3.86791015625,0.5474947690963745,1.9919401407241821,0.27656739950180054
1758274191362868000,3.877867919921875,0.7211190462112427,1.9806318283081055,0.35453492403030396
1758274191372827100,3.8878271484375,0.7155791521072388,1.0856621265411377,0.03910825401544571
1758274191382785000,3.897784912109375,0.6250619888305664,0.21134020388126373,-0.02381744794547558
1758274191392743000,3.907742919921875,0.4940507411956787,0.10280520468950272,-0.1459452211856842
1758274191402701800,3.917701904296875,0.6068699359893799,1.1013779640197754,-0.07215089350938797
1758274191412660000,3.927659912109375,0.6222180128097534,2.044198751449585,0.6973732113838196
1758274191422617900,3.937617919921875,0.5690647959709167,2.390929698944092,1.094019889831543
1758274191432576800,3.94757666015625,0.7247720956802368,2.051872968673706,0.9997938275337219
1758274191442535000,3.957534912109375,0.9559717774391174,1.991593360900879,0.7549641132354736
1758274191452493000,3.9674931640625,1.1284966468811035,2.3116869926452637,0.6399107575416565
1758274191462451000,3.977450927734375,1.2117595672607422,2.6641616821289062,0.6552875638008118
1758274191472409900,3.987409912109375,1.2025163173675537,2.5331108570098877,0.6997503638267517
1758274191482368000,3.997367919921875,1.0646302700042725,1.9691742658615112,0.6619316339492798
1758274191492326100,4.007326171875,0.8975883722305298,1.7317777872085571,0.6444708704948425
1758274191502285000,4.01728515625,0.8363580107688904,1.7571477890014648,0.7259191274642944
1758274191512243000,4.027242919921875,0.8603895902633667,1.7509466409683228,0.8179089426994324
1758274191522201000,4.037201171875,0.8728196024894714,1.7284862995147705,0.8702408671379089
1758274191532160000,4.047159912109375,0.8104829788208008,1.7659621238708496,0.8660000562667847
1758274191542118100,4.0571181640625,0.7401590347290039,1.9613310098648071,0.7782827019691467
1758274191552075800,4.06707568359375,0.6934663653373718,2.083705425262451,0.6841762065887451
1758274191562034000,4.077033935546875,0.6815974712371826,2.025444746017456,0.6352145075798035
1758274191571992800,4.086992919921875,0.6895254254341125,1.929432988166809,0.6012067198753357
1758274191581951000,4.096950927734375,0.7034779787063599,2.009108781814575,0.5680431723594666
1758274191591908900,4.106908935546875,0.7869736552238464,2.111616373062134,0.5076589584350586
1758274191601868000,4.116867919921875,0.8841082453727722,2.2737786769866943,0.3985718786716461
1758274191611826700,4.12682666015625,0.9601337313652039,2.4246973991394043,0.329840749502182
1758274191621784600,4.13678466796875,0.9373445510864258,2.5094008445739746,0.3105083405971527
1758274191631742700,4.14674267578125,0.8526592254638672,2.174609422683716,0.3329334855079651
1758274191641701600,4.15670166015625,0.7085838317871094,1.6620231866836548,0.4350513219833374
1758274191651659800,4.16665966796875,0.5188029408454895,1.4715386629104614,0.6076601147651672
1758274191661617700,4.17661767578125,0.38039395213127136,1.3296926021575928,0.7923650145530701
1758274191671576800,4.186576904296875,0.39266231656074524,1.128991723060608,0.8923712372779846
1758274191681534500,4.196534423828125,0.5093846917152405,0.7727841138839722,0.9666203856468201
1758274191691492600,4.20649267578125,0.5805597901344299,0.4785221219062805,0.9623745083808899
1758274191701451500,4.216451416015625,0.5887511372566223,0.2919309139251709,0.9310888051986694
1758274191711409700,4.22640966796875,0.534745991230011,0.26648762822151184,0.8793702125549316
1758274191721367600,4.236367431640625,0.48652464151382446,0.3044653534889221,0.8014436960220337
1758274191731325700,4.24632568359375,0.4841965138912201,0.24733228981494904,0.7353437542915344
1758274191741284600,4.25628466796875,0.44179898500442505,0.35941648483276367,0.6613129377365112
1758274191751242800,4.26624267578125,0.35812726616859436,0.5659603476524353,0.5543338060379028
1758274191761200600,4.27620068359375,0.29191359877586365,0.7061992287635803,0.4396095871925354
1758274191771159600,4.28615966796875,0.2930862009525299,0.7164353132247925,0.37048617005348206
1758274191781117700,4.29611767578125,0.30634528398513794,0.629192054271698,0.34636327624320984
1758274191791075600,4.30607568359375,0.28110891580581665,0.5107505917549133,0.3241671621799469
1758274191801034800,4.31603466796875,0.28129851818084717,0.4122304320335388,0.3046989142894745
1758274191810992600,4.32599267578125,0.3181438744068146,0.406832754611969,0.2860456109046936
1758274191820950800,4.33595068359375,0.34989941120147705,0.4152933359146118,0.25139495730400085
1758274191830908400,4.345908447265625,0.36441949009895325,0.408446341753006,0.2191762924194336
1758274191840867600,4.35586767578125,0.3430130183696747,0.42777636647224426,0.20074136555194855
1758274191850825500,4.365825439453125,0.326328307390213,0.4300645589828491,0.1667117476463318
1758274191860783600,4.37578369140625,0.3290146291255951,0.36329564452171326,0.1337471455335617
1758274191870742500,4.385742431640625,0.3280892074108124,0.2630614638328552,0.1487593799829483
1758274191880700700,4.39570068359375,0.3375053405761719,0.18628065288066864,0.20744293928146362
1758274191890658600,4.405658447265625,0.3725661039352417,0.1344584822654724,0.25936445593833923
1758274191900616700,4.41561669921875,0.4206404387950897,0.11292655020952225,0.26619359850883484
1758274191910575600,4.42557568359375,0.44164717197418213,0.14067323505878448,0.2695790231227875
1758274191920533800,4.43553369140625,0.46131381392478943,0.17584000527858734,0.2783178985118866
1758274191930491600,4.44549169921875,0.4795583486557007,0.1479913294315338,0.3086654245853424
1758274191940450600,4.455450439453125,0.47526025772094727,0.09520614147186279,0.35093939304351807
1758274191950408700,4.46540869140625,0.4600147306919098,0.032826654613018036,0.4084082543849945
1758274191960366800,4.475366943359375,0.4383251667022705,-0.005097024142742157,0.4443393647670746
1758274191970325800,4.48532568359375,0.4451915919780731,0.0006958839949220419,0.43995341658592224
1758274191980283600,4.49528369140625,0.4282775819301605,-0.024591894820332527,0.40176233649253845
1758274191990241500,4.505241455078125,0.40317195653915405,0.017670607194304466,0.30019843578338623
1758274192000199700,4.51519970703125,0.3688738942146301,0.09166627377271652,0.14784938097000122
1758274192010158600,4.52515869140625,0.3009699583053589,0.09477204829454422,-0.012003932148218155
1758274192020116500,4.535116455078125,0.20741577446460724,-0.04086114838719368,-0.13640044629573822
1758274192030074600,4.54507470703125,0.11681583523750305,-0.22729626297950745,-0.192099928855896
1758274192040033500,4.555033447265625,0.02936587855219841,-0.3950360119342804,-0.18779413402080536
1758274192049991700,4.56499169921875,-0.06016001105308533,-0.5478575229644775,-0.1880902796983719
1758274192059949600,4.574949462890625,-0.15141429007053375,-0.6848931312561035,-0.25985074043273926
1758274192069907700,4.58490771484375,-0.21364037692546844,-0.7811523079872131,-0.4537895917892456
1758274192079866600,4.59486669921875,-0.26163825392723083,-1.0538080930709839,-0.7315924763679504
1758274192089824800,4.60482470703125,-0.3394978940486908,-1.4151990413665771,-0.991658627986908
1758274192099782700,4.61478271484375,-0.43956831097602844,-1.642664909362793,-1.22574782371521
1758274192109741600,4.624741455078125,-0.4805666208267212,-1.8010036945343018,-1.4273056983947754
1758274192119699700,4.63469970703125,-0.4871502220630646,-1.935642957687378,-1.5945549011230469
1758274192129657900,4.644657958984375,-0.5323033332824707,-2.0107080936431885,-1.6880409717559814
1758274192139615500,4.654615478515625,-0.6249791979789734,-1.9412614107131958,-1.7692763805389404
1758274192149574700,4.66457470703125,-0.8050208687782288,-1.694303035736084,-1.922176718711853
1758274192159532500,4.674532470703125,-0.9892764687538147,-1.346173644065857,-2.0284152030944824
1758274192169490700,4.68449072265625,-1.0470359325408936,-1.0248984098434448,-2.0662500858306885
1758274192179449600,4.69444970703125,-1.0428065061569214,-0.9282783269882202,-2.025841474533081
1758274192189407500,4.704407470703125,-1.0441322326660156,-1.1029175519943237,-1.8928228616714478
1758274192199365600,4.71436572265625,-1.077041506767273,-1.3020178079605103,-1.6947009563446045
1758274192209324500,4.724324462890625,-1.136220932006836,-1.3487297296524048,-1.5749702453613281
1758274192219282700,4.73428271484375,-1.1256906986236572,-1.226316213607788,-1.4916349649429321
1758274192229240600,4.744240478515625,-1.0520328283309937,-1.0520710945129395,-1.3745434284210205
1758274192239198700,4.75419873046875,-0.9836838245391846,-1.0475115776062012,-1.2602237462997437
1758274192249157600,4.76415771484375,-0.9896959066390991,-1.0351192951202393,-1.2843730449676514
1758274192259115800,4.77411572265625,-0.9188433289527893,-1.0867750644683838,-1.2989981174468994
1758274192269073700,4.78407373046875,-0.8768265843391418,-1.3367500305175781,-1.2912256717681885
1758274192279032800,4.79403271484375,-0.9052444100379944,-1.457970142364502,-1.265030860900879
1758274192288990700,4.80399072265625,-1.0099146366119385,-1.5042002201080322,-1.1968562602996826
1758274192298948600,4.813948486328125,-1.0917836427688599,-1.4682148694992065,-1.1364868879318237
1758274192308906500,4.823906494140625,-1.166103720664978,-1.3424850702285767,-1.1391907930374146
1758274192318865700,4.83386572265625,-1.2851717472076416,-1.4746320247650146,-1.1198413372039795
1758274192328823600,4.843823486328125,-1.253138780593872,-1.873594045639038,-1.0638532638549805
1758274192338781700,4.85378173828125,-1.2226964235305786,-2.3906757831573486,-0.9480248689651489
1758274192348740600,4.86374072265625,-1.191057562828064,-2.4964468479156494,-0.911325991153717
1758274192358698500,4.873698486328125,-1.2922430038452148,-2.5660698413848877,-0.7916664481163025
1758274192368656600,4.88365673828125,-1.4166672229766846,-2.553861379623413,-0.6886191368103027
1758274192378614800,4.89361474609375,-1.4759153127670288,-2.6758458614349365,-0.5219678282737732
1758274192388573700,4.90357373046875,-1.4581438302993774,-2.720261335372925,-0.42431479692459106
1758274192398531600,4.913531494140625,-1.4032694101333618,-2.9849131107330322,-0.2876613438129425
1758274192408489700,4.92348974609375,-1.2935692071914673,-2.9955453872680664,-0.1540825068950653
1758274192418448600,4.93344873046875,-1.1481419801712036,-2.619182586669922,-0.12253870069980621
1758274192428406800,4.94340673828125,-1.0015746355056763,-2.3589107990264893,-0.06537021696567535
1758274192438364700,4.95336474609375,-0.8957920670509338,-2.180208683013916,-0.012716327793896198
1758274192448322600,4.963322509765625,-0.8371710777282715,-1.8707462549209595,0.002095375210046768
1758274192458281700,4.97328173828125,-0.7330835461616516,-1.5717324018478394,0.00023435817274730653
1758274192468239600,4.983239501953125,-0.6548870205879211,-1.279527187347412,0.013312609866261482
1758274192478197500,4.993197509765625,-0.6184624433517456,-1.0457240343093872,0.0187222883105278
1758274192488156700,5.00315673828125,-0.5883846879005432,-0.755009651184082,0.06561309844255447
1758274192498114600,5.013114501953125,-0.554857611656189,-0.45668578147888184,0.15758803486824036
1758274192508072700,5.02307275390625,-0.5023803114891052,-0.19035130739212036,0.2622683644294739
1758274192518313700,5.033313720703125,-0.4225887954235077,-0.00729519734159112,0.3380885720252991
1758274192529234700,5.044234619140625,-0.3562081754207611,0.11367356777191162,0.45942243933677673
1758274192539193600,5.054193603515625,-0.3124718964099884,0.21735654771327972,0.5960820317268372
1758274192549151700,5.06415185546875,-0.2749335765838623,0.33606934547424316,0.7130901217460632
1758274192559109600,5.074109619140625,-0.2497539073228836,0.4435462951660156,0.7885891795158386
1758274192569067800,5.08406787109375,-0.24587447941303253,0.530857503414154,0.8134753108024597
1758274192579026700,5.094026611328125,-0.20549510419368744,0.7367427349090576,0.7613133192062378
1758274192588984800,5.10398486328125,-0.1125960499048233,1.0066988468170166,0.6441243886947632
1758274192598942700,5.113942626953125,0.07883382588624954,1.3078123331069946,0.4689752161502838
1758274192608900600,5.123900634765625,0.3356344699859619,1.4807984828948975,0.20384153723716736
1758274192618858500,5.1338583984375,0.5251333117485046,1.6253948211669922,-0.013486247509717941
1758274192628816600,5.143816650390625,0.566433846950531,1.5864537954330444,-0.07275356352329254
1758274192638774500,5.1537744140625,0.4673123359680176,0.9652949571609497,-0.12071922421455383
1758274192648733700,5.163733642578125,0.4658936560153961,0.4184475839138031,0.3901461660861969
1758274192658691600,5.173691650390625,0.5118409395217896,0.7170555591583252,0.5446627736091614
1758274192668649700,5.183649658203125,0.8099882006645203,0.9848657250404358,0.7129785418510437
1758274192678607600,5.193607666015625,0.9321615099906921,1.0997036695480347,0.9094452857971191
1758274192688566800,5.20356689453125,0.6289944648742676,1.6476926803588867,0.8579621315002441
1758274192698524700,5.213524658203125,0.6129286289215088,2.0284790992736816,0.859173059463501
1758274192708482800,5.22348291015625,0.7928046584129333,2.30112624168396,0.7223166823387146
1758274192718441700,5.233441650390625,0.9944533705711365,2.519911050796509,0.6012991666793823
1758274192728400000,5.24339990234375,1.1300002336502075,2.5955212116241455,0.44244691729545593
1758274192738357500,5.253357421875,1.2007453441619873,2.7058284282684326,0.45009845495224
1758274192748315600,5.263315673828125,1.2317601442337036,2.526193618774414,0.5641760230064392
1758274192758274600,5.273274658203125,1.1449822187423706,2.0425400733947754,0.6991602182388306
1758274192768232700,5.283232666015625,1.0261889696121216,1.7859541177749634,0.8459605574607849
1758274192778190600,5.293190673828125,0.979762852191925,1.816449522972107,0.9077650904655457
1758274192788149500,5.3031494140625,0.9498347640037537,1.920320749282837,0.881283164024353
1758274192798107600,5.313107666015625,0.889363169670105,2.00264573097229,0.847901463508606
1758274192808065500,5.3230654296875,0.7457005381584167,2.0107367038726807,0.813075602054596
1758274192818023700,5.333023681640625,0.6524126529693604,2.0967636108398438,0.6956523060798645
1758274192827982600,5.342982666015625,0.6559584140777588,2.111832618713379,0.6132634282112122
1758274192837940700,5.352940673828125,0.6869639754295349,2.0075435638427734,0.6007412075996399
1758274192847898600,5.362898681640625,0.7282539010047913,1.9596210718154907,0.5512501001358032
1758274192857857800,5.37285791015625,0.7873806357383728,2.107307195663452,0.48511821031570435
1758274192867815700,5.382815673828125,0.8131088614463806,2.3995890617370605,0.40772703289985657
1758274192877773600,5.392773681640625,0.7976580262184143,2.6780338287353516,0.3680765628814697
1758274192887731500,5.4027314453125,0.7594488263130188,2.7621688842773438,0.37168169021606445
1758274192897690600,5.412690673828125,0.7221808433532715,2.525599241256714,0.4497181475162506
1758274192907648500,5.4226484375,0.6430511474609375,2.081510543823242,0.5903836488723755
1758274192917606700,5.432606689453125,0.4767652153968811,1.680318832397461,0.7289684414863586
1758274192927564500,5.442564453125,0.3650227189064026,1.3324226140975952,0.8383484482765198
1758274192937523700,5.452523681640625,0.3814522922039032,0.9726234674453735,0.8805528879165649
1758274192947481600,5.462481689453125,0.4785916209220886,0.4289252460002899,1.0418707132339478
1758274192957439700,5.472439697265625,0.5469866394996643,0.2734997272491455,1.030410885810852
1758274192967398700,5.482398681640625,0.5725700259208679,0.35374927520751953,0.8924463391304016
1758274192977356800,5.492356689453125,0.542746365070343,0.6376068592071533,0.7480409145355225
1758274192987314700,5.502314697265625,0.5065353512763977,0.7638688683509827,0.679106593132019
1758274192997272800,5.51227294921875,0.5167618989944458,0.7960928678512573,0.6050300002098083
1758274193007231700,5.522231689453125,0.5206173658370972,0.8670487999916077,0.5073391199111938
1758274193017189600,5.532189697265625,0.47197607159614563,0.862385094165802,0.4796701967716217
1758274193027147500,5.5421474609375,0.38920289278030396,0.8345694541931152,0.4703059792518616
1758274193037106700,5.552106689453125,0.33904996514320374,0.7760568261146545,0.42174696922302246
1758274193047064600,5.562064697265625,0.3517010509967804,0.7020023465156555,0.364097535610199
1758274193057022500,5.5720224609375,0.3599350154399872,0.5659148097038269,0.34368279576301575
1758274193066980600,5.581980712890625,0.3488525152206421,0.4724290668964386,0.34208837151527405
1758274193076939500,5.591939453125,0.3337351083755493,0.3261767625808716,0.38852429389953613
1758274193086897700,5.601897705078125,0.3341127336025238,0.26282522082328796,0.4172464907169342
1758274193096855600,5.61185546875,0.3636176288127899,0.2732376754283905,0.40569743514060974
1758274193106814700,5.621814697265625,0.3836991786956787,0.30344030261039734,0.3559698164463043
1758274193116772600,5.631772705078125,0.368542343378067,0.3261632025241852,0.29085075855255127
1758274193126730800,5.641730712890625,0.34389930963516235,0.24573573470115662,0.22614072263240814
1758274193136688600,5.651688720703125,0.3247296214103699,0.13399721682071686,0.1801047921180725
1758274193146647800,5.661647705078125,0.37115782499313354,0.1888338327407837,0.163370281457901
1758274193156605700,5.671605712890625,0.4190870225429535,0.27033481001853943,0.14822036027908325
1758274193166563800,5.681563720703125,0.43673232197761536,0.268606960773468,0.1613265722990036
1758274193176522800,5.691522705078125,0.41987156867980957,0.2646210193634033,0.20733055472373962
1758274193186480600,5.701480712890625,0.35961782932281494,0.22973066568374634,0.33247676491737366
1758274193196438500,5.7114384765625,0.31931406259536743,0.1215037927031517,0.4741438627243042
1758274193206397400,5.7213974609375,0.349001407623291,0.05977092310786247,0.5527092814445496
1758274193216355600,5.73135546875,0.42074084281921387,0.049667686223983765,0.5920681357383728
1758274193226313500,5.7413134765625,0.4668004810810089,0.07677893340587616,0.5967866778373718
1758274193236271600,5.751271728515625,0.48863786458969116,0.16128289699554443,0.5512357354164124
1758274193246230500,5.76123046875,0.4787231683731079,0.2740917503833771,0.4523797333240509
1758274193256188700,5.771188720703125,0.42655423283576965,0.297334223985672,0.37779736518859863
1758274193266146600,5.781146484375,0.3573107421398163,0.12885278463363647,0.33271297812461853
1758274193276105700,5.791105712890625,0.29358768463134766,-0.06963127851486206,0.2712661325931549
1758274193286063600,5.801063720703125,0.24076786637306213,-0.23521225154399872,0.1352425068616867
1758274193296021800,5.811021728515625,0.1741587519645691,-0.37655019760131836,-0.0949598029255867
1758274193305979600,5.820979736328125,0.08362192660570145,-0.500679612159729,-0.3103477358818054
1758274193315938800,5.830938720703125,-0.018074341118335724,-0.5864810347557068,-0.5252975821495056
1758274193325896700,5.840896728515625,-0.08068126440048218,-0.7605199813842773,-0.7674577832221985
1758274193335854600,5.8508544921875,-0.1560939997434616,-1.046432375907898,-1.0106430053710938
1758274193345813800,5.860813720703125,-0.22379660606384277,-1.303442120552063,-1.2015328407287598
1758274193355771600,5.870771728515625,-0.28556543588638306,-1.4617196321487427,-1.3461227416992188
1758274193365729500,5.8807294921875,-0.35106533765792847,-1.5301713943481445,-1.4689042568206787
1758274193375687700,5.890687744140625,-0.40547266602516174,-1.5036201477050781,-1.5801453590393066
1758274193385646600,5.900646484375,-0.48214295506477356,-1.5223864316940308,-1.681290864944458
1758274193395604700,5.910604736328125,-0.5680245757102966,-1.5531930923461914,-1.7841602563858032
1758274193405562600,5.920562744140625,-0.6596758961677551,-1.5948628187179565,-1.8706400394439697
1758274193415521500,5.930521484375,-0.6972169280052185,-1.550545334815979,-1.9146453142166138
1758274193425479700,5.940479736328125,-0.7466022968292236,-1.4178717136383057,-1.964017629623413
1758274193435437600,5.9504375,-0.8814107179641724,-1.224839687347412,-1.9913030862808228
1758274193445396700,5.960396728515625,-0.9417555332183838,-1.0179368257522583,-1.9072248935699463
1758274193455354600,5.970354736328125,-0.9090809226036072,-0.8272380232810974,-1.718932032585144
1758274193465312800,5.980312744140625,-0.9054715633392334,-0.7414437532424927,-1.5403544902801514
1758274193475270700,5.990270751953125,-0.9625306129455566,-0.6813079714775085,-1.4717155694961548
1758274193485229800,6.000229736328125,-1.0521416664123535,-0.5449783802032471,-1.455399990081787
1758274193495187500,6.0101875,-1.1367977857589722,-0.6200387477874756,-1.3740209341049194
1758274193505145600,6.0201455078125,-1.1932437419891357,-0.6127579212188721,-1.302096962928772
1758274193515104500,6.0301044921875,-1.1813892126083374,-0.7390559315681458,-1.2898865938186646
1758274193525062700,6.040062744140625,-1.190855860710144,-1.103739857673645,-1.2784675359725952
1758274193535020500,6.0500205078125,-1.2197844982147217,-1.4274537563323975,-1.2230570316314697
1758274193544978700,6.059978759765625,-1.2098774909973145,-1.5393118858337402,-1.147682547569275
1758274193554937600,6.0699375,-1.1757116317749023,-1.7448676824569702,-1.0851808786392212
1758274193564895700,6.079895751953125,-1.1039752960205078,-2.0827486515045166,-1.0434906482696533
1758274193574853600,6.089853515625,-1.0418363809585571,-2.5170891284942627,-1.024376630783081
1758274193584812500,6.0998125,-1.0441205501556396,-2.836857318878174,-1.106492280960083
1758274193594770700,6.109770751953125,-1.079072117805481,-2.755279064178467,-1.1828725337982178
1758274193604728600,6.119728515625,-1.1471257209777832,-2.638838529586792,-1.0925021171569824
1758274193614687000,6.12968701171875,-1.2769443988800049,-2.780679225921631,-0.8712038993835449
1758274193624646000,6.13964599609375,-1.4370448589324951,-2.9263932704925537,-0.6499039530754089
1758274193634604000,6.14960400390625,-1.555828332901001,-2.9998114109039307,-0.5489978790283203
1758274193644562000,6.15956201171875,-1.5582685470581055,-3.192793846130371,-0.45587190985679626
1758274193654521000,6.16952099609375,-1.4795862436294556,-3.2067835330963135,-0.4030803442001343
1758274193664479000,6.17947900390625,-1.2742469310760498,-3.0346925258636475,-0.43047547340393066
1758274193674437000,6.18943701171875,-1.121596097946167,-2.7468514442443848,-0.4014827311038971
1758274193684396000,6.19939599609375,-0.9936397671699524,-2.4651007652282715,-0.37309953570365906
1758274193694354200,6.209354248046875,-0.9153979420661926,-2.173382520675659,-0.3260907530784607
1758274193704312000,6.21931201171875,-0.8817231059074402,-1.8330655097961426,-0.21399430930614471
1758274193714270000,6.22927001953125,-0.7863408923149109,-1.555392861366272,-0.12185772508382797
1758274193724228900,6.239228759765625,-0.67298424243927,-1.3156218528747559,-0.059250008314847946
1758274193734187000,6.24918701171875,-0.5589013695716858,-1.1068233251571655,-0.027095800265669823
1758274193744145000,6.259144775390625,-0.46188560128211975,-0.9115971326828003,0.0021110877860337496
1758274193754103800,6.269103759765625,-0.4187330901622772,-0.67432701587677,0.055150337517261505
1758274193764062000,6.27906201171875,-0.3256968855857849,-0.4263419806957245,0.11258726567029953
1758274193774019800,6.289019775390625,-0.2450462430715561,-0.23720988631248474,0.1737843155860901
1758274193783978000,6.29897802734375,-0.18774352967739105,-0.15748895704746246,0.2525688707828522
1758274193793937000,6.30893701171875,-0.16848808526992798,-0.1355208158493042,0.3809627890586853
1758274193803895000,6.31889501953125,-0.1588176041841507,-0.08304295688867569,0.5183722972869873
1758274193813853000,6.32885302734375,-0.15910203754901886,0.009297627955675125,0.6426295638084412
1758274193823812000,6.33881201171875,-0.17200851440429688,0.15534670650959015,0.7329826354980469
1758274193833770000,6.34877001953125,-0.20678406953811646,0.37073519825935364,0.7600904107093811
1758274193843728100,6.35872802734375,-0.25364264845848083,0.6519599556922913,0.7054625749588013
1758274193853685800,6.368685791015625,-0.2471376210451126,0.9660326242446899,0.5731479525566101
1758274193863645200,6.378645263671875,-0.1734767109155655,1.2554231882095337,0.3383306562900543
1758274193873602800,6.388602783203125,-0.11588984727859497,1.4029910564422607,-0.05637965351343155
1758274193883561000,6.39856103515625,-0.07662979513406754,1.2703931331634521,-0.4766496419906616
1758274193893520000,6.408519775390625,-0.05458841100335121,0.9276914000511169,-0.7058966755867004
1758274193903478000,6.41847802734375,0.014603709802031517,0.7072215676307678,-0.2951616048812866
1758274193913436000,6.428435791015625,0.31288519501686096,0.45317015051841736,0.4468126595020294
1758274193923394000,6.43839404296875,0.4453449845314026,0.4598328471183777,0.5775547027587891
1758274193933353000,6.44835302734375,0.7628539800643921,0.5917908549308777,0.7497384548187256
1758274193943311000,6.45831103515625,0.8312117457389832,0.6867964863777161,0.5874086618423462
1758274193953269000,6.46826904296875,0.6817633509635925,1.1487566232681274,0.5356146693229675
1758274193963227100,6.47822705078125,0.7440738677978516,1.455946683883667,0.7951839566230774
1758274193973186000,6.48818603515625,0.8881716728210449,1.8842415809631348,0.896831214427948
1758274193983144000,6.49814404296875,1.0180524587631226,2.24121356010437,0.7984287142753601
1758274193993102000,6.50810205078125,1.0324684381484985,2.3544514179229736,0.4844156801700592
1758274194003061000,6.51806103515625,0.9852539896965027,2.8771629333496094,0.47327300906181335
1758274194013019100,6.52801904296875,0.9843594431877136,3.0507116317749023,0.5147938132286072
1758274194022976800,6.537976806640625,0.9775620102882385,2.784440040588379,0.5297075510025024
1758274194032935000,6.547934814453125,0.9967788457870483,2.467576742172241,0.5708914399147034
1758274194042893800,6.557893798828125,1.0124856233596802,2.3383424282073975,0.6144330501556396
1758274194052852000,6.56785205078125,1.01278555393219,2.3589231967926025,0.6799002289772034
1758274194062809900,6.577809814453125,0.9633194208145142,2.3180253505706787,0.727672815322876
1758274194072769000,6.58776904296875,0.8891674280166626,2.1793792247772217,0.7478936314582825
1758274194082727000,6.597726806640625,0.8075724244117737,2.1081082820892334,0.7586057186126709
1758274194092685000,6.60768505859375,0.7782715559005737,2.0972962379455566,0.7412152290344238
1758274194102643000,6.617642822265625,0.8371170163154602,1.9840278625488281,0.6641359329223633
1758274194112602000,6.62760205078125,0.847220242023468,1.8262277841567993,0.6537075042724609
1758274194122560000,6.63756005859375,0.8589924573898315,1.6337840557098389,0.6152985692024231
1758274194132518100,6.64751806640625,0.8974663615226746,1.5993986129760742,0.5842291116714478
1758274194142477000,6.65747705078125,0.8826147317886353,1.6662030220031738,0.6314778327941895
1758274194152435000,6.66743505859375,0.8655004501342773,1.7780927419662476,0.6707882285118103
1758274194162392800,6.677392822265625,0.8751360177993774,1.7934021949768066,0.6841386556625366
1758274194172351000,6.68735107421875,0.8811841011047363,1.74607253074646,0.6241559982299805
1758274194182310000,6.697309814453125,0.8480857610702515,1.888856053352356,0.559261679649353
1758274194192267800,6.707267822265625,0.7651392221450806,1.9997594356536865,0.6043316721916199
1758274194202226000,6.717225830078125,0.6470229625701904,1.8666667938232422,0.6796832084655762
1758274194212184800,6.727184814453125,0.5632082223892212,1.5662084817886353,0.795744776725769
1758274194222143000,6.73714306640625,0.5170354247093201,1.1646640300750732,0.9385006427764893
1758274194232100900,6.747100830078125,0.5214003324508667,0.8899030089378357,0.9701395034790039
1758274194242059000,6.75705908203125,0.5614060759544373,0.8294777274131775,0.9600093960762024
1758274194252018000,6.767017822265625,0.5779531002044678,0.7326907515525818,0.9383954405784607
1758274194261976000,6.77697607421875,0.4988768994808197,0.67903071641922,0.827043354511261
1758274194271934000,6.786933837890625,0.39838412404060364,0.6879368424415588,0.6841458678245544
1758274194281893000,6.79689306640625,0.390694797039032,0.735438346862793,0.634867787361145
1758274194291851000,6.80685107421875,0.4057150185108185,0.6783167123794556,0.6944463849067688
1758274194301809200,6.81680908203125,0.3936639428138733,0.666929304599762,0.6913483738899231
1758274194311766800,6.826766845703125,0.3505023419857025,0.7125841379165649,0.6013737320899963
1758274194321726200,6.836726318359375,0.32545480132102966,0.7439577579498291,0.5298630595207214
1758274194331683800,6.846683837890625,0.3251434564590454,0.6895355582237244,0.4505046010017395
1758274194341642000,6.85664208984375,0.37899765372276306,0.5936353802680969,0.3812815845012665
1758274194351599900,6.866599853515625,0.44535884261131287,0.5868789553642273,0.3508017063140869
1758274194361559000,6.87655908203125,0.4267209470272064,0.5057744979858398,0.34472355246543884
1758274194371517000,6.886516845703125,0.4123886227607727,0.358081191778183,0.3899959623813629
1758274194381475000,6.89647509765625,0.45205801725387573,0.31995296478271484,0.4127020835876465
1758274194391434000,6.90643408203125,0.49596288800239563,0.28870877623558044,0.424805611371994
1758274194401391900,6.916391845703125,0.5069100856781006,0.25492364168167114,0.424060195684433
1758274194411350000,6.92635009765625,0.489734023809433,0.24587607383728027,0.37946316599845886
1758274194421308200,6.93630810546875,0.505156934261322,0.281982958316803,0.3047468662261963
1758274194431267000,6.94626708984375,0.509800374507904,0.28221356868743896,0.27564355731010437
1758274194441225000,6.956224853515625,0.4873848557472229,0.26849591732025146,0.26135170459747314
1758274194451183000,6.96618310546875,0.41577351093292236,0.19462327659130096,0.3166179060935974
1758274194461142000,6.97614208984375,0.2920297384262085,0.0867849588394165,0.5070882439613342
1758274194471100000,6.986099853515625,0.23707540333271027,0.0024983114562928677,0.6324256658554077
1758274194481057800,6.996057861328125,0.25914502143859863,-0.04830335080623627,0.6704081892967224
1758274194491016000,7.006015869140625,0.28046974539756775,-0.03840038552880287,0.7030382752418518
1758274194500974800,7.015974853515625,0.26362019777297974,-0.04198100417852402,0.6915696859359741
1758274194510933000,7.02593310546875,0.2532690167427063,-0.06591244041919708,0.6018344759941101
1758274194520891000,7.035890869140625,0.2848131060600281,-0.07341642677783966,0.4003809690475464
1758274194530849000,7.04584912109375,0.3052525818347931,-0.11999644339084625,0.1319630891084671
1758274194540808000,7.055807861328125,0.2701300084590912,-0.31716862320899963,-0.16981273889541626
1758274194550766000,7.06576611328125,0.1678483933210373,-0.5096201300621033,-0.4173210561275482
1758274194560724000,7.075723876953125,0.01991378702223301,-0.6218369007110596,-0.5458052754402161
1758274194570683000,7.085682861328125,-0.15908871591091156,-0.72901451587677,-0.5747109651565552
1758274194580641000,7.09564111328125,-0.28280720114707947,-0.9021737575531006,-0.5420867204666138
1758274194590599200,7.10559912109375,-0.33299314975738525,-1.094304084777832,-0.5579032301902771
1758274194600557000,7.11555712890625,-0.3587467074394226,-1.2243847846984863,-0.7766909599304199
1758274194610516200,7.12551611328125,-0.37456855177879333,-1.311006784439087,-1.167094349861145
1758274194620474400,7.135474365234375,-0.4099563658237457,-1.3041698932647705,-1.5924915075302124
1758274194630432300,7.145432373046875,-0.45407986640930176,-1.2587982416152954,-1.915986180305481
1758274194640390400,7.155390380859375,-0.4676191210746765,-1.2687267065048218,-2.090625762939453
1758274194650349300,7.165349365234375,-0.4692971706390381,-1.3682607412338257,-2.169149398803711
1758274194660307500,7.175307373046875,-0.5844359993934631,-1.4789366722106934,-2.272061824798584
1758274194670265300,7.185265380859375,-0.7996343374252319,-1.3357795476913452,-2.3849170207977295
1758274194680224500,7.195224609375,-0.8396512866020203,-1.2838101387023926,-2.3753108978271484
1758274194690182400,7.205182373046875,-0.8659840822219849,-1.2045445442199707,-2.350745439529419
1758274194700140500,7.215140625,-0.875093936920166,-1.0548973083496094,-2.3069043159484863
1758274194710098400,7.225098388671875,-0.9120663404464722,-0.8749951720237732,-2.1901910305023193
1758274194720057600,7.2350576171875,-0.9750820994377136,-0.6892793774604797,-2.048322916030884
1758274194730015200,7.24501513671875,-1.0225156545639038,-0.49706223607063293,-1.8573931455612183
1758274194739973400,7.254973388671875,-1.0888339281082153,-0.23777873814105988,-1.6855967044830322
1758274194749931300,7.26493115234375,-1.1268644332885742,-0.207061305642128,-1.5806190967559814
1758274194759890400,7.274890380859375,-1.1074928045272827,-0.26817500591278076,-1.514216661453247
1758274194769848300,7.284848388671875,-1.1214041709899902,-0.3886374831199646,-1.444370150566101
1758274194779806500,7.294806396484375,-1.184493899345398,-0.5969880223274231,-1.2910717725753784
1758274194789765400,7.304765380859375,-1.2105721235275269,-0.7238013744354248,-1.0869181156158447
1758274194799723300,7.31472314453125,-1.2169886827468872,-0.8678991794586182,-0.9511032104492188
1758274194809681400,7.324681396484375,-1.171046495437622,-1.1298189163208008,-0.875309407711029
1758274194819639600,7.3346396484375,-1.1904466152191162,-1.5554980039596558,-0.8464735150337219
1758274194829598500,7.344598388671875,-1.232835292816162,-1.7488040924072266,-0.8815454840660095
1758274194839556400,7.354556396484375,-1.2981469631195068,-1.9443209171295166,-0.8400188088417053
1758274194849514500,7.364514404296875,-1.397810935974121,-2.3516042232513428,-0.6945585608482361
1758274194859472400,7.374472412109375,-1.4649567604064941,-2.6409354209899902,-0.5775826573371887
1758274194869431600,7.384431640625,-1.5623096227645874,-3.21748685836792,-0.25771570205688477
1758274194879389200,7.39438916015625,-1.6535950899124146,-3.6207613945007324,-0.05836956575512886
1758274194889347300,7.404347412109375,-1.5896493196487427,-3.4694721698760986,-0.14680515229701996
1758274194899306200,7.41430615234375,-1.4896838665008545,-3.348785161972046,-0.13237641751766205
1758274194909264400,7.424264404296875,-1.4002938270568848,-3.313312530517578,-0.04757923632860184
1758274194919222300,7.43422216796875,-1.2762749195098877,-3.3504037857055664,0.08432500064373016
1758274194929180400,7.444180419921875,-1.1201814413070679,-3.133277654647827,0.2345094382762909
1758274194939139300,7.454139404296875,-1.0369105339050293,-2.7502970695495605,0.27627846598625183
1758274194949097500,7.464097412109375,-0.9570745825767517,-2.161733865737915,0.18190455436706543
1758274194959055400,7.474055419921875,-0.8732529282569885,-1.7868907451629639,0.11548718065023422
1758274194969013500,7.484013427734375,-0.8092353343963623,-1.5640300512313843,0.08390448987483978
1758274194978972400,7.493972412109375,-0.7224085330963135,-1.2851512432098389,0.03539847210049629
1758274194988930600,7.5039306640625,-0.7090370655059814,-0.835777997970581,0.05935040861368179
1758274194998888400,7.513888427734375,-0.6512062549591064,-0.5521289706230164,0.10842154920101166
1758274195008847400,7.523847412109375,-0.5872179865837097,-0.27550455927848816,0.15446174144744873
1758274195018805500,7.533805419921875,-0.5222647786140442,0.010759171098470688,0.15872280299663544
1758274195028763400,7.543763427734375,-0.468177855014801,0.23980407416820526,0.15189898014068604
1758274195038721300,7.55372119140625,-0.41486936807632446,0.3170730173587799,0.19516976177692413
1758274195048680200,7.56368017578125,-0.3563013970851898,0.2623565196990967,0.2669326364994049
1758274195058638300,7.573638427734375,-0.2921314537525177,0.13978692889213562,0.362644761800766
1758274195068596500,7.583596435546875,-0.22803395986557007,0.006336192600429058,0.4796249270439148
1758274195078554400,7.593554443359375,-0.16397535800933838,-0.0838477611541748,0.6137193441390991
1758274195088513300,7.60351318359375,-0.10249415040016174,-0.018492192029953003,0.7176819443702698
1758274195098471400,7.613471435546875,-0.06512200832366943,0.14815804362297058,0.762865424156189
1758274195108429300,7.62342919921875,-0.026696059852838516,0.4329325258731842,0.7250927686691284
1758274195118387500,7.633387451171875,0.051486093550920486,0.9103209376335144,0.6112924218177795
1758274195128346400,7.643346435546875,0.21567796170711517,1.4789090156555176,0.4245390295982361
1758274195138304500,7.653304443359375,0.40773874521255493,2.071031332015991,0.3510107398033142
1758274195148262400,7.663262451171875,0.5377806425094604,2.310788869857788,0.5644780397415161
1758274195158221600,7.6732216796875,0.6056894063949585,1.782096028327942,0.566209614276886
1758274195168179200,7.68317919921875,0.5148377418518066,0.9360004663467407,0.6998600959777832
1758274195178137300,7.693137451171875,0.41387972235679626,0.8499776721000671,0.7919314503669739
1758274195188095200,7.70309521484375,0.711460292339325,1.0721817016601562,0.8856680393218994
1758274195198054400,7.713054443359375,0.8901994228363037,1.6720763444900513,1.1314938068389893
1758274195208012300,7.72301220703125,0.7351842522621155,2.0583221912384033,1.2009639739990234
1758274195217970400,7.732970458984375,0.6558833122253418,1.96007239818573,1.0848551988601685
1758274195227928300,7.74292822265625,0.6934487819671631,1.7833200693130493,0.8881375789642334
1758274195237887500,7.752887451171875,0.742319643497467,1.9584639072418213,0.7658523917198181
1758274195247845400,7.762845458984375,0.773995578289032,2.4186089038848877,0.7721198797225952
1758274195257803500,7.772803466796875,0.7918954491615295,2.7871253490448,0.9675520062446594
1758274195267761400,7.782761474609375,0.7580773234367371,2.595710039138794,1.1164681911468506
1758274195277720600,7.792720458984375,0.6805154085159302,1.956857681274414,1.1438626050949097
1758274195287678500,7.802678466796875,0.6509170532226562,1.7319191694259644,1.0932155847549438
1758274195297636400,7.81263623046875,0.6774240136146545,1.8422869443893433,1.0302566289901733
1758274195307595500,7.822595458984375,0.7295548915863037,1.890372395515442,0.9396308660507202
1758274195317553400,7.832553466796875,0.7776361107826233,1.7804166078567505,0.8220075964927673
1758274195327511300,7.84251123046875,0.7751290202140808,1.755768060684204,0.6657993197441101
1758274195337469400,7.852469482421875,0.748889684677124,1.7411744594573975,0.5439847111701965
1758274195347428400,7.862428466796875,0.7372404932975769,1.696900486946106,0.4755321741104126
1758274195357386200,7.87238623046875,0.7273383140563965,1.611668348312378,0.48343589901924133
1758274195367344400,7.882344482421875,0.7060274481773376,1.5497912168502808,0.5281951427459717
1758274195377302500,7.892302490234375,0.6806360483169556,1.633161187171936,0.5397039651870728
1758274195387261400,7.902261474609375,0.6364305019378662,2.029425859451294,0.4687829315662384
1758274195397219300,7.91221923828125,0.6174594759941101,2.431387424468994,0.42891114950180054
1758274195407177500,7.922177490234375,0.6015694737434387,2.6599409580230713,0.35045868158340454
1758274195417135400,7.93213525390625,0.6286429166793823,2.592768907546997,0.29304277896881104
1758274195427094500,7.942094482421875,0.6778218746185303,2.2342307567596436,0.45051416754722595
1758274195437052400,7.952052490234375,0.686286211013794,1.758085012435913,0.6629734635353088
1758274195447010300,7.96201025390625,0.6881315112113953,1.289175271987915,0.70436030626297
1758274195456969500,7.971969482421875,0.7116200923919678,0.7981890439987183,0.7738834619522095
1758274195466927400,7.98192724609375,0.7120576500892639,0.6409714818000793,0.8783574104309082
1758274195476885200,7.99188525390625,0.7078778147697449,0.60835200548172,0.9325649738311768
1758274195486843400,8.001843505859375,0.7137562036514282,0.6362566351890564,0.9213080406188965
1758274195496802300,8.01180224609375,0.7226511240005493,0.7566123008728027,0.8386470079421997
1758274195506760400,8.021760498046875,0.7208644151687622,0.7581431269645691,0.9389472603797913
1758274195516718300,8.03171826171875,0.7492361664772034,0.7322918176651001,1.0381883382797241
1758274195526676500,8.041676513671876,0.7826071381568909,0.4276061952114105,0.9934408664703369
1758274195536635400,8.051635498046876,0.7454435229301453,0.31455713510513306,0.8247735500335693
1758274195546593500,8.061593505859374,0.602818489074707,0.322330117225647,0.6636871695518494
1758274195556551400,8.071551513671874,0.5166332721710205,0.25693458318710327,0.5956122279167175
1758274195566509600,8.081509521484374,0.5292734503746033,0.3610159754753113,0.5294463038444519
1758274195576468500,8.091468505859375,0.5467538833618164,0.4476422369480133,0.4311404824256897
1758274195586426600,8.101426513671875,0.5595410466194153,0.3494221866130829,0.3763691186904907
1758274195596384300,8.11138427734375,0.5929797291755676,0.1728024035692215,0.43949800729751587
1758274195606343200,8.12134326171875,0.6761382222175598,0.006323143374174833,0.5086461901664734
1758274195616300500,8.131300537109375,0.6560276746749878,-0.019688483327627182,0.5181398391723633
1758274195626258700,8.1412587890625,0.5214304327964783,0.08022692799568176,0.4854130446910858
1758274195636216600,8.151216552734375,0.4271917939186096,0.23766954243183136,0.4240993559360504
1758274195646175700,8.16117578125,0.35737118124961853,0.3251573145389557,0.3587664067745209
1758274195656133600,8.171133544921876,0.32428619265556335,0.379413366317749,0.29496079683303833
1758274195666091800,8.181091796875,0.3135901391506195,0.37366199493408203,0.2619280219078064
1758274195676049700,8.191049560546874,0.2830985486507416,0.2905482053756714,0.28094857931137085
1758274195686008600,8.201008544921875,0.22837777435779572,0.16133403778076172,0.34317493438720703
1758274195695966500,8.210966552734375,0.16813574731349945,0.051003262400627136,0.4478078782558441
1758274195705924600,8.220924560546875,0.1412239670753479,-0.05428241193294525,0.501865804195404
1758274195715882500,8.230882568359375,0.1545959711074829,-0.1568537950515747,0.4665842354297638
1758274195725841400,8.24084130859375,0.16762840747833252,-0.23415470123291016,0.4170882999897003
1758274195735799600,8.250799560546875,0.15718109905719757,-0.2537510395050049,0.3611888289451599
1758274195745757700,8.2607578125,0.1693916916847229,-0.20354513823986053,0.2584872245788574
1758274195755715600,8.270715576171876,0.21988336741924286,-0.09166120737791061,0.14178909361362457
1758274195765674500,8.280674560546874,0.2764606177806854,0.06884431093931198,0.02829155884683132
1758274195775632600,8.290632568359374,0.2988804280757904,0.17401520907878876,-0.16028447449207306
1758274195785590500,8.300590576171874,0.2621282935142517,0.2377566397190094,-0.3654618561267853
1758274195795549700,8.3105498046875,0.16375458240509033,0.24935975670814514,-0.47308847308158875
1758274195805507600,8.320507568359375,0.027790619060397148,0.14133529365062714,-0.44093024730682373
1758274195815465700,8.3304658203125,-0.1160629540681839,-0.12308251857757568,-0.36202797293663025
1758274195825423400,8.34042333984375,-0.22918365895748138,-0.422524631023407,-0.3900100886821747
1758274195835382800,8.3503828125,-0.3067348897457123,-0.6865807771682739,-0.5603365302085876
1758274195845340400,8.36034033203125,-0.3921928107738495,-0.9010419249534607,-0.7895833253860474
1758274195855298600,8.370298583984376,-0.47843900322914124,-0.9806962609291077,-1.0479706525802612
1758274195865256400,8.38025634765625,-0.5558413863182068,-1.0418022871017456,-1.2964262962341309
1758274195875215600,8.390215576171874,-0.6054374575614929,-1.1998190879821777,-1.48165762424469
1758274195885173500,8.400173583984374,-0.6254132986068726,-1.4440854787826538,-1.608968734741211
1758274195895131600,8.410131591796874,-0.6909139752388,-1.6790399551391602,-1.7083611488342285
1758274195905089500,8.420089599609375,-0.7921543121337891,-1.680472731590271,-1.838739037513733
1758274195915048700,8.430048583984375,-0.8506373763084412,-1.5218777656555176,-2.0155622959136963
1758274195925006600,8.440006591796875,-0.8940173387527466,-1.309338092803955,-2.1581332683563232
1758274195934964700,8.44996484375,-0.9459691643714905,-1.1572487354278564,-2.2096455097198486
1758274195944922600,8.459922607421875,-0.9909641146659851,-1.039844274520874,-2.212245225906372
1758274195954881800,8.4698818359375,-1.0249356031417847,-0.9640006422996521,-2.165302038192749
1758274195964839700,8.479839599609376,-1.0394700765609741,-1.0093457698822021,-2.016141653060913
1758274195974797600,8.489797607421876,-1.0564343929290771,-0.9262098670005798,-1.88760244846344
1758274195984755500,8.49975537109375,-1.085561990737915,-0.8945006728172302,-1.8735582828521729
1758274195994714600,8.509714599609374,-1.0729817152023315,-0.9328930974006653,-1.8974937200546265
1758274196004672500,8.519672607421874,-1.038641333580017,-1.030657410621643,-1.8997256755828857
1758274196014630700,8.529630615234375,-1.0128196477890015,-0.9835365414619446,-1.9068784713745117
1758274196024589600,8.539589599609375,-0.9646509885787964,-0.9687772989273071,-1.928539752960205
1758274196034547500,8.54954736328125,-0.9207402467727661,-1.06255042552948,-1.9916000366210938
1758274196044505600,8.559505615234375,-0.9036385416984558,-1.1007946729660034,-2.042886257171631
1758274196054463700,8.569463623046875,-0.8845729231834412,-1.0481853485107422,-1.9530720710754395
1758274196064422700,8.579422607421876,-0.9321306347846985,-1.1214834451675415,-1.7430682182312012
1758274196074380500,8.589380615234376,-1.0135074853897095,-1.3324774503707886,-1.4514813423156738
1758274196084338700,8.599338623046876,-1.1531202793121338,-1.3302865028381348,-1.315242052078247
1758274196094296600,8.609296630859374,-1.2156480550765991,-1.6141291856765747,-1.1857274770736694
1758274196104255700,8.619255859375,-1.2403326034545898,-2.1673896312713623,-1.0295394659042358
1758274196114213600,8.629213623046875,-1.2665570974349976,-2.262434720993042,-0.9018059968948364
1758274196124171500,8.639171630859375,-1.38144850730896,-2.437856912612915,-0.6817551255226135
1758274196134129400,8.64912939453125,-1.5382673740386963,-2.713123321533203,-0.5005999803543091
1758274196144088600,8.659088623046875,-1.6589785814285278,-2.8850109577178955,-0.38655251264572144
1758274196154046500,8.66904638671875,-1.6653915643692017,-2.823187828063965,-0.3474956452846527
1758274196164004600,8.679004638671875,-1.620017409324646,-2.9262797832489014,-0.23454485833644867
1758274196173962500,8.68896240234375,-1.5533206462860107,-2.8958632946014404,-0.09408335387706757
1758274196183921700,8.698921630859376,-1.4439853429794312,-2.7993862628936768,0.0581839457154274
1758274196193879600,8.708879638671876,-1.3144481182098389,-2.7756316661834717,0.054730091243982315
1758274196203837700,8.718837646484374,-1.1469403505325317,-2.3215441703796387,-0.07439354062080383
1758274196213795600,8.728795654296874,-1.019359827041626,-2.0111892223358154,-0.13420706987380981
1758274196223754800,8.738754638671875,-0.925970196723938,-1.6875029802322388,-0.11567360162734985
1758274196233712600,8.748712646484375,-0.7891329526901245,-1.469558596611023,-0.05469600111246109
1758274196243670800,8.7586708984375,-0.6578412652015686,-1.291949987411499,0.020248014479875565
1758274196253628400,8.76862841796875,-0.5799701809883118,-1.047166347503662,0.10629954189062119
1758274196263587800,8.778587890625,-0.5153224468231201,-0.741870105266571,0.20045213401317596
1758274196273545500,8.78854541015625,-0.456710547208786,-0.4260280132293701,0.30250686407089233
1758274196283503600,8.798503662109376,-0.38460013270378113,-0.12256959080696106,0.3933318555355072
1758274196293461500,8.80846142578125,-0.3457784354686737,0.06439176946878433,0.4912450909614563
1758274196303420400,8.81842041015625,-0.33677348494529724,0.1890934854745865,0.6060954928398132
1758274196313378600,8.828378662109374,-0.3449914753437042,0.28442853689193726,0.7403574585914612
1758274196323336700,8.838336669921874,-0.35844817757606506,0.3662954270839691,0.8626372814178467
1758274196333295600,8.848295654296875,-0.3726164400577545,0.46041688323020935,0.9648773670196533
1758274196343253500,8.85825341796875,-0.3593360483646393,0.5708011984825134,1.045219898223877
1758274196353211600,8.868211669921875,-0.32728439569473267,0.7160561084747314,1.0803531408309937
1758274196363169800,8.878169677734375,-0.2481192648410797,0.9429481029510498,1.037092685699463
1758274196373128700,8.888128662109375,-0.07800745218992233,1.2719526290893555,0.909987211227417
1758274196383086600,8.898086669921875,0.16452769935131073,1.6407685279846191,0.7170555591583252
1758274196393044700,8.908044677734376,0.4569462537765503,1.8696600198745728,0.46356073021888733
1758274196403002600,8.918002685546876,0.5908686518669128,2.103971242904663,0.33192867040634155
1758274196412961500,8.92796142578125,0.5709550976753235,1.6875815391540527,0.03592178225517273
1758274196422919400,8.93791943359375,0.4270471930503845,0.717356264591217,-0.225703164935112
1758274196432877600,8.947877685546874,0.3750705420970917,0.12295281887054443,0.11311057955026627
1758274196442835500,8.95783544921875,0.27675411105155945,0.8354306817054749,0.29008588194847107
1758274196452794600,8.967794677734375,0.5844389796257019,0.6462647914886475,0.6403355002403259
1758274196462752500,8.97775244140625,0.7361286282539368,0.6466773152351379,0.6692675352096558
1758274196472710700,8.987710693359375,0.681424617767334,0.9594253301620483,0.590040385723114
1758274196482668500,8.99766845703125,0.8163923025131226,1.5393009185791016,0.5920414924621582
1758274196492627700,9.007627685546876,0.994852602481842,2.10788631439209,0.49832138419151306
1758274196502585600,9.017585693359376,1.1504716873168945,2.6421265602111816,0.4619692265987396
1758274196512543700,9.027543701171876,1.2322577238082886,2.732491970062256,0.3056824207305908
1758274196522501600,9.037501708984376,1.1747523546218872,2.7656900882720947,0.3222792446613312
1758274196532460800,9.047460693359374,1.0875178575515747,2.509695529937744,0.44223546981811523
1758274196542418400,9.05741845703125,0.9581542015075684,1.9521775245666504,0.5520544052124023
1758274196552376600,9.06737646484375,0.807011067867279,1.6008650064468384,0.6435022950172424
1758274196562334500,9.07733447265625,0.702934980392456,1.5291292667388916,0.7082839608192444
1758274196572293600,9.087293701171875,0.6157596111297607,1.664108395576477,0.7009919285774231
1758274196582251500,9.09725146484375,0.5584041476249695,1.8631097078323364,0.6232377290725708
1758274196592209700,9.107209716796875,0.5150601267814636,2.1190035343170166,0.5655198693275452
1758274196602167600,9.11716748046875,0.5308228731155396,2.1313791275024414,0.5459999442100525
1758274196612126500,9.12712646484375,0.5749706029891968,1.9904282093048096,0.5510607361793518
1758274196622085000,9.137085205078124,0.6279552578926086,1.8584719896316528,0.5426366329193115
1758274196632043000,9.14704296875,0.6688230633735657,1.8181160688400269,0.542819082736969
1758274196642001200,9.157001220703124,0.7123183608055115,1.8542101383209229,0.5725439190864563
1758274196651960000,9.1669599609375,0.7507520318031311,2.0177998542785645,0.5778716206550598
1758274196661918200,9.176918212890625,0.7992271780967712,2.124434232711792,0.5299035310745239
1758274196671876000,9.1868759765625,0.8119200468063354,2.1416094303131104,0.48763197660446167
1758274196681834200,9.196834228515625,0.7613154649734497,2.0868592262268066,0.5333904027938843
1758274196691793200,9.206793212890625,0.6304107308387756,1.9698313474655151,0.5407590866088867
1758274196701751300,9.216751220703125,0.5713732242584229,1.5599490404129028,0.5837406516075134
1758274196711709000,9.226708984375,0.5504285097122192,1.0783690214157104,0.7180508375167847
1758274196721668400,9.23666845703125,0.5182918906211853,0.7636355757713318,0.8224318027496338
1758274196731626000,9.2466259765625,0.5041710138320923,0.6135110855102539,0.865891695022583
1758274196741584100,9.256584228515624,0.4948989450931549,0.4893883466720581,0.9039538502693176
1758274196751542000,9.2665419921875,0.4906828999519348,0.4950837790966034,0.8992597460746765
1758274196761501200,9.276501220703125,0.4954531490802765,0.505469024181366,0.8368259072303772
1758274196771459000,9.286458984375,0.5162100791931152,0.6855019330978394,0.6668683290481567
1758274196781417200,9.296417236328125,0.514959990978241,0.7894861102104187,0.5877884030342102
1758274196791375000,9.306375,0.46108800172805786,0.7984846830368042,0.5895383954048157
1758274196801334000,9.316333984375,0.4231075942516327,0.7960715889930725,0.5995734333992004
1758274196811292200,9.326292236328126,0.4474235773086548,0.7789032459259033,0.5718762874603271
1758274196821250300,9.336250244140626,0.37810975313186646,0.7461063861846924,0.540435254573822
1758274196831208200,9.346208251953126,0.2735021114349365,0.7629615664482117,0.42960357666015625
1758274196841167000,9.3561669921875,0.20667700469493866,0.8053039312362671,0.3517729640007019
1758274196851125200,9.366125244140624,0.24030926823616028,0.7462859153747559,0.3648304343223572
1758274196861083100,9.376083251953125,0.2510761618614197,0.6228611469268799,0.3655675947666168
1758274196871041000,9.386041015625,0.27172765135765076,0.4830598533153534,0.36525386571884155
1758274196881000000,9.396,0.29128777980804443,0.33580437302589417,0.3762596547603607
1758274196890958000,9.4059580078125,0.33760252594947815,0.26810789108276367,0.38225629925727844
1758274196900916200,9.415916259765625,0.36097630858421326,0.22883105278015137,0.37721386551856995
1758274196910874000,9.4258740234375,0.31693267822265625,0.1254442036151886,0.35896456241607666
1758274196920833000,9.4358330078125,0.23984135687351227,0.029098231345415115,0.3226510286331177
1758274196930791200,9.445791259765626,0.23800510168075562,0.041119206696748734,0.3296349048614502
1758274196940749000,9.4557490234375,0.2861582636833191,0.08158966898918152,0.3064368963241577
1758274196950707200,9.465707275390624,0.3034949004650116,0.1013825461268425,0.25039997696876526
1758274196960666000,9.475666015625,0.3139320909976959,0.10841728746891022,0.21635466814041138
1758274196970624300,9.485624267578125,0.3138316869735718,0.1483204960823059,0.19059844315052032
1758274196980582100,9.49558203125,0.29826125502586365,0.23439998924732208,0.16074787080287933
1758274196990540000,9.5055400390625,0.29147231578826904,0.3495343029499054,0.15998220443725586
1758274197000499200,9.515499267578125,0.30451729893684387,0.42170169949531555,0.1839197725057602
1758274197010457000,9.52545703125,0.32543641328811646,0.3393719494342804,0.21131303906440735
1758274197020415000,9.5354150390625,0.340525358915329,0.19480383396148682,0.23780083656311035
1758274197030373000,9.545373046875,0.35541561245918274,0.08755940943956375,0.28008437156677246
1758274197040332000,9.55533203125,0.3682885468006134,0.03513241931796074,0.34128889441490173
1758274197050290200,9.565290283203124,0.38745051622390747,0.03218483552336693,0.3628522455692291
1758274197060248000,9.575248046875,0.41319742798805237,0.07812782377004623,0.34622931480407715
1758274197070206200,9.585206298828124,0.4389674961566925,0.1462205946445465,0.35151222348213196
1758274197080165000,9.5951650390625,0.4386433959007263,0.20845094323158264,0.3856920301914215
1758274197090123300,9.605123291015625,0.41609734296798706,0.2624894082546234,0.44073212146759033
1758274197100081200,9.6150810546875,0.3944535553455353,0.3985021114349365,0.42133817076683044
1758274197110039300,9.625039306640625,0.3967902362346649,0.647425651550293,0.27524515986442566
1758274197119998200,9.634998291015625,0.32172396779060364,0.6553056836128235,0.23132111132144928
1758274197129956400,9.644956298828125,0.1984475702047348,0.23167024552822113,0.4241587221622467
1758274197139914000,9.6549140625,0.09153337776660919,-0.3067799210548401,0.6866835355758667
1758274197149872000,9.6648720703125,0.066190205514431,-0.49992620944976807,0.7648337483406067
1758274197159831000,9.6748310546875,0.1855514794588089,-0.43345290422439575,0.6194264888763428
1758274197169789200,9.6847890625,0.22664806246757507,-0.21899652481079102,0.3548808693885803
1758274197179747000,9.6947470703125,0.17342345416545868,0.0637345016002655,0.1384606808423996
1758274197189705200,9.704705322265625,0.12642212212085724,0.10419884324073792,-0.05218331143260002
1758274197199664000,9.7146640625,0.14169375598430634,-0.18608358502388,-0.17852899432182312
1758274197209622300,9.724622314453125,0.15791906416416168,-0.5000694990158081,-0.3108406960964203
1758274197219580200,9.734580078125,0.13504277169704437,-0.6995213031768799,-0.46688541769981384
1758274197229538300,9.744538330078125,0.06686984747648239,-0.7724456191062927,-0.5907815098762512
1758274197239497200,9.754497314453126,-0.024631310254335403,-0.8118284344673157,-0.6918354630470276
1758274197249455000,9.764455078125,-0.1192246600985527,-0.8672200441360474,-0.7692775130271912
1758274197259413200,9.774413330078126,-0.19070763885974884,-0.8852578997612,-0.8685891628265381
1758274197269372200,9.7843720703125,-0.2586190402507782,-0.9191897511482239,-0.9644786715507507
1758274197279330300,9.794330322265624,-0.33887553215026855,-0.9825650453567505,-1.043723702430725
1758274197289288000,9.804287841796874,-0.4336731433868408,-1.0327706336975098,-1.1124804019927979
1758274197299246000,9.81424609375,-0.5283144116401672,-1.1489624977111816,-1.1772024631500244
1758274197309205000,9.824205078125,-0.6269783973693848,-1.315614938735962,-1.2525309324264526
1758274197319163100,9.8341630859375,-0.7121953368186951,-1.4102202653884888,-1.3421269655227661
1758274197329121000,9.84412109375,-0.7203272581100464,-1.4119770526885986,-1.3876008987426758
1758274197339079200,9.8540791015625,-0.6931710243225098,-1.348210334777832,-1.414016604423523
1758274197349038000,9.8640380859375,-0.6740071773529053,-1.1600074768066406,-1.424720048904419
1758274197358996200,9.873996337890626,-0.647732675075531,-0.9812859296798706,-1.3771898746490479
1758274197368954000,9.8839541015625,-0.6070494651794434,-0.864111065864563,-1.3160630464553833
1758274197378912300,9.893912353515624,-0.6036208868026733,-0.7932614088058472,-1.292609691619873
1758274197388871200,9.90387109375,-0.5975092053413391,-0.7805277705192566,-1.2830162048339844
1758274197398829300,9.913829345703125,-0.5441974997520447,-0.7953535914421082,-1.258405089378357
1758274197408787200,9.923787109375,-0.48074638843536377,-0.8472010493278503,-1.2280306816101074
1758274197418745000,9.9337451171875,-0.4249989688396454,-0.9772930145263672,-1.1834195852279663
1758274197428704000,9.9437041015625,-0.39518114924430847,-1.136676549911499,-1.1596676111221313
1758274197438662100,9.953662109375,-0.3926074802875519,-1.1977354288101196,-1.142123818397522
1758274197448620000,9.9636201171875,-0.3692145347595215,-1.1220076084136963,-1.119566559791565
1758274197458578200,9.973578125,-0.35979944467544556,-0.9442692995071411,-1.1012996435165405
1758274197468537000,9.983537109375,-0.34411051869392395,-0.7244290709495544,-1.087358832359314
1758274197478495200,9.9934951171875,-0.3396909832954407,-0.5242624282836914,-1.0833462476730347
1758274197488453000,10.003453125,-0.3307177424430847,-0.2932414710521698,-1.0590296983718872
1758274197498411300,10.013411376953124,-0.3194597661495209,-0.15830256044864655,-0.9960656762123108
1758274197508370200,10.0233701171875,-0.3370906710624695,-0.11896180361509323,-0.9555304646492004
1758274197518328000,10.033328125,-0.31699952483177185,-0.10800210386514664,-0.8607600331306458
1758274197528286200,10.0432861328125,-0.25435903668403625,-0.014326474629342556,-0.7320302724838257
1758274197538244400,10.053244384765625,-0.18776936829090118,-0.04217994213104248,-0.6063474416732788
1758274197548203300,10.063203369140625,-0.15186356008052826,-0.11126473546028137,-0.4807458519935608
1758274197558161000,10.073160888671875,-0.11017736792564392,-0.17439870536327362,-0.34059327840805054
1758274197568119000,10.083119140625,-0.034998465329408646,-0.2672431468963623,-0.16093109548091888
1758274197578077200,10.0930771484375,0.01267132069915533,-0.30744969844818115,-0.0017720673931762576
1758274197588036000,10.1030361328125,0.04758935794234276,-0.22463203966617584,0.1466994285583496
1758274197597994000,10.112993896484374,0.10045284032821655,-0.07358793169260025,0.2828463613986969
1758274197607952100,10.1229521484375,0.16467709839344025,0.015971509739756584,0.4265236258506775
1758274197617910000,10.132909912109374,0.22848616540431976,0.08244533836841583,0.5694440007209778
1758274197627869000,10.142868896484375,0.2963573634624481,0.1316179484128952,0.6916894912719727
1758274197637826800,10.152826904296875,0.35067546367645264,0.1904250681400299,0.7990260720252991
1758274197647785000,10.162784912109375,0.38921114802360535,0.28323090076446533,0.8868600726127625
1758274197657742800,10.172742919921875,0.4101739525794983,0.35863006114959717,0.9669432044029236
1758274197667702000,10.182701904296875,0.42343541979789734,0.39450603723526,1.0527392625808716
1758274197677659600,10.19265966796875,0.4517437517642975,0.4175945818424225,1.1607118844985962
1758274197687617800,10.20261767578125,0.5097367763519287,0.4520489573478699,1.2800832986831665
1758274197697575700,10.21257568359375,0.5936505794525146,0.4611265957355499,1.3837345838546753
1758274197707534800,10.222534912109374,0.6551346778869629,0.4150241017341614,1.481217384338379
1758274197717492700,10.23249267578125,0.7045469880104065,0.3757200837135315,1.578111171722412
1758274197727451000,10.242450927734374,0.7849329113960266,0.3103509545326233,1.6550837755203247
1758274197737408800,10.25240869140625,0.8480455875396729,0.17704002559185028,1.7263824939727783
1758274197747367000,10.262366943359375,0.9088159799575806,0.13991288840770721,1.5917186737060547
1758274197757325800,10.272325927734375,0.9625716209411621,-0.018748920410871506,1.0103956460952759
1758274197767284000,10.282283935546875,0.7970305681228638,-0.6105595231056213,0.27297908067703247
1758274197777241900,10.292241943359375,0.29120972752571106,-1.5189629793167114,-0.5335739254951477
1758274197787199700,10.30219970703125,-0.23102736473083496,-1.726577877998352,-1.3843308687210083
1758274197797159000,10.312158935546876,-0.5382559895515442,0.895569384098053,-1.413944959640503
1758274197807116800,10.32211669921875,-0.17692817747592926,3.980748176574707,-0.5742092132568359
1758274197817074700,10.33207470703125,0.23945200443267822,4.340453624725342,0.22853757441043854
1758274197827032800,10.34203271484375,0.4298216700553894,3.350689649581909,0.6070070862770081
1758274197836991700,10.35199169921875,0.5628252625465393,1.1423280239105225,0.7509616017341614
1758274197846950000,10.361949951171875,0.694655179977417,-2.527064561843872,0.2400355041027069
1758274197856907800,10.37190771484375,0.7723731398582458,-3.249423027038574,0.0873389020562172
1758274197866866000,10.381865966796875,0.8767850399017334,-1.7234420776367188,0.5145019292831421
1758274197876824800,10.391824951171875,0.8972557187080383,-0.5809531211853027,0.7310965657234192
1758274197886783000,10.401782958984375,0.6077666282653809,-0.059351738542318344,0.61357581615448
1758274197896740900,10.411740966796875,0.23868873715400696,0.7103990316390991,0.5389928817749023
1758274197906699000,10.421698974609376,0.09909755736589432,1.6222020387649536,0.6693341135978699
1758274197916658000,10.431657958984376,0.26334962248802185,1.9080036878585815,0.8457571268081665
1758274197926616000,10.441615966796874,0.29845964908599854,1.5174318552017212,0.8042762279510498
1758274197936573700,10.45157373046875,0.26969218254089355,0.7522452473640442,0.7597774863243103
1758274197946531800,10.46153173828125,0.027655862271785736,0.333090603351593,0.8577871322631836
1758274197956490800,10.47149072265625,0.10393784940242767,0.340300053358078,0.9063032865524292
1758274197966449000,10.481448974609375,0.35678449273109436,0.28931117057800293,0.8743589520454407
1758274197976406800,10.49140673828125,0.3665279150009155,-0.15803544223308563,0.6100079417228699
1758274197986365000,10.501364990234375,0.31256988644599915,-0.5227904915809631,0.3408542573451996
1758274197996323800,10.51132373046875,0.2500617802143097,-0.3358057141304016,0.2576906681060791
1758274198006281700,10.52128173828125,0.18780505657196045,-0.1021985411643982,0.2068740874528885
1758274198016239900,10.531239990234376,0.11052224785089493,-0.17396247386932373,0.132864311337471
1758274198026198000,10.541197998046876,0.12265747785568237,-0.32164594531059265,0.018337195739150047
1758274198036157000,10.551156982421874,0.10131277143955231,-0.19680467247962952,0.06765574216842651
1758274198046114800,10.56111474609375,0.07182225584983826,0.07169070094823837,0.18785272538661957
1758274198056073000,10.571072998046875,0.0915466919541359,0.1827370524406433,0.1351999044418335
1758274198066030800,10.58103076171875,0.07722075283527374,0.0495997779071331,0.02208825759589672
1758274198075990000,10.590989990234375,0.0431317575275898,0.04216396436095238,-0.015093998052179813
1758274198085947600,10.60094775390625,0.053707435727119446,0.06880729645490646,-0.032035429030656815
1758274198095905800,10.61090576171875,0.0556211844086647,0.14350657165050507,-0.018574217334389687
1758274198105864000,10.620864013671875,0.049423474818468094,0.2839299738407135,0.022368155419826508
1758274198115822800,10.63082275390625,0.08592502772808075,0.3508504331111908,0.009090167470276356
1758274198125780700,10.64078076171875,0.11746617406606674,0.3295094668865204,-0.008558334782719612
1758274198135739000,10.65073876953125,0.15817072987556458,0.3489774167537689,0.006806773599237204
1758274198145696800,10.66069677734375,0.26490649580955505,0.4255262613296509,0.027162112295627594
1758274198155656000,10.670656005859374,0.35339242219924927,0.5694347023963928,0.047450605779886246
1758274198165613800,10.68061376953125,0.35971954464912415,0.7743894457817078,0.08031827211380005
1758274198175572000,10.690572021484375,0.30646032094955444,0.8984836935997009,0.13290585577487946
1758274198185529900,10.70052978515625,0.2858554422855377,0.8872832655906677,0.15295839309692383
1758274198195487700,10.71048779296875,0.3197503089904785,0.8108364343643188,0.14859959483146667
1758274198205447000,10.720447021484375,0.35963699221611023,0.6907328963279724,0.14675934612751007
1758274198215404800,10.73040478515625,0.3209071755409241,0.515254020690918,0.17612336575984955
1758274198225362700,10.74036279296875,0.21212823688983917,0.3196573555469513,0.1733291745185852
1758274198235320800,10.75032080078125,0.16515620052814484,0.06560298055410385,0.16186825931072235
1758274198245279700,10.76027978515625,0.18721729516983032,-0.130550816655159,0.12791934609413147
1758274198255238000,10.77023779296875,0.24101288616657257,-0.2551814317703247,0.1346728652715683
1758274198265195800,10.78019580078125,0.2661893367767334,-0.378177672624588,0.16468268632888794
1758274198275154000,10.79015380859375,0.2505808174610138,-0.4260530471801758,0.23127050697803497
1758274198285112800,10.80011279296875,0.20065906643867493,-0.47099122405052185,0.28136563301086426
1758274198295071000,10.810071044921875,0.2253580242395401,-0.48322179913520813,0.277833491563797
1758274198305028900,10.82002880859375,0.31318747997283936,-0.511139452457428,0.22410713136196136
1758274198314987000,10.829987060546875,0.4479125440120697,-0.595572829246521,0.12885092198848724
1758274198324946000,10.83994580078125,0.571062445640564,-0.7780848741531372,0.07124408334493637
1758274198334904000,10.849904052734376,0.6729608178138733,-0.8530014157295227,0.08792053163051605
1758274198344861700,10.85986181640625,0.690682590007782,-0.72572922706604,0.10989055037498474
1758274198354819800,10.86981982421875,0.6616256237030029,-0.6818850636482239,0.14308658242225647
1758274198364778800,10.87977880859375,0.6196243762969971,-0.6774082779884338,0.19577722251415253
1758274198374737000,10.88973681640625,0.5290273427963257,-0.6118130683898926,0.22452577948570251
1758274198384694800,10.89969482421875,0.4687299430370331,-0.5118446350097656,0.23235733807086945
1758274198394653000,10.90965283203125,0.4327855110168457,-0.4105939269065857,0.23668338358402252
1758274198404611800,10.91961181640625,0.4188702404499054,-0.3254651725292206,0.23482981324195862
1758274198414569700,10.92956982421875,0.3894774615764618,-0.3443741500377655,0.22379954159259796
1758274198424528000,10.93952783203125,0.3312618136405945,-0.42482611536979675,0.19779004156589508
1758274198434486000,10.949486083984375,0.2255108803510666,-0.4988361597061157,0.13920582830905914
1758274198444445000,10.95944482421875,0.15055595338344574,-0.5054059028625488,0.09622293710708618
1758274198454402800,10.96940283203125,0.12274296581745148,0.11064102500677109,0.17064844071865082
1758274198464361000,10.97936083984375,0.06901288777589798,1.1696590185165405,0.4250445067882538
1758274198474318800,10.98931884765625,-0.1871379315853119,1.7062149047851562,0.4476044178009033
1758274198484276700,10.99927685546875,-0.7100115418434143,2.211552619934082,0.2199600636959076
1758274198494235600,11.009235595703124,-0.6525508761405945,2.1026859283447266,-0.09546926617622375
1758274198504193800,11.01919384765625,-0.2760970890522003,1.1911747455596924,-0.17920410633087158
1758274198514152000,11.02915185546875,-0.06379442662000656,1.2538261413574219,-0.21402306854724884
1758274198524109800,11.03910986328125,0.43277671933174133,0.9925492405891418,-0.2234053909778595
1758274198534068700,11.04906884765625,0.5309485793113708,1.495907187461853,0.031242074444890022
1758274198544027000,11.05902685546875,-0.04888365417718887,2.0295119285583496,0.11529729515314102
1758274198553984800,11.06898486328125,-0.6218550205230713,1.7678513526916504,0.13548804819583893
1758274198563943000,11.07894287109375,-0.8333555459976196,1.4126935005187988,0.18038628995418549
1758274198573901800,11.08890185546875,-0.7286347150802612,1.3189529180526733,0.07174662500619888
1758274198583860000,11.09885986328125,-0.7191837430000305,1.2112400531768799,-0.07333999127149582
1758274198593817900,11.10881787109375,-0.7766851186752319,0.802460789680481,-0.15926794707775116
1758274198603775700,11.118775634765624,-0.6524403691291809,0.30556097626686096,-0.1303819715976715
1758274198613735000,11.12873486328125,-0.5379945039749146,0.025907231494784355,-0.09468549489974976
1758274198623693300,11.138693359375,-0.5697785019874573,-0.09704319387674332,-0.07706841826438904
1758274198633651200,11.148651123046875,-0.6470757126808167,-0.1636352688074112,-0.0075700352899730206
1758274198643609300,11.158609375,-0.5833808779716492,-0.2872757315635681,0.08929339051246643
1758274198653568300,11.168568359375,-0.36188071966171265,-0.39119067788124084,0.16336016356945038
1758274198663526400,11.1785263671875,-0.6093845367431641,0.03261440247297287,0.11231828480958939
1758274198673484300,11.188484375,-0.8095141649246216,-0.056533582508563995,0.17993248999118805
1758274198683442400,11.1984423828125,-0.7600392699241638,-0.00703846849501133,0.27180248498916626
1758274198693400300,11.208400390625,-0.685536801815033,0.211844339966774,0.3059900104999542
1758274198703359500,11.218359375,-0.6266657710075378,0.2223595678806305,0.26246729493141174
1758274198713317400,11.2283173828125,-0.7326622605323792,0.17169399559497833,0.26596537232398987
1758274198723275500,11.238275634765625,-0.644956111907959,0.12716513872146606,0.2062423825263977
1758274198733233400,11.2482333984375,-0.40418103337287903,0.25875699520111084,0.15250112116336823
1758274198743192300,11.2581923828125,-0.32728812098503113,0.5767296552658081,0.1457366943359375
1758274198753150500,11.268150390625,-0.24576608836650848,0.9365360140800476,0.16489706933498383
1758274198763108400,11.2781083984375,-0.08515537530183792,0.9411789774894714,0.17282503843307495
1758274198773066200,11.288066162109375,0.005167331546545029,0.44859641790390015,0.1734311729669571
1758274198783025200,11.298025146484376,-0.14732687175273895,-0.030478812754154205,-0.023548468947410583
1758274198792983300,11.3079833984375,-0.42727065086364746,-0.1858028918504715,0.03160027042031288
1758274198802941400,11.31794140625,-0.6673197150230408,-0.6873051524162292,0.32546117901802063
1758274198812899300,11.3278994140625,-1.0246765613555908,-1.1040315628051758,0.5332215428352356
1758274198822858200,11.337858154296875,-1.4985476732254028,-1.3015459775924683,0.6800237894058228
1758274198832816400,11.34781640625,-1.6205470561981201,-0.9156509637832642,0.9963684678077698
1758274198842774300,11.357774169921875,-1.3066458702087402,-0.7390564680099487,1.324371337890625
1758274198852732400,11.367732421875,-0.7432309985160828,-1.0494095087051392,1.4041956663131714
1758274198862691300,11.37769140625,-0.1471489667892456,-0.4850524365901947,1.4343950748443604
1758274198872649500,11.3876494140625,0.37831348180770874,-0.036134034395217896,1.3107404708862305
1758274198882607400,11.397607421875,0.7571814060211182,-0.8740177750587463,1.5599199533462524
1758274198892565200,11.407565185546876,0.9722420573234558,-1.82079017162323,1.873547077178955
1758274198902523400,11.4175234375,1.0020077228546143,-1.723288655281067,2.2050671577453613
1758274198912482300,11.427482421875,0.8701210618019104,-1.4228763580322266,2.38877534866333
1758274198922440200,11.437440185546874,0.6871170997619629,-0.8096118569374084,2.560129404067993
1758274198932398300,11.4473984375,0.4503767490386963,-0.30388426780700684,3.0341742038726807
1758274198942356200,11.457356201171875,0.17677797377109528,-1.239791750907898,3.218491554260254
1758274198952315400,11.4673154296875,-0.014786669053137302,-1.5680532455444336,3.46529483795166
1758274198962273300,11.477273193359375,0.15835528075695038,-2.3205416202545166,3.502196788787842
1758274198972231400,11.4872314453125,0.5104198455810547,-1.4835634231567383,2.6494247913360596
1758274198982189300,11.497189208984375,0.5447093844413757,1.6992267370224,1.2912722826004028
1758274198992148500,11.5071484375,0.8155558109283447,3.900686025619507,-0.14374572038650513
1758274199002106400,11.5171064453125,1.1171505451202393,4.883545875549316,-0.5485184788703918
1758274199012064500,11.527064453125,1.3969169855117798,5.412249565124512,0.4128722548484802
1758274199022022100,11.537022216796874,1.1433656215667725,5.607277870178223,0.8188818097114563
1758274199031981300,11.546981201171874,0.13551628589630127,7.276271820068359,-0.11113797128200531
1758274199041939200,11.556939208984375,-1.0222642421722412,8.487314224243164,-1.625913143157959
1758274199051897300,11.5668974609375,-1.7410836219787598,6.939789295196533,-1.6146162748336792
1758274199061855200,11.576855224609375,-2.2670469284057617,4.839105129241943,-0.18211308121681213
1758274199071813400,11.5868134765625,-2.625976324081421,3.149740219116211,1.4029772281646729
1758274199081772300,11.596772216796875,-2.928499221801758,2.1182680130004883,1.9002407789230347
1758274199091730400,11.60673046875,-3.442627191543579,2.906550645828247,1.828194260597229
1758274199101688300,11.616688232421875,-3.9507579803466797,4.475945949554443,1.8228354454040527
1758274199111646500,11.626646484375,-4.188641548156738,5.206359386444092,2.0849609375
1758274199121605400,11.63660546875,-4.341002464294434,5.186498641967773,2.5836596488952637
1758274199131563500,11.6465634765625,-4.5840535163879395,4.978170394897461,3.1218276023864746
1758274199141521400,11.656521484375,-4.8031487464904785,4.814403533935547,3.51468563079834
1758274199151479300,11.666479248046874,-5.031280994415283,4.762479782104492,3.710646152496338
1758274199161438200,11.676438232421875,-5.268442153930664,4.825286865234375,3.834671974182129
1758274199171396400,11.686396240234375,-5.527480125427246,4.921174049377441,3.9497365951538086
1758274199181354200,11.696354248046875,-5.793276309967041,4.976358413696289,4.133008003234863
1758274199191312400,11.7063125,-6.0100321769714355,4.537163734436035,4.389129161834717
1758274199201270300,11.716270263671875,-6.163994312286377,3.7085728645324707,4.623312473297119
1758274199211229400,11.7262294921875,-6.202178478240967,2.7680368423461914,4.817837715148926
1758274199221187300,11.736187255859376,-6.108138561248779,2.0075459480285645,4.845026969909668
1758274199231145500,11.7461455078125,-5.84548282623291,1.672615885734558,4.575050354003906
1758274199241103400,11.756103271484376,-5.377760410308838,1.7894607782363892,4.083202838897705
1758274199251062300,11.766062255859374,-4.949215412139893,2.076932907104492,3.481968879699707
1758274199261020400,11.7760205078125,-4.570075035095215,2.374962091445923,2.8865952491760254
1758274199270978600,11.785978515625,-4.173758029937744,2.4940297603607178,2.3848648071289062
1758274199280936200,11.795936279296875,-3.8410398960113525,2.288649082183838,2.0080010890960693
1758274199290895400,11.805895263671875,-3.5771596431732178,1.884006142616272,1.7537256479263306
1758274199300853200,11.815853271484375,-3.294300079345703,1.4827815294265747,1.5771887302398682
1758274199310811400,11.825811279296875,-2.985278367996216,1.2081336975097656,1.4020432233810425
1758274199320769300,11.835769287109375,-2.5839781761169434,1.0685675144195557,1.2539176940917969
1758274199330728200,11.845728271484376,-2.151045799255371,1.030876874923706,1.1922764778137207
1758274199340686300,11.855686279296876,-1.81019926071167,0.8198858499526978,1.1959731578826904
1758274199350644200,11.865644287109374,-1.6689108610153198,-0.1371362805366516,1.596317172050476
1758274199360602400,11.875602294921874,-1.788204550743103,-1.3361228704452515,2.511141777038574
1758274199370560500,11.885560546875,-1.8774560689926147,-1.333763837814331,2.994579315185547
1758274199380519400,11.89551953125,-1.9691157341003418,-0.02375912480056286,3.310412883758545
1758274199390477300,11.905477294921875,-1.800971508026123,1.8196042776107788,3.266218423843384
1758274199400435500,11.915435546875,-1.6954551935195923,2.3548736572265625,2.3864660263061523
1758274199410393300,11.925393310546875,-1.7950997352600098,2.242232322692871,1.1273552179336548
1758274199420352500,11.9353525390625,-1.581014633178711,2.2719879150390625,0.3782820701599121
1758274199430310100,11.94531005859375,-1.4963798522949219,1.361075520515442,-0.21706493198871613
1758274199440268300,11.955268310546876,-1.6384211778640747,0.429289847612381,-0.5839998126029968
1758274199450226400,11.965226318359376,-1.829367995262146,-0.23282578587532043,-0.6135419607162476
1758274199460184300,11.975184326171876,-1.9511164426803589,-0.562473714351654,-0.4388050436973572
1758274199470143200,11.985143310546874,-1.890931487083435,-0.8707695007324219,-0.3386733829975128
1758274199480101400,11.995101318359374,-1.7467162609100342,-1.3844032287597656,-0.26203426718711853
1758274199490059300,12.005059326171875,-1.5644334554672241,-1.7539794445037842,-0.12130778282880783
1758274199500017400,12.015017333984375,-1.2785791158676147,-1.785581350326538,0.11667148768901825
1758274199509976300,12.024976318359375,-0.9309455156326294,-1.5171000957489014,0.29398423433303833
1758274199519934500,12.0349345703125,-0.6880643963813782,-1.097896695137024,0.41474419832229614
1758274199529892400,12.044892333984375,-0.6313071250915527,-0.532799482345581,0.4177892506122589
1758274199539850200,12.054850341796875,-0.549767017364502,-0.08764995634555817,0.32086777687072754
1758274199549809400,12.064809326171876,-0.361074298620224,0.1325700283050537,0.2173997014760971
1758274199559767300,12.074767333984376,-0.11565069854259491,0.2605045437812805,0.22690345346927643
1758274199569725200,12.08472509765625,0.10994141548871994,0.2581513822078705,0.36201679706573486
1758274199579683300,12.094683349609374,0.26012054085731506,0.12621891498565674,0.5317752361297607
1758274199589641200,12.10464111328125,0.3424726724624634,0.032286033034324646,0.6404114365577698
1758274199599600400,12.114600341796875,0.3123488426208496,0.057558100670576096,0.6383218765258789
1758274199609558300,12.124558349609375,0.20458510518074036,0.15825913846492767,0.5435445308685303
1758274199619516400,12.134516357421875,0.0415722094476223,0.30249354243278503,0.41433247923851013
1758274199629474300,12.144474365234375,-0.14300376176834106,0.42135947942733765,0.28484079241752625
1758274199639433500,12.15443359375,-0.32820796966552734,0.5366165637969971,0.15616962313652039
1758274199649391400,12.164391357421875,-0.405864953994751,0.6189103722572327,0.07505933195352554
1758274199659349500,12.174349609375,-0.3736870288848877,0.5945813059806824,0.07598238438367844
1758274199669307400,12.184307373046876,-0.2737303376197815,0.5630031824111938,0.13119131326675415
1758274199679266600,12.1942666015625,-0.1676633059978485,0.5350013375282288,0.19016382098197937
1758274199689224400,12.204224365234374,-0.07698692381381989,0.4729020297527313,0.2414831966161728
1758274199699182600,12.2141826171875,-0.022070948034524918,0.41037794947624207,0.2777743637561798
1758274199709140500,12.224140380859374,-0.009260609745979309,0.3777286410331726,0.27248266339302063
1758274199719098600,12.2340986328125,-0.05471304804086685,0.37557920813560486,0.21211625635623932
1758274199729057500,12.2440576171875,-0.13585956394672394,0.36280590295791626,0.12266839295625687
1758274199739015700,12.254015625,-0.19051694869995117,0.3440476655960083,0.040648628026247025
1758274199748973300,12.263973388671875,-0.1894783228635788,0.34306761622428894,-0.008333563804626465
1758274199758931500,12.273931396484375,-0.13542360067367554,0.3141203820705414,-0.012389292009174824
1758274199768890400,12.283890380859376,-0.04879390448331833,0.2383614331483841,0.009268066845834255
1758274199778848500,12.2938486328125,0.05258544534444809,0.19095131754875183,0.02245177887380123
1758274199788806400,12.303806396484376,0.1650472730398178,0.18430113792419434,0.005291700828820467
1758274199798764500,12.3137646484375,0.2610289454460144,0.1879424750804901,-0.03790796548128128
1758274199808722400,12.323722412109374,0.31296563148498535,0.1991112381219864,-0.0912281796336174
1758274199818681600,12.333681640625,0.30386054515838623,0.23030245304107666,-0.1352156102657318
1758274199828639500,12.343639404296875,0.27651894092559814,0.22924943268299103,-0.15797525644302368
1758274199838597600,12.35359765625,0.26245078444480896,0.21220973134040833,-0.1720884144306183
1758274199848555500,12.363555419921875,0.24714002013206482,0.20703120529651642,-0.16464567184448242
1758274199858514400,12.373514404296875,0.23902297019958496,0.16886837780475616,-0.12227078527212143
1758274199868472600,12.38347265625,0.24253860116004944,0.11167646199464798,-0.07547158747911453
1758274199878430500,12.393430419921875,0.2546067237854004,0.03417767584323883,-0.08058831840753555
1758274199888388400,12.403388427734376,0.2669813632965088,-0.050162237137556076,-0.14276620745658875
1758274199898346500,12.413346435546876,0.26575684547424316,-0.10534719377756119,-0.24667103588581085
1758274199908305400,12.423305419921874,0.25643816590309143,-0.1858801245689392,-0.3768838942050934
1758274199918263600,12.433263671875,0.1988545060157776,-0.16165733337402344,-0.39230892062187195
1758274199928221400,12.443221435546874,0.12307026237249374,-0.04707296937704086,-0.19457347691059113
1758274199938179600,12.4531796875,-0.052678655833005905,0.6724023818969727,0.7279931902885437
1758274199948138500,12.463138427734375,-0.1374867558479309,0.5613980889320374,1.048203706741333
1758274199958096400,12.473096435546875,-0.11929497122764587,0.4348643720149994,0.6420460343360901
