time,seconds_elapsed,z,y,x
1758274187533898000,0.04889794921875,-0.1342836320400238,-0.3871441185474396,0.1014510840177536
1758274187543857000,0.05885693359375,-0.08095010370016098,-0.4829081892967224,0.11000728607177734
1758274187553814800,0.068814697265625,-0.027573540806770325,-0.5691667795181274,0.10201820731163025
1758274187563773000,0.07877294921875,0.043068137019872665,-0.5907535552978516,0.08882038295269012
1758274187573731800,0.08873193359375,0.16928282380104065,-0.5228740572929382,0.1005130186676979
1758274187583690000,0.09868994140625,0.3213573098182678,-0.46856850385665894,0.1309121996164322
1758274187593647900,0.10864794921875,0.45197248458862305,-0.6315668225288391,0.19233645498752594
1758274187603607300,0.118607177734375,0.5260549783706665,-0.8251304626464844,0.293061763048172
1758274187613565400,0.1285654296875,0.5940325260162354,-0.9107391238212585,0.47637856006622314
1758274187623523300,0.1385234375,0.6956436038017273,-0.9942724108695984,0.705533504486084
1758274187633481200,0.148481201171875,0.8789101243019104,-1.0927890539169312,0.9604710340499878
1758274187643440000,0.158440185546875,1.2008006572723389,-1.1259310245513916,1.2870826721191406
1758274187653398300,0.168398193359375,1.5700279474258423,-1.062050461769104,1.625654935836792
1758274187663356400,0.1783564453125,1.8865410089492798,-1.031042456626892,1.901737928390503
1758274187673315300,0.1883154296875,2.128969430923462,-1.2427632808685303,2.06130313873291
1758274187683273200,0.198273193359375,2.303443193435669,-1.7061394453048706,2.118736505508423
1758274187693231400,0.2082314453125,2.38356351852417,-2.2448785305023193,2.0883171558380127
1758274187703190300,0.218190185546875,2.3562490940093994,-2.781031847000122,1.98435640335083
1758274187713148400,0.2281484375,2.2883853912353516,-3.300023317337036,1.6675230264663696
1758274187723106300,0.238106201171875,2.183501720428467,-3.6858057975769043,1.1001310348510742
1758274187733065500,0.2480654296875,2.156954050064087,-3.9149343967437744,0.46851199865341187
1758274187743023400,0.2580234375,2.255871057510376,-3.9230048656463623,0.00022442196495831013
1758274187752981500,0.2679814453125,3.024932384490967,-3.34572172164917,0.11639274656772614
1758274187762939400,0.277939453125,3.734661340713501,-2.9778552055358887,0.2526025176048279
1758274187772898600,0.287898681640625,4.053915977478027,-3.255363941192627,0.31820496916770935
1758274187782856400,0.2978564453125,4.381658554077148,-3.4832119941711426,0.6055839657783508
1758274187792814300,0.307814453125,4.7048258781433105,-3.743669033050537,0.9704797267913818
1758274187802773200,0.317773193359375,4.877372741699219,-3.719214677810669,1.2855430841445923
1758274187812731400,0.3277314453125,5.009705543518066,-3.6629292964935303,1.4782441854476929
1758274187822689300,0.337689208984375,5.111753463745117,-3.5266833305358887,1.5633585453033447
1758274187832648200,0.347648193359375,5.056360721588135,-3.295083999633789,1.6265590190887451
1758274187842606300,0.3576064453125,4.842244625091553,-3.166426181793213,1.7596944570541382
1758274187852564200,0.367564208984375,4.609300136566162,-2.9852004051208496,1.9234193563461304
1758274187862523400,0.3775234375,4.460808753967285,-2.6206507682800293,2.0069735050201416
1758274187872481300,0.387481201171875,4.4066996574401855,-2.314711093902588,1.9782379865646362
1758274187882439400,0.397439453125,4.4167351722717285,-2.2889153957366943,1.9047517776489258
1758274187892398300,0.4073984375,4.333493232727051,-2.5002036094665527,1.904564619064331
1758274187902356500,0.4173564453125,4.042612552642822,-3.0351507663726807,1.947891354560852
1758274187912314400,0.427314453125,3.6448311805725098,-3.471168041229248,1.9901493787765503
1758274187922273300,0.437273193359375,3.253807783126831,-3.5048701763153076,1.99490225315094
1758274187932231400,0.4472314453125,2.925487518310547,-3.1921682357788086,1.9620763063430786
1758274187942189600,0.457189453125,2.65754771232605,-2.5545425415039062,1.9342952966690063
1758274187952147200,0.467147216796875,2.410173177719116,-1.7961100339889526,1.9242217540740967
1758274187962106000,0.477106201171875,2.1795198917388916,-1.3057910203933716,1.926729679107666
1758274187972064300,0.487064208984375,1.9220407009124756,-1.2303563356399536,1.8946640491485596
1758274187982022400,0.4970224609375,1.671342372894287,-1.515274167060852,1.8117930889129639
1758274187991981300,0.506981201171875,1.5679309368133545,-1.8609477281570435,1.7064131498336792
1758274188001939200,0.516939208984375,1.6647040843963623,-1.902286410331726,1.5835788249969482
1758274188011897300,0.5268974609375,1.8627122640609741,-1.8154878616333008,1.4779072999954224
1758274188021856300,0.536856201171875,2.049455404281616,-1.8177672624588013,1.4202121496200562
1758274188031814400,0.546814453125,2.18232798576355,-2.0648465156555176,1.4187828302383423
1758274188041772300,0.556772216796875,2.2919421195983887,-2.5940327644348145,1.4292911291122437
1758274188051731500,0.5667314453125,2.3149144649505615,-3.1061766147613525,1.3701086044311523
1758274188061689300,0.576689453125,2.069282293319702,-3.8569087982177734,0.8940161466598511
1758274188071647500,0.5866474609375,1.91942298412323,-3.871941566467285,0.43526020646095276
1758274188081606400,0.5966064453125,1.9561381340026855,-3.2749085426330566,0.05985356867313385
1758274188091564500,0.606564453125,2.197563648223877,-2.420539617538452,-0.3632955849170685
1758274188101522400,0.6165224609375,2.6241514682769775,-1.6746324300765991,-0.8366165161132812
1758274188111480300,0.626480224609375,2.6844980716705322,-0.7910676598548889,-1.7105804681777954
1758274188121439500,0.636439453125,3.0641558170318604,-0.5126938223838806,-2.4051079750061035
1758274188131397000,0.646397216796875,3.5817432403564453,-0.7478246092796326,-2.6459267139434814
1758274188141355300,0.656355224609375,3.8066797256469727,-1.1257628202438354,-1.8662660121917725
1758274188151314200,0.666314208984375,2.6085145473480225,-0.5172860026359558,-0.7335115075111389
1758274188161272300,0.676272216796875,1.3081167936325073,0.009119239635765553,0.4839850664138794
1758274188171230200,0.686230224609375,1.242921233177185,0.5035006999969482,1.2946847677230835
1758274188181189400,0.696189453125,1.47005295753479,0.9136751890182495,1.2806445360183716
1758274188191147300,0.706147216796875,1.8499423265457153,1.9400131702423096,0.8025446534156799
1758274188201105400,0.71610546875,2.386889934539795,2.611384868621826,0.3941715359687805
1758274188211064300,0.726064208984375,2.650264263153076,2.612224578857422,0.09954508394002914
1758274188221022500,0.7360224609375,2.707690477371216,2.133136510848999,0.2710651755332947
1758274188230980400,0.74598046875,2.514561891555786,1.9530508518218994,0.6102370023727417
1758274188240939300,0.755939208984375,2.4630849361419678,2.069018840789795,0.9379853010177612
1758274188250897400,0.7658974609375,2.6097140312194824,2.4287350177764893,0.9877853393554688
1758274188260855600,0.77585546875,2.7014248371124268,2.1483497619628906,0.3979010283946991
1758274188270813200,0.785813232421875,2.531595468521118,1.7279144525527954,-0.5686468482017517
1758274188280772400,0.7957724609375,2.301257848739624,1.7236114740371704,-1.2771133184432983
1758274188290730200,0.805730224609375,2.0587286949157715,1.786582589149475,-1.5585594177246094
1758274188300688400,0.8156884765625,1.839996576309204,1.3865050077438354,-1.1570454835891724
1758274188310647300,0.825647216796875,1.5880193710327148,0.3420073688030243,-0.5950795412063599
1758274188320605200,0.835605224609375,1.2989518642425537,-0.8655766844749451,-0.24008972942829132
1758274188330563300,0.845563232421875,1.0650584697723389,-1.418365240097046,-0.044635526835918427
1758274188340522200,0.855522216796875,1.1945027112960815,-1.011605143547058,0.25684016942977905
1758274188350480400,0.86548046875,1.790603518486023,-0.5303735136985779,0.4000077247619629
1758274188360438300,0.875438232421875,1.93584144115448,-0.17078924179077148,0.24789461493492126
1758274188370397400,0.8853974609375,1.644561767578125,0.47354480624198914,-0.3541935682296753
1758274188380355300,0.895355224609375,1.1734570264816284,1.081043004989624,-0.9740749001502991
1758274188390313500,0.9053134765625,0.9311268925666809,1.589686393737793,-1.514444351196289
1758274188400272400,0.9152724609375,0.4409273862838745,0.6204996109008789,-1.8855036497116089
1758274188410230300,0.925230224609375,-0.33562391996383667,0.8186835646629333,-2.8287508487701416
1758274188420188400,0.9351884765625,-1.136152982711792,-0.2334413230419159,-3.838191032409668
1758274188430147300,0.945147216796875,-0.3230701982975006,-2.8578763008117676,-4.206030368804932
1758274188440105500,0.95510546875,1.6094489097595215,-3.9544382095336914,-2.985015392303467
1758274188450063000,0.96506298828125,2.8594706058502197,-2.3669931888580322,0.0576699823141098
1758274188460021200,0.975021240234375,3.43404483795166,-1.5864344835281372,0.5250627994537354
1758274188469980200,0.984980224609375,3.9238955974578857,-1.0966688394546509,-0.4768452048301697
1758274188479938300,0.994938232421875,3.9491567611694336,-0.41381707787513733,-0.8003191351890564
1758274188489896200,1.004896240234375,3.416512966156006,0.3045252859592438,-0.6085511445999146
1758274188499855400,1.01485546875,2.628732442855835,0.7149351835250854,-0.4143601059913635
1758274188509813200,1.024813232421875,1.641605019569397,0.8616269826889038,-0.7329017519950867
1758274188519771400,1.034771484375,0.5421182513237,0.783525824546814,-0.8535330891609192
1758274188529730300,1.044730224609375,-0.3650501072406769,1.431581974029541,-0.33047887682914734
1758274188539688400,1.0546884765625,-0.6615281105041504,0.9389176964759827,-0.06938070803880692
1758274188549646300,1.064646240234375,-0.7017847299575806,0.22822320461273193,0.10389457643032074
1758274188559605200,1.074605224609375,-0.5164985060691833,0.06922237575054169,0.2373671531677246
1758274188569563400,1.0845634765625,-0.5581327080726624,0.2373003214597702,0.20796458423137665
1758274188579521500,1.094521484375,-0.6119871735572815,0.33942297101020813,0.15541774034500122
1758274188589479400,1.1044794921875,-0.7005459070205688,0.3256800174713135,0.11372338235378265
1758274188599438300,1.114438232421875,-0.8793766498565674,0.3602185547351837,0.12587378919124603
1758274188609396500,1.124396484375,-1.0334793329238892,0.37237170338630676,0.19780279695987701
1758274188619354400,1.134354248046875,-1.2475628852844238,0.5143632292747498,0.1865496039390564
1758274188629313500,1.1443134765625,-1.233410120010376,0.6612608432769775,0.19434623420238495
1758274188639271400,1.154271484375,-0.809433102607727,0.5432865023612976,0.21020135283470154
1758274188649229300,1.164229248046875,-0.5138674378395081,0.4751203656196594,0.155581995844841
1758274188659188200,1.174188232421875,-0.5191239714622498,1.2345229387283325,-0.03449607640504837
1758274188669146400,1.184146484375,-0.5546063184738159,1.2420028448104858,-0.170402392745018
1758274188679104300,1.194104248046875,-0.4902513027191162,0.3271583020687103,-0.21442709863185883
1758274188689063400,1.2040634765625,-0.49883192777633667,0.06673292070627213,-0.28486576676368713
1758274188699021300,1.214021240234375,-0.8025774359703064,0.2783205509185791,-0.20219087600708008
1758274188708979500,1.2239794921875,-1.1075413227081299,0.39714986085891724,-0.12205352634191513
1758274188718938400,1.2339384765625,-0.9537597894668579,-0.005405561067163944,-0.27082863450050354
1758274188728896300,1.243896240234375,-0.6025973558425903,-0.20064803957939148,-0.3547188937664032
1758274188738854400,1.2538544921875,-0.27084362506866455,-0.15923507511615753,-0.3592321276664734
1758274188748813300,1.263813232421875,-0.05558142066001892,-0.04457937553524971,-0.3938111960887909
1758274188758771500,1.273771484375,0.05045979470014572,0.10428253561258316,-0.49748244881629944
1758274188768729300,1.283729248046875,0.11186935752630234,0.2375769466161728,-0.5759692192077637
1758274188778687500,1.2936875,0.13659708201885223,0.3492984175682068,-0.5243327021598816
1758274188788646400,1.303646484375,0.15504449605941772,0.31707072257995605,-0.4180317521095276
1758274188798604500,1.3136044921875,0.18763598799705505,0.263050377368927,-0.2945915758609772
1758274188808562200,1.323562255859375,0.22074772417545319,0.20654214918613434,-0.16594798862934113
1758274188818521600,1.333521484375,0.24759159982204437,0.11373177915811539,-0.05096546560525894
1758274188828479200,1.343479248046875,0.20331662893295288,0.025371748954057693,0.003760888008400798
1758274188838437400,1.353437255859375,0.17422612011432648,0.029896192252635956,0.051178738474845886
1758274188848396300,1.363396240234375,0.2136663794517517,0.14044328033924103,0.10691338032484055
1758274188858354400,1.3733544921875,0.46895408630371094,0.13603255152702332,0.04274025186896324
1758274188868312300,1.383312255859375,0.5676376819610596,0.21641719341278076,-0.0014352207072079182
1758274188878271200,1.393271240234375,0.44213759899139404,0.2990715801715851,-0.06438329815864563
1758274188888229400,1.4032294921875,0.24194888770580292,0.25831669569015503,-0.07237022370100021
1758274188898187500,1.4131875,0.19763095676898956,0.11053522676229477,0.04710078239440918
1758274188908145400,1.4231455078125,0.19681082665920258,-0.047996021807193756,-0.0010333422105759382
1758274188918104300,1.433104248046875,0.16118891537189484,0.00785739067941904,0.12153491377830505
1758274188928062500,1.4430625,-0.029933901503682137,-0.2279793620109558,0.11786694824695587
1758274188938020400,1.453020263671875,-0.07068377733230591,-0.48114314675331116,0.10713864862918854
1758274188947979500,1.4629794921875,-0.017420131713151932,-0.3416554629802704,0.13650786876678467
1758274188957937400,1.4729375,0.042081013321876526,0.0896136611700058,0.07121887803077698
1758274188967895300,1.482895263671875,-0.026952432468533516,0.16587331891059875,0.0074332095682621
1758274188977854500,1.4928544921875,-0.06673340499401093,0.051601339131593704,0.0550883449614048
1758274188987812400,1.502812255859375,-0.06267157942056656,0.05794098973274231,0.051282308995723724
1758274188997770200,1.512770263671875,-0.06431154906749725,0.11678699404001236,0.012110671028494835
1758274189007729400,1.5227294921875,-0.06104374676942825,0.160851389169693,-0.018994877114892006
1758274189017687300,1.532687255859375,-0.03736291825771332,0.14209768176078796,-0.010443202219903469
1758274189027645400,1.5426455078125,-0.031271059066057205,0.17278383672237396,-0.027924709022045135
1758274189037604400,1.552604248046875,-0.04948441684246063,0.22532400488853455,-0.05256560444831848
1758274189047562200,1.562562255859375,-0.043740179389715195,0.31628191471099854,-0.07477990537881851
1758274189057520400,1.572520263671875,-0.051691845059394836,0.38827967643737793,-0.08043912798166275
1758274189067479300,1.582479248046875,-0.07656066119670868,0.37359878420829773,-0.04218621924519539
1758274189077437400,1.5924375,-0.0830015167593956,0.3692839443683624,-0.0056084999814629555
1758274189087395300,1.602395263671875,-0.07616548240184784,0.3582201302051544,0.02660653367638588
1758274189097353500,1.612353515625,-0.07336064428091049,0.3597189486026764,0.05231855437159538
1758274189107312400,1.6223125,-0.06182095408439636,0.3952655792236328,0.05860431119799614
1758274189117270500,1.6322705078125,-0.007854391820728779,0.44515112042427063,0.03953661024570465
1758274189127228400,1.642228515625,-0.014239572919905186,0.45114994049072266,0.025794871151447296
1758274189137187600,1.6521875,-0.0527518093585968,0.5905084013938904,-0.0330793634057045
1758274189147145200,1.662145263671875,-0.06599777936935425,0.6021556258201599,-0.021471351385116577
1758274189157103400,1.672103271484375,-0.02708979696035385,0.5753769874572754,-0.014185741543769836
1758274189167062300,1.682062255859375,-0.004082977771759033,0.5214599967002869,-0.016823971644043922
1758274189177020400,1.6920205078125,0.027614232152700424,0.45092350244522095,-0.024883495643734932
1758274189186978300,1.701978271484375,0.069380022585392,0.4166186451911926,-0.055937618017196655
1758274189196937200,1.711937255859375,0.1206008642911911,0.43413105607032776,-0.09947817772626877
1758274189206895400,1.721895263671875,0.17950451374053955,0.43168947100639343,-0.12707290053367615
1758274189216853500,1.731853515625,0.2314894050359726,0.4086190164089203,-0.13956578075885773
1758274189226812400,1.7418125,0.25882822275161743,0.3993150293827057,-0.13946622610092163
1758274189236770300,1.751770263671875,0.2825596332550049,0.4030809998512268,-0.1324663758277893
1758274189246728400,1.761728515625,0.29372313618659973,0.3885684013366699,-0.1247350201010704
1758274189256686300,1.771686279296875,0.31003233790397644,0.40190577507019043,-0.09368389844894409
1758274189266645500,1.7816455078125,0.33357933163642883,0.478598415851593,-0.04194612056016922
1758274189276603400,1.791603271484375,0.35527798533439636,0.51924729347229,0.0792412981390953
1758274189286561500,1.8015615234375,0.3535974323749542,0.5151035189628601,0.22102177143096924
1758274189296520400,1.8115205078125,0.3354394733905792,0.5090227127075195,0.35431724786758423
1758274189306478600,1.821478515625,0.326414555311203,0.4867280423641205,0.4707029461860657
1758274189316436200,1.831436279296875,0.3212224543094635,0.4417586922645569,0.5387789607048035
1758274189326395400,1.8413955078125,0.3266732692718506,0.39452049136161804,0.5735650658607483
1758274189336353300,1.851353271484375,0.3379983603954315,0.37494200468063354,0.5738134980201721
1758274189346311400,1.8613115234375,0.35955366492271423,0.38579466938972473,0.5031434297561646
1758274189356270300,1.871270263671875,0.3726697564125061,0.42917943000793457,0.37205517292022705
1758274189366228200,1.881228271484375,0.3421858847141266,0.37178483605384827,0.19248782098293304
1758274189376186400,1.891186279296875,0.2633858621120453,0.20615138113498688,-0.017317870631814003
1758274189386145300,1.901145263671875,0.17079193890094757,0.0015531580429524183,-0.1746712327003479
1758274189396103400,1.911103515625,0.0934542715549469,-0.2008066028356552,-0.2408238798379898
1758274189406061300,1.921061279296875,-0.0055265468545258045,-0.3796502947807312,-0.25544416904449463
1758274189416019500,1.93101953125,-0.11170437932014465,-0.5906416177749634,-0.27160128951072693
1758274189425978400,1.940978271484375,-0.21703167259693146,-0.8730199933052063,-0.3066316843032837
1758274189435936500,1.9509365234375,-0.2787914574146271,-1.1208124160766602,-0.45371994376182556
1758274189445894400,1.960894287109375,-0.31759074330329895,-1.2857537269592285,-0.7066139578819275
1758274189455853600,1.970853515625,-0.3506546914577484,-1.2847620248794556,-1.004044532775879
1758274189465811500,1.9808115234375,-0.4098794758319855,-1.2796645164489746,-1.2422107458114624
1758274189475769300,1.990769287109375,-0.49910229444503784,-1.2808176279067993,-1.360840082168579
1758274189485728500,2.000728515625,-0.5409652590751648,-1.2994710206985474,-1.3936065435409546
1758274189495686400,2.010686279296875,-0.5726547241210938,-1.384734034538269,-1.386698842048645
1758274189505644300,2.020644287109375,-0.6127511858940125,-1.51478910446167,-1.3571802377700806
1758274189515603200,2.030603271484375,-0.6451253890991211,-1.507394552230835,-1.4017235040664673
1758274189525561300,2.040561279296875,-0.6946294903755188,-1.3833003044128418,-1.4897315502166748
1758274189535519500,2.05051953125,-0.7487819194793701,-1.224579095840454,-1.565942645072937
1758274189545478400,2.060478515625,-0.8300153613090515,-1.0597305297851562,-1.6242731809616089
1758274189555436300,2.070436279296875,-0.918081521987915,-0.9725319743156433,-1.6279560327529907
1758274189565394400,2.08039453125,-0.9193738698959351,-0.9115588665008545,-1.6277037858963013
1758274189575353300,2.090353271484375,-0.9355208873748779,-0.8155428767204285,-1.614112138748169
1758274189585311500,2.1003115234375,-0.9586988687515259,-0.7606649398803711,-1.5259194374084473
1758274189595269400,2.110269287109375,-1.003378987312317,-0.8951774835586548,-1.3995071649551392
1758274189605227800,2.120227783203125,-1.0369373559951782,-0.9873939156532288,-1.3358489274978638
1758274189615186700,2.130186767578125,-1.149789571762085,-1.0677180290222168,-1.3816910982131958
1758274189625144800,2.140144775390625,-1.300397515296936,-1.116028904914856,-1.4822148084640503
1758274189635102700,2.150102783203125,-1.3253204822540283,-1.2826581001281738,-1.5080500841140747
1758274189645061600,2.1600615234375,-1.3589439392089844,-1.2020678520202637,-1.4699865579605103
1758274189655019800,2.170019775390625,-1.4144866466522217,-1.1380385160446167,-1.5063583850860596
1758274189664977700,2.179977783203125,-1.4492090940475464,-1.06602942943573,-1.5582956075668335
1758274189674936800,2.189936767578125,-1.413158655166626,-0.8951098322868347,-1.5103381872177124
1758274189684894700,2.199894775390625,-1.3177380561828613,-0.7638572454452515,-1.3711721897125244
1758274189694852900,2.209852783203125,-1.2217580080032349,-0.8662483096122742,-1.1697543859481812
1758274189704811800,2.219811767578125,-1.1394851207733154,-1.0388323068618774,-0.9703173041343689
1758274189714769700,2.229769775390625,-1.1344469785690308,-0.9155327081680298,-0.966113269329071
1758274189724727600,2.2397275390625,-1.1577000617980957,-0.8682044744491577,-0.9431712627410889
1758274189734686700,2.249686767578125,-1.1771658658981323,-0.8645961880683899,-0.8837441802024841
1758274189744644600,2.25964453125,-1.1596719026565552,-1.061073899269104,-0.7445275187492371
1758274189754602800,2.269602783203125,-1.1143105030059814,-1.8908329010009766,-0.40832898020744324
1758274189764560600,2.279560546875,-1.1588751077651978,-2.222572088241577,-0.2678449749946594
1758274189774519800,2.289519775390625,-1.2401041984558105,-2.427927255630493,-0.1656181812286377
1758274189784477700,2.299477783203125,-1.2162686586380005,-2.930462598800659,-0.08294032514095306
1758274189794435800,2.309435791015625,-1.2372220754623413,-3.08331036567688,-0.09533121436834335
1758274189804394800,2.319394775390625,-1.2145421504974365,-2.852647066116333,-0.19275103509426117
1758274189814352600,2.3293525390625,-1.2124414443969727,-2.955684185028076,-0.02492634765803814
1758274189824310800,2.339310791015625,-1.3297499418258667,-3.0880706310272217,0.19201809167861938
1758274189834269700,2.349269775390625,-1.4523123502731323,-2.9750266075134277,0.25433313846588135
1758274189844227800,2.359227783203125,-1.4014917612075806,-2.761146306991577,0.22087952494621277
1758274189854185700,2.369185791015625,-1.2371132373809814,-2.3011860847473145,0.12937703728675842
1758274189864145000,2.379144775390625,-1.0561162233352661,-2.0503220558166504,0.0792878046631813
1758274189874102800,2.389102783203125,-0.8958576321601868,-1.9438838958740234,0.0586744099855423
1758274189884060700,2.399060791015625,-0.7839109897613525,-1.7619819641113281,0.0390484519302845
1758274189894018600,2.4090185546875,-0.71990966796875,-1.4944483041763306,0.06436765938997269
1758274189903977700,2.418977783203125,-0.6137193441390991,-1.2065629959106445,0.09941158443689346
1758274189913935600,2.428935546875,-0.4962556064128876,-0.8680440783500671,0.1076468750834465
1758274189923893800,2.438893798828125,-0.40795695781707764,-0.5907763242721558,0.12574538588523865
1758274189933852700,2.448852783203125,-0.33685827255249023,-0.3205440640449524,0.14589352905750275
1758274189943810800,2.458810791015625,-0.25769931077957153,-0.12227325141429901,0.1798245906829834
1758274189953768700,2.468768798828125,-0.17587928473949432,0.004526502452790737,0.2418631911277771
1758274189963727600,2.4787275390625,-0.11353767663240433,0.035956256091594696,0.35765576362609863
1758274189973685800,2.488685791015625,-0.06463538110256195,0.08397091180086136,0.4705943167209625
1758274189983643600,2.4986435546875,-0.039987362921237946,0.15334263443946838,0.5439231395721436
1758274189993602800,2.508602783203125,-0.04152001067996025,0.23678986728191376,0.5924230217933655
1758274190003560700,2.518560791015625,-0.05134380981326103,0.3610527515411377,0.617051362991333
1758274190013518800,2.528518798828125,-0.07003840059041977,0.49652454257011414,0.6271663308143616
1758274190023476700,2.538476806640625,-0.0871896967291832,0.5728804469108582,0.5503879189491272
1758274190033436000,2.548435791015625,-0.1681055873632431,0.522320568561554,0.36421167850494385
1758274190043393500,2.5583935546875,-0.3122859299182892,0.39733657240867615,0.038949426263570786
1758274190053351700,2.5683515625,-0.4401000738143921,0.38593584299087524,-0.42337799072265625
1758274190063310600,2.578310546875,-0.5287935137748718,0.45227158069610596,-0.6360770463943481
1758274190073268700,2.588268798828125,-0.22076594829559326,0.8481848835945129,-0.11236215382814407
1758274190083226600,2.5982265625,0.518156111240387,1.6313889026641846,0.8777329325675964
1758274190093185500,2.608185546875,0.9188278913497925,1.8447402715682983,1.4209874868392944
1758274190103143700,2.618143798828125,1.1949725151062012,0.827643096446991,1.2053519487380981
1758274190113101800,2.628101806640625,1.1967551708221436,-0.07509981095790863,0.6267184019088745
1758274190123060700,2.638060791015625,0.8645928502082825,0.8030027151107788,0.331241637468338
1758274190133018600,2.6480185546875,0.6732063889503479,1.851406216621399,0.5543708801269531
1758274190142976800,2.657976806640625,0.6528478860855103,2.229938268661499,0.7958633899688721
1758274190152935000,2.667934814453125,0.7244136929512024,2.5325183868408203,0.9578176736831665
1758274190162893800,2.677893798828125,0.8067828416824341,2.46299409866333,0.8093186020851135
1758274190172851700,2.687851806640625,0.8572907447814941,2.434339761734009,0.5466142892837524
1758274190182809900,2.697809814453125,0.9135698080062866,2.684706449508667,0.48137304186820984
1758274190192768800,2.707768798828125,0.950890302658081,2.6506834030151367,0.5210221409797668
1758274190202726700,2.7177265625,0.9754517674446106,2.402312994003296,0.5633492469787598
1758274190212684500,2.7276845703125,1.0211607217788696,2.143035888671875,0.6052000522613525
1758274190222643700,2.737643798828125,1.0769377946853638,1.9938766956329346,0.6047993898391724
1758274190232601600,2.7476015625,1.1195358037948608,1.9135253429412842,0.5560789704322815
1758274190242559700,2.757559814453125,1.1338528394699097,1.8867162466049194,0.4659877419471741
1758274190252518700,2.7675185546875,1.1223825216293335,1.8690333366394043,0.43316587805747986
1758274190262476800,2.777476806640625,1.114372730255127,1.9547457695007324,0.41641342639923096
1758274190272434700,2.7874345703125,1.0587879419326782,2.1548969745635986,0.36743468046188354
1758274190282393600,2.7973935546875,1.0156246423721313,2.348381280899048,0.3068048357963562
1758274190292351700,2.807351806640625,1.0055829286575317,2.5484962463378906,0.26770830154418945
1758274190302309600,2.8173095703125,0.9947091937065125,2.685530185699463,0.2804855704307556
1758274190312267800,2.827267822265625,0.952156662940979,2.8657915592193604,0.30892255902290344
1758274190322226700,2.837226806640625,0.8981265425682068,3.000800132751465,0.3048188090324402
1758274190332184800,2.847184814453125,0.8282904624938965,3.1921722888946533,0.33787769079208374
1758274190342142700,2.857142822265625,0.7808600664138794,3.239504337310791,0.4303218126296997
1758274190352102000,2.867101806640625,0.8409963250160217,2.8407609462738037,0.5073305368423462
1758274190362059800,2.877059814453125,0.9609286189079285,1.928747534751892,0.7392908930778503
1758274190372017700,2.887017578125,0.9831897616386414,1.0029877424240112,0.9505706429481506
1758274190381976600,2.8969765625,0.9231874942779541,0.19970059394836426,1.1316324472427368
1758274190391934700,2.906934814453125,0.8673668503761292,-0.1097579225897789,1.2785781621932983
1758274190401892600,2.916892578125,0.8284932374954224,-0.2608473002910614,1.3432241678237915
1758274190411851500,2.9268515625,0.8159993290901184,-0.34076398611068726,1.3846871852874756
1758274190421809700,2.9368095703125,0.7821078896522522,-0.299712210893631,1.3852286338806152
1758274190431767800,2.946767822265625,0.7700344920158386,-0.09039654582738876,1.2991808652877808
1758274190441725700,2.9567255859375,0.8082749247550964,-0.06473216414451599,1.2498761415481567
1758274190451684600,2.9666845703125,0.7950741648674011,-0.04313339293003082,1.1610511541366577
1758274190461642800,2.976642822265625,0.7295879125595093,0.23568709194660187,0.9999082088470459
1758274190471601000,2.986600830078125,0.6620142459869385,0.5562874674797058,0.7970669269561768
1758274190481559800,2.996559814453125,0.6010428071022034,0.7351256608963013,0.5928409695625305
1758274190491517700,3.006517578125,0.517095148563385,0.7442501783370972,0.43289631605148315
1758274190501475800,3.016475830078125,0.4686890244483948,0.5541296601295471,0.319105863571167
1758274190511434800,3.026434814453125,0.5599209070205688,0.3819299042224884,0.3379456102848053
1758274190521393000,3.036392822265625,0.6009791493415833,0.16122442483901978,0.4091092646121979
1758274190531350500,3.0463505859375,0.5656136870384216,0.011404037475585938,0.42861664295196533
1758274190541310000,3.05631005859375,0.5424813032150269,0.0530620776116848,0.39477822184562683
1758274190551267600,3.066267578125,0.46085038781166077,0.23482441902160645,0.36965450644493103
1758274190561225700,3.076225830078125,0.37788480520248413,0.3364647328853607,0.3536280393600464
1758274190571183600,3.08618359375,0.34975436329841614,0.3152206838130951,0.35213425755500793
1758274190581142800,3.096142822265625,0.34011945128440857,0.3027765452861786,0.35096004605293274
1758274190591100700,3.1061005859375,0.34469449520111084,0.3015919625759125,0.36239805817604065
1758274190601058800,3.116058837890625,0.3517908453941345,0.276470422744751,0.3719739019870758
1758274190611017000,3.126016845703125,0.3521266579627991,0.26507022976875305,0.35730496048927307
1758274190620975000,3.13597509765625,0.327211856842041,0.21721921861171722,0.35665327310562134
1758274190630933000,3.14593310546875,0.2755044400691986,0.10244149714708328,0.43205028772354126
1758274190640892000,3.155891845703125,0.21183094382286072,-0.09105051308870316,0.5797187089920044
1758274190650850000,3.16585009765625,0.18976745009422302,-0.26688438653945923,0.7436975240707397
1758274190660808200,3.17580810546875,0.2280053347349167,-0.30552658438682556,0.778236448764801
1758274190670765800,3.185765869140625,0.2666552662849426,-0.308481901884079,0.7136401534080505
1758274190680724700,3.195724853515625,0.25479501485824585,-0.31112831830978394,0.6170459985733032
1758274190690683000,3.205682861328125,0.2454366534948349,-0.21277938783168793,0.4701473116874695
1758274190700641000,3.21564111328125,0.2664807140827179,-0.13746277987957,0.3263849914073944
1758274190710600000,3.225599853515625,0.2524021863937378,-0.2257724106311798,0.20595872402191162
1758274190720557800,3.235557861328125,0.2283233106136322,-0.3371298015117645,0.09269003570079803
1758274190730516000,3.245515869140625,0.194115549325943,-0.4194667339324951,-0.02770162932574749
1758274190740475000,3.255474853515625,0.10939540714025497,-0.602713406085968,-0.11582059413194656
1758274190750433000,3.26543310546875,-0.012452737428247929,-0.8244109153747559,-0.16336068511009216
1758274190760391000,3.275390869140625,-0.11078022420406342,-0.8925760388374329,-0.27746811509132385
1758274190770350000,3.28535009765625,-0.17149576544761658,-0.8900313973426819,-0.5011283755302429
1758274190780308000,3.295307861328125,-0.23813281953334808,-0.8793662190437317,-0.7525292634963989
1758274190790266000,3.30526611328125,-0.29835888743400574,-0.845486044883728,-0.9675390720367432
1758274190800224000,3.31522412109375,-0.3523474931716919,-0.8211988806724548,-1.1593337059020996
1758274190810183200,3.32518310546875,-0.39602360129356384,-0.8143758773803711,-1.3949954509735107
1758274190820141000,3.33514111328125,-0.43176525831222534,-0.8459436893463135,-1.5936682224273682
1758274190830099000,3.345098876953125,-0.4672508239746094,-0.9218379259109497,-1.72382390499115
1758274190840058000,3.35505810546875,-0.5419521331787109,-0.9139153957366943,-1.8318521976470947
1758274190850016000,3.36501611328125,-0.6042080521583557,-0.9423968195915222,-1.882716178894043
1758274190859974000,3.374973876953125,-0.6954005360603333,-0.9867353439331055,-1.9016953706741333
1758274190869932800,3.384932861328125,-0.8501970171928406,-0.8603225350379944,-1.9840143918991089
1758274190879891000,3.394890869140625,-0.9790381789207458,-0.6318594813346863,-2.067331552505493
1758274190889848800,3.404848876953125,-1.0417306423187256,-0.40061527490615845,-2.114374876022339
1758274190899807000,3.414806884765625,-1.0419789552688599,-0.33439093828201294,-2.0475947856903076
1758274190909766000,3.424765869140625,-1.0744160413742065,-0.36791107058525085,-1.92191481590271
1758274190919724000,3.43472412109375,-1.1525533199310303,-0.49342191219329834,-1.7558741569519043
1758274190929682000,3.444681884765625,-1.2241045236587524,-0.5885540246963501,-1.5982134342193604
1758274190939641000,3.45464111328125,-1.2541468143463135,-0.579084038734436,-1.5705852508544922
1758274190949599000,3.464598876953125,-1.2320876121520996,-0.6094989776611328,-1.5954911708831787
1758274190959557000,3.47455712890625,-1.1571669578552246,-0.7059870958328247,-1.6082639694213867
1758274190969516000,3.48451611328125,-1.0625038146972656,-0.858627200126648,-1.6264299154281616
1758274190979474200,3.49447412109375,-1.0332304239273071,-1.146109938621521,-1.6545262336730957
1758274190989431800,3.504431884765625,-0.9936543107032776,-1.2976152896881104,-1.5529364347457886
1758274190999391000,3.514390869140625,-0.9870179891586304,-1.4542399644851685,-1.4065688848495483
1758274191009348900,3.524348876953125,-0.9986240267753601,-1.5096983909606934,-1.332697868347168
1758274191019307000,3.53430712890625,-1.0856451988220215,-1.304904580116272,-1.3034604787826538
1758274191029265000,3.544264892578125,-1.1747289896011353,-1.5495465993881226,-1.0816823244094849
1758274191039223800,3.554223876953125,-1.197016954421997,-2.0904290676116943,-0.8982301354408264
1758274191049182000,3.564181884765625,-1.1620502471923828,-2.5609982013702393,-0.8165344595909119
1758274191059139800,3.574139892578125,-1.1126645803451538,-3.1015944480895996,-0.7149956226348877
1758274191069099000,3.58409912109375,-1.211868166923523,-3.0477287769317627,-0.643316388130188
1758274191079057000,3.594056884765625,-1.319671869277954,-2.83022403717041,-0.5767701268196106
1758274191089015000,3.60401513671875,-1.4103418588638306,-2.7834415435791016,-0.41888535022735596
1758274191098973000,3.613972900390625,-1.399863839149475,-2.8755359649658203,-0.3196754455566406
1758274191108932000,3.62393212890625,-1.3165870904922485,-2.9567298889160156,-0.2883204519748688
1758274191118890000,3.633889892578125,-1.2990316152572632,-3.146357536315918,-0.15763475000858307
1758274191128848100,3.64384814453125,-1.2569859027862549,-2.952049493789673,-0.12352658808231354
1758274191138807000,3.65380712890625,-1.1091066598892212,-2.4545035362243652,-0.14496378600597382
1758274191148765200,3.66376513671875,-0.9796109795570374,-2.0776612758636475,-0.1353287249803543
1758274191158722800,3.673722900390625,-0.9311981797218323,-1.8130625486373901,-0.09061896800994873
1758274191168682000,3.683681884765625,-0.8385404348373413,-1.6387799978256226,-0.041669271886348724
1758274191178640000,3.693639892578125,-0.7312934994697571,-1.501010537147522,-0.016462789848446846
1758274191188598000,3.703597900390625,-0.5908005237579346,-1.37782621383667,-0.017376519739627838
1758274191198556000,3.713555908203125,-0.46664005517959595,-1.2179913520812988,-0.0012364797294139862
1758274191208514800,3.723514892578125,-0.3847377300262451,-1.022675633430481,0.05132366716861725
1758274191218473000,3.733472900390625,-0.33805543184280396,-0.8041351437568665,0.12368079274892807
1758274191228431000,3.74343115234375,-0.30306947231292725,-0.590179443359375,0.19978807866573334
1758274191238390000,3.75339013671875,-0.28267112374305725,-0.42050740122795105,0.28109505772590637
1758274191248348000,3.763347900390625,-0.2838892638683319,-0.28787344694137573,0.395774781703949
1758274191258306000,3.77330615234375,-0.32799994945526123,-0.11727160960435867,0.523412823677063
1758274191268265000,3.783264892578125,-0.38856902718544006,0.07234466075897217,0.6460739970207214
1758274191278223000,3.79322314453125,-0.42749038338661194,0.2699853479862213,0.7372454404830933
1758274191288181000,3.803180908203125,-0.4383281171321869,0.4200938642024994,0.7943313717842102
1758274191298140200,3.81314013671875,-0.443509578704834,0.5137953758239746,0.8154330849647522
1758274191308098000,3.82309814453125,-0.4109974503517151,0.6673879027366638,0.747464120388031
1758274191318056000,3.833055908203125,-0.31543171405792236,0.8702982664108276,0.6146414279937744
1758274191328013800,3.843013916015625,-0.13467338681221008,1.1588072776794434,0.44962403178215027
1758274191337973000,3.852972900390625,0.1395307183265686,1.4902262687683105,0.298417866230011
1758274191347931000,3.862930908203125,0.4301798641681671,1.840092658996582,0.22914159297943115
1758274191357889000,3.872888916015625,0.6448146104812622,2.0579047203063965,0.34923064708709717
1758274191367848000,3.882847900390625,0.7506595849990845,1.6436975002288818,0.23466706275939941
1758274191377805800,3.892805908203125,0.6645050048828125,0.5532045364379883,-0.0473332479596138
1758274191387764000,3.902763916015625,0.5660974979400635,0.04901083931326866,-0.03427976369857788
1758274191397722000,3.91272216796875,0.5050451755523682,0.45933377742767334,-0.20490573346614838
1758274191407681000,3.922680908203125,0.6624646186828613,1.677034854888916,0.29182013869285583
1758274191417639000,3.932638916015625,0.5703195929527283,2.315718650817871,0.974497377872467
1758274191427597000,3.94259716796875,0.6242448687553406,2.247136116027832,1.100853681564331
1758274191437556000,3.952555908203125,0.8395612835884094,1.9533201456069946,0.8685843348503113
1758274191447514000,3.96251416015625,1.0539758205413818,2.120486259460449,0.6825894117355347
1758274191457472000,3.972471923828125,1.179556131362915,2.519559144973755,0.6375009417533875
1758274191467431200,3.98243115234375,1.2208995819091797,2.669987916946411,0.6880093812942505
1758274191477388800,3.992388916015625,1.1442558765411377,2.2562100887298584,0.6950175166130066
1758274191487347000,4.002346923828125,0.9753445386886597,1.7821835279464722,0.6418225765228271
1758274191497304800,4.012304931640625,0.852004885673523,1.7348413467407227,0.6823402047157288
1758274191507264000,4.022263916015625,0.8420861959457397,1.7616665363311768,0.7737220525741577
1758274191517222000,4.032221923828125,0.8738261461257935,1.729421854019165,0.8573734760284424
1758274191527180000,4.042179931640625,0.8495367765426636,1.7216219902038574,0.8825957775115967
1758274191537139000,4.052138916015625,0.7704858779907227,1.851365089416504,0.8330516815185547
1758274191547097000,4.06209716796875,0.7162274122238159,2.037773609161377,0.7305325269699097
1758274191557055000,4.072054931640625,0.6839467287063599,2.070753812789917,0.6596488356590271
1758274191567014000,4.082013916015625,0.6817227005958557,1.967992901802063,0.6200742721557617
1758274191576972000,4.091971923828125,0.6927569508552551,1.9490187168121338,0.5905119180679321
1758274191586930000,4.101929931640625,0.7368192076683044,2.0519192218780518,0.5514289736747742
1758274191596888000,4.11188818359375,0.8326653242111206,2.1887705326080322,0.45439010858535767
1758274191606847500,4.121847412109375,0.9340835809707642,2.3431971073150635,0.3669990003108978
1758274191616805600,4.1318056640625,0.9566078782081604,2.4885616302490234,0.3195997476577759
1758274191626763500,4.141763427734375,0.8989648222923279,2.402733564376831,0.3172931969165802
1758274191636722700,4.15172265625,0.7903952598571777,1.8901972770690918,0.37929120659828186
1758274191646680600,4.1616806640625,0.6118838787078857,1.5293395519256592,0.5165425539016724
1758274191656638700,4.171638671875,0.4357507824897766,1.4096087217330933,0.7069916725158691
1758274191666597600,4.18159765625,0.3733643889427185,1.2340754270553589,0.8558927178382874
1758274191676555500,4.191555419921875,0.4305746257305145,0.9770975112915039,0.9294695258140564
1758274191686513700,4.201513671875,0.5552941560745239,0.6132990121841431,0.9829199314117432
1758274191696471800,4.211471923828125,0.5930870175361633,0.3646571934223175,0.9445898532867432
1758274191706430700,4.2214306640625,0.5678405165672302,0.26066529750823975,0.9169195890426636
1758274191716388600,4.231388671875,0.4995032250881195,0.2942292392253876,0.8447626233100891
1758274191726346800,4.2413466796875,0.48538318276405334,0.27201181650161743,0.7731273174285889
1758274191736305700,4.2513056640625,0.4692184329032898,0.2749091386795044,0.7008586525917053
1758274191746263800,4.261263916015625,0.40259864926338196,0.46077460050582886,0.6185550093650818
1758274191756221400,4.271221435546875,0.31949689984321594,0.6468157172203064,0.4978201389312744
1758274191766179600,4.2811796875,0.2847149670124054,0.7220281362533569,0.40259963274002075
1758274191776138500,4.291138427734375,0.3010766804218292,0.6784701347351074,0.35641607642173767
1758274191786096600,4.3010966796875,0.30019357800483704,0.5758164525032043,0.33877265453338623
1758274191796054500,4.311054443359375,0.27395865321159363,0.4438728392124176,0.32044845819473267
1758274191806013700,4.321013671875,0.29837530851364136,0.4014260470867157,0.29594019055366516
1758274191815971600,4.3309716796875,0.33290135860443115,0.4113735258579254,0.2722483277320862
1758274191825929700,4.3409296875,0.36273249983787537,0.4057968556880951,0.23728102445602417
1758274191835888600,4.350888671875,0.35917529463768005,0.4162253737449646,0.21196535229682922
1758274191845846500,4.360846435546875,0.329332172870636,0.4322887659072876,0.1903948038816452
1758274191855804700,4.3708046875,0.3265712857246399,0.4042794704437256,0.14885254204273224
1758274191865762800,4.3807626953125,0.3270525336265564,0.30940088629722595,0.1393410563468933
1758274191875721700,4.3907216796875,0.3284253478050232,0.21643789112567902,0.17710423469543457
1758274191885679600,4.4006796875,0.35391470789909363,0.1555393785238266,0.24385610222816467
1758274191895637800,4.4106376953125,0.39238008856773376,0.11531320214271545,0.2725510597229004
1758274191905596700,4.4205966796875,0.43345215916633606,0.11684159189462662,0.27236810326576233
1758274191915554600,4.430554443359375,0.4475906491279602,0.1570071130990982,0.2751901149749756
1758274191925512400,4.440512451171875,0.47461214661598206,0.17408064007759094,0.293918251991272
1758274191935470600,4.450470703125,0.47847118973731995,0.11593843251466751,0.33469969034194946
1758274191945429500,4.460429443359375,0.46714529395103455,0.06095827370882034,0.38389331102371216
1758274191955387600,4.4703876953125,0.44937679171562195,0.004514899104833603,0.43239840865135193
1758274191965345500,4.480345458984375,0.4421162009239197,0.000523886177688837,0.4505491852760315
1758274191975304700,4.4903046875,0.4395221769809723,-0.021190466359257698,0.43434247374534607
1758274191985262600,4.5002626953125,0.41474997997283936,-0.016305698081851006,0.3625258207321167
1758274191995220700,4.510220703125,0.3873847424983978,0.05654355138540268,0.23172898590564728
1758274192005179600,4.5201796875,0.34210699796676636,0.10920942574739456,0.06960132718086243
1758274192015137800,4.5301376953125,0.25369077920913696,0.03910449147224426,-0.07554800808429718
1758274192025095700,4.540095703125,0.1614319384098053,-0.13760051131248474,-0.1699323058128357
1758274192035053800,4.5500537109375,0.0729779303073883,-0.31639620661735535,-0.1902921199798584
1758274192045012700,4.5600126953125,-0.014856846071779728,-0.47348541021347046,-0.17885516583919525
1758274192054970600,4.569970703125,-0.10883750766515732,-0.6282472610473633,-0.20798444747924805
1758274192064928500,4.579928466796875,-0.1883419156074524,-0.7269610166549683,-0.33540019392967224
1758274192074887700,4.5898876953125,-0.2364211082458496,-0.8959710001945496,-0.5855193138122559
1758274192084845600,4.599845458984375,-0.2984863519668579,-1.2427868843078613,-0.8618353009223938
1758274192094803500,4.609803466796875,-0.39072373509407043,-1.554835557937622,-1.1076301336288452
1758274192104761600,4.61976171875,-0.47090938687324524,-1.7225878238677979,-1.3295190334320068
1758274192114720500,4.629720458984375,-0.4818408191204071,-1.8840017318725586,-1.5024749040603638
1758274192124678700,4.6396787109375,-0.5073767900466919,-1.9672627449035645,-1.6557321548461914
1758274192134636500,4.649636474609375,-0.5686331391334534,-2.0165627002716064,-1.7075221538543701
1758274192144595700,4.659595703125,-0.7096799612045288,-1.819192886352539,-1.8497413396835327
1758274192154553600,4.6695537109375,-0.9078652262687683,-1.539567470550537,-1.9777213335037231
1758274192164511700,4.67951171875,-1.0352864265441895,-1.1712783575057983,-2.053925037384033
1758274192174470700,4.689470703125,-1.0469117164611816,-0.939373791217804,-2.0510201454162598
1758274192184428800,4.6994287109375,-1.0440075397491455,-0.9965830445289612,-1.970639944076538
1758274192194386700,4.70938671875,-1.0534948110580444,-1.227051854133606,-1.7849500179290771
1758274192204344800,4.7193447265625,-1.1060607433319092,-1.3440285921096802,-1.6191331148147583
1758274192214303700,4.7293037109375,-1.1460458040237427,-1.3205673694610596,-1.5272200107574463
1758274192224261600,4.73926171875,-1.091201663017273,-1.1113272905349731,-1.4431644678115845
1758274192234219500,4.749219482421875,-1.010266900062561,-1.0609697103500366,-1.2914631366729736
1758274192244178400,4.759178466796875,-0.9788498878479004,-1.04547119140625,-1.2640069723129272
1758274192254136600,4.769136474609375,-0.9626147747039795,-1.0471726655960083,-1.2938951253890991
1758274192264094500,4.779094482421875,-0.8892667889595032,-1.195786952972412,-1.2915587425231934
1758274192274052600,4.789052490234375,-0.8847095966339111,-1.4252867698669434,-1.2811698913574219
1758274192284011500,4.799011474609375,-0.9466819167137146,-1.4893600940704346,-1.228801965713501
1758274192293969700,4.8089697265625,-1.06141996383667,-1.5137706995010376,-1.1522752046585083
1758274192303927600,4.818927490234375,-1.119392991065979,-1.3850295543670654,-1.1326959133148193
1758274192313886700,4.82888671875,-1.230536937713623,-1.3647972345352173,-1.1361271142959595
1758274192323844600,4.8388447265625,-1.2981582880020142,-1.6438336372375488,-1.096570372581482
1758274192333802800,4.848802734375,-1.2254455089569092,-2.1864230632781982,-0.9876503944396973
1758274192343760600,4.8587607421875,-1.2071119546890259,-2.4536802768707275,-0.9399276375770569
1758274192353719800,4.8687197265625,-1.2272547483444214,-2.5665321350097656,-0.8475385904312134
1758274192363677700,4.878677734375,-1.3635900020599365,-2.5384910106658936,-0.7411242723464966
1758274192373635600,4.888635498046875,-1.450466275215149,-2.6317005157470703,-0.6099967360496521
1758274192383594800,4.8985947265625,-1.4822269678115845,-2.7020516395568848,-0.46011191606521606
1758274192393552600,4.908552734375,-1.4370193481445312,-2.8391802310943604,-0.3694295287132263
1758274192403510500,4.918510498046875,-1.346688985824585,-3.0643720626831055,-0.1989523470401764
1758274192413468700,4.92846875,-1.2262420654296875,-2.827606439590454,-0.13115327060222626
1758274192423427600,4.938427490234375,-1.0734070539474487,-2.4558873176574707,-0.09645494073629379
1758274192433385700,4.9483857421875,-0.9333826899528503,-2.294832944869995,-0.030882833525538445
1758274192443343600,4.958343505859375,-0.8706985116004944,-2.0264177322387695,0.004620034247636795
1758274192453302500,4.968302490234375,-0.7894460558891296,-1.723994255065918,0.005194178316742182
1758274192463260700,4.9782607421875,-0.6867201924324036,-1.4134896993637085,0.012184442952275276
1758274192473218600,4.988218505859375,-0.6351947784423828,-1.1695278882980347,0.017513860017061234
1758274192483176700,4.9981767578125,-0.6044813394546509,-0.9020187258720398,0.04084235429763794
1758274192493135600,5.008135498046875,-0.5704335570335388,-0.6096978187561035,0.11085399240255356
1758274192503093800,5.01809375,-0.53193598985672,-0.31984204053878784,0.21345333755016327
1758274192513051600,5.0280517578125,-0.46371155977249146,-0.09079544991254807,0.3075093626976013
1758274192523010800,5.0380107421875,-0.38826102018356323,0.04808759689331055,0.3907858729362488
1758274192532969700,5.0479697265625,-0.3390975892543793,0.14959371089935303,0.5156763195991516
1758274192542927600,5.057927734375,-0.29569339752197266,0.25019168853759766,0.6458593606948853
1758274192552885500,5.067885498046875,-0.26432278752326965,0.3785526156425476,0.7523998022079468
1758274192562843600,5.07784375,-0.24701759219169617,0.47212013602256775,0.8088542819023132
1758274192572802600,5.087802490234375,-0.2360505759716034,0.5968342423439026,0.8021776676177979
1758274192582760400,5.097760498046875,-0.1839330494403839,0.8300642967224121,0.7277849316596985
1758274192592718600,5.107718505859375,-0.053173985332250595,1.118735432624817,0.5900151133537292
1758274192602677500,5.117677490234375,0.16926787793636322,1.3920446634292603,0.3800773024559021
1758274192612634600,5.127634521484375,0.428503155708313,1.524462342262268,0.11025707423686981
1758274192622592800,5.1375927734375,0.5556275248527527,1.6608211994171143,-0.042305029928684235
1758274192632550700,5.147550537109375,0.5399749279022217,1.3954706192016602,-0.11140692234039307
1758274192642509800,5.157509765625,0.4450838267803192,0.7199342846870422,0.0393194705247879
1758274192652467700,5.1674677734375,0.46894747018814087,0.385338693857193,0.514528214931488
1758274192662425900,5.17742578125,0.596416711807251,0.9417135119438171,0.5705329179763794
1758274192672384800,5.187384765625,0.9159579277038574,0.9124912619590759,0.8280511498451233
1758274192682342700,5.1973427734375,0.8305255770683289,1.3046610355377197,0.8923785090446472
1758274192692300500,5.207300537109375,0.5771359205245972,1.8142825365066528,0.8742062449455261
1758274192702258700,5.2172587890625,0.6702986359596252,2.133916139602661,0.8163517117500305
1758274192712217600,5.227217529296875,0.8680861592292786,2.397054672241211,0.6854785084724426
1758274192722175500,5.237175537109375,1.0566356182098389,2.5508272647857666,0.5388920307159424
1758274192732133600,5.247133544921875,1.158279299736023,2.639084577560425,0.4246549606323242
1758274192742092500,5.257092529296875,1.2247370481491089,2.691669464111328,0.4950055480003357
1758274192752050700,5.26705078125,1.2112808227539062,2.34891676902771,0.6117769479751587
1758274192762008600,5.277008544921875,1.095784068107605,1.9043705463409424,0.7607262134552002
1758274192771966700,5.286966796875,1.0012662410736084,1.7693575620651245,0.8872131705284119
1758274192781925600,5.296925537109375,0.966326892375946,1.8543094396591187,0.908507227897644
1758274192791883800,5.3068837890625,0.9348986148834229,1.9647324085235596,0.8607561588287354
1758274192801841700,5.316841552734375,0.8401311039924622,1.9914186000823975,0.853017270565033
1758274192811800800,5.32680078125,0.69682776927948,2.0322265625,0.7796815037727356
1758274192821758700,5.3367587890625,0.6462221145629883,2.1183810234069824,0.6562243103981018
1758274192831716600,5.346716552734375,0.6640695929527283,2.0744059085845947,0.6109041571617126
1758274192841674500,5.356674560546875,0.7003831267356873,1.9667305946350098,0.5926191806793213
1758274192851633700,5.366633544921875,0.7499379515647888,1.9861990213394165,0.530357301235199
1758274192861591600,5.376591552734375,0.8022112846374512,2.2198574542999268,0.4578854739665985
1758274192871549700,5.3865498046875,0.811633288860321,2.5043299198150635,0.3911891579627991
1758274192881508600,5.396508544921875,0.7830045819282532,2.739119291305542,0.3696889281272888
1758274192891466500,5.406466552734375,0.7464147806167603,2.7154269218444824,0.3962637186050415
1758274192901424600,5.416424560546875,0.6999974846839905,2.3592681884765625,0.5015975832939148
1758274192911382800,5.4263828125,0.5920746326446533,1.9175695180892944,0.6491637229919434
1758274192921340700,5.436340576171875,0.4151752293109894,1.5435056686401367,0.782645583152771
1758274192931299600,5.446299560546875,0.35745567083358765,1.2075518369674683,0.8589795827865601
1758274192941257700,5.4562578125,0.4107540547847748,0.766874372959137,0.928093433380127
1758274192951215900,5.4662158203125,0.5141465663909912,0.294460266828537,1.092120885848999
1758274192961173500,5.476173583984375,0.5571084022521973,0.2765883505344391,0.9799432158470154
1758274192971132700,5.486132568359375,0.5685175061225891,0.4576680064201355,0.840438187122345
1758274192981090600,5.496090576171875,0.5219550728797913,0.7044942378997803,0.7165873646736145
1758274192991048400,5.50604833984375,0.5066719055175781,0.779562771320343,0.6612412333488464
1758274193001007600,5.516007568359375,0.5223195552825928,0.8220489621162415,0.5702263712882996
1758274193010965500,5.525965576171875,0.5084968209266663,0.8632075786590576,0.49189743399620056
1758274193020923600,5.535923583984375,0.4380951225757599,0.8553592562675476,0.4822506904602051
1758274193030881500,5.545881591796875,0.3646940290927887,0.810322642326355,0.46176064014434814
1758274193040840700,5.5558408203125,0.33353373408317566,0.7513991594314575,0.40116387605667114
1758274193050798600,5.565798583984375,0.3597295582294464,0.6480370163917542,0.3583458662033081
1758274193060756700,5.5757568359375,0.3556024432182312,0.5227015018463135,0.3439493775367737
1758274193070715600,5.585715576171875,0.34187841415405273,0.4200548231601715,0.3564437925815582
1758274193080673800,5.595673828125,0.3315834403038025,0.27988573908805847,0.41252702474594116
1758274193090631700,5.605631591796875,0.3389902412891388,0.26343485713005066,0.4189138114452362
1758274193100589800,5.61558984375,0.37753361463546753,0.2743053436279297,0.3968023955821991
1758274193110548700,5.625548828125,0.37598028779029846,0.31692367792129517,0.3344322741031647
1758274193120506600,5.635506591796875,0.36246153712272644,0.3086327016353607,0.2711755633354187
1758274193130464500,5.645464599609375,0.32974162697792053,0.19393222033977509,0.20850509405136108
1758274193140423400,5.65542333984375,0.3335733711719513,0.1266181617975235,0.18176855146884918
1758274193150381600,5.665381591796875,0.3915294408798218,0.22538945078849792,0.15714548528194427
1758274193160339700,5.675339599609375,0.43385452032089233,0.27803775668144226,0.15166710317134857
1758274193170298600,5.685298583984375,0.43133896589279175,0.26103708148002625,0.1769530028104782
1758274193180256500,5.695256591796875,0.4030114710330963,0.2616562843322754,0.24866580963134766
1758274193190214700,5.705214599609375,0.33889448642730713,0.1853121966123581,0.3928501307964325
1758274193200172500,5.715172607421875,0.3214454650878906,0.09231113642454147,0.5149682760238647
1758274193210131700,5.725131591796875,0.3749294877052307,0.046955451369285583,0.5756258368492126
1758274193220089600,5.735089599609375,0.44203874468803406,0.05349910259246826,0.6029245853424072
1758274193230047700,5.7450478515625,0.47834354639053345,0.09762315452098846,0.5898731350898743
1758274193240006700,5.755006591796875,0.49296802282333374,0.20355410873889923,0.523181140422821
1758274193249964800,5.76496484375,0.46117517352104187,0.3018783628940582,0.42073577642440796
1758274193259922700,5.774922607421875,0.3992372453212738,0.24364089965820312,0.3665598928928375
1758274193269880600,5.784880615234375,0.33303001523017883,0.04992232471704483,0.3211703598499298
1758274193279839700,5.79483984375,0.2741595208644867,-0.1384047120809555,0.23534438014030457
1758274193289797600,5.804797607421875,0.21406559646129608,-0.29543447494506836,0.05941986292600632
1758274193299755500,5.814755615234375,0.14689162373542786,-0.42733603715896606,-0.17650185525417328
1758274193309714400,5.82471435546875,0.04076215997338295,-0.544075071811676,-0.38413888216018677
1758274193319672600,5.834672607421875,-0.0431271456182003,-0.6332699060440063,-0.6077061891555786
1758274193329630700,5.844630615234375,-0.107953742146492,-0.8647566437721252,-0.859073281288147
1758274193339589600,5.854589599609375,-0.18408739566802979,-1.1539280414581299,-1.0847649574279785
1758274193349547500,5.864547607421875,-0.2509220242500305,-1.3804935216903687,-1.2553437948226929
1758274193359505700,5.874505615234375,-0.31081119179725647,-1.4963881969451904,-1.3944276571273804
1758274193369463800,5.8844638671875,-0.37328723073005676,-1.5434690713882446,-1.4968900680541992
1758274193379422700,5.894422607421875,-0.43555378913879395,-1.5033751726150513,-1.6193608045578003
1758274193389380600,5.904380615234375,-0.5121767520904541,-1.538654088973999,-1.7122526168823242
1758274193399338800,5.9143388671875,-0.6072446703910828,-1.5694122314453125,-1.822396993637085
1758274193409297700,5.924297607421875,-0.6802732944488525,-1.5942023992538452,-1.88583242893219
1758274193419255800,5.934255859375,-0.7061781287193298,-1.5097674131393433,-1.930069923400879
1758274193429213400,5.94421337890625,-0.7980480194091797,-1.353611707687378,-1.977774739265442
1758274193439171600,5.954171630859375,-0.9205140471458435,-1.145285964012146,-1.9727386236190796
1758274193449130500,5.964130615234375,-0.9323504567146301,-0.9460168480873108,-1.840753197669983
1758274193459088600,5.974088623046875,-0.8999877572059631,-0.7823208570480347,-1.6408954858779907
1758274193469046500,5.984046630859375,-0.9195926785469055,-0.7272183895111084,-1.4997645616531372
1758274193479005700,5.994005615234375,-0.9947010278701782,-0.64079749584198,-1.4582685232162476
1758274193488963600,6.003963623046875,-1.0854263305664062,-0.5407183766365051,-1.4379194974899292
1758274193498921700,6.013921630859375,-1.1603798866271973,-0.6482222080230713,-1.3269569873809814
1758274193508879600,6.023879638671875,-1.2002739906311035,-0.5886697173118591,-1.2973060607910156
1758274193518838500,6.033838623046875,-1.1746536493301392,-0.8870159387588501,-1.2827095985412598
1758274193528796700,6.043796630859375,-1.203870415687561,-1.2423499822616577,-1.2567869424819946
1758274193538754800,6.0537548828125,-1.221454381942749,-1.4809430837631226,-1.1915110349655151
1758274193548713700,6.063713623046875,-1.205000638961792,-1.5928727388381958,-1.122360110282898
1758274193558671600,6.073671630859375,-1.151854395866394,-1.8766586780548096,-1.0546351671218872
1758274193568629800,6.083629638671875,-1.0708487033843994,-2.220587968826294,-1.0307941436767578
1758274193578587600,6.093587646484375,-1.0346813201904297,-2.687190532684326,-1.037329912185669
1758274193588546800,6.103546875,-1.0555914640426636,-2.8501484394073486,-1.1470524072647095
1758274193598504400,6.11350439453125,-1.104366660118103,-2.682910919189453,-1.1660833358764648
1758274193608463000,6.123463134765625,-1.1845753192901611,-2.685011625289917,-1.0135560035705566
1758274193618422000,6.133422119140625,-1.3361350297927856,-2.855158567428589,-0.7823718190193176
1758274193628380200,6.143380126953125,-1.4960330724716187,-2.936525583267212,-0.5901966691017151
1758274193638338000,6.153338134765625,-1.5639625787734985,-3.065368175506592,-0.5169693231582642
1758274193648296000,6.1632958984375,-1.5494414567947388,-3.2518198490142822,-0.41091179847717285
1758274193658254800,6.1732548828125,-1.403738021850586,-3.1487300395965576,-0.41515180468559265
1758274193668213000,6.183212890625,-1.2140107154846191,-2.944746255874634,-0.4163232743740082
1758274193678171000,6.1931708984375,-1.0730658769607544,-2.6403820514678955,-0.38810229301452637
1758274193688129800,6.2031298828125,-0.9482370615005493,-2.3659796714782715,-0.3561188578605652
1758274193698088000,6.213087890625,-0.9103503823280334,-2.048259735107422,-0.28236767649650574
1758274193708046000,6.223046142578125,-0.846973717212677,-1.726121187210083,-0.17617067694664001
1758274193718004000,6.23300390625,-0.7485669851303101,-1.4612810611724854,-0.08731669932603836
1758274193727963000,6.242962890625,-0.631411075592041,-1.237669587135315,-0.04112599790096283
1758274193737921000,6.252921142578125,-0.5192448496818542,-1.0382789373397827,-0.01230740174651146
1758274193747879000,6.26287890625,-0.44354382157325745,-0.8385888934135437,0.021914081647992134
1758274193757838000,6.272838134765625,-0.387314110994339,-0.5851377248764038,0.07978590577840805
1758274193767796000,6.2827958984375,-0.29400357604026794,-0.3495904207229614,0.14061105251312256
1758274193777754000,6.292754150390625,-0.21903827786445618,-0.195222407579422,0.20183207094669342
1758274193787713000,6.302713134765625,-0.17809253931045532,-0.15299974381923676,0.29863011837005615
1758274193797671200,6.312671142578125,-0.16704414784908295,-0.1209147721529007,0.43639224767684937
1758274193807628800,6.32262890625,-0.1583319455385208,-0.060650866478681564,0.5733280181884766
1758274193817587000,6.3325869140625,-0.16770334541797638,0.06937797367572784,0.6820920705795288
1758274193827545900,6.3425458984375,-0.1815188229084015,0.22336864471435547,0.7570915222167969
1758274193837504000,6.35250390625,-0.23067359626293182,0.46616771817207336,0.7511526942253113
1758274193847462000,6.3624619140625,-0.2594335377216339,0.7671076655387878,0.6681910157203674
1758274193857420800,6.3724208984375,-0.22732089459896088,1.0802280902862549,0.5046281814575195
1758274193867379000,6.38237890625,-0.14635445177555084,1.3247230052947998,0.21262003481388092
1758274193877337000,6.392337158203125,-0.10756978392601013,1.3877710103988647,-0.22185179591178894
1758274193887295000,6.402294921875,-0.06067951023578644,1.1789321899414062,-0.6024163365364075
1758274193897254000,6.41225390625,-0.06261137127876282,0.7864674925804138,-0.6629795432090759
1758274193907212000,6.4222119140625,0.12637943029403687,0.6548990607261658,0.04543810710310936
1758274193917170000,6.432169921875,0.36900007724761963,0.3796520531177521,0.540626049041748
1758274193927129000,6.442129150390625,0.5392487645149231,0.5453813076019287,0.6377742290496826
1758274193937087000,6.4520869140625,0.851494550704956,0.5661260485649109,0.7549991607666016
1758274193947045000,6.462045166015625,0.7565492987632751,0.8829054832458496,0.49308541417121887
1758274193957002800,6.472002685546875,0.685504674911499,1.2523431777954102,0.6522279381752014
1758274193966962000,6.4819619140625,0.7953683137893677,1.5945218801498413,0.8466722965240479
1758274193976919800,6.491919921875,0.9463405013084412,2.0580058097839355,0.9056676626205444
1758274193986878000,6.5018779296875,1.0386700630187988,2.2627952098846436,0.6748235821723938
1758274193996835800,6.5118359375,1.0102144479751587,2.5208752155303955,0.4481063187122345
1758274194006795000,6.521794921875,0.9833224415779114,3.021766185760498,0.5033498406410217
1758274194016753000,6.5317529296875,0.9776988625526428,2.9697086811065674,0.5165343284606934
1758274194026711000,6.5417109375,0.9831849932670593,2.658583402633667,0.5511613488197327
1758274194036670000,6.551669921875,1.0018569231033325,2.3870275020599365,0.5903915762901306
1758274194046628000,6.561628173828125,1.0199607610702515,2.336289882659912,0.643000602722168
1758274194056586000,6.5715859375,0.9956496953964233,2.3556370735168457,0.7042005658149719
1758274194066544000,6.581544189453125,0.9366293549537659,2.268057107925415,0.741513192653656
1758274194076503000,6.5915029296875,0.8559864163398743,2.1316471099853516,0.7578780651092529
1758274194086461200,6.601461181640625,0.7898712754249573,2.1088345050811768,0.7592700123786926
1758274194096418800,6.611418701171875,0.7876659035682678,2.058732509613037,0.7212623953819275
1758274194106378000,6.6213779296875,0.8479339480400085,1.9470303058624268,0.6589662432670593
1758274194116335900,6.6313359375,0.8460090160369873,1.7375620603561401,0.6512830257415771
1758274194126294000,6.6412939453125,0.872608482837677,1.6100029945373535,0.5972289443016052
1758274194136252000,6.651251953125,0.9024332165718079,1.604731798171997,0.6016165018081665
1758274194146210800,6.6612109375,0.8681861162185669,1.7104219198226929,0.6535488963127136
1758274194156169000,6.6711689453125,0.8684502840042114,1.7894471883773804,0.6856935024261475
1758274194166126800,6.681126953125,0.8763136863708496,1.7670648097991943,0.6743671298027039
1758274194176086000,6.6910859375,0.8743948936462402,1.7760926485061646,0.5931763648986816
1758274194186044000,6.7010439453125,0.822874128818512,1.951936960220337,0.5696762800216675
1758274194196002000,6.711001953125,0.7187432050704956,1.9838184118270874,0.6324531435966492
1758274194205960000,6.7209599609375,0.6108351945877075,1.7607128620147705,0.7224619388580322
1758274194215919000,6.730919189453125,0.5431568026542664,1.4030977487564087,0.862724781036377
1758274194225877000,6.740876953125,0.5092081427574158,1.033979058265686,0.9673371911048889
1758274194235835100,6.750835205078125,0.5309456586837769,0.8383152484893799,0.9776124358177185
1758274194245794000,6.7607939453125,0.576487123966217,0.8232235312461853,0.9461201429367065
1758274194255752200,6.770752197265625,0.5494205951690674,0.6742375493049622,0.9263211488723755
1758274194265709800,6.780709716796875,0.4581836760044098,0.6698622703552246,0.7740443348884583
1758274194275668000,6.79066796875,0.37727418541908264,0.7183019518852234,0.6555629372596741
1758274194285627000,6.800626953125,0.4131106436252594,0.700037956237793,0.6586779952049255
1758274194295585000,6.8105849609375,0.3806307315826416,0.683218777179718,0.7044803500175476
1758274194305543000,6.82054296875,0.3836227059364319,0.678994357585907,0.6650813221931458
1758274194315501000,6.8305009765625,0.3365904688835144,0.7229573130607605,0.5728094577789307
1758274194325460000,6.8404599609375,0.3200412094593048,0.7397468686103821,0.5072832107543945
1758274194335418000,6.850418212890625,0.33422335982322693,0.6415811777114868,0.4233483672142029
1758274194345376000,6.8603759765625,0.41256260871887207,0.5880635976791382,0.3703916668891907
1758274194355335000,6.8703349609375,0.44492560625076294,0.5700960159301758,0.3502586781978607
1758274194365293000,6.88029296875,0.41407743096351624,0.44155341386795044,0.3649247884750366
1758274194375251000,6.8902509765625,0.42229461669921875,0.33256223797798157,0.4038681983947754
1758274194385209000,6.900208984375,0.46581828594207764,0.30941706895828247,0.42138633131980896
1758274194395168000,6.91016796875,0.5148446559906006,0.26738786697387695,0.4312213659286499
1758274194405126000,6.9201259765625,0.4951368570327759,0.2432795912027359,0.4164385497570038
1758274194415083800,6.930083740234375,0.4876408576965332,0.2547213137149811,0.3556913137435913
1758274194425043000,6.94004296875,0.5076294541358948,0.27931296825408936,0.2923053205013275
1758274194435000800,6.950000732421875,0.5065759420394897,0.2766146659851074,0.2728050947189331
1758274194444959000,6.959958984375,0.4657760560512543,0.24818474054336548,0.2695627212524414
1758274194454916900,6.969916748046875,0.37166741490364075,0.15548278391361237,0.38205835223197937
1758274194464876000,6.9798759765625,0.25778162479400635,0.04499925300478935,0.5761159658432007
1758274194474834000,6.989833984375,0.2392875701189041,-0.024074891582131386,0.6527103185653687
1758274194484792000,6.9997919921875,0.26805242896080017,-0.050587188452482224,0.6883385181427002
1758274194494750000,7.00975,0.276847779750824,-0.03859816864132881,0.7109775543212891
1758274194504709000,7.019709228515625,0.25392428040504456,-0.05397816002368927,0.6732125878334045
1758274194514667000,7.0296669921875,0.2611459791660309,-0.07194358110427856,0.5437336564064026
1758274194524625200,7.039625244140625,0.2949848175048828,-0.08394989371299744,0.30625778436660767
1758274194534584000,7.049583984375,0.301103413105011,-0.18059946596622467,0.025165647268295288
1758274194544542000,7.0595419921875,0.23632262647151947,-0.40051722526550293,-0.2703843116760254
1758274194554499800,7.069499755859375,0.11722366511821747,-0.5622991919517517,-0.47456619143486023
1758274194564458000,7.0794580078125,-0.04838772863149643,-0.6548165678977966,-0.5646311044692993
1758274194574417000,7.0894169921875,-0.2160254716873169,-0.7906737327575684,-0.5607181191444397
1758274194584374800,7.099374755859375,-0.30988267064094543,-0.9840119481086731,-0.529007077217102
1758274194594333000,7.1093330078125,-0.3434709906578064,-1.1479723453521729,-0.6098920702934265
1758274194604291800,7.119291748046875,-0.36635157465934753,-1.2673686742782593,-0.9055540561676025
1758274194614250500,7.12925048828125,-0.38505151867866516,-1.3226988315582275,-1.3271862268447876
1758274194624208400,7.13920849609375,-0.4304603338241577,-1.2847423553466797,-1.7280464172363281
1758274194634166500,7.14916650390625,-0.4627082943916321,-1.2552859783172607,-1.99668288230896
1758274194644125400,7.15912548828125,-0.4683358073234558,-1.2987452745437622,-2.120647668838501
1758274194654083600,7.16908349609375,-0.488987535238266,-1.4242243766784668,-2.1938564777374268
1758274194664041200,7.179041259765625,-0.6755613684654236,-1.4392609596252441,-2.320735216140747
1758274194673999400,7.188999267578125,-0.830639123916626,-1.3046627044677734,-2.3928306102752686
1758274194683958300,7.198958251953125,-0.8432440757751465,-1.271366834640503,-2.3581387996673584
1758274194693916400,7.20891650390625,-0.8731697797775269,-1.1476006507873535,-2.3427443504333496
1758274194703874300,7.218874267578125,-0.882499635219574,-1.002069354057312,-2.260828971862793
1758274194713833200,7.228833251953125,-0.9396582841873169,-0.8023087978363037,-2.137707471847534
1758274194723791400,7.238791259765625,-0.9950571060180664,-0.6327922344207764,-1.9765692949295044
1758274194733749500,7.24874951171875,-1.0440582036972046,-0.389252245426178,-1.7836514711380005
1758274194743707400,7.258707275390625,-1.1159623861312866,-0.1937245875597,-1.636016607284546
1758274194753666300,7.268666259765625,-1.1229960918426514,-0.23596391081809998,-1.5485312938690186
1758274194763624400,7.27862451171875,-1.1054112911224365,-0.3015858232975006,-1.4871628284454346
1758274194773582300,7.288582275390625,-1.1464344263076782,-0.47924184799194336,-1.394770860671997
1758274194783540500,7.29854052734375,-1.1968913078308105,-0.6468081474304199,-1.2089252471923828
1758274194793499400,7.30849951171875,-1.2246421575546265,-0.7827832698822021,-1.0233346223831177
1758274194803457500,7.31845751953125,-1.201128363609314,-0.9339268803596497,-0.9142910242080688
1758274194813415200,7.328415283203125,-1.1690199375152588,-1.2943272590637207,-0.8514910340309143
1758274194823374300,7.338374267578125,-1.2064837217330933,-1.658992886543274,-0.8568827509880066
1758274194833332200,7.348332275390625,-1.2563434839248657,-1.8034486770629883,-0.8773584365844727
1758274194843290400,7.358290283203125,-1.3376091718673706,-2.086479902267456,-0.7851912975311279
1758274194853248300,7.368248291015625,-1.42377769947052,-2.4789786338806152,-0.6457349061965942
1758274194863207400,7.37820751953125,-1.4984592199325562,-2.8187832832336426,-0.47188231348991394
1758274194873165300,7.388165283203125,-1.6107699871063232,-3.467376232147217,-0.1308930218219757
1758274194883123500,7.39812353515625,-1.6473561525344849,-3.5806236267089844,-0.08200465887784958
1758274194893081300,7.408081298828125,-1.5476676225662231,-3.417384624481201,-0.1547883152961731
1758274194903040500,7.41804052734375,-1.4554240703582764,-3.3182878494262695,-0.10112804174423218
1758274194912998400,7.427998291015625,-1.3648416996002197,-3.3439974784851074,0.003042040392756462
1758274194922956500,7.43795654296875,-1.2048457860946655,-3.277686834335327,0.14457687735557556
1758274194932915500,7.44791552734375,-1.0963174104690552,-3.031471014022827,0.2827182710170746
1758274194942873600,7.45787353515625,-1.004655122756958,-2.5286991596221924,0.24609749019145966
1758274194952831500,7.46783154296875,-0.9278234243392944,-1.9903061389923096,0.15695403516292572
1758274194962789400,7.477789306640625,-0.843987762928009,-1.7024216651916504,0.1027432382106781
1758274194972748300,7.487748291015625,-0.775479257106781,-1.4893463850021362,0.07574304938316345
1758274194982706400,7.49770654296875,-0.7149223685264587,-1.107969880104065,0.04201988875865936
1758274194992664300,7.507664306640625,-0.694743812084198,-0.7218810319900513,0.08100856840610504
1758274195002622500,7.51762255859375,-0.6272523999214172,-0.45249733328819275,0.1329454779624939
1758274195012581400,7.527581298828125,-0.5631583333015442,-0.16984646022319794,0.1649707853794098
1758274195022539300,7.537539306640625,-0.5009473562240601,0.10516448318958282,0.15885259211063385
1758274195032497400,7.547497314453125,-0.4497925639152527,0.2846871018409729,0.1648537516593933
1758274195042455600,7.55745556640625,-0.39246541261672974,0.30417758226394653,0.2246401160955429
1758274195052414500,7.56741455078125,-0.33395203948020935,0.21934577822685242,0.30383744835853577
1758274195062372400,7.577372314453125,-0.2690785527229309,0.08760561794042587,0.4044530391693115
1758274195072330500,7.58733056640625,-0.20397785305976868,-0.04837272688746452,0.5366227626800537
1758274195082289400,7.597289306640625,-0.13951250910758972,-0.0703807845711708,0.6580391526222229
1758274195092247600,7.60724755859375,-0.08779311925172806,0.025871185585856438,0.7496857643127441
1758274195102205200,7.617205078125,-0.05221130698919296,0.23530621826648712,0.7605005502700806
1758274195112163300,7.627163330078125,-0.008182063698768616,0.5845449566841125,0.6978837847709656
1758274195122122200,7.637122314453125,0.10290032625198364,1.1149039268493652,0.5495785474777222
1758274195132080400,7.647080322265625,0.2924036681652069,1.7104309797286987,0.36550912261009216
1758274195142038300,7.657038330078125,0.46327584981918335,2.2188403606414795,0.4195106625556946
1758274195151996400,7.666996337890625,0.5691183805465698,2.2137136459350586,0.6012687087059021
1758274195161955300,7.676955322265625,0.596225917339325,1.4369947910308838,0.5867974758148193
1758274195171913500,7.68691357421875,0.44159165024757385,0.7917568683624268,0.7750787138938904
1758274195181871400,7.696871337890625,0.4873369038105011,0.927233874797821,0.7945363521575928
1758274195191830300,7.706830322265625,0.8317739367485046,1.2444123029708862,0.9883438944816589
1758274195201788400,7.716788330078125,0.8427781462669373,1.8858336210250854,1.1857409477233887
1758274195211746600,7.72674658203125,0.6863539218902588,2.0592055320739746,1.181991696357727
1758274195221704400,7.736704345703125,0.6636441349983215,1.8686753511428833,1.012008786201477
1758274195231663400,7.746663330078125,0.7108084559440613,1.7988113164901733,0.8349493145942688
1758274195241621500,7.75662158203125,0.7578508257865906,2.1068904399871826,0.7511330842971802
1758274195251579400,7.766579345703125,0.7824600338935852,2.5937039852142334,0.836693525314331
1758274195261537300,7.776537353515625,0.786188006401062,2.800886631011963,1.0419141054153442
1758274195271496200,7.78649609375,0.7300695776939392,2.3571150302886963,1.1439964771270752
1758274195281454300,7.796454345703125,0.6617437601089478,1.7938683032989502,1.131142258644104
1758274195291412500,7.80641259765625,0.652384877204895,1.7640293836593628,1.0741245746612549
1758274195301370400,7.816370361328125,0.6955437064170837,1.877082109451294,1.0032562017440796
1758274195311329300,7.826329345703125,0.7474138736724854,1.8540940284729004,0.9091294407844543
1758274195321287400,7.836287353515625,0.7839877605438232,1.7770042419433594,0.7610479593276978
1758274195331245300,7.846245361328125,0.7650452852249146,1.7407588958740234,0.6209478378295898
1758274195341204500,7.85620458984375,0.7416875958442688,1.7332189083099365,0.5127004384994507
1758274195351162400,7.866162353515625,0.7391956448554993,1.6443263292312622,0.47548386454582214
1758274195361120500,7.87612060546875,0.716980516910553,1.593315601348877,0.5008024573326111
1758274195371078400,7.886078369140625,0.6966206431388855,1.5400720834732056,0.5486493110656738
1758274195381037600,7.89603759765625,0.6582611203193665,1.7576934099197388,0.5183652639389038
1758274195390995500,7.905995361328125,0.6322857141494751,2.1772055625915527,0.4600779414176941
1758274195400953300,7.915953369140625,0.6089482307434082,2.5495502948760986,0.41031414270401
1758274195410911200,7.9259111328125,0.60455721616745,2.669806480407715,0.3170939087867737
1758274195420870400,7.935870361328125,0.647240936756134,2.481933355331421,0.3296307623386383
1758274195430828300,7.945828369140625,0.6868962049484253,2.053030252456665,0.5463327169418335
1758274195440786400,7.955786376953125,0.6844436526298523,1.5836145877838135,0.7013419270515442
1758274195450744300,7.965744384765625,0.7006931900978088,1.066206932067871,0.7198958992958069
1758274195460703500,7.975703369140625,0.7122941613197327,0.7039667367935181,0.8206659555435181
1758274195470661400,7.985661376953125,0.7079278826713562,0.6272168159484863,0.9103439450263977
1758274195480619500,7.99561962890625,0.7082710862159729,0.6074289083480835,0.9368853569030762
1758274195490577400,8.005577392578125,0.7198241353034973,0.6921027898788452,0.8891308903694153
1758274195500536300,8.015536376953126,0.720722496509552,0.7474313378334045,0.8575766086578369
1758274195510494500,8.025494384765626,0.7253441214561462,0.7706115245819092,1.0005334615707397
1758274195520452600,8.03545263671875,0.7637776732444763,0.634323000907898,1.0297627449035645
1758274195530411500,8.04541162109375,0.7850627303123474,0.3297559320926666,0.9593104124069214
1758274195540369200,8.055369140625,0.6934530138969421,0.3323976397514343,0.7522542476654053
1758274195550327300,8.065327392578125,0.5551662445068359,0.28844085335731506,0.6369604468345642
1758274195560285400,8.075285400390625,0.5110728144645691,0.26722076535224915,0.5776464939117432
1758274195570244400,8.085244384765625,0.5408360362052917,0.4221680164337158,0.5021152496337891
1758274195580202200,8.0952021484375,0.5481206774711609,0.42330655455589294,0.39944714307785034
1758274195590160400,8.105160400390625,0.56514573097229,0.2816932201385498,0.39444997906684875
1758274195600118300,8.1151181640625,0.62615567445755,0.10378812998533249,0.47630199790000916
1758274195610076700,8.12507666015625,0.6872395277023315,-0.027005303651094437,0.5271673202514648
1758274195620034800,8.135034912109376,0.6110671162605286,0.009738873690366745,0.5120826959609985
1758274195629992400,8.144992431640626,0.4772840142250061,0.13306240737438202,0.4708321690559387
1758274195639950600,8.15495068359375,0.39873549342155457,0.2805157005786896,0.40333038568496704
1758274195649909500,8.164909423828124,0.33586785197257996,0.3421044945716858,0.33767974376678467
1758274195659867600,8.17486767578125,0.32284265756607056,0.3870540261268616,0.281046599149704
1758274195669825500,8.184825439453125,0.3027381896972656,0.34895458817481995,0.2663573920726776
1758274195679783700,8.19478369140625,0.2648898661136627,0.2415572702884674,0.3032270073890686
1758274195689742600,8.20474267578125,0.20599272847175598,0.11127437651157379,0.3829495310783386
1758274195699700500,8.214700439453125,0.14973832666873932,0.007661739364266396,0.4836888611316681
1758274195709658600,8.22465869140625,0.1435249149799347,-0.09531577676534653,0.5000497102737427
1758274195719617500,8.234617431640626,0.16184544563293457,-0.19423571228981018,0.4501112699508667
1758274195729575700,8.24457568359375,0.16359832882881165,-0.25493794679641724,0.4037962555885315
1758274195739533600,8.254533447265626,0.15351712703704834,-0.24378439784049988,0.33173438906669617
1758274195749491700,8.26449169921875,0.18551315367221832,-0.1744641810655594,0.21514973044395447
1758274195759450600,8.27445068359375,0.24258200824260712,-0.030619902536273003,0.10780718922615051
1758274195769408800,8.28440869140625,0.2899799048900604,0.11266881227493286,-0.029005784541368484
1758274195779366400,8.294366455078125,0.29269421100616455,0.19631078839302063,-0.23712269961833954
1758274195789324500,8.304324462890625,0.2306537628173828,0.24824030697345734,-0.4183287024497986
1758274195799283500,8.314283447265625,0.11742771416902542,0.22618263959884644,-0.47029539942741394
1758274195809241600,8.32424169921875,-0.02866584062576294,0.054473474621772766,-0.4062327742576599
1758274195819199500,8.334199462890625,-0.1659657061100006,-0.24352596700191498,-0.34917187690734863
1758274195829157600,8.34415771484375,-0.260567843914032,-0.5230076909065247,-0.4393100142478943
1758274195839116500,8.354116455078126,-0.33868035674095154,-0.7852511405944824,-0.6373697519302368
1758274195849074700,8.36407470703125,-0.42591777443885803,-0.9477841258049011,-0.879962146282196
1758274195859032600,8.374032470703124,-0.5121544003486633,-1.0005542039871216,-1.1414566040039062
1758274195868990700,8.38399072265625,-0.57733154296875,-1.084503173828125,-1.3713105916976929
1758274195878949600,8.39394970703125,-0.6159261465072632,-1.2918813228607178,-1.5340062379837036
1758274195888907800,8.40390771484375,-0.6361392736434937,-1.5450775623321533,-1.6403582096099854
1758274195898865700,8.41386572265625,-0.7319260835647583,-1.7162115573883057,-1.747975468635559
1758274195908823600,8.423823486328125,-0.819976270198822,-1.6356514692306519,-1.9000757932662964
1758274195918782700,8.43378271484375,-0.8652542233467102,-1.4453439712524414,-2.0749735832214355
1758274195928740600,8.44374072265625,-0.9123256206512451,-1.2461938858032227,-2.1842191219329834
1758274195938698500,8.453698486328125,-0.9619027972221375,-1.1167864799499512,-2.2094879150390625
1758274195948657400,8.463657470703126,-1.0099835395812988,-1.0060503482818604,-2.201239585876465
1758274195958615600,8.473615478515624,-1.0351251363754272,-0.9797970652580261,-2.1168594360351562
1758274195968573700,8.48357373046875,-1.0442373752593994,-0.9997939467430115,-1.951665997505188
1758274195978531600,8.493531494140624,-1.068329095840454,-0.9051543474197388,-1.8709566593170166
1758274195988490500,8.503490478515625,-1.088428258895874,-0.9060944318771362,-1.8782318830490112
1758274195998448600,8.51344873046875,-1.0556219816207886,-0.9713520407676697,-1.8957148790359497
1758274196008406500,8.523406494140625,-1.0289818048477173,-1.0377665758132935,-1.8997879028320312
1758274196018364700,8.53336474609375,-0.9990342855453491,-0.9596909880638123,-1.9065980911254883
1758274196028323600,8.543323486328125,-0.9446783661842346,-0.991698145866394,-1.9432880878448486
1758274196038281700,8.55328173828125,-0.9141358733177185,-1.1062946319580078,-2.0158026218414307
1758274196048239600,8.563239501953126,-0.8966434001922607,-1.1058930158615112,-2.0186188220977783
1758274196058197500,8.573197509765626,-0.8867306709289551,-1.0172802209854126,-1.896723985671997
1758274196068156400,8.583156494140624,-0.9742165803909302,-1.2313599586486816,-1.6162464618682861
1758274196078114600,8.593114501953124,-1.0508253574371338,-1.324444055557251,-1.387804627418518
1758274196088072400,8.603072509765624,-1.1997206211090088,-1.399983286857605,-1.2594813108444214
1758274196098030600,8.613030517578125,-1.2191070318222046,-1.8507102727890015,-1.117305040359497
1758274196107989500,8.622989501953125,-1.2497447729110718,-2.21097731590271,-0.9940550327301025
1758274196117947600,8.63294775390625,-1.295881748199463,-2.329430341720581,-0.8135195374488831
1758274196127905500,8.642905517578125,-1.4464669227600098,-2.5044143199920654,-0.6170483231544495
1758274196137863700,8.65286376953125,-1.5951783657073975,-2.8474912643432617,-0.42813777923583984
1758274196147822600,8.662822509765626,-1.6725413799285889,-2.853666067123413,-0.3756151795387268
1758274196157780700,8.67278076171875,-1.6515350341796875,-2.855447769165039,-0.3047280013561249
1758274196167738600,8.682738525390626,-1.6027734279632568,-2.944582939147949,-0.18603545427322388
1758274196177697500,8.692697509765624,-1.5078099966049194,-2.832453727722168,-0.0202738419175148
1758274196187655700,8.70265576171875,-1.4002587795257568,-2.8436872959136963,0.08345255255699158
1758274196197613600,8.712613525390625,-1.251011848449707,-2.6081457138061523,0.007527752313762903
1758274196207571500,8.722571533203125,-1.0930485725402832,-2.1954405307769775,-0.10436230152845383
1758274196217530400,8.7325302734375,-0.9952824711799622,-1.9094696044921875,-0.13348288834095
1758274196227488500,8.742488525390625,-0.8781454563140869,-1.5807737112045288,-0.09294716268777847
1758274196237446700,8.75244677734375,-0.733246922492981,-1.409111738204956,-0.024113452062010765
1758274196247404500,8.762404541015625,-0.6248179078102112,-1.2110521793365479,0.05455606058239937
1758274196257363500,8.772363525390626,-0.5569280385971069,-0.9434731602668762,0.14229410886764526
1758274196267321600,8.782321533203126,-0.49659809470176697,-0.6272139549255371,0.24133147299289703
1758274196277279500,8.792279541015626,-0.42660269141197205,-0.30185458064079285,0.33944082260131836
1758274196287237600,8.802237548828124,-0.36771219968795776,-0.041024867445230484,0.42978402972221375
1758274196297196500,8.812196533203124,-0.34093591570854187,0.11356841027736664,0.5364888310432434
1758274196307154700,8.82215478515625,-0.33578935265541077,0.22491544485092163,0.6618196368217468
1758274196317112600,8.832112548828125,-0.3527740240097046,0.3064647614955902,0.7933902740478516
1758274196327070700,8.84207080078125,-0.3658296465873718,0.4010927379131317,0.9063567519187927
1758274196337029600,8.852029541015625,-0.3714725971221924,0.49675431847572327,1.0001695156097412
1758274196346987500,8.861987548828125,-0.34996676445007324,0.6175521612167358,1.0710759162902832
1758274196356945400,8.8719453125,-0.30726999044418335,0.7881988883018494,1.0775489807128906
1758274196366903600,8.881903564453125,-0.19543451070785522,1.0470589399337769,1.0037535429000854
1758274196376862500,8.891862548828126,0.0046308888122439384,1.418399453163147,0.8493382930755615
1758274196386820600,8.901820556640626,0.27377447485923767,1.7297272682189941,0.6268229484558105
1758274196396778500,8.911778564453124,0.5236116647720337,1.971867561340332,0.3983844518661499
1758274196406736600,8.921736572265624,0.6057581901550293,2.0594990253448486,0.28476494550704956
1758274196416695600,8.931695556640625,0.4911782741546631,1.3067353963851929,-0.16631394624710083
1758274196426653700,8.94165380859375,0.4416019320487976,0.4027969241142273,-0.0708494782447815
1758274196436611600,8.951611572265625,0.28631478548049927,0.29235202074050903,0.15975624322891235
1758274196446569700,8.96156982421875,0.371737539768219,0.9132089018821716,0.441018283367157
1758274196456528600,8.971528564453125,0.6884573698043823,0.5666579008102417,0.6988890171051025
1758274196466486800,8.98148681640625,0.7025601863861084,0.717486560344696,0.620861828327179
1758274196476444400,8.9914443359375,0.7123121619224548,1.1700024604797363,0.6115180253982544
1758274196486403600,9.001403564453126,0.8867326974868774,1.7383558750152588,0.5504029989242554
1758274196496361500,9.011361572265624,1.0533137321472168,2.343247413635254,0.4997676908969879
1758274196506319600,9.021319580078124,1.1965051889419556,2.7116589546203613,0.4076846241950989
1758274196516277500,9.031277587890624,1.2222931385040283,2.743765354156494,0.2911084294319153
1758274196526236400,9.041236328125,1.141396164894104,2.7242610454559326,0.36917844414711
1758274196536194600,9.051194580078125,1.044026255607605,2.3016812801361084,0.48781266808509827
1758274196546152700,9.061152587890625,0.8985838294029236,1.7771803140640259,0.5911206603050232
1758274196556110600,9.071110595703125,0.7638314366340637,1.5417546033859253,0.6776895523071289
1758274196566069500,9.081069580078125,0.6674244999885559,1.5595167875289917,0.718109667301178
1758274196576027600,9.091027587890625,0.5884193778038025,1.732988953590393,0.6845213770866394
1758274196585985500,9.100985595703126,0.5383410453796387,1.9738396406173706,0.592945396900177
1758274196595943700,9.110943603515626,0.5153355598449707,2.1538889408111572,0.5610842704772949
1758274196605902600,9.120902587890624,0.5424090027809143,2.0780956745147705,0.5495274662971497
1758274196615861200,9.130861328125,0.5946117043495178,1.9318692684173584,0.5568693280220032
1758274196625819100,9.140819091796875,0.6440240144729614,1.8250021934509277,0.543668270111084
1758274196635777300,9.15077734375,0.6848587393760681,1.8100301027297974,0.5574727058410645
1758274196645736200,9.160736083984375,0.7250301241874695,1.9095996618270874,0.581871509552002
1758274196655694300,9.1706943359375,0.7667152881622314,2.068114757537842,0.5705993175506592
1758274196665652000,9.18065185546875,0.8117501139640808,2.140120506286621,0.51129549741745
1758274196675610000,9.190610107421875,0.8043842911720276,2.115298271179199,0.5022056698799133
1758274196685569000,9.200569091796876,0.7095541954040527,2.0765693187713623,0.544959545135498
1758274196695527200,9.210527099609376,0.6008602380752563,1.8262850046157837,0.5495955944061279
1758274196705485000,9.220485107421876,0.5585988163948059,1.389245867729187,0.6268128752708435
1758274196715443200,9.230443115234374,0.5414230823516846,0.9128190279006958,0.7760006785392761
1758274196725402000,9.240402099609375,0.504560112953186,0.7170460820198059,0.8415058851242065
1758274196735360300,9.2503603515625,0.4992348849773407,0.5252020359039307,0.8868643641471863
1758274196745318100,9.260318115234375,0.49239856004714966,0.4885617196559906,0.9156765341758728
1758274196755276300,9.2702763671875,0.4870240390300751,0.49744677543640137,0.8830432891845703
1758274196765235200,9.280235107421875,0.5056962966918945,0.5706770420074463,0.7732011675834656
1758274196775193000,9.290193115234375,0.5230205655097961,0.7396657466888428,0.625350832939148
1758274196785151200,9.300151123046875,0.4974406361579895,0.7972054481506348,0.5887704491615295
1758274196795109000,9.310109130859376,0.4395540952682495,0.7910382747650146,0.5963605642318726
1758274196805068300,9.320068359375,0.4326985776424408,0.8047959208488464,0.5945890545845032
1758274196815026000,9.33002587890625,0.4286344647407532,0.7618712186813354,0.5643730163574219
1758274196824984000,9.339984130859374,0.3422428369522095,0.7315492630004883,0.5163309574127197
1758274196834942200,9.349942138671874,0.2343292087316513,0.7846672534942627,0.3850003480911255
1758274196844901000,9.359901123046875,0.22139956057071686,0.7891546487808228,0.3576931059360504
1758274196854859000,9.36985888671875,0.23841671645641327,0.7011759877204895,0.36756736040115356
1758274196864817200,9.379817138671875,0.2613033950328827,0.5639312863349915,0.36862730979919434
1758274196874775300,9.389775390625,0.27467823028564453,0.42288604378700256,0.36933279037475586
1758274196884734200,9.399734130859375,0.30603480339050293,0.29461249709129333,0.3859809935092926
1758274196894692000,9.409692138671875,0.35221388936042786,0.25498345494270325,0.386522114276886
1758274196904650200,9.419650146484376,0.35423365235328674,0.19593822956085205,0.3786167800426483
1758274196914609200,9.429609130859374,0.2831863760948181,0.07789485156536102,0.3448033332824707
1758274196924567300,9.4395673828125,0.2261824756860733,0.01613827794790268,0.3259742558002472
1758274196934525200,9.449525146484374,0.25653719902038574,0.056188322603702545,0.3310965597629547
1758274196944483000,9.459483154296874,0.29566383361816406,0.08936572074890137,0.28994324803352356
1758274196954442000,9.46944189453125,0.3071611523628235,0.09923692047595978,0.23684068024158478
1758274196964400000,9.479400146484375,0.3152022957801819,0.11760420352220535,0.208522230386734
1758274196974358000,9.48935791015625,0.3062381446361542,0.1701764017343521,0.18294504284858704
1758274196984316200,9.499316162109375,0.29134923219680786,0.2711251378059387,0.16034013032913208
1758274196994275000,9.509275146484375,0.294685423374176,0.3882179260253906,0.16940627992153168
1758274197004233200,9.519233154296876,0.3122361898422241,0.4032208323478699,0.19859053194522858
1758274197014191000,9.529191162109376,0.3304186761379242,0.28514745831489563,0.22387458384037018
1758274197024149200,9.539149169921876,0.3453108072280884,0.1420251727104187,0.2522881329059601
1758274197034108200,9.549108154296874,0.3579077422618866,0.06273134797811508,0.3057347536087036
1758274197044066300,9.55906640625,0.3744174838066101,0.02053089439868927,0.36352774500846863
1758274197054024200,9.569024169921875,0.39395931363105774,0.0443495512008667,0.3597371578216553
1758274197063982300,9.578982421875,0.4246666431427002,0.09674830734729767,0.3516978621482849
1758274197073941200,9.588941162109375,0.4403781294822693,0.17522919178009033,0.3661935031414032
1758274197083899100,9.598899169921875,0.4272055923938751,0.22001557052135468,0.41039878129959106
1758274197093857000,9.60885693359375,0.40744030475616455,0.2927703559398651,0.455593466758728
1758274197103815200,9.618815185546875,0.39412689208984375,0.48925596475601196,0.37721556425094604
1758274197113774000,9.628774169921876,0.381797730922699,0.6966152191162109,0.23907946050167084
1758274197123732000,9.63873193359375,0.2750196158885956,0.5400357246398926,0.2814399302005768
1758274197133690000,9.648690185546876,0.1574619561433792,0.010412674397230148,0.5346280336380005
1758274197143648300,9.658648193359374,0.0620824471116066,-0.4301775097846985,0.7463972568511963
1758274197153607200,9.668607177734375,0.10250338912010193,-0.49705567955970764,0.7368050217628479
1758274197163565000,9.67856494140625,0.21751253306865692,-0.3727196156978607,0.5270200967788696
1758274197173523200,9.688523193359375,0.21213491261005402,-0.11455890536308289,0.2675054669380188
1758274197183481300,9.6984814453125,0.151407390832901,0.12264511734247208,0.06916387379169464
1758274197193440300,9.708440185546875,0.12363796681165695,0.01718039996922016,-0.10412395745515823
1758274197203398100,9.718398193359375,0.15270744264125824,-0.3150169849395752,-0.2211776077747345
1758274197213356300,9.728356201171875,0.15189522504806519,-0.5929681062698364,-0.36536455154418945
1758274197223314000,9.73831396484375,0.1135619506239891,-0.7386856079101562,-0.5143846273422241
1758274197233273000,9.748273193359376,0.03565417230129242,-0.7905535697937012,-0.6286276578903198
1758274197243231000,9.75823095703125,-0.06412781774997711,-0.8358275890350342,-0.7196885943412781
1758274197253189000,9.768189208984374,-0.1501401960849762,-0.8813892602920532,-0.7987498641014099
1758274197263147000,9.77814697265625,-0.21597327291965485,-0.8934091925621033,-0.9020189642906189
1758274197273106200,9.788106201171875,-0.2877723276615143,-0.947189211845398,-0.9895978569984436
1758274197283064000,9.79806396484375,-0.37368109822273254,-1.0013622045516968,-1.067084550857544
1758274197293022200,9.808022216796875,-0.4719865322113037,-1.0660064220428467,-1.134758472442627
1758274197302980000,9.81797998046875,-0.5664549469947815,-1.2150635719299316,-1.1962732076644897
1758274197312939300,9.827939208984375,-0.6651988625526428,-1.3653522729873657,-1.2832369804382324
1758274197322897200,9.837897216796875,-0.7256488800048828,-1.422541856765747,-1.3597840070724487
1758274197332855300,9.847855224609376,-0.7106490135192871,-1.4052742719650269,-1.3925176858901978
1758274197342813200,9.857813232421876,-0.6864909529685974,-1.289513111114502,-1.4207812547683716
1758274197352772400,9.8677724609375,-0.6693779826164246,-1.0879263877868652,-1.4088728427886963
1758274197362730000,9.87772998046875,-0.6288551092147827,-0.9337761998176575,-1.345993161201477
1758274197372688100,9.887688232421874,-0.6026541590690613,-0.8326281905174255,-1.3005752563476562
1758274197382646000,9.89764599609375,-0.6046469807624817,-0.7889220118522644,-1.285972237586975
1758274197392605200,9.907605224609375,-0.5858606696128845,-0.7815890908241272,-1.2718697786331177
1758274197402563000,9.91756298828125,-0.5205495357513428,-0.8054824471473694,-1.2457451820373535
1758274197412521200,9.927521240234375,-0.458329439163208,-0.891459047794342,-1.2061831951141357
1758274197422479000,9.93747900390625,-0.40826281905174255,-1.046647071838379,-1.1688960790634155
1758274197432438000,9.94743798828125,-0.39396601915359497,-1.1731568574905396,-1.1490801572799683
1758274197442396200,9.957396240234376,-0.38568198680877686,-1.1904666423797607,-1.128092646598816
1758274197452354300,9.967354248046876,-0.3646683096885681,-1.0634812116622925,-1.1086788177490234
1758274197462312200,9.977312255859376,-0.35573580861091614,-0.8665110468864441,-1.0915898084640503
1758274197472271000,9.98727099609375,-0.34226274490356445,-0.6488054990768433,-1.0819487571716309
1758274197482229200,9.997229248046875,-0.3357779383659363,-0.448906272649765,-1.0745973587036133
1758274197492187100,10.007187255859375,-0.3236742913722992,-0.2261909544467926,-1.0285648107528687
1758274197502145000,10.01714501953125,-0.3242005407810211,-0.13932928442955017,-0.9775934815406799
1758274197512104000,10.02710400390625,-0.3347117006778717,-0.12271331250667572,-0.9253926277160645
1758274197522062000,10.03706201171875,-0.30357667803764343,-0.07342591881752014,-0.8078066110610962
1758274197532020000,10.04702001953125,-0.22598937153816223,-0.014487924054265022,-0.6814111471176147
1758274197541978000,10.05697802734375,-0.17255543172359467,-0.07399306446313858,-0.5551642775535583
1758274197551937000,10.06693701171875,-0.1404164731502533,-0.1330711394548416,-0.43035319447517395
1758274197561895200,10.076895263671876,-0.08676151186227798,-0.20333091914653778,-0.2763998508453369
1758274197571853000,10.08685302734375,-0.009541653096675873,-0.31234511733055115,-0.08489881455898285
1758274197581811200,10.096811279296874,0.022526267915964127,-0.29171279072761536,0.05638614296913147
1758274197591770000,10.10677001953125,0.0667726993560791,-0.16696850955486298,0.2015582174062729
1758274197601728300,10.116728271484375,0.12349297106266022,-0.03889922797679901,0.33868172764778137
1758274197611686100,10.12668603515625,0.1885479986667633,0.04086516052484512,0.4839329719543457
1758274197621643800,10.136643798828125,0.2526332139968872,0.10056018084287643,0.6188103556632996
1758274197631602700,10.146602783203125,0.31826016306877136,0.1494073122739792,0.7366346716880798
1758274197641560800,10.156560791015625,0.36598268151283264,0.21997575461864471,0.8369202613830566
1758274197651518700,10.166518798828125,0.3973027765750885,0.3127642869949341,0.9216420650482178
1758274197661476900,10.176476806640625,0.41504770517349243,0.3742779791355133,1.0018346309661865
1758274197671435800,10.186435791015626,0.4284853935241699,0.39767420291900635,1.0943554639816284
1758274197681394000,10.196393798828124,0.4689073860645294,0.4274478256702423,1.2095656394958496
1758274197691351800,10.206351806640624,0.5373988151550293,0.46012037992477417,1.3244788646697998
1758274197701310000,10.21631005859375,0.6212854981422424,0.44189637899398804,1.4243420362472534
1758274197711268900,10.226268798828125,0.6705737113952637,0.39800071716308594,1.522534728050232
1758274197721227000,10.23622705078125,0.7276356220245361,0.35533979535102844,1.613916277885437
1758274197731185000,10.246184814453125,0.8143790364265442,0.25893014669418335,1.6792651414871216
1758274197741142800,10.256142822265625,0.8676244020462036,0.163145050406456,1.7396578788757324
1758274197751101700,10.266101806640625,0.9327558875083923,0.09246547520160675,1.4045209884643555
1758274197761059800,10.276059814453125,0.9516933560371399,-0.1731448918581009,0.7545549869537354
1758274197771017700,10.286017822265626,0.6228495240211487,-0.956956148147583,-0.022513940930366516
1758274197780975900,10.295975830078126,0.07923765480518341,-1.7641117572784424,-0.8637630939483643
1758274197790934800,10.305934814453124,-0.3928300738334656,-1.119825005531311,-1.5397874116897583
1758274197800893000,10.315892822265624,-0.47624242305755615,2.2788960933685303,-1.134851098060608
1758274197810850800,10.325850830078124,0.01160426065325737,4.384512424468994,-0.21356618404388428
1758274197820809000,10.33580908203125,0.3224870562553406,4.086402416229248,0.39056554436683655
1758274197830767900,10.345767822265625,0.48385271430015564,2.7118544578552246,0.7069665193557739
1758274197840726000,10.35572607421875,0.6258735060691833,-0.31012624502182007,0.6088825464248657
1758274197850684000,10.365683837890625,0.7080315351486206,-3.2139103412628174,0.09726039320230484
1758274197860642000,10.37564208984375,0.8149459958076477,-2.791868209838867,0.21713806688785553
1758274197870601000,10.38560107421875,0.9071955680847168,-1.164046287536621,0.6607639193534851
1758274197880558800,10.395558837890626,0.8254016637802124,-0.39161020517349243,0.711743175983429
1758274197890516700,10.405516845703126,0.45227789878845215,0.16787205636501312,0.5677224397659302
1758274197900475000,10.415474853515626,0.1578817069530487,1.0960084199905396,0.5673711895942688
1758274197910433800,10.425433837890624,0.1405881643295288,1.8051203489303589,0.7481488585472107
1758274197920391700,10.4353916015625,0.2863275408744812,1.8405872583389282,0.8639017939567566
1758274197930349800,10.445349853515625,0.3036365807056427,1.2355469465255737,0.7685534358024597
1758274197940308000,10.455307861328125,0.19120590388774872,0.5069540739059448,0.8054118156433105
1758274197950267000,10.465266845703125,-0.0009543141932226717,0.31179648637771606,0.8888652324676514
1758274197960224800,10.475224853515625,0.2019258290529251,0.3563857972621918,0.9191384315490723
1758274197970183000,10.485182861328125,0.3920647203922272,0.16798833012580872,0.8017696738243103
1758274197980140800,10.495140869140625,0.3550824522972107,-0.36049413681030273,0.49570637941360474
1758274197990099000,10.505098876953125,0.2679304778575897,-0.505179762840271,0.3017885684967041
1758274198000057900,10.515057861328126,0.2416277825832367,-0.22417235374450684,0.2382655292749405
1758274198010016000,10.52501611328125,0.14909806847572327,-0.10208998620510101,0.1932748407125473
1758274198019973600,10.5349736328125,0.10157954692840576,-0.25212690234184265,0.09156978875398636
1758274198029931800,10.544931884765624,0.12716470658779144,-0.310194194316864,0.0085753183811903
1758274198039890700,10.554890625,0.0862036868929863,-0.08987488597631454,0.1296285092830658
1758274198049848800,10.564848876953125,0.057427991181612015,0.14186111092567444,0.19148904085159302
1758274198059806700,10.574806640625,0.09156918525695801,0.12770001590251923,0.08907397091388702
1758274198069764900,10.584764892578125,0.06410139054059982,0.04242008179426193,0.006778650917112827
1758274198079723800,10.594723876953125,0.039975281804800034,0.04602200537919998,-0.019204214215278625
1758274198089682000,10.604681884765625,0.060263872146606445,0.08136782050132751,-0.028135186061263084
1758274198099639800,10.614639892578126,0.04836193844676018,0.19998155534267426,0.003831269918009639
1758274198109598000,10.624597900390626,0.05813014134764671,0.31681182980537415,0.026876354590058327
1758274198119556900,10.634556884765624,0.10232103615999222,0.3468475043773651,0.0038344187196344137
1758274198129515000,10.644514892578124,0.1266278475522995,0.32513105869293213,-0.0005240833852440119
1758274198139473000,10.654472900390624,0.1929703801870346,0.3688388764858246,0.017317498102784157
1758274198149430800,10.6644306640625,0.30484360456466675,0.4711834788322449,0.037610556930303574
1758274198159389700,10.6743896484375,0.3633841276168823,0.637800395488739,0.06311485171318054
1758274198169347800,10.684347900390625,0.34417182207107544,0.8358902335166931,0.10165586322546005
1758274198179305700,10.6943056640625,0.28535589575767517,0.9081657528877258,0.15004204213619232
1758274198189264000,10.704263916015625,0.29755663871765137,0.8571493625640869,0.15532633662223816
1758274198199222800,10.714222900390626,0.3334648311138153,0.7795605659484863,0.14342494308948517
1758274198209181000,10.724180908203126,0.3554723560810089,0.6090564727783203,0.16694805026054382
1758274198219138800,10.734138916015626,0.28099891543388367,0.44968757033348083,0.18045666813850403
1758274198229097000,10.744096923828126,0.18231923878192902,0.2213531881570816,0.1761721819639206
1758274198239056000,10.754055908203124,0.16886813938617706,-0.02591704949736595,0.15466448664665222
1758274198249014000,10.764013916015625,0.21077485382556915,-0.17202521860599518,0.12825024127960205
1758274198258972000,10.773971923828125,0.2525571882724762,-0.31807512044906616,0.1470404416322708
1758274198268930000,10.783929931640625,0.2670423984527588,-0.39984723925590515,0.19378508627414703
1758274198278889000,10.793888916015625,0.22322140634059906,-0.44078484177589417,0.25709110498428345
1758274198288846800,10.803846923828125,0.20265890657901764,-0.48056119680404663,0.28963813185691833
1758274198298804700,10.8138046875,0.2498146891593933,-0.5020081400871277,0.26906999945640564
1758274198308763000,10.823762939453125,0.3556186854839325,-0.5337727665901184,0.19416019320487976
1758274198318721800,10.8337216796875,0.4968690276145935,-0.6562331914901733,0.10319884866476059
1758274198328679700,10.8436796875,0.6163354516029358,-0.8360662460327148,0.07664518058300018
1758274198338637800,10.853637939453124,0.6903329491615295,-0.8142842650413513,0.10233057290315628
1758274198348596000,10.863595947265624,0.683883547782898,-0.7137235999107361,0.12142646312713623
1758274198358553900,10.873553955078124,0.6440094113349915,-0.6614164710044861,0.16531749069690704
1758274198368512800,10.8835126953125,0.5831867456436157,-0.6659644842147827,0.21752206981182098
1758274198378471000,10.893470947265625,0.5051606893539429,-0.5864989757537842,0.23180699348449707
1758274198388428800,10.9034287109375,0.44917625188827515,-0.4608948528766632,0.24140910804271698
1758274198398387000,10.913386962890625,0.4257063567638397,-0.3862864077091217,0.24092867970466614
1758274198408345900,10.923345947265625,0.4084523916244507,-0.31543850898742676,0.23531892895698547
1758274198418303700,10.9333037109375,0.37102192640304565,-0.3750736117362976,0.22530624270439148
1758274198428261600,10.94326171875,0.30277249217033386,-0.4736061096191406,0.18000783026218414
1758274198438219800,10.9532197265625,0.1855345368385315,-0.5085561275482178,0.12772785127162933
1758274198448178700,10.9631787109375,0.13531705737113953,-0.3803867995738983,0.09926854074001312
1758274198458136800,10.97313671875,0.11380723863840103,0.5051153302192688,0.2637818455696106
1758274198468094700,10.9830947265625,0.02568872831761837,1.411134123802185,0.46510571241378784
1758274198478052900,10.993052978515625,-0.4018506109714508,1.8859944343566895,0.39567336440086365
1758274198488011800,11.00301171875,-0.7725191712379456,2.241698741912842,0.09100718051195145
1758274198497970000,11.012969970703125,-0.5052733421325684,1.7885844707489014,-0.16252733767032623
1758274198507927800,11.022927734375,-0.2178765833377838,1.2037415504455566,-0.12773214280605316
1758274198517886000,11.032885986328125,0.11800102144479752,1.1831680536270142,-0.26257064938545227
1758274198527844900,11.042844970703126,0.5446412563323975,1.063577651977539,-0.10370545834302902
1758274198537803000,11.052802978515626,0.3744804561138153,1.7695095539093018,0.08398108184337616
1758274198547761000,11.062760986328126,-0.3204657733440399,2.0053980350494385,0.12250303477048874
1758274198557718800,11.07271875,-0.7362001538276672,1.631199598312378,0.1813088357448578
1758274198567677700,11.082677734375,-0.8133735060691833,1.3217849731445312,0.15205854177474976
1758274198577635800,11.0926357421875,-0.7128072381019592,1.3188645839691162,0.017248256132006645
1758274198587593700,11.10259375,-0.7464825510978699,1.0902483463287354,-0.11128762364387512
1758274198597551900,11.1125517578125,-0.7401455640792847,0.5728471875190735,-0.15940135717391968
1758274198607509800,11.122509765625,-0.5971600413322449,0.18271788954734802,-0.10226388275623322
1758274198617469200,11.13246923828125,-0.5239681005477905,-0.04304519668221474,-0.09332551807165146
1758274198627427300,11.14242724609375,-0.6083621978759766,-0.11861184984445572,-0.05608420819044113
1758274198637385500,11.152385498046876,-0.6428706049919128,-0.21447978913784027,0.027124127373099327
1758274198647343400,11.16234326171875,-0.5131111741065979,-0.35849249362945557,0.13033531606197357
1758274198657302300,11.17230224609375,-0.3910086750984192,-0.2234523892402649,0.14967864751815796
1758274198667260400,11.182260498046874,-0.7329028844833374,0.04003441333770752,0.1283467561006546
1758274198677218600,11.192218505859374,-0.8150813579559326,-0.08853767812252045,0.22540780901908875
1758274198687176200,11.20217626953125,-0.7484089136123657,0.10075808316469193,0.3171859085559845
1758274198697135400,11.21213525390625,-0.6430774331092834,0.22228237986564636,0.28778406977653503
1758274198707093200,11.22209326171875,-0.6533024907112122,0.22301171720027924,0.269366979598999
1758274198717051400,11.232051513671875,-0.7532621026039124,0.12525026500225067,0.254131555557251
1758274198727009300,11.24200927734375,-0.5366140604019165,0.15661704540252686,0.1807975023984909
1758274198736968200,11.25196826171875,-0.3586565852165222,0.3506845235824585,0.14989390969276428
1758274198746926300,11.26192626953125,-0.31057822704315186,0.7164347171783447,0.1531129628419876
1758274198756884200,11.27188427734375,-0.18824724853038788,0.9920005202293396,0.16959208250045776
1758274198766842400,11.28184228515625,-0.03409283980727196,0.8358771204948425,0.19870921969413757
1758274198776800500,11.291800537109374,-0.020944545045495033,0.15228310227394104,0.07895564287900925
1758274198786759400,11.301759521484374,-0.24594725668430328,-0.06409653276205063,-0.023401005193591118
1758274198796717300,11.31171728515625,-0.5164019465446472,-0.33384013175964355,0.12116789817810059
1758274198806675500,11.321675537109375,-0.782758355140686,-0.8411628007888794,0.4338497221469879
1758274198816633300,11.33163330078125,-1.1944901943206787,-1.2734241485595703,0.5764122009277344
1758274198826592500,11.341592529296875,-1.6194003820419312,-1.1509974002838135,0.7973327040672302
1758274198836550100,11.351550048828125,-1.5473387241363525,-0.787261426448822,1.134477138519287
1758274198846508300,11.36150830078125,-1.1002286672592163,-0.848989725112915,1.3924044370651245
1758274198856466200,11.371466064453125,-0.5351307392120361,-0.9501016736030579,1.4282702207565308
1758274198866425300,11.38142529296875,0.07671267539262772,-0.21554964780807495,1.3735148906707764
1758274198876383200,11.39138330078125,0.5440160036087036,-0.22613781690597534,1.3939539194107056
1758274198886341400,11.40134130859375,0.8455643653869629,-1.2699339389801025,1.689089298248291
1758274198896299300,11.41129931640625,1.013585090637207,-1.8963853120803833,2.0259275436401367
1758274198906258400,11.421258544921875,0.9619894027709961,-1.6001710891723633,2.294926881790161
1758274198916216300,11.43121630859375,0.8122488856315613,-1.321891188621521,2.390615463256836
1758274198926174500,11.441174560546875,0.5969303250312805,-0.18781889975070953,2.8716416358947754
1758274198936132400,11.45113232421875,0.347830206155777,-0.5354205369949341,3.1598711013793945
1758274198946091500,11.461091552734375,0.08243783563375473,-1.3713458776474,3.315065622329712
1758274198956049400,11.47104931640625,-0.01751192845404148,-2.0037670135498047,3.432398557662964
1758274198966007300,11.48100732421875,0.3060624897480011,-2.415914297103882,3.4388015270233154
1758274198975965200,11.490965087890626,0.5473568439483643,-0.50014328956604,2.218358039855957
1758274198985923300,11.50092333984375,0.5892518758773804,3.005054235458374,0.6800207495689392
1758274198995882200,11.51088232421875,0.97677081823349,4.2650651931762695,-0.46128514409065247
1758274199005840400,11.52084033203125,1.1989185810089111,5.2728590965271,-0.20374326407909393
1758274199015798300,11.53079833984375,1.4394235610961914,5.401882648468018,0.6609417200088501
1758274199025756400,11.54075634765625,0.8245029449462891,5.996345520019531,0.7250227928161621
1758274199035715300,11.55071533203125,-0.34720057249069214,8.045286178588867,-0.7675735354423523
1758274199045673500,11.560673583984375,-1.3261287212371826,8.127938270568848,-1.8245407342910767
1758274199055631400,11.57063134765625,-1.9586427211761475,6.0777716636657715,-1.2085143327713013
1758274199065589500,11.580589599609375,-2.424281358718872,4.2597761154174805,0.5310335755348206
1758274199075548400,11.59054833984375,-2.72470760345459,2.5828206539154053,1.7125399112701416
1758274199085506600,11.600506591796876,-3.1001412868499756,2.1996450424194336,1.8949681520462036
1758274199095464200,11.610464111328126,-3.6559998989105225,3.512899875640869,1.805647373199463
1758274199105422300,11.62042236328125,-4.073106288909912,4.878113269805908,1.8931342363357544
1758274199115381200,11.63038134765625,-4.236248970031738,5.2476935386657715,2.2580533027648926
1758274199125339400,11.64033935546875,-4.428694248199463,5.110569953918457,2.7966432571411133
1758274199135297300,11.65029736328125,-4.671640872955322,4.89935302734375,3.296168088912964
1758274199145255400,11.66025537109375,-4.885168075561523,4.773265361785889,3.608999252319336
1758274199155213300,11.67021337890625,-5.122552394866943,4.776716232299805,3.7641730308532715
1758274199165172200,11.680172119140625,-5.358513832092285,4.857539653778076,3.881598949432373
1758274199175130400,11.69013037109375,-5.632570743560791,4.966933727264404,4.009228229522705
1758274199185088500,11.700088623046875,-5.884101867675781,4.869073867797852,4.227575778961182
1758274199195046400,11.71004638671875,-6.075896739959717,4.263276100158691,4.4885478019714355
1758274199205005300,11.72000537109375,-6.194000720977783,3.346672534942627,4.706222057342529
1758274199214963500,11.72996337890625,-6.1828484535217285,2.4483482837677,4.8643598556518555
1758274199224921300,11.73992138671875,-6.036482334136963,1.8143314123153687,4.782904148101807
1758274199234879200,11.749879150390624,-5.689600944519043,1.6826764345169067,4.4157609939575195
1758274199244838100,11.759838134765625,-5.2010393142700195,1.8843717575073242,3.867741823196411
1758274199254796300,11.76979638671875,-4.809591293334961,2.1889736652374268,3.2543070316314697
1758274199264754200,11.779754150390625,-4.420401573181152,2.4527735710144043,2.688807487487793
1758274199274712300,11.78971240234375,-4.037673473358154,2.452385902404785,2.2346351146698
1758274199284670500,11.79967041015625,-3.740734815597534,2.1432082653045654,1.9001965522766113
1758274199294629400,11.80962939453125,-3.4754815101623535,1.7211968898773193,1.6845026016235352
1758274199304587300,11.819587158203126,-3.182986259460449,1.3570727109909058,1.5169395208358765
1758274199314545400,11.82954541015625,-2.844634771347046,1.1383112668991089,1.3447378873825073
1758274199324503300,11.83950341796875,-2.4148385524749756,1.0489031076431274,1.223484754562378
1758274199334462500,11.84946240234375,-2.0128934383392334,0.9709489345550537,1.186566948890686
1758274199344420400,11.85942041015625,-1.7069453001022339,0.6770250797271729,1.2213916778564453
1758274199354378500,11.86937841796875,-1.7582495212554932,-0.9172546863555908,2.124685764312744
1758274199364336000,11.879336181640625,-1.8045201301574707,-1.4024938344955444,2.707066535949707
1758274199374295300,11.88929541015625,-1.9186216592788696,-1.050799012184143,3.127521514892578
1758274199384253200,11.899253173828125,-1.958519697189331,0.7394139170646667,3.366936683654785
1758274199394211300,11.90921142578125,-1.6925183534622192,2.291393280029297,3.1008057594299316
1758274199404169200,11.919169189453125,-1.7856132984161377,2.0993640422821045,1.7970283031463623
1758274199414127400,11.92912744140625,-1.729478359222412,2.387022018432617,0.8283963799476624
1758274199424086300,11.939086181640626,-1.5172436237335205,1.9688043594360352,0.12830524146556854
1758274199434044400,11.94904443359375,-1.532080888748169,0.9812943935394287,-0.3706424832344055
1758274199444002300,11.959002197265624,-1.7122722864151,0.12177766859531403,-0.6298405528068542
1758274199453960400,11.96896044921875,-1.8933855295181274,-0.38691699504852295,-0.5556007027626038
1758274199463919400,11.97891943359375,-1.947360873222351,-0.6598726511001587,-0.37932562828063965
1758274199473877500,11.98887744140625,-1.8426011800765991,-1.0502763986587524,-0.3203219473361969
1758274199483835400,11.99883544921875,-1.6928287744522095,-1.5681500434875488,-0.21325528621673584
1758274199493793300,12.008793212890625,-1.4693797826766968,-1.7983882427215576,-0.023974834010004997
1758274199503752200,12.018752197265625,-1.153554916381836,-1.7021621465682983,0.18743877112865448
1758274199513710300,12.02871044921875,-0.8165616393089294,-1.3906452655792236,0.3515286147594452
1758274199523668200,12.038668212890625,-0.6557452082633972,-0.8947355151176453,0.4337613582611084
1758274199533626400,12.04862646484375,-0.6151578426361084,-0.341397225856781,0.3898322284221649
1758274199543584300,12.058584228515626,-0.49064701795578003,0.015162006951868534,0.28270116448402405
1758274199553543400,12.06854345703125,-0.27537065744400024,0.18007159233093262,0.20401674509048462
1758274199563501300,12.078501220703124,-0.014926149509847164,0.27398908138275146,0.2735942602157593
1758274199573459500,12.08845947265625,0.16896964609622955,0.2155391126871109,0.4302443265914917
1758274199583417300,12.098417236328125,0.30334001779556274,0.07362384349107742,0.5868140459060669
1758274199593376500,12.10837646484375,0.3404644727706909,0.027482181787490845,0.6574717164039612
1758274199603334400,12.11833447265625,0.28014886379241943,0.08113186061382294,0.6159877181053162
1758274199613292500,12.12829248046875,0.14522992074489594,0.20993857085704803,0.49952232837677
1758274199623250400,12.13825048828125,-0.023967446759343147,0.34886035323143005,0.3711005449295044
1758274199633208600,12.14820849609375,-0.22209039330482483,0.4620518982410431,0.2431098222732544
1758274199643167500,12.15816748046875,-0.37069904804229736,0.5742235779762268,0.12087924033403397
1758274199653125600,12.168125732421874,-0.40679898858070374,0.6150165796279907,0.07150876522064209
1758274199663083500,12.17808349609375,-0.34012874960899353,0.5802993774414062,0.09684260189533234
1758274199673041700,12.188041748046874,-0.23445849120616913,0.552241861820221,0.15858453512191772
1758274199683000600,12.19800048828125,-0.1309470385313034,0.5127623081207275,0.21196891367435455
1758274199692958500,12.20795849609375,-0.05263199284672737,0.44114139676094055,0.26069653034210205
1758274199702916400,12.217916259765625,-0.011915766634047031,0.39372003078460693,0.28705906867980957
1758274199712874500,12.22787451171875,-0.01764955371618271,0.36984771490097046,0.2588772177696228
1758274199722833400,12.23783349609375,-0.08609253168106079,0.37194153666496277,0.18330040574073792
1758274199732791300,12.247791259765625,-0.16253483295440674,0.34903061389923096,0.09278541803359985
1758274199742749400,12.25774951171875,-0.19954098761081696,0.3418664336204529,0.019444558769464493
1758274199752707600,12.26770751953125,-0.1751757264137268,0.3331741392612457,-0.012078478932380676
1758274199762665500,12.27766552734375,-0.1056562289595604,0.28519102931022644,-0.0027040254790335894
1758274199772624400,12.287624267578124,-0.013412052765488625,0.21229951083660126,0.022476695477962494
1758274199782582500,12.29758251953125,0.0950189009308815,0.18187926709651947,0.024293696507811546
1758274199792540700,12.307540771484375,0.20463089644908905,0.18227528035640717,-0.005232770461589098
1758274199802498600,12.31749853515625,0.2854888141155243,0.1873493641614914,-0.05394420400261879
1758274199812457500,12.32745751953125,0.3153441846370697,0.2068181335926056,-0.10448301583528519
1758274199822415400,12.337415283203125,0.29311108589172363,0.23517465591430664,-0.14455153048038483
1758274199832373500,12.34737353515625,0.27215999364852905,0.21850645542144775,-0.1592324674129486
1758274199842331400,12.357331298828125,0.256112664937973,0.20835290849208832,-0.16985464096069336
1758274199852289500,12.36728955078125,0.24083249270915985,0.19329166412353516,-0.14824974536895752
1758274199862248400,12.37724853515625,0.23792049288749695,0.14513933658599854,-0.09837745130062103
1758274199872206300,12.387206298828126,0.24730680882930756,0.0845383033156395,-0.06779051572084427
1758274199882164500,12.39716455078125,0.26127272844314575,-0.0014019294176250696,-0.09291922301054001
1758274199892122600,12.40712255859375,0.26688292622566223,-0.0739552304148674,-0.17270779609680176
1758274199902081500,12.41708154296875,0.26270681619644165,-0.14174208045005798,-0.2921937108039856
1758274199912039400,12.427039306640625,0.23975276947021484,-0.1947198212146759,-0.40181660652160645
1758274199921997600,12.43699755859375,0.16877834498882294,-0.12901389598846436,-0.34158816933631897
1758274199931955500,12.44695556640625,0.0895082876086235,0.016626929864287376,-0.06414481997489929
1758274199941913300,12.456913330078125,-0.1132577508687973,0.69679856300354,1.0391626358032227
1758274199951872500,12.46687255859375,-0.14977049827575684,0.548268735408783,0.9834913015365601
1758274199961830400,12.476830322265625,-0.07509738951921463,0.3310757279396057,0.3354194462299347
1758274199971788300,12.486788330078125,0.08147571235895157,-0.04053136333823204,-0.4698791801929474
1758274199981746400,12.496746337890626,0.09475253522396088,-0.5107735395431519,-1.0335856676101685
