time,seconds_elapsed,z,y,x
1758273930916985300,0.0539853515625,0.3929705593049526,-0.6140424370728432,0.0539031473621726
1758273930926942200,0.063942138671875,1.31673141810894,-1.4537762284077702,0.7131380404666066
1758273930936900000,0.073900146484375,1.8953841235011815,-2.4201762054987253,0.4679325690478086
1758273930946858200,0.083858154296875,2.1765298000901936,-3.083841628396511,-0.4848749360203743
1758273930956815400,0.0938154296875,2.172401906505227,-2.9604405819162727,-0.995312767842412
1758273930966773200,0.103773193359375,1.870845310050249,-2.3719489118158816,-0.5914072652861475
1758273930976731400,0.1137314453125,0.7862234426826238,-1.8885826267927883,-0.3278583279252052
1758273930986688300,0.123688232421875,-0.5070481893837452,-1.7474384183511138,-0.4304182464286685
1758273930996646100,0.133646240234375,-1.7692051367402075,-1.4902663225457071,-0.46852293615639207
1758273931006604300,0.143604248046875,-3.0593080756425857,-0.7679214777946471,-0.42184564839452504
1758273931016561200,0.15356103515625,-3.191605253022909,-0.28044512710422276,-0.4466866596624255
1758273931026519300,0.163519287109375,-2.7291169208556414,-0.1375452341016382,-0.7562485756576061
1758273931036477400,0.1734775390625,-2.289322066533565,-0.2807869993444532,-1.1967995090439916
1758273931046434000,0.18343408203125,-2.5120892039120197,-0.3065564505688846,-1.1589017400652168
1758273931056392200,0.19339208984375,-3.1337422621190547,0.007187573416531086,-1.4233189846932888
1758273931066349300,0.203349365234375,-1.4600614461570978,-0.23892251869179307,-2.3277207707718013
1758273931076307200,0.21330712890625,-0.28815117143690583,-0.232942056042701,-1.5715551972225308
1758273931086265300,0.223265380859375,0.7087251924604177,-1.363376411036402,-0.8907821337878703
1758273931096222200,0.23322216796875,1.6854782212615012,-1.8601313160732387,2.9285005522981282
1758273931106180000,0.24318017578125,0.3939958106994629,-1.7969293022289872,3.860177883315086
1758273931116138200,0.25313818359375,0.609944500234723,-1.0421356015548109,-0.9601035072952508
1758273931126095400,0.263095458984375,1.4889941106528042,-1.1201659128271042,-2.885494062003493
1758273931136053200,0.27305322265625,1.1555600284218788,-1.947192198280245,-1.3023837438046932
1758273931146011100,0.28301123046875,1.3483371012061833,-1.4193725851550698,-0.49940878054648635
1758273931155968300,0.29296826171875,1.0607546695679426,-0.7791666560389101,0.21659166361391544
1758273931165926100,0.302926025390625,0.9815987152665853,-0.539892328234762,0.6101444067209959
1758273931175884300,0.31288427734375,1.5620926646113396,-0.27502544014304875,0.719569534818828
1758273931185841400,0.32284130859375,1.645763465988636,-0.27389059089422224,0.7154144609659909
1758273931195799000,0.332799072265625,0.8904682455331087,-0.08683774097561836,0.6098389940336346
1758273931205757200,0.342757080078125,-0.42931028518676756,0.42670916277766224,0.7110635722801089
1758273931215714300,0.35271435546875,-1.7461077542692423,0.5340323501601815,0.7577335535183548
1758273931225672200,0.362672119140625,-2.191299499198794,0.5464117931313812,0.7240726914569735
1758273931235630300,0.37263037109375,-1.7891121987372636,0.624442250534147,0.7309452075749635
1758273931245587200,0.382587158203125,-1.3434481601208448,1.2289517201080917,0.6358437883839011
1758273931255545000,0.392545166015625,-1.53281104054749,2.051049901509285,0.9069967710077762
1758273931265503200,0.402503173828125,-1.961286628475785,1.9927276225306092,1.418976571574807
1758273931275460400,0.41246044921875,-1.4158616544246674,0.7116812657870352,2.2207032883375883
1758273931285418200,0.422418212890625,-0.06037468146383762,-0.7452734465263784,2.9145331094831226
1758273931295376400,0.43237646484375,1.1279273406088353,-2.3116811978578564,3.826884101000428
1758273931305333200,0.442333251953125,0.7491162395596503,2.026511672580242,0.6271124926567078
1758273931315291100,0.452291015625,-0.9145862032234668,1.1350181756526232,0.9532967498898506
1758273931325249300,0.462249267578125,-1.077061661246419,0.18776801245063543,0.6962117478460073
1758273931335206100,0.4722060546875,-0.8462485800564289,0.228176010684669,0.9448796346783638
1758273931345164300,0.482164306640625,-0.695449531301856,0.5577957953244448,1.516693433961272
1758273931355122400,0.492122314453125,-1.073596030962467,0.6301786022290587,1.7363088293105362
1758273931365079300,0.502079345703125,-0.6938005950510502,0.6034323418617248,1.9829636227548122
1758273931375037400,0.512037353515625,0.5639741916984319,0.27459347846657034,1.9905010325223207
1758273931384994600,0.52199462890625,1.1811813764125108,-0.06826368114799261,2.1813830853402614
1758273931394952400,0.531952392578125,1.8914602280557153,0.37506022408306594,2.689132116469741
1758273931404910300,0.541910400390625,1.8858955796658992,0.8284539801687002,2.4689766228944063
1758273931414867500,0.551867431640625,0.8116606662780046,0.9681161333590745,1.6180004297941921
1758273931424825300,0.561825439453125,-0.4381260443270206,0.7977668732210993,0.5486375063568353
1758273931434783500,0.571783447265625,-1.203014438036084,0.6274804491862654,-0.33584348146021364
1758273931444740600,0.58174072265625,-1.3072469659268855,0.24795535464882848,-0.914162424853444
1758273931454698200,0.5916982421875,-1.106858833616972,-0.1124091123446822,-0.8773854765981435
1758273931464656400,0.601656494140625,0.042211248263716694,0.35284254705607887,0.15798983704149722
1758273931474613500,0.611613525390625,0.9871873290538787,0.6705564975857734,1.0747837794423103
1758273931484571400,0.6215712890625,1.1920493919074535,0.6679945381432771,1.0037731376737355
1758273931494529500,0.631529541015625,1.1577087308883667,0.5815615785762668,1.002709307834506
1758273931504486400,0.641486328125,-0.14180150330662727,0.6305693551123142,0.5435661944419146
1758273931514444300,0.6514443359375,-1.545185368952155,0.5348658783748745,-0.32082828315794465
1758273931524402400,0.66140234375,-2.1335107425749302,-0.13865356066972018,-1.6980045253574847
1758273931534359600,0.671359619140625,-2.4031483521997927,-0.692674513630569,-2.876618097108602
1758273931544317400,0.6813173828125,-2.4045675713479517,-1.4189800787061453,-3.5352538552761077
1758273931554275600,0.691275634765625,-0.7831266457110643,-2.0728025913730264,-2.9698931776553392
1758273931564232400,0.701232421875,-0.8297071951001882,-1.2604013358607888,-3.495857079911232
1758273931574190300,0.7111904296875,-1.0834586688071488,-0.6910583106055855,-1.4018833979547023
1758273931584148500,0.7211484375,1.379641755530238,-0.11795710186064243,1.0129179826378822
1758273931594105600,0.731105712890625,0.3606277941048145,1.2540703792735934,2.8774732526332136
1758273931604063500,0.7410634765625,1.1995078912198542,1.4899690931648015,2.5176041679412124
1758273931614021400,0.751021484375,3.3070442345827815,1.0497253260314463,2.6022481982648373
1758273931623978500,0.760978515625,4.8367900423407555,0.1692927368223667,2.246918510568142
1758273931633936400,0.770936279296875,1.0654413660794495,2.4623013829141853,-1.109486259511113
1758273931643894500,0.78089453125,-0.19275573773533106,-0.42745384366512296,-2.1377251453995703
1758273931653851400,0.790851318359375,-0.6981672658279537,-2.2893314188838003,-2.2362983323544263
1758273931663809500,0.8008095703125,-3.198307673271,0.021541969722509383,-3.308384543275833
1758273931673767400,0.810767333984375,-2.591498256191611,-0.4512386238783598,-0.3490156822443008
1758273931683724300,0.820724365234375,-0.44238487081527705,-0.07656418424248695,-0.2784095296233892
1758273931693682400,0.830682373046875,2.2873609955936667,0.8400456337630748,2.7558500294804573
1758273931703640600,0.840640625,0.33762042800486086,2.246443878793716,2.9785417635351417
1758273931713597400,0.850597412109375,-1.05111765717268,3.655028235691786,1.1082616861522196
1758273931723555300,0.860555419921875,-0.8442768415920436,4.690421669510006,1.443035492554307
1758273931733512400,0.870512451171875,1.0430283126108348,5.2240615132212636,0.33021336661875245
1758273931743470300,0.88047021484375,1.0212168782971798,4.512405528005957,-0.6921393838405608
1758273931753428500,0.890428466796875,-1.447419991248846,3.727268711516261,-1.7488433167129753
1758273931763385600,0.900385498046875,-2.6167332352131605,3.5399189244776963,-2.3815561135947703
1758273931773343200,0.91034326171875,-2.617207866987586,2.388306172376871,-1.4877467409402132
1758273931783301400,0.92030126953125,-1.618145537353307,0.7734317656487226,-1.1090116277366875
1758273931793258500,0.930258544921875,0.7213631402373314,-0.8936696719229221,-1.2623580228865146
1758273931803216400,0.94021630859375,0.8884124089818447,-2.0513509302824735,-0.46075931641757484
1758273931813174500,0.950174560546875,0.4261286594759673,-2.262168102148175,0.41717035005986686
1758273931823131400,0.96013134765625,1.3672849627822636,-1.009255368477106,0.8484650870621204
1758273931833089300,0.97008935546875,0.03339541605822742,-0.12514146040678023,1.4670552505671977
1758273931843047400,0.98004736328125,-0.6126765190145,0.5970066927284002,1.3244605510562657
1758273931853004500,0.990004638671875,-0.7263818451821804,0.6868932998806238,0.9295236601144075
1758273931862962400,0.99996240234375,-0.1774275279611349,0.17782734093368052,0.3660769994214177
1758273931872920600,1.009920654296875,1.3901543817162514,-1.244505555331707,-0.19794599985480307
1758273931882877400,1.01987744140625,-0.6833984435021877,-2.2532892146438357,-0.8191431309878826
1758273931892835300,1.02983544921875,-1.5678852765381335,-2.891732664132118,-0.6966404946520924
1758273931902793500,1.03979345703125,1.0778326456189156,-4.479926569205523,0.5149623235091567
1758273931912750600,1.04975048828125,0.8548539113163948,-4.864823712170124,1.1997773558109999
1758273931922708500,1.05970849609375,-0.5613935275554657,-3.139894355008006,1.5601467912405729
1758273931932666400,1.069666259765625,-0.974691420096159,-1.7260773581534623,1.3629662228003143
1758273931942623500,1.07962353515625,0.2598106641480699,-0.9649363342791795,1.381117088779807
1758273931952581400,1.089581298828125,1.205925941568613,0.16916005035340784,0.7649111900627613
1758273931962539500,1.09953955078125,0.8638169699728488,2.3816338550060987,-0.4613517293527722
1758273931972496400,1.109496337890625,0.059697257126308974,0.23913316576778887,-0.0038110827207565303
1758273931982454500,1.11945458984375,-1.1459013887166976,-0.0357715706050396,0.16183452977091073
1758273931992412400,1.129412353515625,-0.2603530273964628,-0.09082768739461898,0.07331102766543626
1758273932002369300,1.139369384765625,0.046449653018452226,-0.5326303744077682,0.022711598023772237
1758273932012327400,1.149327392578125,0.0738216075360775,-0.5715951880961656,-0.20308745439648626
1758273932022285600,1.15928564453125,-0.040555334282852705,-0.5076648599773645,-0.27545623277574777
1758273932032242400,1.169242431640625,-0.14103340501096098,-0.4423877934247255,-0.185099962285161
1758273932042200300,1.179200439453125,0.0342553573558107,-0.6218529646933079,0.21037907270938158
1758273932052157400,1.189157470703125,0.3114800611088052,-1.0906932962357998,0.23941402853578328
1758273932062115300,1.199115234375,0.23238957325909285,-1.325302847099304,-0.3124278268203139
1758273932072073500,1.209073486328125,0.10174304916262626,-1.099292197754979,-0.588993189881742
1758273932082030600,1.219030517578125,0.10215922874808311,-0.7725193269789219,-0.5214081386476754
1758273932091988200,1.22898828125,0.17198153751492498,-0.4570674761623144,-0.04193418488800525
1758273932101946400,1.2389462890625,0.16821370941400526,-0.11781506304144859,0.29987346567362544
1758273932111903500,1.248903564453125,0.02022796451449394,0.28768472296893594,0.11427695204317569
1758273932121861400,1.258861328125,-0.046387693698145445,1.1750187621295451,-0.3398538861453533
1758273932131819500,1.268819580078125,0.05990059767868369,2.6415117026388644,-0.9806558814585208
1758273932141776400,1.2787763671875,0.2911059295892715,4.0365620397031305,-1.7148156671658157
1758273932151734300,1.288734375,0.314186360925436,5.61935613155961,-2.2784406070351597
1758273932161692400,1.2986923828125,0.004888941085338592,6.81544106259346,-2.253998239696026
1758273932171649500,1.3086494140625,-0.04168693212866783,6.829817378470302,-1.7343579875037074
1758273932181607400,1.318607421875,0.03774382052607834,5.569189540377259,-1.2061956984207034
1758273932191565600,1.328565673828125,0.07278700379133224,4.281809304437041,-0.7232502691581845
1758273932201522400,1.3385224609375,0.671670596307516,2.9155338109582662,-0.26620354352295394
1758273932211480300,1.348480224609375,0.8024152835488318,1.4139461761921643,0.2650643103599548
1758273932221438500,1.3584384765625,-0.07083353163599967,-0.15161387226879597,0.2615729611128568
1758273932231395600,1.3683955078125,-0.49281851543597877,-0.8780810576468706,-0.29846330661475656
1758273932241353500,1.378353515625,-0.2349228180637583,-0.35021570568382737,-1.0785521920651198
1758273932251311400,1.388311279296875,-0.974935750246048,1.8273469445854424,-1.5407240056291223
1758273932261268500,1.3982685546875,-1.3874351858854292,2.1556045009613034,-1.2599088761687278
1758273932271226400,1.408226318359375,-0.24197920284867286,0.9005226065576076,-0.810613495312631
1758273932281184500,1.4181845703125,-0.045559974169731135,-1.5693395669996737,0.12418810520470142
1758273932291141600,1.4281416015625,1.0968119983118028,-7.007081824824214,1.7422054861336946
1758273932301099500,1.438099609375,1.663682569038868,-14.526825587260722,2.4794725902065635
1758273932311057400,1.448057373046875,0.8538018449801951,-16.971036602210997,3.121070412072539
1758273932321014500,1.4580146484375,-1.8125205468535421,-9.324218950000406,5.348098811778426
1758273932330972400,1.467972412109375,-3.471891682434082,0.19048925410807133,6.202808346188068
1758273932340930600,1.4779306640625,-1.3382184427738189,0.17571312525868416,3.866024855777621
1758273932350887400,1.487887451171875,0.08558456257674843,-1.0798697044044732,1.28079749654904
1758273932360845300,1.49784521484375,-0.3766272907366976,-0.8733744873911142,0.3168313224762678
1758273932370803700,1.5078037109375,-0.31823706108834593,0.7560346406459808,-0.33361484562531113
1758273932380760600,1.517760498046875,-0.5288695240369067,3.2165503091871734,0.05089724354445934
1758273932390718700,1.52771875,-0.8842752361118793,3.0050901632428166,0.9017577013105154
1758273932400675600,1.537675537109375,-0.16214052698016165,1.2040782678753137,0.6740114603452384
1758273932410633500,1.547633544921875,0.24794370074365288,0.7010965972781181,0.605963760035485
1758273932420591600,1.557591552734375,0.016784034605696798,0.18132161279022693,0.6458287374339997
1758273932430548700,1.567548828125,-0.09020926323533057,-0.12280980258882045,0.6666575904510915
1758273932440506600,1.577506591796875,-0.1276607497513294,0.6692775636911392,0.5260102256156504
1758273932450464500,1.587464599609375,-1.568068816411495,1.3576830217003821,-0.02168371628075838
1758273932460421600,1.597421630859375,-1.009459805008024,0.7763818476259708,-0.020773469568043944
1758273932470379500,1.607379638671875,-1.729571045488119,0.1669704313546419,0.001123158811032772
1758273932480337700,1.617337646484375,-2.4274095177531243,-0.011266074901819228,0.08992693916261196
1758273932490294800,1.627294677734375,-2.4035481651723383,-0.3709364221513271,0.14869944612681865
1758273932500252400,1.63725244140625,-2.017799812205881,-0.7662988450288772,0.09290814693048596
1758273932510210600,1.64721044921875,-1.7698725146077572,-0.8309136482805013,0.12163330615535378
1758273932520167700,1.657167724609375,-1.3896316730163991,-0.7576257092297076,0.07986395644024014
1758273932530125600,1.66712548828125,-1.2082301268577575,-0.7120137126117945,-0.011855419097095728
1758273932540083700,1.677083740234375,-1.3599756626822053,-0.793202049523592,-0.09651669281646609
1758273932550040600,1.68704052734375,-1.4291361465394496,-0.9998223542213439,-0.1943660955414176
1758273932559998500,1.69699853515625,-1.2058441085040568,-1.1852812129467725,-0.36460371199846264
1758273932569956600,1.70695654296875,-1.6637446744896471,-1.3770482319056987,-0.18925050609335303
1758273932579913700,1.716913818359375,-2.25713332285136,-1.4743237802654503,0.03119827134013176
1758273932589871600,1.72687158203125,-2.175423300153017,-1.6639350824952124,0.472566366328299
1758273932599829800,1.736829833984375,-2.1734639827787876,-1.8072271166205405,0.8085897344000637
1758273932609786600,1.74678662109375,-2.1221017520710825,-1.5656401279598473,0.9854515913024544
1758273932619744500,1.75674462890625,-1.9290870711386203,-1.4635627322763203,0.9801419405870139
1758273932629702700,1.76670263671875,-1.9696198647961018,-1.4470435591518878,0.7664289011493325
1758273932639659500,1.776659423828125,-1.7992951545774936,-1.5999667604535817,0.6781117352709174
1758273932649617700,1.78661767578125,-1.0842574179694056,-1.7534423349410295,0.8475916652284562
1758273932659575800,1.796575927734375,-0.6248126912817359,-1.7627210354179144,1.5130407566726207
1758273932669532400,1.806532470703125,-0.4996636320903897,-2.000332690706849,1.438269447196275
1758273932679490600,1.816490478515625,-0.5763765771538019,-2.322724569919705,0.9608078561723231
1758273932689448700,1.82644873046875,-0.3556576044768095,-2.456006082162261,1.0466856660746038
1758273932699405600,1.836405517578125,0.0891664761841297,-2.7179695038974283,1.5050053342550993
1758273932709363700,1.84636376953125,0.3897480901271105,-2.5594080044478176,1.3787290245994925
1758273932719321600,1.856321533203125,0.3743348324179649,-2.266418745329976,0.7259552172679453
1758273932729278500,1.866278564453125,0.523887680503726,-2.1475334227085114,0.8850111491709947
1758273932739236600,1.876236572265625,0.7361185185596346,-1.8660738578647373,1.6226862495228647
1758273932749194500,1.886194580078125,0.8805921636849642,-1.4818752185583113,1.7139707407742737
1758273932759151600,1.896151611328125,0.4900590606600046,-1.089898346465826,0.662365153954178
1758273932769109500,1.906109619140625,0.1703647499680519,-0.8740934493154286,0.37170612788219004
1758273932779067400,1.9160673828125,0.41787236084938045,-0.6497808360606432,-0.09327228580145165
1758273932789024500,1.9260244140625,0.46445349476039405,-0.4144768731921911,-0.24119528592936693
1758273932798982700,1.935982666015625,0.46548166876435276,-0.359664502030611,-0.7884180301174522
1758273932808940500,1.9459404296875,0.6339648427695036,-0.14466916769742966,-1.459087340427935
1758273932818897400,1.9558974609375,0.6222977858513593,0.1755237401664257,-1.5241732683226465
1758273932828855600,1.96585546875,1.0463666632533073,0.7585738037347793,-1.1153014485958963
1758273932838813400,1.9758134765625,1.8743734841763973,1.5479168397426604,-0.7619117890510707
1758273932848770600,1.9857705078125,2.1078665982306,2.3110031524658203,-0.5100017784923315
1758273932858728700,1.995728759765625,1.971667737236619,2.7974656499385833,-0.5933220859315246
1758273932868685600,2.005685546875,1.835844723817706,2.977088057595491,-0.8143240402683615
1758273932878643500,2.0156435546875,1.646225822803378,3.1739760728299617,-0.7413019125469028
1758273932888601600,2.0256015625,1.6538585096389053,3.14939868093431,-0.5995699673451483
1758273932898558700,2.035558837890625,1.5998276442438364,2.954164278125763,-0.3625812662601471
1758273932908516600,2.0455166015625,1.5754501588344574,2.5439900705635545,-0.3816595492828637
1758273932918474800,2.055474853515625,1.8075649702727794,2.229202821135521,-0.5660182647466659
1758273932928431600,2.065431640625,1.8692647628605366,1.8477584489732979,-0.8003504599735141
1758273932938389500,2.075389404296875,1.620360144662857,1.8642139092117547,-0.5967750759296119
1758273932948347600,2.08534765625,1.8775515296906231,1.9332891990035772,-0.43806569244191046
1758273932958304800,2.0953046875,2.123750980582833,2.0902999618798495,-0.16780176761224866
1758273932968262700,2.1052626953125,2.0332418576180933,2.291267939904332,-0.028117694851011035
1758273932978220800,2.115220703125,1.7890397180229425,2.519682143259048,0.028309125769883394
1758273932988177700,2.125177734375,1.5056740272969007,2.614828278374672,0.006360474942624568
1758273932998135600,2.135135498046875,1.2205600315988063,2.7566864803045985,-0.10523498293161392
1758273933008093700,2.14509375,1.0914210259884596,2.8207290366262194,-0.1534051395997405
1758273933018050600,2.155050537109375,0.7090303128868342,3.099568774360418,-0.19505203197896478
1758273933028008700,2.1650087890625,-0.38298634090721606,3.1045868947833775,-0.8261688649062067
1758273933037966600,2.174966552734375,-1.9324176768660544,2.7090362558573484,-1.7408872431419788
1758273933047923500,2.18492333984375,-3.815371357861161,2.1602175477147103,-2.650465993466973
1758273933057881600,2.194881591796875,-6.39493659967482,1.4550415721684693,-3.643378714430332
1758273933067839700,2.20483984375,-9.47762555090487,0.7278536713004112,-3.9676945474430916
1758273933077796600,2.214796630859375,-10.979387957715987,-1.255066696834564,-3.2416721832230686
1758273933087754500,2.22475439453125,-7.209305355867743,-4.942618314990401,-2.366627424532175
1758273933097712600,2.234712646484375,1.6770160978645086,-6.9815078231066465,-2.2735408522948624
1758273933107669500,2.24466943359375,6.272547068324685,-4.439785697475076,-0.5952827184800058
1758273933117627600,2.254627685546875,3.9945939525455234,-1.614837581849098,-0.8452361150782555
1758273933127585500,2.26458544921875,3.2368396485000845,-1.249137891307473,-5.104504574948549
1758273933137542400,2.27454248046875,-0.23546938256323335,-1.1339490851163863,-7.108885079741477
1758273933147500500,2.28450048828125,-3.4778584818840024,-0.44933483608365055,-4.073310346385837
1758273933157458400,2.29445849609375,1.2238105578273535,-0.03126139970421791,-0.08344798893947154
1758273933167415600,2.30441552734375,3.903712489137053,-0.6182604931592941,1.1413996933832764
1758273933177373700,2.314373779296875,4.696172195860743,-1.5428198088645935,1.6112993247203529
1758273933187331600,2.32433154296875,4.147079346951842,-3.1062562893003225,1.3888354080721734
1758273933197288400,2.334288330078125,3.064538962033391,-4.118905391868949,0.8751580098070204
1758273933207246600,2.34424658203125,2.6129806046813724,-4.296963034427166,1.1175212435372173
1758273933217204500,2.35420458984375,2.0635101546317336,-4.401145293435454,1.3997043003499507
1758273933227161600,2.36416162109375,0.99095223454535,-3.996798769113421,1.5643233462728559
1758273933237119700,2.37411962890625,0.34298107825517654,-3.21840382809937,1.501634104256332
1758273933247077600,2.38407763671875,0.28463293418288227,-2.3268331742823123,1.3141679973617195
1758273933257034500,2.394034423828125,0.6051052435100078,-1.2175772163957357,1.170518455035612
1758273933266992600,2.40399267578125,0.8002256645500659,-0.16345219410061834,0.9754380006797612
1758273933276950500,2.413950439453125,1.3399316764324902,0.4661597141563892,0.9770213243484497
1758273933286907600,2.42390771484375,2.1502222234010695,0.6176794784009456,1.5009921530909835
1758273933296865800,2.43386572265625,2.711543270242214,0.3953630073994398,1.9281173493236303
1758273933306823400,2.443823486328125,2.4330840562582017,0.1409106919467449,2.03973881842196
1758273933316780500,2.453780517578125,1.9036314351037145,-0.07154781738519668,2.1675997669205067
1758273933326738700,2.46373876953125,1.902104956188798,-0.4611977078348398,2.409695874147117
1758273933336696600,2.473696533203125,1.9004378997594118,-0.8368874619930982,2.2194456894919274
1758273933346653700,2.48365380859375,1.6731342879951,-0.8407143268048762,2.3059509836427865
1758273933356611600,2.493611572265625,1.3895239748582242,-0.3165571817100048,2.6948788434281945
1758273933366568700,2.503568603515625,1.1401838878527284,0.11457564272880554,2.588680568422377
1758273933376525800,2.51352587890625,0.5772793712124228,0.37746728522479533,1.8941461061388254
1758273933386484000,2.52348388671875,0.3008899492397904,0.6745487820923328,1.4644475522868334
1758273933396440800,2.53344091796875,0.08445318392664193,0.7165852583110333,0.7311096043564379
1758273933406398700,2.543398681640625,0.02417904022783041,0.8951678015261888,0.2607164904139936
1758273933416356900,2.55335693359375,0.503751193664968,1.3559031525462866,0.28661592469364405
1758273933426314000,2.56331396484375,0.5866660621084272,1.8627999507606028,-0.17242402058541773
1758273933436271900,2.57327197265625,0.7154420796252786,2.693797770193219,-1.0273825613200664
1758273933446229800,2.583229736328125,0.6404676487922668,3.3918349799007177,-1.2636179598197341
1758273933456187000,2.593186767578125,-0.5181913685582578,3.638395080798864,-1.539297479957342
1758273933466144800,2.603144775390625,-1.7013900761425493,2.737230669206381,-1.7816306108102202
1758273933476103000,2.61310302734375,-1.800141688404232,1.6026906324595211,-1.2117524557650088
1758273933486060000,2.62306005859375,-1.409288121253252,0.7400012052118777,-0.4124931520290673
1758273933496017700,2.633017578125,-1.4346410275660455,0.20039514657258986,0.24335005281046032
1758273933505975800,2.642975830078125,-2.0076503202438354,-0.05935819789767265,1.4607611188590526
1758273933515932700,2.6529326171875,-2.576863581639528,-0.06779226424396037,2.467016720998287
1758273933525890800,2.662890869140625,-2.631801625007391,0.6055068100482225,2.930890662305057
1758273933535849000,2.672848876953125,-1.6400924346148966,1.295692137211561,3.350287163981795
1758273933545805600,2.6828056640625,-0.7496364640414714,1.5170248578727243,2.950509847271442
1758273933555763700,2.692763671875,-0.7556090356450528,2.115702114161849,1.7560012256436048
1758273933565721900,2.702721923828125,-1.554779126727581,2.1401959194272755,0.8490205289877951
1758273933575678700,2.7126787109375,-2.0972470045387746,1.60429689861238,1.0207423926532269
1758273933585636900,2.722636962890625,-1.9526187533736228,1.0003969392389058,1.625239587267488
1758273933595595000,2.732594970703125,-1.90622291290164,0.4440869985580444,2.5006103630423544
1758273933605551600,2.742551513671875,-2.384324409264326,0.04297521837353706,3.087276571281254
1758273933615509800,2.752509765625,-2.5491210037112233,-0.10051613771617413,3.7583594308286905
1758273933625468000,2.762468017578125,-1.8420763116836547,-0.4413619575083256,5.4851697794318195
1758273933635424800,2.7724248046875,-1.7047019771695135,-1.6140174976378678,5.43768614372313
1758273933645383000,2.7823828125,-1.8477111027002333,-1.8774340407907961,4.438683873713016
1758273933655340800,2.7923408203125,-1.6601777757883072,-1.7939122924953699,2.7530203590124844
1758273933665297700,2.802297607421875,-2.3876076687186956,-2.408653379356861,0.917868293634057
1758273933675255800,2.812255859375,-3.559540739792585,-2.6873551699250937,-0.4748714284002781
1758273933685213700,2.822213623046875,-4.3208390000551935,-2.608917593026161,-1.735494005796313
1758273933695170800,2.8321708984375,-4.48246631681621,-2.599427880147099,-2.7568694356560703
1758273933705129000,2.84212890625,-4.307048375111818,-2.722168124631047,-3.3194197320312258
1758273933715086600,2.852086669921875,-3.5198680700957774,-3.4784009181976314,-3.1868741328477856
1758273933725043700,2.862043701171875,-2.5374440099209545,-4.415842511829734,-1.9562442503944037
1758273933735001900,2.872001953125,-2.139036812520027,-4.865429276847839,0.06305953663364053
1758273933744959700,2.881959716796875,-2.192881215432286,-4.744994386696815,1.8423251718781888
1758273933754916900,2.891916748046875,-2.400792144462466,-4.2409313506037,3.1026418981954453
1758273933764874800,2.901874755859375,-2.3730104035675526,-3.8837282702505584,3.0565608227610586
1758273933774832600,2.91183251953125,-1.6200632075428962,-3.765295952093601,1.127169361848384
1758273933784789800,2.921789794921875,-1.6254022304832934,-3.185797443526983,-0.5658909851051867
1758273933794748000,2.931747802734375,-1.8878993207037449,-2.1894284446299075,-1.0142428015008569
1758273933804705800,2.941705810546875,-2.2316449535906315,-1.9143518588215112,-1.311574035345763
1758273933814662700,2.95166259765625,-1.6890845751903951,-2.139275297451019,-0.7045511216461658
1758273933824620800,2.961620849609375,-1.652533398514986,-2.8284020554721354,-0.004770721533149481
1758273933834578700,2.97157861328125,-2.1898536843046545,-3.6828976548701524,0.4960269560884684
1758273933844535800,2.981535888671875,-2.7483739945113657,-4.0380087313801045,1.0624500022437422
1758273933854494000,2.991493896484375,-0.06538578762412071,-3.747645729112625,1.6554254666946828
1758273933864451800,3.001451904296875,2.904442800362408,-3.073969638201594,2.1929162867456675
1758273933874408700,3.01140869140625,3.1868703334555026,-3.091459702184796,2.443148938676715
1758273933884366800,3.021366943359375,4.054378559161722,-2.7327584922283887,2.9321318945378065
1758273933894324700,3.03132470703125,4.785991290734708,-2.6109984909534454,2.920144519624114
1758273933904281900,3.04128173828125,4.555605787307024,-1.8432780886888502,1.7061334712773562
1758273933914240000,3.051239990234375,3.9000112965315576,-0.962042950925231,1.4137864555858075
1758273933924198000,3.061197998046875,3.1943153887644407,-0.34230887808203697,1.2195440594892948
1758273933934154800,3.07115478515625,1.972357473066449,-0.09831716636717319,0.8395397300675511
1758273933944113000,3.08111279296875,0.6587576309815049,-0.05702420199215412,0.3279656607571989
1758273933954070800,3.09107080078125,0.5969815582871437,-0.6223211667269468,-0.279361131259799
1758273933964028000,3.10102783203125,1.4192442826002836,-1.4307313067764043,-0.8229318557463586
1758273933973985800,3.11098583984375,2.330994385614991,-1.6215969929814338,-0.9413051371924579
1758273933983943700,3.120943603515625,3.4886662916243076,-1.3172615794628857,-0.760841675601527
1758273933993900800,3.13090087890625,4.518178266188502,-0.8032090642750263,-0.2739011122882366
1758273934003858700,3.140858642578125,4.554608592963218,-0.3638642918080091,0.7032547982253133
1758273934013816800,3.15081689453125,5.051323604381084,-0.29673429086506364,2.0524585992634297
1758273934023774000,3.16077392578125,5.243116926825047,-0.1925894412577152,2.6233932776242495
1758273934033731600,3.170731689453125,4.681636890029907,-0.3307955504208803,-0.5298227696411312
1758273934043689700,3.180689697265625,5.08066777228713,-0.11610884364545344,-0.4596523780889809
1758273934053646800,3.190646728515625,5.576583157759904,1.4007429957479238,4.150059239545464
1758273934063604700,3.200604736328125,5.412171763238311,1.8520470860779283,2.8564138057306407
1758273934073561900,3.210561767578125,5.31524809705615,2.851279073190689,2.0475622055239975
1758273934083519700,3.220519775390625,4.835248658117652,4.154526155826449,1.5690268477886915
1758273934093477600,3.2304775390625,3.9923797836273907,4.864960490292311,0.58091670480147
1758273934103434800,3.240434814453125,3.5410803694725033,5.223226815962791,0.0008602700911462306
1758273934113393000,3.250392822265625,3.3551977323770523,5.073989609697461,-0.11179492596909403
1758273934123350800,3.260350830078125,3.2497178347736595,4.5755520122706885,0.01501417538896203
1758273934133307600,3.2703076171875,3.318336028447747,3.7616438593268393,0.12606690468862652
1758273934143265800,3.280265869140625,3.5326322746008634,2.9628105259180066,-0.08393529753237962
1758273934153223700,3.2902236328125,3.496123621892929,2.5853397335618733,-0.25090119884237644
1758273934163180800,3.300180908203125,3.187580235290527,2.6319173603415487,-0.2256897468268871
1758273934173139000,3.310138916015625,2.742339975044131,2.776089684432745,-0.40440789912045
1758273934183096800,3.320096923828125,1.9522890830278397,2.934454784527421,-0.4667300613902509
1758273934193053700,3.3300537109375,0.7841121496170759,2.868464601269364,-0.768623196323216
1758273934203011800,3.34001171875,-0.7679869442462921,2.66401170373857,-1.3291710668347776
1758273934212969700,3.3499697265625,-2.4631062695562838,2.40914028609097,-2.003167621871829
1758273934222926800,3.3599267578125,-4.057765571251512,2.0067261911362406,-2.7654829502224922
1758273934232885000,3.369885009765625,-5.357308538672328,1.7149024686664343,-3.3958687654614446
1758273934242843000,3.3798427734375,-5.711417160141468,1.3660381775915622,-3.5582103679716583
1758273934252799700,3.3897998046875,-5.2478568148285145,0.616574732029438,-3.2061814753860234
1758273934262758000,3.3997578125,-4.065708054688573,-0.26941198417544365,-1.9976940127663314
1758273934272715800,3.4097158203125,-1.4999474663436412,-1.2041595164179801,-0.19211700144037602
1758273934282673000,3.4196728515625,1.9459195479959248,-2.7334692708462476,1.2235901930749415
1758273934292630800,3.429630859375,3.4992642580062148,-4.494337371873855,1.162736642052978
1758273934302588700,3.439588623046875,2.057448662635684,-4.47881188596189,-0.1613441159054637
1758273934312545800,3.4495458984375,1.7643249634832143,-3.3093267925620076,-2.3590773014135658
1758273934322503700,3.459503662109375,0.2746551455259323,-1.725551872974634,-3.0907150212973353
1758273934332461800,3.4694619140625,-2.0500790106505153,-0.15806757845282554,-0.6044210606381297
1758273934342419000,3.4794189453125,2.6356559623479843,0.11844459311664103,-0.08457081895694137
1758273934352376600,3.48937646484375,4.184371258991956,0.06732815386354923,-1.9372344294980168
1758273934362334700,3.499334716796875,1.5729372992306947,-0.5047410814851522,-3.596074819202721
1758273934372292400,3.509292236328125,0.3549170152425766,-2.1952309934288263,-3.812978325244784
1758273934382250000,3.51925,1.5472411324381827,-3.7048838612288235,-2.3522910022743044
1758273934392208100,3.5292080078125,2.805926019769907,-4.161017271411419,-0.73186794844307
1758273934402165200,3.539165283203125,2.8146903409838675,-3.713797820046544,0.701052538940683
1758273934412123100,3.549123046875,1.8291443493962287,-3.0663281835377214,1.4356620411768555
1758273934422081300,3.559081298828125,0.8057984962463378,-2.4482576599925756,1.7710858359202741
1758273934432038100,3.5690380859375,0.8725409591764212,-1.656925495994091,2.3350978754110634
1758273934441996000,3.57899609375,1.5558061316877603,-0.9897042803108692,2.8901202604994176
1758273934451954200,3.5889541015625,2.4553829818278547,-0.5499824912250042,3.3858503525331614
1758273934461911300,3.598911376953125,2.62732769446373,-0.407537429317832,3.0358164331570268
1758273934471869200,3.608869140625,2.131879341980815,-0.5485960053026676,2.2723539805978534
1758273934481827300,3.618827392578125,1.5583531858220696,-0.890918911910057,1.6257979518026113
1758273934491784200,3.6287841796875,1.0941969204425812,-1.1854887182176113,1.3685054444879292
1758273934501742000,3.6387421875,0.801445269472897,-1.195782148694992,1.156890254112333
1758273934511700200,3.6487001953125,0.39704380009323353,-0.9605389761030674,0.5145028162386268
1758273934521657300,3.6586572265625,0.06328501595258712,-0.3855506384372711,0.01506062661288306
1758273934531615200,3.668615234375,-0.041485856598615645,0.4369026400119066,-0.25051294844346117
1758273934541573400,3.678573486328125,0.6080918581053614,1.5378163014888762,0.3517322477266192
1758273934551530200,3.6885302734375,1.3291118839934468,2.7017788320749996,1.460512404794991
1758273934561488100,3.698488037109375,1.5150640791937708,2.359551787057519,1.5630470427267253
1758273934571446300,3.7084462890625,1.067492161129415,1.3929881438374518,0.8118903833806514
1758273934581403100,3.718403076171875,0.12432459106594324,0.9186451232254504,-0.04539722135607153
1758273934591361300,3.728361328125,-0.43144291330128903,0.8651397430092096,-0.0362266208961606
1758273934601319200,3.738319091796875,-0.14296470186710356,1.1849398521631955,-0.013039075923711061
1758273934611276000,3.748276123046875,0.22888722769394515,1.6657330718278884,0.36267438790369777
1758273934621234200,3.758234130859375,0.08939327067732811,1.8531752133250234,0.7462892725054174
1758273934631192300,3.7681923828125,0.05731821650266647,1.8941344157010316,0.8542286190249025
1758273934641149200,3.778149169921875,-0.23677710416093467,1.9321622408002614,0.7003045701175927
1758273934651107000,3.788107177734375,-0.5829319901466369,1.3997756120204925,1.7760493035465479
1758273934661065200,3.798065185546875,-0.7163514495551586,0.24754735836982725,2.03163529920429
1758273934671022000,3.80802197265625,-0.49689869742169973,0.1751011308401823,2.4391508089512586
1758273934680980200,3.817980224609375,-0.8440754738010465,0.34323709884285925,2.4606322806581855
1758273934690938000,3.827938232421875,-0.5711936946231871,0.2054091753423214,1.7726922482036054
1758273934700895000,3.83789501953125,0.15196984609961509,1.0707523319691419,0.8756257734492421
1758273934710853000,3.84785302734375,-0.3579856820981949,0.9430243622004986,-0.19232158410176634
1758273934720811000,3.85781103515625,-0.7924748312275857,0.43757250209748744,-0.9902725817181169
1758273934730768100,3.86776806640625,-0.35521391582991924,0.7036404365420341,-1.0156296527493744
1758273934740726300,3.877726318359375,-0.1497638604879379,0.9647434420555829,-0.8696167422927915
1758273934750684200,3.88768408203125,-0.19732874473929404,1.1140233184188604,-1.0273710900779813
1758273934760641000,3.89764111328125,0.07070378604279831,1.0465192234665155,-0.753814918769896
1758273934770599200,3.90759912109375,0.18787234960794447,0.6956704805761575,-0.726201520179212
1758273934780556300,3.917556396484375,-0.22295301533937453,0.6771586723297834,-0.9421279248174279
1758273934790514200,3.92751416015625,-0.814119749867916,0.7438011820167303,-0.9075720866777002
1758273934800472300,3.937472412109375,-1.211286007297039,0.6724678841650485,-0.14512359693404286
1758273934810429200,3.94742919921875,-1.8196832780897616,0.27762860837876796,0.43231933080963786
1758273934820387000,3.957386962890625,-2.2827648999750614,-0.11476152068972587,1.0442575621448456
1758273934830345200,3.96734521484375,-2.7354794416248795,-0.202619836884737,2.0173397934786976
1758273934840302300,3.97730224609375,-3.264532542067766,-0.3838303905159235,3.0235484877362846
1758273934850260200,3.98726025390625,-3.4773312431395054,-1.1243278548121451,4.035105995675921
1758273934860218400,3.99721826171875,-3.429283543807268,-1.9029589426696298,4.840283437414467
1758273934870175200,4.00717529296875,-3.0567677435100076,-2.5535148547559974,5.105736747092008
1758273934880133000,4.017133056640625,-2.4097154556304217,-3.3802333894342182,4.153983134990931
1758273934890091300,4.02709130859375,-1.845848815959692,-4.117517152380943,2.376458498194814
1758273934900048100,4.037048095703125,-2.1168886935979128,-4.163362957754731,0.4606571712173521
1758273934910006300,4.04700634765625,-2.9989328096568584,-3.712874859982729,-0.934724151366949
1758273934919964200,4.056964111328125,-3.8394443073660134,-3.721578390920162,-1.885810970122367
1758273934929921000,4.066921142578125,-4.353797851327061,-4.3894256295472385,-2.4731179604828357
1758273934939879200,4.076879150390625,-4.509516236305236,-5.36399956074357,-2.5766949470743534
1758273934949837300,4.08683740234375,-4.708350124910473,-5.8869812323182815,-1.5746286133185028
1758273934959794200,4.096794189453125,-5.195431046542525,-5.750666051468253,0.06558757554022594
1758273934969752000,4.106751953125,-5.406057079750299,-5.081257554873824,1.0335321699909865
1758273934979710200,4.116710205078125,-5.413984365618228,-4.309218704888225,1.419234784119576
1758273934989667000,4.1266669921875,-4.730834928441047,-3.347596609723568,1.672136509129405
1758273934999625200,4.136625244140625,-3.5372388916134834,-2.572628720548749,1.1203554440498351
1758273935009583400,4.146583251953125,-2.5889281134426594,-2.1075451111912726,0.17511220022346824
1758273935019540000,4.1565400390625,-1.719101089400053,-1.7701140682786702,-0.44683958520181477
1758273935029498000,4.166498046875,-1.1247639081418515,-1.8809733208328485,-1.135863102044165
1758273935039456300,4.176456298828125,-0.6168342597484588,-2.311221763652563,-1.4289961535468696
1758273935049413000,4.1864130859375,-0.8083809139549731,-2.3758587787359953,-1.1063942117799073
1758273935059371300,4.196371337890625,-1.040098104377836,-2.742495457866788,-1.260161535755545
1758273935069329200,4.2063291015625,-0.3011455314360559,-2.3808505956739188,-0.9656103610832244
1758273935079286000,4.2162861328125,0.3099031306482851,-2.270318090856075,-0.4134283870525658
1758273935089244200,4.226244140625,0.9884998729571699,-2.685509834319353,0.2830294445089996
1758273935099202000,4.2362021484375,3.1461268196567893,-2.662241771456599,0.6470542606409638
1758273935109159200,4.2461591796875,4.444325678992271,-2.014887870281935,0.9883455591782927
1758273935119117300,4.256117431640625,3.922444954396784,-2.1625223175257444,0.6792345287557691
1758273935129075200,4.2660751953125,3.294321823392808,-2.219371747472882,0.6603345249094069
1758273935139032000,4.276031982421875,2.701874985925853,-1.9989970581889152,0.710062724674493
1758273935148990200,4.285990234375,3.2299694704696535,-1.6834949384897946,0.28466157575547696
1758273935158948000,4.295947998046875,3.9771658478826284,-1.0272183106690644,0.2950831626571715
1758273935168905200,4.3059052734375,3.4664608895570037,-0.3939642465174198,0.39175767638385295
1758273935178863400,4.31586328125,1.6526310136705635,-0.40077860270738597,1.3509395387895404
1758273935188821000,4.325821044921875,1.0413964736253023,-0.38928982496559617,1.7220248678922652
1758273935198778000,4.335778076171875,2.5697721620738503,-1.860037500309944,1.8698704736687242
1758273935208736300,4.345736328125,3.0225267434731125,-2.9428818366110323,1.2169111537024377
1758273935218694100,4.355694091796875,2.4229759192198514,-2.400611527198553,1.1835614034168422
1758273935228651300,4.3656513671875,2.5594319698452948,-1.4698527723312378,0.9722586399912834
1758273935238609200,4.375609130859375,3.269741801148653,-0.7768909661918878,0.7468785436354577
1758273935248567000,4.385567138671875,4.096955425867438,0.18403496340215206,1.2144148068420588
1758273935258524200,4.395524169921875,5.059554841631651,1.1554425395220518,2.0324650280267
1758273935268482300,4.405482421875,5.633262491837144,1.5871587168067693,2.9983044486254453
1758273935278440200,4.415440185546875,5.564619748243689,1.1228162812054157,2.0243793367266654
1758273935288397000,4.42539697265625,5.6771717761903995,1.454415549224615,1.7262997687324881
1758273935298355200,4.435355224609375,5.657065392228961,3.2714895215988156,2.2124828647419807
1758273935308313000,4.44531298828125,5.427805970221757,4.214888562330604,2.254339308218658
1758273935318270200,4.455270263671875,5.467586191946268,4.349744192022085,1.4792472081422805
1758273935328228400,4.465228271484375,4.692548160144686,3.987352310854196,0.9291215090543031
1758273935338186200,4.475186279296875,3.776571963867545,3.3266309785842894,0.7136340072900056
1758273935348143000,4.48514306640625,3.619038638421893,3.316200769984722,-0.14176117129623889
1758273935358101200,4.495101318359375,3.3074826260000467,3.1761510787814853,-0.6317828225553035
1758273935368059100,4.50505908203125,2.9746921023696657,2.877978279545903,-0.5681155292868614
1758273935378016000,4.51501611328125,2.9152555785387753,2.7294319781541825,-0.6654077365204691
1758273935387974100,4.52497412109375,2.78896728618443,2.7559482291579247,-0.4306044166505337
1758273935397932000,4.53493212890625,2.6468770290642976,2.921227638685703,-0.35882454407513137
1758273935407889200,4.54488916015625,2.35833715057075,3.072479691904783,-0.42077860368490216
1758273935417847000,4.554846923828125,1.7449878103286027,3.182877172166109,-0.13179068916290998
1758273935427805000,4.564804931640625,1.0010819988936186,3.041875294804573,-0.17561638688594103
1758273935437762000,4.574761962890625,0.16422551656067372,2.73271874473989,-0.6015364451125264
1758273935447720000,4.584719970703125,-0.8854863654673099,2.542840316006541,-1.272892860904336
1758273935457678000,4.594677978515625,-2.0458435650378464,2.524371762380004,-1.7824740758970379
1758273935467635200,4.60463525390625,-2.971517563986778,2.37377963437438,-2.0522113465040923
1758273935477592800,4.6145927734375,-3.2949013768464326,1.9382664028942584,-2.3307512245088815
1758273935487551000,4.624551025390625,-3.3155653946906325,1.2842226486921309,-2.576819157975912
1758273935497508000,4.634508056640625,-3.476525771975517,0.6835504191935062,-2.321195460656285
1758273935507466000,4.644466064453125,-2.4968372742444274,0.10095394461154937,-1.3763289777204393
1758273935517424000,4.654424072265625,-1.1327496461987494,-1.6977157715439795,-0.6832666338160633
1758273935527381000,4.664381103515625,0.8908996226876974,-4.821519407972693,-0.9075129038363695
1758273935537339000,4.6743388671875,0.38063480934500693,-5.471579645496607,-1.3283660340622068
1758273935547297000,4.684297119140625,-1.65711371204257,-4.562909972840547,-2.970464255541563
1758273935557254100,4.694254150390625,0.10886837099790572,-3.493073586672544,-2.7346722168952224
1758273935567212000,4.7042119140625,-0.5185433968663216,-2.1357500459343193,1.072054062217474
1758273935577170200,4.714170166015625,2.91603007004261,-2.0275725798100233,1.1805525769896805
1758273935587127000,4.724126953125,3.7563726409256457,-1.397864809963107,-0.628078853470832
1758273935597085000,4.7340849609375,1.370227445974946,-0.86310619135499,-2.038615659610927
1758273935607043000,4.74404296875,0.10466858122050761,-1.5811925018787383,-2.707863704946637
1758273935617000200,4.754000244140625,1.130879760673642,-2.592188576543331,-2.045397282575071
1758273935626958000,4.7639580078125,3.3131022194474933,-2.9547359405338764,-0.7388936823613941
1758273935636916200,4.773916259765625,4.120631485009193,-2.3046225115180015,0.19951719469428061
1758273935646873000,4.783873046875,2.824523752734065,-1.504412629058957,0.164475838059932
1758273935656831000,4.7938310546875,0.8724857218578458,-1.3331354404211044,-0.5517734662950039
1758273935666789000,4.8037890625,0.057556409172713756,-1.4908295093864201,-0.7950511845216155
1758273935676746200,4.813746337890625,0.6591016221135855,-1.417289056879282,-0.18966259402558205
1758273935686704000,4.8237041015625,1.946490041360259,-1.0031710801273583,0.7014486255861818
1758273935696662000,4.833662109375,2.672048295199871,-0.5609580587476491,1.185816196606308
1758273935706619100,4.843619140625,2.6522756732374426,-0.45657706229686734,1.0324499277122319
1758273935716577000,4.853576904296875,2.2331185332745314,-0.4555553180336952,0.6476699083212762
1758273935726535200,4.86353515625,1.9576666844129562,-0.6078536654353142,0.36418789773918686
1758273935736492000,4.873491943359375,1.8770351046010851,-0.7905097416996956,0.07929280548878014
1758273935746450000,4.883449951171875,1.9657950458109377,-0.7369359724223613,0.4735496782772243
1758273935756408000,4.893407958984375,1.7691890623882411,-0.5607043762475252,0.49012832650393245
1758273935766365000,4.903364990234375,1.1871487603843212,-0.4613356550008058,0.15776063139550386
1758273935776323000,4.913322998046875,0.8806687360525131,-0.05146598334312439,0.47848779226653276
1758273935786281200,4.92328125,0.939558147394657,0.5397831687718629,1.1548136670339852
1758273935796237800,4.93323779296875,0.9860095174461603,0.9389256947100162,1.5973016328975558
1758273935806196000,4.943196044921875,1.5862053616046905,1.2087100193291902,2.78948020414263
1758273935816154000,4.953154052734375,1.5653037356123327,0.7728729627221822,2.4767677151620386
1758273935826111000,4.963111083984375,1.0469270736150442,0.36827392494380473,2.0055061478219924
1758273935836069000,4.973069091796875,0.4992132579743862,0.5953747076123953,1.839954058832675
1758273935846027000,4.983027099609375,0.22029826304689049,1.0027250899255276,2.48545663305223
1758273935855983900,4.99298388671875,0.22474764367118477,0.7324117729961872,2.683367269332707
1758273935865942000,5.00294189453125,-0.5926560963034629,1.0064742133259772,1.8631220223218201
1758273935875900000,5.01289990234375,-0.7806593788146973,1.385652978643775,2.2932523917198178
1758273935885857000,5.02285693359375,-0.7383376559138297,1.4280243859052657,2.023250478827208
1758273935895815200,5.032815185546875,-1.1585261116858572,1.629910647818446,1.3212114861324429
1758273935905773000,5.04277294921875,-1.3535983827352522,1.621311161777377,0.51856020187065
1758273935915730000,5.05272998046875,-1.152418807786703,1.9831793113321066,0.1925394281035289
1758273935925688000,5.06268798828125,-1.3874573977172373,2.1888544441342352,-0.13723218609709292
1758273935935646000,5.07264599609375,-2.1010849752664567,1.951698715919256,-0.9919900531604885
1758273935945603000,5.08260302734375,-2.707824541980028,1.8410908077776431,-0.9764084531471132
1758273935955561200,5.092561279296875,-2.7185283068239685,1.5247241802036762,-0.2868139862827025
1758273935965518800,5.102518798828125,-2.2922645497262475,1.1273311282813547,0.46760414081104096
1758273935975476000,5.11247607421875,-2.067241157853603,0.494336591848731,1.2075827688649297
1758273935985434000,5.12243408203125,-2.130368352895975,-0.12184884860217571,1.4038019449271262
1758273935995392000,5.13239208984375,-2.276144605052471,-0.4059668190002441,1.7509227533355354
1758273936005349000,5.14234912109375,-2.1950667427778243,-0.3735983348369598,2.4283606809981166
1758273936015307000,5.15230712890625,-2.1152117002964017,-0.6385539241254329,2.4922625136747953
1758273936025265000,5.162264892578125,-3.0737878518939015,-1.2145400406569242,1.6801798225924371
1758273936035222000,5.172221923828125,-4.202406097376346,-1.697634523001313,1.572009955252707
1758273936045180200,5.18218017578125,-4.068412052950263,-1.696929589602351,2.831646151959896
1758273936055138000,5.192137939453125,-3.498978426802158,-1.4906155743747949,3.9220959948286414
1758273936065095000,5.202094970703125,-2.726253932639956,-1.2460358336389064,4.118671290852129
1758273936075053000,5.212052978515625,-2.0628408770680426,-1.1911404603689908,3.327433527138829
1758273936085011000,5.222010986328125,-1.7405518737077712,-1.5083113900631666,1.967525522865355
1758273936094968000,5.231968017578125,-1.8309931921333074,-2.205942357057333,0.33861886445768175
1758273936104926200,5.24192626953125,-2.4292776497125623,-3.1194606387883423,-1.4798781995221972
1758273936114884000,5.251884033203125,-3.1377216871440408,-4.071470271477103,-3.2565982419371604
1758273936124841000,5.261841064453125,-3.6864293361276386,-4.434455442363023,-4.5079292593747375
1758273936134799000,5.271799072265625,-3.444790909540653,-4.5241310371130705,-4.9148102706104515
1758273936144757000,5.281757080078125,-2.636338683915138,-4.708334342819452,-4.345207133114338
1758273936154714000,5.291714111328125,-2.1948440399378537,-4.9945992621183395,-2.7383146650508046
1758273936164672300,5.30167236328125,-1.9684452680587767,-5.395526333385706,-0.46644218435958024
1758273936174630000,5.3116298828125,-1.115368887808919,-5.535987527999281,1.0358531602844596
1758273936184587000,5.3215869140625,-1.7975567864775657,-4.7538761968106025,1.1690635069869457
1758273936194545200,5.331545166015625,-3.345731400373578,-3.688567517200112,0.9366388989470898
1758273936204503000,5.3415029296875,-4.1509155641138555,-2.4916297687292097,0.18358396823164075
1758273936214460200,5.351460205078125,-3.9866836178123948,-1.5623375792831182,-0.5531954253895208
1758273936224418000,5.36141796875,-2.876460276198387,-1.2621247986525297,-0.15031952160932122
1758273936234376000,5.3713759765625,-1.8343828345715998,-1.6137275747805833,0.19531112130656839
1758273936244333000,5.3813330078125,-1.6732500233292578,-1.9403508079528808,0.07299326695315539
1758273936254291000,5.391291015625,-1.5893360608458518,-2.2056413282841443,-0.2725022052757442
1758273936264249000,5.4012490234375,-1.5941653806984424,-2.574181795209646,-0.7394123724732548
1758273936274206200,5.411206298828125,-0.930816914795339,-2.5716695201277733,-0.6666838208708912
1758273936284163800,5.421163818359375,-0.07965498986467719,-2.172746774420142,-0.29297289250493047
1758273936294122000,5.4311220703125,0.4609729591682553,-2.467773676845431,0.04233458238244057
1758273936304079000,5.4410791015625,0.6794564278781413,-3.5499691938489675,0.21102979170307515
1758273936314037000,5.451037109375,1.422456814906001,-3.697757370349765,0.4442969880469143
1758273936323995100,5.4609951171875,3.0994986317336557,-3.0787697319597003,1.2437442155703902
1758273936333952000,5.470951904296875,3.7623183975875376,-2.359333175870776,1.0835934011027217
1758273936343910000,5.480909912109375,3.901146438041329,-1.590840620189905,1.3435105578325688
1758273936353868000,5.490867919921875,4.073146095734835,-0.5517290426313877,1.7310080925539135
1758273936363825200,5.5008251953125,4.014780416005849,0.03596095569729805,1.567973100952059
1758273936373783300,5.510783203125,3.0298990258067846,0.13004559906125068,1.1816747128874063
1758273936383741400,5.520741455078125,2.2830624216169118,-0.447040003144741,1.0667097785800694
1758273936393698600,5.530698486328125,2.448261167123914,-1.0197463673532008,0.9254287920162081
1758273936403656400,5.540656494140625,2.933928714826703,-1.5556412965148687,1.3439602012962102
1758273936413614600,5.550614501953125,3.2199522265851495,-1.6303952164649962,1.6784458384066818
1758273936423571500,5.560571533203125,3.5323096185177563,-1.3143296176642179,1.9407500364035366
1758273936433529300,5.570529296875,3.865366684129834,-1.4115028746932745,2.090035757985711
1758273936443487500,5.580487548828125,4.080941864177585,-1.0813456221759319,1.2983911670371888
1758273936453444600,5.590444580078125,4.292489688405395,-0.15286884076595306,0.05377426028549671
1758273936463402500,5.600402587890625,3.9491123043090104,0.19705928014814852,1.9229829090446233
1758273936473360600,5.610360595703125,4.50318820232749,0.5584241563558578,1.7246134230807422
1758273936483317200,5.620317138671875,5.51948530600965,1.1860101117432116,1.8990850238457322
1758273936493275400,5.630275390625,5.451636927664279,2.3614959068626162,2.3661551308453084
1758273936503233500,5.640233642578125,5.415190234276652,3.531927925723791,2.7176936095654964
1758273936513190400,5.6501904296875,5.448773939448595,4.348424341595172,2.6361741410031914
1758273936523148500,5.6601484375,4.393752260574698,5.381249970752,1.8748112910717725
1758273936533106700,5.670106689453125,3.516372044673562,4.851573769974708,1.3467474939271806
1758273936543063300,5.680063232421875,3.269454800900817,3.623628304299712,0.7293678752556443
1758273936553021400,5.690021484375,3.426329954698682,3.20551628947556,0.3002709405586123
1758273936562979600,5.6999794921875,3.0918980936020612,2.363425413620472,-0.02001929019987583
1758273936572936400,5.7099365234375,2.7803333133518695,1.8603186553388833,-0.08613719149082899
1758273936582894600,5.71989453125,2.69594062744081,1.6513333750754593,-0.16587766768187284
1758273936592852500,5.7298525390625,2.62508956014812,1.6827543492555617,-0.34309856715500353
1758273936602809300,5.739809326171875,2.3231197067171334,2.0626041457027195,-0.5664931887820362
1758273936612767500,5.749767578125,1.5471633910268545,2.6898504938721657,-0.7271648122534156
1758273936622725400,5.759725341796875,0.3208528330773115,3.5090579222679135,-0.9392311073973775
1758273936632682500,5.7696826171875,-1.0824310793250798,4.234623190370201,-1.3328706520050764
1758273936642640400,5.779640380859375,-2.22096106249094,4.513727716520428,-2.097184168435633
1758273936652598300,5.789598388671875,-2.921670121756196,4.241345776623487,-2.9493399267092344
1758273936662555400,5.799555419921875,-3.278314983704686,3.688717154803872,-3.3790357040822503
1758273936672513500,5.809513427734375,-2.443092824575305,2.9196809937655925,-2.9785791729360818
1758273936682471400,5.819471435546875,-1.0153162759512662,1.2279717691600323,-2.779922102202475
1758273936692428300,5.82942822265625,1.2296598683774471,-1.4656436302036047,-3.376748469927907
1758273936702386400,5.839386474609375,2.509318570154905,-4.3146056586235755,-4.40258847798109
1758273936712344300,5.84934423828125,0.3963736457467079,-5.940951307436824,-4.864621759857237
1758273936722301400,5.859301513671875,0.3066214786291122,-6.8347150873839855,-6.415328230318427
1758273936732259600,5.869259521484375,-2.063886586728692,-5.546758512860536,-3.7420363647982477
1758273936742217500,5.879217529296875,-3.863497967648506,-3.360322820305824,4.313517571125924
1758273936752174300,5.88917431640625,5.036624632421136,-2.6922978870242833,6.30267566460669
1758273936762132500,5.899132568359375,7.3477908664941785,-0.7991787858456373,3.9873751072078942
1758273936772090400,5.90909033203125,3.4025738160580397,0.8439286126762628,0.7646531236484646
1758273936782047500,5.919047607421875,-1.2096025842547415,0.25347324128746984,-2.38065156597048
1758273936792005600,5.929005615234375,-1.7767741106897592,-0.8017115191936492,-2.26088186172992
1758273936801963500,5.938963623046875,2.4424457588434216,-1.7962796061486004,-0.783158794414997
1758273936811920400,5.94892041015625,3.962949106481671,-2.0745646326094866,0.660540422745049
1758273936821878500,5.95887841796875,4.048334310561418,-2.2427602218449114,2.027097217383236
1758273936831836400,5.96883642578125,3.410474798440933,-2.877614706930518,2.2703506779514253
1758273936841793500,5.97879345703125,2.3193542167037724,-3.459625490579009,2.1805912043102085
1758273936851751700,5.988751708984375,1.6110340979129074,-3.7852731567174196,2.1526129179298876
1758273936861709300,5.998709228515625,1.477506501954794,-3.74110902082026,2.0179452120259405
1758273936871666400,6.00866650390625,1.570681629258394,-3.2622266032129525,1.7082038478106258
1758273936881624600,6.01862451171875,1.4446455580994486,-2.472889412423968,1.2242992181271315
1758273936891582500,6.02858251953125,1.3114242516115306,-1.589136154359579,0.5247914974756539
1758273936901539600,6.03853955078125,0.8596671568170189,-0.5726572643697262,0.1257791737884283
1758273936911497500,6.04849755859375,0.38780864649713037,0.3410907344639301,-0.5107691096030176
1758273936921455400,6.058455322265625,0.47732145190089936,0.6488648902595043,-1.4453727033302186
1758273936931412500,6.06841259765625,0.9236196967676281,1.733413107869029,-0.8456361472465097
1758273936941370400,6.078370361328125,1.485234758119285,2.1559978841930625,-0.038057343454658984
1758273936951328500,6.08832861328125,2.400177227434516,0.3374474095255136,-0.28938531634174286
1758273936961285400,6.098285400390625,2.189996307645738,0.39682723473310466,-0.3231320300556719
1758273936971243300,6.1082431640625,0.7330901106491684,0.09455284539759158,-0.12622582157738507
1758273936981201400,6.118201416015625,-0.8112032778993249,-0.007007832935452461,0.3245562176398933
1758273936991158500,6.128158447265625,-1.152234098869562,0.16864041039347646,0.3750950762007385
1758273937001116400,6.138116455078125,-0.36217341611161824,0.6437246047616004,1.1639570506934076
1758273937011074600,6.148074462890625,0.6057108081877232,0.9275988295316696,2.400171089954674
1758273937021031400,6.158031494140625,0.9628080900788306,1.1660890212208033,3.0277558762982486
1758273937030989300,6.1679892578125,1.1482888683751225,1.308202659216523,3.5345588587492704
1758273937040947500,6.177947509765625,0.734699445541948,1.1406366000562906,3.5619349414527415
1758273937050904600,6.187904541015625,0.39786541867442426,1.029522495958209,3.1167525488734245
1758273937060862500,6.197862548828125,0.17272724131569264,1.446940683299303,2.869982896877825
1758273937070820600,6.207820556640625,-0.313391338090226,1.7944418693274258,1.856442836818844
1758273937080777500,6.217777587890625,-0.7292330698948353,2.2507050433695315,0.8702201150134206
1758273937090735400,6.2277353515625,-0.7926164316553622,2.093838072878122,-0.7416269067175686
1758273937100693500,6.237693603515625,-0.8519125971674919,1.9492256038039921,-1.7011292332492767
1758273937110650600,6.247650634765625,-1.2396014166772364,1.8140771286457775,-1.8464812686443328
1758273937120608500,6.2576083984375,-1.683033750718832,1.1736498118638992,-1.5145819947652517
1758273937130566400,6.26756640625,-1.5068307961165903,0.41074119379520413,-1.131679313553497
1758273937140523500,6.2775234375,-1.5381646765351296,0.1633013874530792,-1.422475519606471
1758273937150481400,6.2874814453125,-2.4285855757951733,0.3698246615171432,-1.6371975899562239
1758273937160439600,6.297439453125,-3.0568390551805495,0.1894353611409664,-1.2902917394727467
1758273937170396700,6.307396728515625,-2.9781378589093683,0.1636024162262678,-0.12710815736986697
1758273937180354300,6.317354248046875,-2.522313660806417,-0.11307225242853164,1.3297158412359653
1758273937190312400,6.3273125,-2.3452421066761016,-0.6300163974046706,2.736293972878158
1758273937200269600,6.33726953125,-2.317727492284775,-1.1756412779420613,3.92285324293673
1758273937210227500,6.3472275390625,-2.182078666388988,-1.8179636146903038,4.8881180785179135
1758273937220185600,6.357185546875,-2.219597957444191,-2.481473700895905,5.17410418087542
1758273937230142500,6.367142578125,-2.1409739180624485,-2.9490280842810868,4.687129057705402
1758273937240100400,6.377100341796875,-2.0650363412857056,-2.66800340372324,4.021060811449587
1758273937250058500,6.38705859375,-2.860561280798912,-2.44560100800395,2.67148160122782
1758273937260015400,6.397015380859375,-4.065695779728889,-3.0330846701055765,0.6212217541176825
1758273937269973500,6.406973388671875,-5.388941109776496,-3.394825393888354,-1.073067111717537
1758273937279931600,6.416931640625,-6.1253872528553,-3.4132869332522153,-1.9264359721079467
1758273937289888300,6.42688818359375,-5.928524956583977,-3.4771406890034675,-1.9982294348172842
1758273937299846400,6.436846435546875,-4.805111294007301,-3.9224312181323766,-1.552007908448577
1758273937309804500,6.446804443359375,-3.561443358543515,-4.617766767665744,-0.7979526781167835
1758273937319762400,6.456762451171875,-1.9348218153983354,-5.449272536620497,0.130590519592911
1758273937329719600,6.466719482421875,-1.5513707795888185,-6.087535368844867,0.7842441054336726
1758273937339677700,6.476677734375,-2.5612024866491554,-5.727868528726697,0.3173653562877327
1758273937349635300,6.48663525390625,-3.6002480132341383,-4.5792093657344575,-0.49692054392732676
1758273937359592400,6.496592529296875,-3.87568758713603,-3.56549994045794,-0.9778508339751512
1758273937369550000,6.506550048828125,-3.4121991380155086,-2.329401563465595,-0.9932894453212618
1758273937379508000,6.516508056640625,-2.893536498683691,-1.2082727969557046,-0.9580724398590624
1758273937389464800,6.52646484375,-2.954348987042904,-0.9007751200139522,-0.8054491713520139
1758273937399423000,6.536423095703125,-2.5872084500432013,-0.7306617144584655,-0.22071276213191449
1758273937409380900,6.546380859375,-2.1865222017943857,-1.0015309117048978,-0.10264452804699539
1758273937419338000,6.556337890625,-2.4430476702593267,-1.7871546349287033,-0.33815365809872744
1758273937429296000,6.566296142578125,-2.141535351337492,-2.938824670174718,-0.6394529187917709
1758273937439253800,6.576253662109375,-1.2762743200361728,-3.7076042261034248,-0.8092721637062728
1758273937449211000,6.5862109375,0.11033727450668811,-3.8173306752353904,-0.4882007194422185
1758273937459169000,6.5961689453125,1.8456199756398797,-3.5017788711756466,0.05209478276595473
1758273937469127000,6.606126953125,3.5518823339939116,-3.6762124780178067,0.7821304742805659
1758273937479084000,6.616083984375,3.521909512795508,-4.01242829992175,1.969540808210522
1758273937489042000,6.6260419921875,3.5804417812630533,-4.258524874961376,2.478896251623332
1758273937498999800,6.635999755859375,4.793856325021386,-2.6768565722644326,0.8604970317699014
1758273937508957000,6.64595703125,4.774687514171004,-1.1453642131000756,1.2262569280661642
1758273937518914800,6.655914794921875,5.08193676930964,-0.6950988181680441,1.5562427695393561
1758273937528873000,6.665873046875,4.612456970819831,-0.048911038163304325,2.0494358904413876
1758273937538829800,6.675829833984375,4.076240554618836,-0.076575290158391,3.026253947302699
1758273937548787700,6.68578759765625,3.7306484170824286,-0.9234288503706455,2.9102900650858876
1758273937558745900,6.695745849609375,2.812325073157251,-1.7255074493110178,2.619590670470893
1758273937568703000,6.705702880859375,2.1326579251378774,-2.126356194645166,1.6825009590163826
1758273937578660900,6.715660888671875,2.2305168263435364,-1.5924597458243368,0.7436407307580113
1758273937588619000,6.725618896484375,2.5471611018151044,-1.4452292032063006,0.4940449154257774
1758273937598575900,6.735575927734375,3.5547657804757353,-1.6727993569523094,0.14083616540580987
1758273937608533800,6.74553369140625,4.79685258422792,-0.7297802554488182,-0.2835553680792451
1758273937618492000,6.755491943359375,4.984211139094829,-0.0054500820994377135,0.23467618635892867
1758273937628449000,6.765448974609375,4.589954047110677,1.0616215155303477,0.43339667771756646
1758273937638407000,6.775406982421875,4.333585084381699,2.266640863648057,0.434537079924345
1758273937648365000,6.785364990234375,4.392347069951891,3.473168862763047,1.0420727654516697
1758273937658322000,6.795322021484375,5.132202729213238,4.4059331122338765,2.18696176225543
1758273937668279800,6.80527978515625,5.5539919712454076,4.6178959470033645,2.958927254743874
1758273937678238000,6.815238037109375,4.949436178311705,4.564865198561549,2.5572259842336176
1758273937688195000,6.825195068359375,4.5431548865348095,3.7391029416948554,2.692178352297842
1758273937698153000,6.835153076171875,3.9538118603020904,2.9681933880001306,2.041926391594112
1758273937708110800,6.84511083984375,3.806995159181952,2.111915581360459,1.5059499216288328
1758273937718068700,6.85506884765625,3.567808801922202,1.4326345100492237,1.001603392419219
1758273937728025900,6.86502587890625,3.0742694979310032,0.974635305994749,0.961319312825799
1758273937737984000,6.87498388671875,2.8975317057996985,1.2726964615494012,0.8547808460801839
1758273937747942000,6.88494189453125,3.0840333515763283,1.7985709319561718,0.032174422895908356
1758273937757898800,6.894898681640625,2.8563299268394706,1.9869833797901868,-0.5591422414973378
1758273937767857000,6.90485693359375,2.5174253042429684,2.495629652020335,-0.9558481879383325
1758273937777814800,6.914814697265625,1.9231126729041337,2.9732009870290756,-1.4015864608347415
1758273937787772000,6.92477197265625,0.825533708807826,3.246600579535961,-2.003866710051894
1758273937797730000,6.93472998046875,-0.6254308231800795,3.4194127226561304,-2.649048820145428
1758273937807688000,6.94468798828125,-2.17482124260664,3.487199726203084,-3.272655935029685
1758273937817644800,6.954644775390625,-3.7036025892466307,3.4121944618403908,-3.4777129359334706
1758273937827603000,6.96460302734375,-4.900033557239174,2.870070867422223,-3.1381083483740686
1758273937837560800,6.974560791015625,-5.008087104722857,2.022134772670269,-2.6440698626890775
1758273937847518000,6.98451806640625,-3.164103498113155,1.4575906721293925,-1.7162649891912936
1758273937857476000,6.99447607421875,-0.340080096116662,1.6160989800870418,-0.3575672374904156
1758273937867434000,7.00443408203125,1.39974287879467,1.9017536585330963,1.0019742715582252
1758273937877390800,7.014390869140625,0.8755950860500336,-0.10488017814457416,0.6566925151452422
1758273937887349000,7.024348876953125,3.1072447158157823,-3.9049037447482347,-1.7651210822969674
1758273937897307000,7.034306884765625,0.213957223457098,-6.596621201536059,-4.352557203616201
1758273937907264000,7.044263916015625,-2.595568282109499,-7.788561872372031,-5.786646296387911
1758273937917222100,7.05422216796875,-0.05557341866195201,-6.3797279246270655,-1.109738480706513
1758273937927179800,7.0641796875,3.3121827665150163,-3.716218909713626,2.6087004431441425
1758273937937137000,7.074136962890625,4.908085930791497,-1.0190338351696728,1.8181629366546868
1758273937947095000,7.084094970703125,2.5401743116676805,0.6973632559686899,-0.855922125069797
1758273937957053000,7.094052978515625,0.12212825006544589,0.6934574807018041,-3.044094139897823
1758273937967010000,7.104010009765625,-0.35740240231752396,-0.430398664945364,-3.208516640335321
1758273937976968000,7.113968017578125,2.130664705494046,-1.6665607548236845,-2.3080825888440013
1758273937986925800,7.12392578125,3.6254847458213564,-2.026208890241384,-0.8149998937033116
1758273937996883000,7.133883056640625,3.725437112174928,-1.8200234698295592,0.5500315910637379
1758273938006840800,7.1438408203125,3.140617993107438,-1.8030699969410895,1.2643803224943577
1758273938016799000,7.153799072265625,2.4903771383196114,-1.8418635457158088,1.6952767078287898
1758273938026755800,7.163755859375,2.061560481868684,-1.819656390082836,2.2600340127289296
1758273938036713700,7.173713623046875,1.4988842210263014,-1.8213316298186777,2.1399127185717224
1758273938046672000,7.183671875,1.030449547675252,-1.4719751713126896,1.4768633817456662
1758273938056629000,7.19362890625,1.0955264154806732,-0.874376357910037,1.6755619535334407
1758273938066587000,7.2035869140625,1.4352072831466793,-0.5553793818324804,1.5505068562358617
1758273938076545000,7.213544921875,1.6913269472897052,-0.42632220928668974,1.3751619797676802
1758273938086502000,7.223501953125,1.3466577698171138,-0.3240326321572065,0.9612706513784826
1758273938096459800,7.233459716796875,1.003283892852068,-0.4487760331571102,0.3287345262378454
1758273938106418000,7.24341796875,1.4987456893384457,-0.02663198633790016,1.0549357541561126
1758273938116375800,7.253375732421875,1.7433607936486601,0.05766717607080936,1.7894621812187135
1758273938126333000,7.2633330078125,2.2614517705723642,-0.49870004775524135,2.052664643229544
1758273938136291000,7.273291015625,1.8287772696495055,-1.6386387286752462,1.863524319512397
1758273938146248700,7.283248779296875,0.9546730066791176,-2.3360686201393603,1.501809168562293
1758273938156205800,7.293205810546875,-0.041998774556815624,-1.726896857842803,1.219495617237687
1758273938166164000,7.3031640625,-0.7574468455314636,-0.4528378757685423,0.7971583128686994
1758273938176121900,7.313121826171875,-1.0768633621953427,0.5668272430419922,0.2162134779512882
1758273938186079000,7.323078857421875,-0.9181482796192169,1.1540052001953125,-0.24122370830625295
1758273938196036900,7.333036865234375,-0.5432137277424335,1.6387907043665646,-0.28129816373698413
1758273938205994800,7.342994873046875,-0.4072925146460533,2.136168563607335,-0.45745355287045236
1758273938215952000,7.352951904296875,-0.8282840304292738,2.477815178388357,-0.612877850272879
1758273938225910000,7.362909912109375,-1.113140105843544,2.6194430786937475,-0.470790881088376
1758273938235868000,7.372867919921875,-1.1512405577875673,2.2289140673220156,-0.1207336539018899
1758273938245824800,7.38282470703125,-1.3256243341386318,1.9926631789922713,0.28653657584711906
1758273938255783000,7.392782958984375,-1.000115857275203,2.162332347911596,1.0563635950021446
1758273938265740800,7.40274072265625,-1.1843875520426779,1.8183593360096215,1.4301179971836506
1758273938275698000,7.412697998046875,-1.7086697117567062,1.2774421947717667,1.4264973224684596
1758273938285656000,7.422656005859375,-1.8418062625706195,1.1157026498079299,1.5232900557473301
1758273938295614000,7.432614013671875,-1.1938872017938642,1.1008774211198091,1.5024268620692192
1758273938305570800,7.44257080078125,-1.0252806206047533,0.7752893762141466,1.904153267020732
1758273938315529000,7.452529052734375,-1.456978093189001,0.409191626265645,2.1950655737340448
1758273938325486800,7.46248681640625,-1.5027356357574462,-0.07127543018460274,2.063701877811551
1758273938335444000,7.47244384765625,-1.1119114408314228,-0.24591829586327074,1.7450033001586793
1758273938345402000,7.482402099609375,-1.0385761555075645,-0.17971300854980946,1.0147234976898878
1758273938355360000,7.492360107421875,-1.6238555855631827,0.16397592571377753,0.604840528159216
1758273938365316900,7.50231689453125,-1.9004945983827113,0.45219197908043857,0.6333624929621815
1758273938375275000,7.51227490234375,-2.1575532969415185,0.3425678212791681,1.0578538335599004
1758273938385233200,7.522233154296875,-2.702818696516752,-0.03348082931935787,1.6220977821104228
1758273938395190000,7.53218994140625,-2.9267431872367857,-0.4056277963042259,2.189770097674429
1758273938405148000,7.54214794921875,-2.5971616887807842,-0.595798485982418,2.8034952854916453
1758273938415106000,7.55210595703125,-1.930494015327096,-0.7676257097184658,3.102472971369326
1758273938425063200,7.562063232421875,-1.1347931347250937,-1.221948271086812,2.877431167057156
1758273938435021000,7.57202099609375,-0.7492500950723886,-1.9114216505885122,2.4740678085535763
1758273938444979000,7.58197900390625,-0.7627151413232087,-2.4443916322141885,1.3907719290927052
1758273938454937000,7.59193701171875,-0.7508329803496598,-3.1182115155100822,-0.6228866916552186
1758273938464894000,7.60189404296875,-1.3412035960644482,-3.5696032841235397,-2.2275848645448684
1758273938474852000,7.61185205078125,-2.018674987605214,-3.290388283336162,-3.3613048170804976
1758273938484810200,7.621810302734375,-2.6245535535752773,-2.92541106185019,-4.157352026902139
1758273938494766800,7.631766845703125,-3.134282360345125,-3.4659488483816383,-3.9223976081237195
1758273938504725000,7.64172509765625,-4.031230615547299,-4.632460478928685,-2.6344068390697237
1758273938514683100,7.65168310546875,-4.352555157789587,-6.016482641500234,-0.7135356614820658
1758273938524640000,7.661639892578125,-3.554961010786891,-6.301916955193877,1.6296312463551759
1758273938534598100,7.67159814453125,-2.904759903487563,-5.638299901482463,3.035293578326702
1758273938544556000,7.68155615234375,-3.685717388466,-4.583917689555883,3.032469753077626
1758273938554513000,7.691512939453125,-4.235115357801318,-3.7277258076339956,2.529274147468805
1758273938564471000,7.701470947265625,-3.484786235320568,-2.934282935091853,2.2618713111586866
1758273938574429000,7.711428955078125,-2.5255682786881923,-2.0746113943606614,1.6332710641622543
1758273938584386000,7.721385986328125,-2.035846487158537,-1.507488383242488,0.6492603193178772
1758273938594344200,7.73134423828125,-1.9071955573260784,-1.2472773581326007,0.16513050257638096
1758273938604301800,7.7413017578125,-2.037325327539444,-1.18937052808702,-0.17113456529676913
1758273938614259000,7.751259033203125,-2.0884289073109628,-1.188644551900029,-0.523332823099941
1758273938624217000,7.761217041015625,-2.564229725515842,-1.3109633561015128,-0.4256830346003175
1758273938634175000,7.771175048828125,-2.477442253422737,-1.5433236667335033,-0.19167495676130056
1758273938644132000,7.781132080078125,-2.602423554831743,-1.9399334593236446,-0.23660759281292557
1758273938654090000,7.791090087890625,-1.9809189651846884,-2.4957097315192223,-0.03393193408772349
1758273938664047900,7.8010478515625,0.5743173065364361,-2.5016584107905624,1.3139986321441828
1758273938674005000,7.8110048828125,3.0885011446401474,-2.4186224001854657,1.9335105866692959
1758273938683963100,7.820963134765625,4.220625352416932,-2.473294486093521,1.466988468941301
1758273938693921000,7.830921142578125,3.529667871837318,-1.949019267576933,1.5598913551747797
1758273938703878000,7.8408779296875,3.3536265375375747,-1.4506851305246353,1.0286226245090364
1758273938713836000,7.8508359375,3.496101410061121,-1.2454168249577282,0.08791837581917643
1758273938723794000,7.8607939453125,3.786144971115887,-0.7749316488176584,-0.8696247794687747
1758273938733751000,7.8707509765625,3.643587681005895,-0.058064650955796236,-1.2067090547703205
1758273938743709200,7.880709228515625,3.6580344317704436,0.14687106165587901,-0.8620885387450457
1758273938753667000,7.8906669921875,3.7171222882941364,-0.2017138279557228,-1.0107349395103753
1758273938763625200,7.900625244140625,2.7854671691089865,-0.6845248171836137,-1.607401878890395
1758273938773582000,7.91058203125,2.4332705187410113,-1.393400231769681,-1.742170268689841
1758273938783540000,7.9205400390625,2.6811332266703247,-1.6919471250146627,-1.195121931220591
1758273938793497000,7.9304970703125,2.2196116937085986,-0.747197838717699,-0.5570049372076988
1758273938803455200,7.940455322265625,2.6952929771870373,-1.6806050622671842,1.8868512729555367
1758273938813413000,7.9504130859375,2.5956191355139016,-3.0914281380027533,0.9646014032363891
1758273938823371000,7.96037109375,2.796789358112216,-2.2551374728590248,2.0701260656401512
1758273938833328000,7.970328125,3.8438866737276314,-1.6306763714939354,3.434003558066487
1758273938843286000,7.9802861328125,4.393777395015955,-1.0556278280735014,3.468209779050946
1758273938853244200,7.990244140625,5.125898660632967,-0.3823685012698173,4.013411465740203
1758273938863201000,8.000200927734374,5.489274876663089,0.5130617505848407,3.53411169950366
1758273938873159000,8.010158935546874,5.5946384544104335,1.6165280191540716,3.2292940554261205
1758273938883117000,8.020116943359374,6.087706633758544,2.816506450495124,3.3460619475021955
1758273938893074000,8.030073974609374,5.506587245991826,3.6210756972074507,1.3414026257678866
1758273938903032000,8.040031982421874,4.858622519442439,3.8656232892394065,0.6543897911608219
1758273938912990200,8.049990234375,3.9765257964134215,3.8705788658201694,0.672177961307764
1758273938922946800,8.05994677734375,2.8523259518951174,3.5515637695640323,-0.3870896845728159
1758273938932905000,8.069905029296875,2.288615379568934,3.0543150896608826,-0.7406304430261254
1758273938942863000,8.079863037109375,2.335983864465356,2.6300731937795874,-0.7280167529076338
1758273938952820000,8.089820068359375,2.775693963113427,2.3668390214562414,-0.7069646125286817
1758273938962778000,8.099778076171875,2.8876310740321873,2.181898049125075,-0.6655629270821809
1758273938972736000,8.109736083984375,2.58333131634891,1.9770809944570062,-0.12070201665461062
1758273938982692900,8.11969287109375,2.0441665717363358,1.8043144440442322,0.07510346404016018
1758273938992651000,8.129651123046875,1.4875801522016525,2.0419453885555265,0.09302227482944726
1758273939002609000,8.13960888671875,0.9651222122400999,2.6595985634714365,-0.10262392365038395
1758273939012566000,8.14956591796875,0.457771240517497,3.4542011274427176,-0.6584557254254818
1758273939022524200,8.159524169921875,0.06780921537876129,3.4464509517073627,-0.8703913799270987
1758273939032482000,8.16948193359375,0.02706979323327541,3.5219846238583323,-0.9366904830038547
1758273939042439000,8.17943896484375,-0.9251356542885303,3.611126550123095,-0.9394342287540435
1758273939052397000,8.18939697265625,-2.028871387448907,3.7370734816938636,-1.0441504485085606
1758273939062355000,8.19935498046875,-2.644005273020267,3.8139024543523785,-1.2021508069440723
1758273939072312000,8.20931201171875,-2.1363053417295217,3.6640824797630307,-1.2234048996359108
1758273939082270200,8.219270263671875,-0.9387158513516187,3.1743571811020375,-1.377889066644013
1758273939092227800,8.229227783203125,-0.6154384214758872,2.5586750139981507,-1.8607766282394527
1758273939102185000,8.23918505859375,-1.805223375582695,1.3520067296296356,-1.9552602077931165
1758273939112143000,8.24914306640625,-3.785263219845295,-2.4818220759421585,-2.6695406962931156
1758273939122101000,8.25910107421875,-0.692497111237049,-6.745626937133073,-1.465010592997074
1758273939132058000,8.26905810546875,-0.12581658318936825,-8.163606314364076,-0.5189496395796537
1758273939142016000,8.27901611328125,-0.9406097022742033,-7.9190569687664505,-2.605128137615323
1758273939151974000,8.288973876953126,1.9752590397268532,-5.820355089244246,-1.2312179114744066
1758273939161932000,8.29893212890625,1.4202572590351104,-2.691839037340879,0.704584147132933
1758273939171889200,8.30888916015625,0.6124930156737566,-0.46718204294145105,-0.4025049881085753
1758273939181847000,8.318846923828126,0.47603111982941626,0.8493675888597965,-2.1936193204484877
1758273939191805200,8.32880517578125,-1.5344213983535766,0.9486731817424296,-2.7690625622749327
1758273939201762000,8.338761962890626,-0.9576216273516416,0.0897024827569723,-1.9957216897800563
1758273939211720000,8.348719970703126,2.9442005179941653,-0.8079220642715692,-0.7184813011907041
1758273939221678000,8.358677978515624,4.567253555002808,-0.9099281482845545,0.14627747967690227
1758273939231635200,8.36863525390625,3.9668198104351755,-0.7412608498841524,0.11239932160302996
1758273939241593000,8.378593017578124,2.8586028402075168,-0.8403419863611459,-0.7130617603600025
1758273939251551200,8.38855126953125,1.2557687076240778,-1.175106440412998,-1.4859385224744677
1758273939261508000,8.398508056640624,0.43521717114299535,-1.143311956745386,-1.7921046585515141
1758273939271466000,8.408466064453124,1.0975625974833965,-0.5932610764592886,-1.7084855873614548
1758273939281424100,8.418424072265625,1.9675971267968415,0.01295475864112377,-1.1150031232364475
1758273939291381200,8.42838134765625,2.422133623176813,0.37669922346174717,-0.4313965899415314
1758273939301339100,8.438339111328125,2.7124828891798853,0.1722515866279602,-0.15537790097743273
1758273939311297000,8.448297119140625,2.7752976572722194,-0.37162791154682634,0.3914129545994103
1758273939321254000,8.45825390625,2.4312688235297797,-1.0868366208076476,0.7922128923557699
1758273939331212000,8.4682119140625,2.0902061461165546,-1.6892881349384783,1.1364409019321202
1758273939341170200,8.478170166015625,1.5463339544653891,-2.188299732860923,0.5614109170816839
1758273939351127000,8.488126953125,1.1539794812321662,-1.8839707490831612,0.6200389010086655
1758273939361085000,8.4980849609375,0.2660214649543166,-1.1562819129556416,1.5668521340981125
1758273939371043000,8.50804296875,0.29026217224150896,-0.8694389015078544,2.6361016602888703
1758273939381000000,8.518,0.6155860132530331,-1.069317915251851,2.9635540377616882
1758273939390958000,8.5279580078125,0.9196256586953997,-1.0049597171097993,2.958408491566777
1758273939400916000,8.537916015625,1.1307999734357,-0.5348737694203853,2.494098789191246
1758273939410872800,8.547872802734375,1.316308224260807,0.17591361626684665,1.7999673547506332
1758273939420831000,8.5578310546875,1.3640230383768677,0.5537801299422979,0.9643796502444892
1758273939430789000,8.5677890625,0.44930911712050436,1.05305710080266,0.5760922072544694
1758273939440746000,8.57774609375,-0.9727484693348407,1.71037826924026,0.3754800203977153
1758273939450704000,8.587703857421875,-1.6784722880221903,2.025958130350709,0.22680943503919987
1758273939460662000,8.597662109375,-1.418944276740402,1.8265917423039673,-0.13398341343421488
1758273939470619000,8.607618896484375,-0.7298702718198299,1.5320429787844418,-0.06979881829340011
1758273939480577000,8.617576904296875,0.09779854932054877,1.4346306523025034,0.713368634352088
1758273939490535000,8.627534912109375,0.36967151678204535,1.338656249669194,1.421564688371867
1758273939500491800,8.63749169921875,0.10527122328877449,1.3126421029686928,1.6860770639374851
1758273939510450000,8.647449951171875,-0.7304759095627814,1.3603548712581395,1.158992852414772
1758273939520407800,8.65740771484375,-0.9944284592885524,1.2275099968671799,0.5755315046317875
1758273939530366000,8.667365966796876,-0.43689971740245814,1.300477617922425,-0.22677008940950036
1758273939540323000,8.677322998046876,-0.914371026102826,1.3825520900189876,-1.049261800172925
1758273939550281000,8.687281005859376,-1.7608184166669845,1.2306903804689644,-0.8756997885335236
1758273939560239000,8.697239013671876,-2.154223860257864,1.23560387147367,-0.4313096423104405
1758273939570196000,8.707196044921876,-2.275292372137308,0.901295929017663,0.13895906468862668
1758273939580153900,8.71715380859375,-1.9647475825846195,0.5942746374160051,0.8943076045002788
1758273939590112000,8.727112060546874,-1.5776713420152664,0.19101824641823767,1.2344687299638986
1758273939600069000,8.737069091796876,-1.5466238773226737,0.08983166209459305,1.4009757815904915
1758273939610027000,8.747027099609374,-1.34233815305233,0.18060908060669897,1.6175985709950327
1758273939619985000,8.75698486328125,-0.9765244807422161,0.24920506244897841,1.9309302147872744
1758273939629942000,8.76694189453125,-1.2046715575933455,0.004544657692313194,2.3488936149209736
1758273939639900000,8.77689990234375,-1.727939060372114,-0.437813909637928,2.250201770022511
1758273939649858000,8.786858154296874,-2.219600880053639,-0.7010901675373316,1.8396259959220884
1758273939659815200,8.796815185546874,-2.610985631471872,-0.8341215044111013,1.753043252620846
1758273939669772800,8.806772705078124,-2.476290745300054,-1.1008896960794925,1.8106481771104037
1758273939679731000,8.81673095703125,-1.9142203413963317,-1.5723919403076172,1.8231652749866245
1758273939689688000,8.82668798828125,-1.721409950864315,-2.0490590199530123,1.3711993597470222
1758273939699646000,8.83664599609375,-2.1082558898091315,-2.3279139552563426,0.3414818161407485
1758273939709604000,8.84660400390625,-2.510311088323593,-2.4391245054662227,-0.8203795409150421
1758273939719561000,8.85656103515625,-2.7882319576472043,-2.5756770022034643,-1.9711606644973159
1758273939729518800,8.866518798828125,-3.2334394846677776,-2.8666812249839304,-3.124205787488818
1758273939739477000,8.87647705078125,-3.9613837568610903,-3.376750223493576,-3.651086804589629
1758273939749434000,8.88643408203125,-4.6383396000951524,-3.9715497615665196,-3.194829183505475
1758273939759392000,8.89639208984375,-4.619413365828991,-4.916381465449929,-2.0434861882567406
1758273939769350100,8.90635009765625,-3.65820920381546,-5.7010050717204805,-0.8073349850986152
1758273939779307000,8.91630712890625,-2.3437948304772376,-5.999105974763632,0.8197568789720535
1758273939789265000,8.926264892578125,-1.2934417279362678,-5.784255017337203,2.2840853349238635
1758273939799223000,8.93622314453125,-1.5700637896209955,-4.897178167808056,2.508921095269918
1758273939809180000,8.946179931640625,-2.6319068389475344,-3.9339141506552693,1.9307910985775292
1758273939819138000,8.956137939453125,-3.15180398851037,-3.0161627613991495,0.8032215584304183
1758273939829096200,8.96609619140625,-3.404764604100585,-2.1115689598798753,-0.20688209743909536
1758273939839052800,8.976052734375,-3.280258518987894,-1.507766031140089,-0.8911959022205322
1758273939849011000,8.986010986328125,-2.7140824333310127,-1.4434867434531449,-1.096290166394785
1758273939858969000,8.995968994140625,-2.1357553066313266,-1.937297265601158,-0.8823595386836677
1758273939868926000,9.005926025390625,-1.9306619192399084,-2.2239836251825094,-0.13032273550219833
1758273939878884000,9.015884033203125,-2.1213257992625234,-2.425470658645034,0.4567660820629447
1758273939888842000,9.025842041015625,-2.1717865510858596,-2.254465272685885,0.6918476343523711
1758273939898799900,9.0357998046875,-1.8834315276399254,-2.589277657532692,0.16704320432990788
1758273939908757000,9.045757080078126,-0.3069900196805596,-2.936796963739395,0.19369155728071927
1758273939918715000,9.05571484375,1.8183049754738807,-2.495342067250609,1.2335291110262274
1758273939928673000,9.065673095703126,3.5511537274584173,-2.7705244515210388,1.809175035817921
1758273939938630000,9.0756298828125,4.201378800155222,-2.79014275970459,1.8582449178047478
1758273939948587800,9.085587890625,3.343549087898433,-2.379447158616781,1.3044454986400902
1758273939958546000,9.0955458984375,3.257031080396473,-2.133408451244235,0.8116371392719447
1758273939968503000,9.1055029296875,3.361882616968453,-2.2707973988056183,0.08891703146770596
1758273939978461000,9.1154609375,3.2741379902809857,-2.0645961963027712,-0.947840822571516
1758273939988419000,9.125419189453124,3.1776147215932604,-1.549476928666234,-2.149672772824764
1758273939998376000,9.1353759765625,2.598508427214622,-1.4087912776470184,-2.766648486870527
1758273940008333800,9.145333740234374,2.3619249459296463,-1.121194817483425,-2.795308471904695
1758273940018292000,9.1552919921875,1.82850780505836,-1.1636544875502586,-2.44130696407184
1758273940028249000,9.1652490234375,2.187404245325923,-2.2571447210282085,-1.609901294490695
1758273940038207000,9.17520703125,3.6151767022967336,-2.5713497866541144,0.5253361257463693
1758273940048164900,9.185164794921874,3.85043565697968,-1.8084446757167576,3.531731818629801
1758273940058122000,9.1951220703125,3.2972043930917976,-2.296409394446015,3.7696830811366437
1758273940068079900,9.205079833984374,2.9109540819525717,-3.102983551239967,4.13424236947149
1758273940078038000,9.2150380859375,3.1312399239093063,-3.017029607361555,4.600683823178708
1758273940087995100,9.2249951171875,4.113443619331718,-2.6936481325894595,5.170489497509599
1758273940097952800,9.234952880859375,4.3493700980126855,-1.7133225059986112,4.461277982836961
1758273940107911000,9.244910888671875,4.400543820410967,-0.6303957521110772,2.8078824145346877
1758273940117868000,9.254867919921875,5.030680044803023,0.8585895907133817,2.026819715616107
1758273940127826000,9.264825927734375,5.492448830524086,2.159762789684534,1.2461916087225078
1758273940137784000,9.2747841796875,5.68560058183968,2.7448125026375054,0.8747332085236906
1758273940147741200,9.2847412109375,5.130581850013137,3.96531992726624,0.5406991145730018
1758273940157698800,9.29469873046875,4.725719192862511,4.540485959586501,0.7747294042438269
1758273940167657000,9.304656982421875,4.060101320722699,4.102474481549859,0.5588365365490316
1758273940177614000,9.314614013671875,3.7809126234203574,3.3670454065591096,0.14129092343598604
1758273940187572000,9.324572021484375,3.9968724188715217,2.6681922042936086,-0.10210428369045257
1758273940197530000,9.334530029296875,4.173838174539804,1.9581272876620293,0.1403758544176817
1758273940207487000,9.344487060546875,4.354156747767329,1.4336451483964918,0.41963907826095814
1758273940217444900,9.35444482421875,4.409168440893292,1.4894582210332155,0.6161334180027246
1758273940227403000,9.364403076171875,4.355327545112371,2.108081117764115,0.8884259260505437
1758273940237360000,9.374360107421875,4.207220804181695,2.548338913422823,1.0299404291093348
1758273940247318000,9.384318115234375,4.0108044981122015,3.1369968800008294,1.1257347990006208
1758273940257276200,9.394276123046875,3.620034079200029,3.4514836851775645,1.11014501568079
1758273940267232800,9.404232666015625,3.0683067901343106,3.4209447545289993,1.2386202966853976
1758273940277191000,9.41419091796875,2.4363977108508346,3.308792539554834,1.367116328217089
1758273940287149000,9.424149169921876,1.8336486750781535,2.972196193900704,1.0476213394895195
1758273940297107000,9.43410693359375,0.9024813394099473,2.5797236472457645,0.32296909457892176
1758273940307064000,9.44406396484375,-0.3590945931881666,2.623451729813218,-0.5932903025537729
1758273940317022000,9.45402197265625,-1.7105115402311086,2.811332262727618,-1.345616444070637
1758273940326979800,9.463979736328126,-2.888877274700999,2.941955953937769,-1.4965297668546438
1758273940336937000,9.47393701171875,-3.9624838270574805,2.91179579347372,-1.3701634408280252
1758273940346895000,9.48389501953125,-4.88139256965518,2.861861257481575,-1.0065016858547926
1758273940356853000,9.49385302734375,-4.346330584186315,2.8101532820761204,-0.16131488981097936
1758273940366809900,9.503809814453126,-1.677231786441803,2.821769485589862,0.8648898599013686
1758273940376768300,9.513768310546874,-1.0021651179552078,2.6526135268896818,0.4072758557721972
1758273940386726400,9.523726318359374,-6.992961529535055,-0.3617956688404083,-2.9664059200614687
1758273940396683500,9.53368359375,-12.894898923444748,-9.929750309967995,-8.095031959831713
1758273940406641200,9.54364111328125,2.8765859484046694,-16.78344949928522,-6.825434048819542
1758273940416599300,9.553599365234374,1.6382558668375014,-13.038718196314573,-1.365917473821342
1758273940426556400,9.563556396484374,8.629078046256303,-4.8672962397634985,1.6434829538360236
1758273940436514300,9.573514404296875,9.081749333286284,3.0816116773873565,2.8405367299020288
1758273940446472400,9.583472412109375,-6.504405274653434,3.7531998561084268,-7.07536684102118
1758273940456429300,9.59342919921875,-5.028361830988526,2.528849784576893,-9.037728989773989
1758273940466387200,9.60338720703125,2.5355232709914444,2.8921874221622943,-2.634089443683624
1758273940476345300,9.613345458984375,4.558685633143782,1.8309037602841853,1.8731544637754558
1758273940486302500,9.623302490234375,6.7782157860487695,-0.7458207051455974,3.1788197134688496
1758273940496260400,9.63326025390625,6.674625063192844,-3.121361503973603,1.5645307054132223
1758273940506218500,9.643218505859375,3.0983050380349155,-4.918937579673528,-0.18591858519166707
1758273940516175400,9.65317529296875,1.0012924267739056,-5.5559249851346015,0.006982406233251095
1758273940526133200,9.66313330078125,0.6916992388576269,-5.1230064463227984,1.1057087867990136
1758273940536091400,9.67309130859375,0.8537707922548056,-4.300252139100432,1.603864060153067
1758273940546048500,9.683048583984375,0.772660781276226,-3.1626345946043726,1.5521949554532766
1758273940556006400,9.69300634765625,0.5032967278957367,-1.7301631661623715,0.8233708316855132
1758273940565964300,9.70296435546875,0.3054553574591875,-0.240662275031209,-0.009280454042553902
1758273940575921400,9.71292138671875,0.20586802502572535,0.9616191725552081,-0.3423331357404589
1758273940585879300,9.72287939453125,0.5251806429237127,1.6619687508583068,-0.1437865396440029
1758273940595837400,9.73283740234375,1.244227322912216,1.9559850149363278,0.192533911678195
1758273940605794300,9.742794189453125,1.9278981536149977,1.8237474587887526,0.523706770978868
1758273940615752200,9.752752197265625,2.3794354681789875,1.4474264209896326,1.1077487681940197
1758273940625710300,9.76271044921875,2.379767768873274,1.0148498274832964,1.6984062380261717
1758273940635667200,9.772667236328125,2.1170552823364734,0.6898959888279438,2.0807395218521356
1758273940645625300,9.782625244140625,1.5966975295245647,0.24108663792312143,2.288657903536409
1758273940655583500,9.79258349609375,0.9387956385895609,-0.1542389600753784,2.2727299743033944
1758273940665540000,9.8025400390625,0.18163900817632675,-0.5622551128208637,1.798870061033219
1758273940675498200,9.812498291015626,0.06747866825014352,-0.516677602994442,1.7807818850263952
1758273940685456400,9.822456298828126,-0.3164557671621442,-0.21656360656321047,1.7896753855779766
1758273940695413200,9.832413330078126,-0.36568536975532767,-0.016692776125669478,1.2108328567020594
1758273940705371400,9.842371337890626,-0.08784633349627256,0.17399930707812308,0.7172701718352734
1758273940715329500,9.85232958984375,0.09200403769761323,0.25013679034113884,0.8016475140467285
1758273940725287400,9.862287353515624,0.05933686284869909,0.13363865511715411,0.9659212536633014
1758273940735244300,9.872244384765626,-0.3104761082306504,0.04662205044329166,1.227914193753898
1758273940745202200,9.8822021484375,-0.6501730502486228,-0.25849194623231886,1.1829299736455081
1758273940755160300,9.892160400390624,-0.5381821633160114,-0.39646775377094745,0.9777470082744956
1758273940765117400,9.902117431640624,0.2538867905244231,0.021317513316869735,1.230836072549969
1758273940775075300,9.912075439453124,0.8770093367621302,0.6111205582767725,1.5691269471623002
1758273940785033200,9.922033203125,1.5394460946477948,0.8613432733356953,1.4175592521227895
1758273940794990300,9.931990234375,2.0332520867511628,0.6671347064435481,0.8174934640847146
1758273940804948200,9.9419482421875,1.6702466037295758,0.6904629750609398,-0.08483180798068642
1758273940814906400,9.95190625,0.6171582310058176,0.6506295618444681,-1.1858273025222121
1758273940824863500,9.961863525390624,-0.24933321887329218,1.0559165818870067,-1.7379384763389825
1758273940834821000,9.971821044921874,-0.42663770497664805,1.1597107183605433,-1.8503443738132714
1758273940844779300,9.981779296875,-0.27326149921044707,1.3627420586556196,-1.5134920075714586
1758273940854736400,9.991736328125,0.1432430804170668,1.4062310717701911,-1.0210828766539692
1758273940864694300,10.0016943359375,0.301629734756425,0.4459311651200056,-0.8071042450826614
1758273940874652400,10.01165234375,0.1377120420359075,-0.21870938642024992,-0.35163331739678977
1758273940884609300,10.021609375,-0.20728563673868775,-0.090456515994668,0.3658894409600645
1758273940894567200,10.031567138671875,-0.5972726501882076,0.18005553837716579,0.8448422934550791
1758273940904525300,10.041525390625,-0.9213782745163888,-0.020942250263690947,0.813319466335699
1758273940914482400,10.051482421875,-1.2909199543736873,-0.1577472604572773,0.7948946057204157
1758273940924440300,10.0614404296875,-1.5156184982061385,-0.48590837072134013,0.9516703907970339
1758273940934398500,10.0713984375,-1.34873516061306,-0.5696738646447658,1.1342525250423698
1758273940944355300,10.081355224609375,-0.8106652254998683,-0.9805869078755378,1.2167814629081637
1758273940954313200,10.091313232421875,-0.3874691854096949,-1.0345102212429047,1.056380765332654
1758273940964271400,10.101271240234375,0.01552373234629631,0.577653757482767,1.3743652764320373
1758273940974228500,10.111228515625,-0.011006547182798384,0.9881406842559576,1.249000236402452
1758273940984186400,10.121186279296875,-0.14227379699349402,0.8988234014242887,0.6519926668912172
1758273940994144500,10.13114453125,-0.2105797829132527,0.9886661694347858,0.01985273799393326
1758273941004101400,10.141101318359375,0.02225282140560448,0.7868126407474278,-0.5304738539610058
1758273941014059300,10.151059326171875,-0.4293137192528695,0.17528934688866138,-1.1037675896033643
1758273941024017400,10.161017333984375,-2.2654314878582955,-1.9782669893711804,-1.1249805465672165
1758273941033974500,10.170974609375,-3.9443326688170433,-3.3019068716943263,-0.7185555354706943
1758273941043932400,10.180932373046875,-4.1783214574337,-1.7562772661060093,0.06430554550620726
1758273941053890300,10.190890380859376,-2.820007152092457,-0.2912812861561775,0.43582226089667525
1758273941063848200,10.20084814453125,0.2572843240082264,1.0914712948709726,0.26188279424700883
1758273941073805300,10.210805419921876,5.146234761697054,2.237430551254749,0.28478344856947657
1758273941083763500,10.220763427734376,8.5115154966712,1.984953919789195,-0.7999098765991628
1758273941093721300,10.230721435546876,6.8357415078222745,1.834936376801133,-1.0125281065374612
1758273941103678200,10.24067822265625,3.4450878466606136,2.1553046412318944,-0.22620874746600164
1758273941113636400,10.25063623046875,1.4689689752340316,1.8153478792339561,-0.3030742710089311
1758273941123594200,10.26059423828125,0.25903788967728614,1.4382792379379272,-0.802991329871118
1758273941133551400,10.27055126953125,0.2626210088610649,0.6893395239889621,-1.2748591925412416
1758273941143509500,10.280509521484374,0.8838800993144512,-0.22229075203835963,-1.4245295295268297
1758273941153467400,10.29046728515625,1.8009066814273595,-0.5692454100996256,-1.1663435805037616
1758273941163424300,10.30042431640625,2.254970884120464,-1.0459095671355725,-0.7107345595214516
1758273941173382400,10.31038232421875,2.184121570393443,-1.4523171156406403,-0.5060085441377014
1758273941183340300,10.32034033203125,2.7997850327968594,-3.0068448979556557,-1.81049649368003
1758273941193297400,10.33029736328125,-1.9272692080616949,0.9922790992349385,-2.066035581456125
1758273941203255300,10.34025537109375,1.3768266981095074,1.5672195061057805,-2.424500936830044
1758273941213213400,10.35021337890625,7.561769132739305,-0.5805079778701067,-2.4650170716136692
1758273941223170300,10.36017041015625,7.594242830842733,-2.37362999677062,-1.0135339956443756
1758273941233128200,10.370128173828125,-9.922270767867564,-2.895940052694082,3.229149678519368
1758273941243086300,10.38008642578125,-10.875256552112102,-6.163498664584756,2.3207405564956365
1758273941253043500,10.39004345703125,-5.511430009847879,-6.914520445504785,0.45029882227759804
1758273941263001300,10.40000146484375,-3.0908173126280305,-7.564280823299288,-0.6143542795009911
1758273941272959200,10.409959228515625,-1.6276555623680353,-5.241918656951189,-0.4292613314785063
1758273941282916400,10.419916259765625,-1.6948025144457817,-3.869270121309161,0.11689611243247054
1758273941292874200,10.429874267578125,-0.946992096787691,-4.254468293046951,0.2977502812408842
1758273941302832400,10.439832275390625,0.6502350095689297,-3.459712584340572,0.3239123667784035
1758273941312789500,10.44978955078125,3.3148750743389126,-2.122695918571949,-0.039898660472407935
1758273941322747100,10.4597470703125,5.9270011080175635,-2.4433821629106998,-1.278660192259401
1758273941332705300,10.469705322265625,5.519644880485535,-3.6794618352025745,-2.8385154532074925
1758273941342662400,10.479662353515625,2.847686601656675,-4.041447473657131,-3.640737552271783
1758273941352620300,10.489620361328125,1.848875470304489,-5.756611223608255,-3.852009482167661
1758273941362578400,10.499578369140625,1.9553367801606654,-5.575415867546201,-2.5062735033705827
1758273941372536000,10.5095361328125,0.39712884802818293,-3.843679168456793,-1.2675211047381163
1758273941382494000,10.519493896484375,-0.30491933262003584,-3.1515339393973347,-0.62031494147107
1758273941392452000,10.5294521484375,-0.025121581774950025,-2.8489766414672135,-0.8922846473053098
1758273941402409000,10.539408935546875,-0.9975251831948757,-3.4051562337666748,-1.0605948028311132
1758273941412366800,10.549366943359376,-0.9646341364622115,-4.7638598306864495,-1.1805229125037788
1758273941422325000,10.559324951171876,-2.031377232789993,-4.826591888931393,0.10529577320814132
1758273941432283000,10.569282958984376,0.63205053358078,-2.842916318514943,1.895498982052505
1758273941442240000,10.579239990234376,1.0254460402995347,-1.0446300487190485,3.025673224805295
1758273941452198100,10.5891982421875,-1.09209147259593,-1.180621404442191,3.121850164273381
1758273941462155800,10.59915576171875,-1.9440794730871915,-1.0406512082159518,1.6471815160930157
1758273941472113000,10.60911279296875,-2.7735090202897785,-0.20752631362676618,0.054391807661950585
1758273941482071000,10.619071044921874,0.7552290233515202,2.0256623622745273,-2.6070178968846798
1758273941492029000,10.62902880859375,-0.709969493433088,0.5543950469702482,-3.895108326920867
1758273941501986000,10.638986083984374,-1.7327572743088007,0.17515958302915094,-1.3960431474938988
1758273941511944000,10.64894384765625,-1.83517515399307,2.3525112208962438,-1.5625480071634053
1758273941521901800,10.65890185546875,-4.249232145959138,2.6014479877978562,0.46121173636019225
1758273941531859000,10.66885888671875,-4.850567515541613,2.0624603533178565,3.9161502381667495
1758273941541816800,10.67881689453125,-11.497526865434645,2.604489839711785,9.581148469221592
1758273941551775000,10.68877490234375,-10.212938306039572,1.7130150474846362,12.392356228786706
1758273941561731800,10.69873193359375,-2.7516718670129774,-1.1738023720771074,11.182737277919053
1758273941571689700,10.708689697265624,1.3013731054574251,-2.0940414864957333,10.408922650432586
1758273941581648000,10.71864794921875,2.689890241360664,-1.120721354752779,10.063902759826183
1758273941591605000,10.72860498046875,2.9151801752150055,-0.30899463750123973,9.222655349057913
1758273941601563000,10.73856298828125,2.3815356553286313,0.27451836740374563,7.830257572329044
1758273941611521000,10.74852099609375,1.403064132171869,0.42519700464904303,6.245059341940284
1758273941621478000,10.758477783203125,1.1990607319742441,0.4191173924744129,4.739249121043086
1758273941631435800,10.768435791015625,0.977852514475584,0.17588614373803138,3.2472526137039064
1758273941641394000,10.778393798828125,0.7484002002447843,0.01868950290083885,2.0511808344125746
1758273941651351000,10.78835107421875,0.7474415843456983,0.12245558232367038,1.1959615969151258
1758273941661309000,10.798308837890625,0.7845505410343409,-0.02098871975392103,0.49721565441638227
1758273941671267000,10.80826708984375,0.37461598744690416,0.13305091835707425,-0.04540624491274357
1758273941681224000,10.818223876953125,-0.12865326792001724,0.3877753287494182,-0.7566188702747225
1758273941691181800,10.828181884765625,-0.7217787353008985,0.2779685078576207,-1.9233982118472457
1758273941701140000,10.838139892578125,-1.3725859917998313,0.40666839139834043,-3.098569241929054
1758273941711097000,10.84809716796875,-2.039841109752655,0.17328268324136734,-4.532187794579565
1758273941721055000,10.858054931640625,-2.8853982004135847,-0.15603351534195242,-5.7263154540658
1758273941731012900,10.868012939453125,-3.803644095188379,0.07862930007874966,-5.867887824791669
1758273941740970000,10.877969970703125,-4.692140748387575,1.0517712987758219,-5.785156350091099
1758273941750928000,10.887927978515625,-5.315426960754394,1.3830917498536408,-5.133210444951057
1758273941760886000,10.897885986328125,-6.231480313920974,1.0493095117721707,-4.646221293255686
1758273941770844000,10.907843994140626,-6.297711320197582,0.8641454712748528,-4.265533000157773
1758273941780800800,10.91780078125,-5.906215509620308,0.3929563846491277,-3.8190760575979947
1758273941790759000,10.927759033203126,-5.039970435717701,-0.0023414485596120354,-3.4342011264652013
1758273941800716800,10.937716796875,-3.4981682794630524,-0.4979522981278598,-3.1620059413120147
1758273941810674000,10.947673828125,-1.8875714039236307,-1.6856198216892777,-3.046062225100398
1758273941820632000,10.957632080078126,-0.5026140063285828,-3.1957389918267727,-3.113271136498451
1758273941830590000,10.96758984375,0.611488807067275,-4.263037383949756,-3.193492089682817
1758273941840546800,10.977546875,1.1309259379029273,-4.690910914331674,-2.960933626130223
1758273941850505000,10.9875048828125,0.999354152187705,-4.852768824978172,-2.4430522003039714
1758273941860462800,10.997462890625,0.48739013371169565,-4.5532866967096925,-1.9274964409463107
1758273941870420000,11.007419921875,-0.40055531534552574,-4.005376920105516,-1.5743120947152376
1758273941880378000,11.017378173828124,-1.4830173743307589,-3.39643750526011,-1.3101917872071265
1758273941890336000,11.0273359375,-2.721758374786377,-2.9268846415340897,-1.2476064439564942
1758273941900292900,11.03729296875,-4.186059358209372,-2.6293641687273976,-1.441524503469467
1758273941910251000,11.0472509765625,-5.181436423459648,-2.3403175097554922,-1.721396068469435
1758273941920209000,11.057208984375,-5.346441692221164,-2.5207111940458415,-1.9987245248578487
1758273941930166000,11.067166015625,-4.40063091417253,-2.786908600088954,-2.1132386466577646
1758273941940124200,11.077124267578125,-3.040022944936156,-2.7343025067999958,-1.8762964150629937
1758273941950081800,11.087081787109375,-1.8934429263055323,-1.901356768169999,1.3182070436194537
1758273941960039000,11.097038818359374,-0.9535761513531208,3.2137580481201407,18.095908062380552
1758273941969997000,11.1069970703125,5.013257785359024,2.660091315424442,30.75225074316263
1758273941979955000,11.116954833984375,5.82448824352622,-7.209560207411647,14.566003751438855
1758273941989912000,11.126912109375,2.8262615363121033,-10.687267298126221,-8.1874711740762
1758273941999869700,11.13686962890625,2.7100708596020935,-6.1095911333084105,-14.41974234611392
1758273942009827800,11.146827880859375,-4.076340507861971,1.0232862319171427,7.806993601119518
1758273942019785000,11.156784912109375,-2.7996880021631716,-2.5988451118230818,1.715802486246079
1758273942029742800,11.166742919921875,0.5501268681317567,-4.344166684150696,0.23742595999110488
1758273942039701000,11.176700927734375,1.0545324340522289,-3.361462637990713,3.0499177314847707
1758273942049657900,11.186657958984375,-0.2241822648733854,-3.3585601945474743,0.8265868711225688
1758273942059615700,11.19661572265625,-0.5003635970532894,-2.6957015579879284,-0.5003593592695892
1758273942069574000,11.206573974609375,0.25688860268890856,-1.5209823633268476,-1.2686704209037125
1758273942079531000,11.216531005859375,0.8891922342479228,-0.6084644908100366,-1.634069521063566
1758273942089489000,11.226489013671875,0.9046376406610012,0.18333529070019722,-1.9443143047563731
1758273942099447000,11.236447021484375,0.5558130970746279,0.7381517779529094,-1.8540856061682105
1758273942109405000,11.246405029296875,0.2934557075858116,0.6808914291173219,-1.453318986159563
1758273942119361800,11.25636181640625,-0.2537637486666441,0.3513277585789561,-1.169315947378054
1758273942129320000,11.26631982421875,-0.5587292767822742,0.35074966643005606,-0.7062337409708649
1758273942139277800,11.27627783203125,-0.32716450044214723,0.10721037465780973,-0.10870404728166759
1758273942149235000,11.28623486328125,-0.06139876381456852,-0.23351707945168018,0.6792597362622619
1758273942159193000,11.296193115234376,-0.2273071188956499,-0.31787440178841353,1.042203186898306
1758273942169150700,11.306150634765626,-0.2657973008096218,-0.45058191353529686,1.0675329315312205
1758273942179107800,11.31610791015625,0.1520049174129963,-0.3499742981433868,0.9507930965058505
1758273942189066000,11.32606591796875,0.5176327117621898,-0.300672507096827,0.5590013717219233
1758273942199023900,11.33602392578125,0.66000704652071,-0.3867442321360111,0.21215718829780816
1758273942208981000,11.34598095703125,0.6990203755259513,0.060652329361438745,-0.21893771528340875
1758273942218939000,11.35593896484375,0.2803758612602949,0.1531128786548972,-0.48165853125713765
1758273942228896800,11.365896728515626,-0.3427764955937862,-0.07195815175175667,-0.5011788589589298
1758273942238854000,11.37585400390625,-0.759130268573761,-0.17862872044444084,-0.3405750400267541
1758273942248812000,11.38581201171875,-0.7917915982037782,0.077886372756958,0.06382832904905081
1758273942258770000,11.39577001953125,-0.7910387340098619,0.33996816017478704,0.33827943990286435
1758273942268726800,11.405726806640626,-0.8363064472347498,0.47779988306760784,0.3472114458339289
1758273942278685000,11.415684814453124,-0.7016969012588262,0.6537269433379173,0.2692893076438457
1758273942288642800,11.425642822265624,-0.638195612207055,0.5587661016613245,0.16953918586410582
1758273942298600000,11.435599853515624,-0.4053507329285145,0.15101210698336362,0.01347889211308211
1758273942308558000,11.44555810546875,-0.0792243433624506,-0.005813654714822769,-0.11638130391128361
1758273942318516000,11.455515869140624,0.144248896458745,-0.11114216114878654,-0.05462017305772751
1758273942328472800,11.465472900390624,-0.12414017440974712,-0.4789321019679308,-0.09977101843729615
1758273942338431000,11.475430908203125,-0.33204058204591275,-0.6755941994920373,-0.12128230076059698
1758273942348388900,11.485388916015625,-0.0592424625635147,-0.67202686239928,0.12976031584646552
1758273942358346000,11.495345947265625,-0.07771043166816234,-0.37879210408777,0.46554234944302586
1758273942368304000,11.50530419921875,-0.603389087241888,0.00874853912293911,0.3834160010287538
1758273942378260700,11.5152607421875,-0.8290344104051589,-0.037277006731927395,0.23288798776790498
1758273942388219000,11.525218994140625,-0.543492544683814,-0.18760200823396445,0.13288206459619104
1758273942398176000,11.535176025390625,-0.20292671087682246,-0.2221487132191658,0.0011302461389452218
1758273942408134000,11.5451337890625,0.40600072126984593,-0.36143092718124387,0.06227635036669671
1758273942418092000,11.555092041015625,0.5734130511730909,-0.34711101766675706,0.07481949599962681
1758273942428049000,11.565048828125,0.45868075657784935,-0.4203203385233879,0.05176416257210076
1758273942438006800,11.5750068359375,0.1744604948490858,-0.681418960122764,0.14282094601485879
1758273942447965000,11.58496484375,0.06840893483757972,-1.0478978183433414,0.22695165652148425
1758273942457922000,11.594922119140625,1.2537813331991434,-0.2908075311645865,0.6806348240077496
1758273942467880000,11.6048798828125,-0.9561796118497848,-0.3907704189121723,0.3439252637701109
1758273942477837800,11.614837890625,-1.5149860455214976,-0.6469733774244785,0.11559994427524506
1758273942487795000,11.624794921875,-0.8410457507163286,0.11224310812801122,0.36500213673152027
1758273942497752800,11.6347529296875,-0.42453941752314567,1.2103104402631522,0.4716580193117261
1758273942507711000,11.6447109375,-0.3406991047978401,0.9337836556464433,0.28390058305403215
1758273942517668000,11.654668212890625,-0.34799101537168026,-0.03604951076358556,-0.19733689151313155
