time,seconds_elapsed,z,y,x
1757491477788931800,0.041931884765625,-1.0548295974731445,-0.3983428478240967,-0.7072275876998901
1757491477798973400,0.051973388671875,-1.9870820045471191,-0.0550999641418457,-0.6470687389373779
1757491477819055400,0.072055419921875,-2.3924551010131836,0.43648600578308105,-1.1656334400177002
1757491477829096000,0.082095947265625,-2.0256285667419434,0.47094058990478516,-1.7966210842132568
1757491477839137000,0.092136962890625,-1.8162622451782227,0.5096416473388672,-2.099778652191162
1757491477849177000,0.102177001953125,-1.6189675331115723,0.31818509101867676,-1.7019612789154053
1757491477859239700,0.11223974609375,-0.6767864227294922,-0.16362667083740234,-1.1713213920593262
1757491477869280000,0.122280029296875,0.28600406646728516,-0.4074523448944092,-1.3060362339019775
1757491477879302100,0.13230224609375,0.8718023300170898,-0.2289891242980957,-1.0372666120529175
1757491477889347300,0.142347412109375,0.9233121871948242,-0.1537783145904541,-0.24257469177246094
1757491477899409200,0.1524091796875,0.8941173553466797,-0.0027043819427490234,-0.22595137357711792
1757491477909422800,0.1624228515625,1.1199274063110352,0.3165614604949951,-0.5545033812522888
1757491477919462000,0.1724619140625,1.491806983947754,0.3099048137664795,-0.8819926977157593
1757491477929502700,0.182502685546875,1.1677255630493164,0.14262056350708008,-1.03702974319458
1757491477939536000,0.192535888671875,1.0038528442382812,0.13187599182128906,-1.2575831413269043
1757491477949609700,0.202609619140625,0.5821027755737305,0.27704954147338867,-1.5148154497146606
1757491477959649800,0.21264990234375,0.4782447814941406,0.32602620124816895,-1.527780532836914
1757491477969665300,0.222665283203125,0.4975728988647461,0.10201644897460938,-1.0896650552749634
1757491477979731700,0.232731689453125,0.16340923309326172,0.0642995834350586,-0.4174942672252655
1757491477989768400,0.2427685546875,-0.012973785400390625,0.0881490707397461,0.09879708290100098
1757491477999812900,0.252812744140625,-0.17720413208007812,0.13687658309936523,0.20701971650123596
1757491478009851100,0.26285107421875,-0.2783498764038086,0.1500837802886963,-0.01995602250099182
1757491478019869700,0.27286962890625,-0.40767765045166016,0.1440417766571045,-0.4068096876144409
1757491478029934800,0.282934814453125,-0.5196857452392578,0.16553688049316406,-0.4987953305244446
1757491478039975700,0.2929755859375,-0.5379419326782227,0.32820820808410645,-0.7247639298439026
1757491478050012700,0.3030126953125,-0.0961160659790039,0.10392904281616211,-0.2073039710521698
1757491478060057000,0.31305712890625,0.09819698333740234,0.11918759346008301,-0.3523848056793213
1757491478070107000,0.32310693359375,-0.033588409423828125,0.27431559562683105,-0.7224489450454712
1757491478080138800,0.333138671875,0.4278602600097656,0.04638862609863281,-0.6573688387870789
1757491478090153700,0.34315380859375,0.6339473724365234,-0.06856107711791992,-0.5220615863800049
1757491478100215800,0.3532158203125,0.5837793350219727,-0.001314401626586914,-0.5179250240325928
1757491478110260700,0.3632607421875,0.196258544921875,0.008047103881835938,-0.5677152276039124
1757491478130342100,0.383342041015625,-0.28711509704589844,0.1369030475616455,-0.7414329051971436
1757491478140382700,0.3933828125,-0.3437051773071289,0.21033310890197754,-0.784551203250885
1757491478150421200,0.403421142578125,-0.22367000579833984,0.19577503204345703,-0.7193389534950256
1757491478160438500,0.4134384765625,-0.11989021301269531,0.14732646942138672,-0.5149286389350891
1757491478170484200,0.423484130859375,-0.05902099609375,0.1536109447479248,-0.3977011442184448
1757491478180519400,0.43351953125,0.09198379516601562,0.22300338745117188,-0.44616422057151794
1757491478190559000,0.44355908203125,0.10666942596435547,0.28483128547668457,-0.6850723028182983
1757491478200601600,0.4536015625,0.01611042022705078,0.24363350868225098,-0.8268802165985107
1757491478210644200,0.463644287109375,0.04511451721191406,0.12145709991455078,-0.7970311641693115
1757491478220666600,0.47366650390625,0.12599945068359375,0.06533122062683105,-0.6690264940261841
1757491478230749000,0.4837490234375,0.21650123596191406,0.07043933868408203,-0.6034103631973267
1757491478240785700,0.49378564453125,0.18547821044921875,0.0169527530670166,-0.6752303242683411
1757491478250830300,0.503830322265625,0.05154228210449219,0.010403156280517578,-0.7176971435546875
1757491478260871000,0.513870849609375,-0.11655044555664062,0.008731365203857422,-0.677741289138794
1757491478270886100,0.52388623046875,-0.1745433807373047,0.1180727481842041,-0.9356977939605713
1757491478280952000,0.5339521484375,-0.16939163208007812,0.09850358963012695,-0.7967084050178528
1757491478290993400,0.543993408203125,-0.1886606216430664,0.0729677677154541,-0.7543073892593384
1757491478301034000,0.554033935546875,-0.12193107604980469,-0.013142108917236328,-0.7505691051483154
1757491478311056100,0.56405615234375,-0.01415252685546875,-0.0847938060760498,-0.695623517036438
1757491478321115400,0.574115478515625,0.0316314697265625,-0.1458277702331543,-0.6857722997665405
1757491478331155700,0.58415576171875,0.08049583435058594,-0.1936039924621582,-0.7585060000419617
1757491478341182200,0.59418212890625,-0.043338775634765625,-0.2543923854827881,-0.7195807695388794
1757491478351237000,0.604237060546875,-0.15756797790527344,-0.25081324577331543,-0.8151959776878357
1757491478361278700,0.61427880859375,-0.4280567169189453,-0.10989856719970703,-0.9461562633514404
1757491478371314400,0.624314453125,-0.6263189315795898,-0.16519784927368164,-0.9977422952651978
1757491478381359600,0.634359619140625,-0.7701473236083984,-0.024326086044311523,-0.9903108477592468
1757491478391404500,0.644404541015625,-0.5800657272338867,0.0559842586517334,-0.7835837602615356
1757491478401436700,0.654436767578125,-0.34978389739990234,0.008806705474853516,-0.747695803642273
1757491478411462700,0.664462646484375,-0.1024942398071289,-0.013848066329956055,-0.8872277736663818
1757491478421519000,0.67451904296875,0.06360626220703125,-0.10944628715515137,-0.9938046932220459
1757491478431550200,0.68455029296875,0.3045482635498047,-0.23035645484924316,-1.1390306949615479
1757491478441598700,0.6945986328125,0.6880559921264648,-0.2466282844543457,-1.2096530199050903
1757491478451618300,0.704618408203125,0.7009754180908203,-0.28865790367126465,-1.0219568014144897
1757491478461645800,0.714645751953125,0.6708641052246094,-0.2912888526916504,-0.8830976486206055
1757491478471722500,0.724722412109375,0.38078784942626953,-0.1689472198486328,-0.7120010256767273
1757491478481752300,0.73475244140625,0.011271476745605469,-0.14778947830200195,-0.4839895963668823
1757491478491802000,0.744802001953125,-0.14234447479248047,-0.047533512115478516,-0.46119487285614014
1757491478501843000,0.754843017578125,-0.2054901123046875,0.0908956527709961,-0.5721035003662109
1757491478511866000,0.7648662109375,-0.3871488571166992,-0.10759854316711426,-0.5126057863235474
1757491478521928200,0.77492822265625,-0.23892784118652344,-0.23521852493286133,-0.6376165151596069
1757491478531944400,0.7849443359375,0.2585468292236328,-0.16022062301635742,-0.8366687297821045
1757491478542029000,0.795029052734375,0.9032859802246094,-0.32359838485717773,-0.5573936700820923
1757491478552046800,0.805046875,0.2884235382080078,-0.33225083351135254,-0.44110167026519775
1757491478562089500,0.81508935546875,0.5401592254638672,0.2209017276763916,-0.6250084638595581
1757491478572205800,0.825205810546875,0.31676673889160156,0.29232239723205566,-0.11178582906723022
1757491478592211700,0.845211669921875,-0.7140913009643555,-0.050837039947509766,0.20443126559257507
1757491478602254300,0.85525439453125,-0.8783578872680664,0.08395838737487793,-0.12582477927207947
1757491478612270600,0.8652705078125,-0.9720182418823242,0.0480494499206543,-0.2160070240497589
1757491478622310100,0.87531005859375,-0.8116445541381836,-0.04137754440307617,-0.1967819482088089
1757491478632351000,0.88535107421875,-0.5269107818603516,0.03342318534851074,-0.1663258671760559
1757491478642415000,0.8954150390625,-0.3531360626220703,0.12326741218566895,-0.13787627220153809
1757491478652453600,0.90545361328125,-0.6131200790405273,0.09630703926086426,0.06992071866989136
1757491478662473000,0.915472900390625,-0.7587194442749023,0.032439470291137695,0.46339482069015503
1757491478672535600,0.92553564453125,-0.5403432846069336,0.10950303077697754,0.44397661089897156
1757491478682558200,0.93555810546875,-0.24641990661621094,0.28594017028808594,0.0428713858127594
1757491478692616200,0.9456162109375,0.035289764404296875,0.16622138023376465,-0.07994922995567322
1757491478702661600,0.95566162109375,0.4476337432861328,0.1389315128326416,-0.19171355664730072
1757491478712677000,0.965677001953125,0.26636314392089844,0.07468271255493164,-0.24862071871757507
1757491478722742500,0.975742431640625,-0.0829925537109375,0.1321415901184082,-0.30833351612091064
1757491478742824000,0.995823974609375,0.5612268447875977,0.004212856292724609,0.1301722526550293
1757491478752860700,1.005860595703125,0.5102224349975586,-0.03985786437988281,0.2917773425579071
1757491478762893800,1.015893798828125,0.2875537872314453,0.0059506893157958984,0.504086434841156
1757491478772946200,1.0259462890625,0.2200155258178711,0.09425830841064453,0.7880425453186035
1757491478782961400,1.03596142578125,0.0835733413696289,0.09144735336303711,1.1314165592193604
1757491478793008400,1.04600830078125,-0.07512569427490234,-0.21137261390686035,1.5937873125076294
1757491478803068000,1.05606787109375,0.06702041625976562,-0.12065958976745605,1.6540910005569458
1757491478813101000,1.06610107421875,0.35915374755859375,-0.12061691284179688,1.8189215660095215
1757491478823124000,1.0761240234375,0.6183376312255859,-0.15485143661499023,2.120108127593994
1757491478833190000,1.08618994140625,0.5428323745727539,-0.3123314380645752,2.4283838272094727
1757491478843191800,1.09619189453125,0.6261005401611328,-0.3786497116088867,2.6690707206726074
1757491478853271600,1.106271484375,0.6548938751220703,-0.9277051687240601,3.5447850227355957
1757491478863275300,1.116275146484375,0.6329755783081055,-0.37546443939208984,3.196342945098877
1757491478873327400,1.126327392578125,-1.0822200775146484,-1.8808623552322388,4.844674110412598
1757491478883389700,1.1363896484375,-1.7846202850341797,-2.465404748916626,5.159242630004883
1757491478893431300,1.146431396484375,-1.5056076049804688,-1.15370512008667,2.914334535598755
1757491478903471000,1.15647119140625,-1.461319923400879,-0.03588438034057617,1.2772510051727295
1757491478913513000,1.166512939453125,-0.9957771301269531,-0.37489187717437744,0.705655574798584
1757491478923530200,1.1765302734375,0.5697269439697266,-0.4608643054962158,-0.8428301811218262
1757491478933576200,1.186576171875,-4.1654953956604,-0.18374526500701904,-0.773486852645874
1757491478943603500,1.196603515625,-4.6051344871521,-2.973936080932617,0.8216776847839355
1757491478953678800,1.206678955078125,-5.458553314208984,-4.139749050140381,0.5503787994384766
1757491478963719700,1.2167197265625,-6.378251075744629,-2.9898934364318848,0.8799567222595215
1757491478973734100,1.226734130859375,-5.693962097167969,-4.876651763916016,2.453524112701416
1757491478983796500,1.23679638671875,-2.628843307495117,-3.6178109645843506,0.3945479393005371
1757491478993841000,1.2468408203125,-1.9874300956726074,-2.926496982574463,-1.180722713470459
1757491479003856100,1.256856201171875,-2.000771999359131,-3.257589340209961,-2.8869924545288086
1757491479013918200,1.266918212890625,-2.3578248023986816,-3.0439372062683105,-4.086728096008301
1757491479023939800,1.27693994140625,-3.1446352005004883,-2.8516368865966797,-5.5517497062683105
1757491479034004200,1.287004150390625,-2.474782943725586,-2.0594232082366943,-7.472747325897217
1757491479044044500,1.29704443359375,-3.6461758613586426,-1.5222110748291016,-8.420194625854492
1757491479054081800,1.307081787109375,-3.3648600578308105,-2.0208442211151123,-9.04314136505127
1757491479064120300,1.317120361328125,-1.5924444198608398,-2.630864143371582,-10.939367294311523
1757491479074166500,1.32716650390625,0.9509611129760742,-3.2363040447235107,-13.496113777160645
1757491479084203300,1.337203369140625,1.0673484802246094,-3.356024980545044,-14.96914291381836
1757491479094206000,1.3472060546875,1.478954792022705,-4.189040660858154,-15.255374908447266
1757491479104288500,1.35728857421875,3.037724494934082,-6.087060928344727,-15.015380859375
1757491479114308900,1.367308837890625,8.033085823059082,-8.620119094848633,-13.79853630065918
1757491479124370200,1.3773701171875,7.8185272216796875,-9.999770164489746,-8.191081047058105
1757491479134408700,1.38740869140625,8.313432693481445,-9.809144020080566,-3.157111644744873
1757491479144409000,1.3974091796875,9.079845428466797,-9.767230987548828,0.042049407958984375
1757491479154488300,1.40748828125,9.429713249206543,-8.213926315307617,1.9332847595214844
1757491479164508000,1.4175078125,8.84992790222168,-5.752747058868408,4.1240997314453125
1757491479174547700,1.427547607421875,8.721770286560059,-4.227071762084961,5.961324691772461
1757491479184614400,1.437614501953125,9.307580947875977,-3.5863194465637207,7.844827175140381
1757491479194653000,1.44765283203125,8.034872055053711,-2.5696001052856445,11.277280807495117
1757491479204695600,1.457695556640625,6.422617435455322,-1.6282587051391602,13.808418273925781
1757491479214732300,1.467732177734375,2.7601118087768555,-0.10358905792236328,16.979801177978516
1757491479224777000,1.47777685546875,-2.0876331329345703,0.9932117462158203,19.499624252319336
1757491479234817800,1.48781787109375,-5.062437534332275,2.1284985542297363,19.319570541381836
1757491479244828700,1.49782861328125,-6.47700834274292,3.6654553413391113,17.14594841003418
1757491479254926300,1.50792626953125,-7.169953346252441,6.075465202331543,13.906246185302734
1757491479274980600,1.527980712890625,-4.376621723175049,6.7582526206970215,9.282519340515137
1757491479285002000,1.538001953125,-2.3647689819335938,6.24464750289917,8.006047248840332
1757491479295036200,1.5480361328125,-1.2925204038619995,5.797451496124268,6.984271049499512
1757491479335221000,1.588220947265625,-4.482017517089844,5.003390312194824,7.0449442863464355
1757491479345230300,1.598230224609375,-4.832334518432617,4.9549150466918945,6.546263217926025
1757491479355280000,1.60827978515625,-4.298338890075684,4.760080814361572,5.687088489532471
1757491479395447300,1.648447265625,0.32109174132347107,2.0007896423339844,0.5900149345397949
1757491479455692000,1.708692138671875,-6.438796043395996,-3.6070728302001953,-4.8129563331604
1757491479465749800,1.718749755859375,-5.776254177093506,-0.7611336708068848,-3.522538661956787
1757491479475794400,1.72879443359375,-1.0091384649276733,2.6354691982269287,-0.7129278182983398
1757491479485836000,1.7388359375,0.5957883596420288,0.6685113906860352,2.723261833190918
1757491479495872300,1.748872314453125,1.3744728565216064,-2.358445644378662,1.6710214614868164
1757491479505917700,1.758917724609375,0.6023608446121216,-1.6189093589782715,0.22664737701416016
1757491479515958000,1.7689580078125,2.7102551460266113,2.3371403217315674,2.99710750579834
1757491479525994500,1.778994384765625,4.3062920570373535,0.5913076400756836,3.259566307067871
1757491479536040200,1.789040283203125,7.449662208557129,0.6323440074920654,0.28847503662109375
1757491479546077400,1.799077392578125,3.657175064086914,-1.4805879592895508,-2.559378147125244
1757491479556116700,1.80911669921875,1.5740251541137695,-0.5321850776672363,-1.1190447807312012
1757491479566135300,1.81913525390625,1.8180058002471924,-0.09932947158813477,1.8797616958618164
1757491479586220800,1.839220703125,2.76064133644104,-0.13406610488891602,2.735321044921875
1757491479596282000,1.8492822265625,2.562457323074341,-1.2638506889343262,-0.29276084899902344
1757491479606323700,1.85932373046875,1.207564353942871,-0.8253412246704102,-1.610361099243164
1757491479616340700,1.8693408203125,-0.48030948638916016,0.15773701667785645,0.31522274017333984
1757491479626410000,1.879409912109375,0.04619169235229492,-1.6527764797210693,1.672562599182129
1757491479636441900,1.88944189453125,3.0199172496795654,-2.982893943786621,-0.9136934280395508
1757491479646482200,1.899482177734375,3.1689116954803467,-2.8487462997436523,-2.932292938232422
1757491479656523800,1.909523681640625,2.682852268218994,-2.479830503463745,-2.495732307434082
1757491479666566000,1.91956591796875,2.0000319480895996,-2.0276219844818115,-1.65364408493042
1757491479676609300,1.929609375,0.6966593265533447,-0.8748493194580078,-0.30740928649902344
1757491479686649900,1.93964990234375,-0.14761638641357422,0.16967439651489258,0.8644380569458008
1757491479696690700,1.949690673828125,-0.05639910697937012,0.7759182453155518,1.7033042907714844
1757491479706731800,1.959731689453125,0.2966432571411133,1.3567163944244385,1.7282676696777344
1757491479716768500,1.9697685546875,1.1295394897460938,1.5508089065551758,1.4337129592895508
1757491479726809000,1.97980908203125,1.4473785161972046,1.5337181091308594,0.7181549072265625
1757491479736853800,1.989853759765625,1.836722731590271,0.834810733795166,0.3141946792602539
1757491479746894000,1.99989404296875,1.71199631690979,-0.13550233840942383,-0.22522544860839844
1757491479756935400,2.009935302734375,1.770778775215149,-1.334157943725586,-0.8400125503540039
1757491479766975500,2.0199755859375,1.6297131776809692,-1.8554482460021973,-0.5092430114746094
1757491479777012200,2.03001220703125,1.1836202144622803,-2.087862968444824,-0.13643550872802734
1757491479787057200,2.04005712890625,1.1086143255233765,-2.276653289794922,-0.3221869468688965
1757491479797094100,2.05009423828125,0.5531754493713379,-2.3114724159240723,-0.6290669441223145
1757491479807138600,2.060138671875,-0.24752211570739746,-1.2597532272338867,-0.8589029312133789
1757491479817179400,2.070179443359375,0.03900265693664551,-0.08335638046264648,-1.1894655227661133
1757491479827219700,2.0802197265625,0.6733887195587158,1.0480141639709473,-0.7282795906066895
1757491479837256400,2.09025634765625,0.9288129806518555,1.4062347412109375,-0.17788028717041016
1757491479847301400,2.10030126953125,1.1282680034637451,0.8864040374755859,-0.01618671417236328
1757491479857342000,2.110342041015625,0.5361967086791992,0.16201257705688477,-0.2114734649658203
1757491479867382800,2.1203828125,0.18568801879882812,-0.12702035903930664,-0.26146888732910156
1757491479877421300,2.13042138671875,0.7141215801239014,-0.1241612434387207,-0.1819167137145996
1757491479887460400,2.14046044921875,1.0614447593688965,-0.0922856330871582,-0.013267993927001953
1757491479897501700,2.150501708984375,0.8842363357543945,-0.08114051818847656,-0.14101934432983398
1757491479907541500,2.16054150390625,0.6188032627105713,-0.0436558723449707,-0.3105201721191406
1757491479917586400,2.17058642578125,0.7656633853912354,0.017984867095947266,-0.5075798034667969
1757491479927627000,2.180626953125,0.8732433319091797,0.34320926666259766,-1.207040786743164
1757491479937667800,2.190667724609375,0.5680651664733887,-0.0553135871887207,-1.5815057754516602
1757491479947708700,2.200708740234375,0.1895275115966797,-0.638343334197998,-2.205471992492676
1757491479957745000,2.210744873046875,0.16185474395751953,-0.9380593299865723,-2.993868827819824
1757491479967786000,2.220785888671875,-0.22802305221557617,-0.9177460670471191,-3.318108081817627
1757491479977830700,2.23083056640625,-1.2460782527923584,-0.35276031494140625,-2.9150781631469727
1757491479987871000,2.24087109375,-0.3826751708984375,1.030879020690918,-2.450462818145752
1757491479997911800,2.250911865234375,3.7027182579040527,3.704509735107422,-1.0570869445800781
1757491480007953200,2.260953125,6.178631782531738,7.934890270233154,1.3102779388427734
1757491480017993500,2.270993408203125,4.620297431945801,10.024913787841797,3.867051124572754
1757491480028030500,2.281030517578125,-0.173964262008667,10.528585433959961,5.697907447814941
1757491480038070300,2.2910703125,-3.6732144355773926,14.475103378295898,4.598644733428955
1757491480048115000,2.301114990234375,-3.2150731086730957,11.946666717529297,2.8758773803710938
1757491480058156500,2.311156494140625,-0.9853088855743408,2.7865490913391113,3.0466690063476562
1757491480068197000,2.321197021484375,1.9010858535766602,-2.0924367904663086,3.500326633453369
1757491480078238200,2.33123828125,3.4460744857788086,-5.539343357086182,2.8667473793029785
1757491480088278500,2.341278564453125,5.793421745300293,-7.599833965301514,1.853590965270996
1757491480098314800,2.351314697265625,6.255217552185059,-6.620523929595947,0.42326831817626953
1757491480108360200,2.361360107421875,5.095760345458984,-3.3559317588806152,-0.7350311279296875
1757491480118406100,2.37140625,3.670999765396118,-1.733910083770752,-1.404810905456543
1757491480128437000,2.38143701171875,3.2479147911071777,-3.5254931449890137,-2.102794647216797
1757491480138478600,2.391478515625,4.336514472961426,-4.977967262268066,-1.4783473014831543
1757491480148522000,2.40152197265625,4.673362731933594,-5.730070114135742,0.6557998657226562
1757491480168601000,2.42160107421875,-0.16179919242858887,-4.51504373550415,-1.087428092956543
1757491480178645200,2.431645263671875,-2.974146842956543,-1.4450078010559082,-4.207126140594482
1757491480188685800,2.441685791015625,-1.3117258548736572,-0.7367305755615234,-3.5039753913879395
1757491480198726100,2.45172607421875,-1.3059701919555664,-0.15927982330322266,-2.65706205368042
1757491480208767000,2.46176708984375,-1.8434019088745117,0.4667963981628418,-1.3141658306121826
1757491480218808000,2.47180810546875,-1.8592798709869385,1.127328872680664,-0.18509650230407715
1757491480228844500,2.481844482421875,-1.1954030990600586,2.0474867820739746,1.0147144794464111
1757491480238886100,2.49188623046875,-1.071138858795166,2.4814987182617188,2.9886441230773926
1757491480248929800,2.5019296875,-1.7378513813018799,0.00002765655517578125,4.817195892333984
1757491480258970600,2.511970703125,-2.3256397247314453,-1.171675682067871,3.4416069984436035
1757491480269011700,2.52201171875,1.820741057395935,-3.8551759719848633,0.06672477722167969
1757491480279052000,2.532052001953125,3.9396419525146484,-4.515545845031738,-2.613541603088379
1757491480289089000,2.542089111328125,3.949143409729004,-3.1838550567626953,-2.5320136547088623
1757491480299133400,2.552133544921875,2.5677223205566406,-1.6455440521240234,-1.4012080430984497
1757491480309174500,2.562174560546875,0.5614449977874756,-0.6210918426513672,-0.13545465469360352
1757491480329255700,2.582255615234375,1.1490726470947266,1.4666519165039062,2.3289921283721924
1757491480339296500,2.592296630859375,2.393556833267212,1.697202205657959,2.9315242767333984
1757491480349337000,2.602337158203125,3.5299055576324463,1.4354300498962402,3.461249828338623
1757491480359374000,2.6123740234375,3.6397390365600586,0.5172319412231445,3.7705140113830566
1757491480369416700,2.622416748046875,3.4896230697631836,-0.45005130767822266,4.027977466583252
1757491480379455500,2.63245556640625,1.8694310188293457,-0.29789257049560547,2.34366512298584
1757491480389496000,2.64249609375,1.286194920539856,-0.09087371826171875,0.9806739091873169
1757491480399537200,2.652537109375,0.03277468681335449,-0.7122278213500977,0.788365364074707
1757491480409581800,2.662581787109375,1.637136697769165,-0.9236135482788086,0.6861261129379272
1757491480419618000,2.6726181640625,1.6462664604187012,0.3168306350708008,0.5494390726089478
1757491480429663200,2.682663330078125,1.4954774379730225,0.9239387512207031,0.44500255584716797
1757491480439703800,2.692703857421875,1.4450236558914185,0.9599189758300781,0.41124749183654785
1757491480449744600,2.70274462890625,2.178290605545044,0.9200572967529297,0.11127126216888428
1757491480459785200,2.71278515625,2.4413840770721436,0.5430831909179688,-0.3133711814880371
1757491480469822000,2.722822021484375,1.0722856521606445,0.2211751937866211,-0.2953563928604126
1757491480479862500,2.732862548828125,0.6645376682281494,-0.524226188659668,1.0209219455718994
1757491480489907500,2.742907470703125,0.14236664772033691,-1.5042486190795898,3.497316837310791
1757491480499947800,2.75294775390625,1.976149559020996,-2.798417091369629,2.9850821495056152
1757491480509988600,2.762988525390625,0.3134305477142334,-1.3781261444091797,3.25667142868042
1757491480520029400,2.773029541015625,1.135384440422058,1.060028076171875,1.2062559127807617
1757491480530070300,2.7830703125,1.6506437063217163,1.8245043754577637,-0.2788519859313965
1757491480540111000,2.793111083984375,1.6542640924453735,0.985051155090332,-0.9164818525314331
1757491480550147600,2.803147705078125,1.39548921585083,0.9358482360839844,-0.27016782760620117
1757491480560192800,2.81319287109375,1.718422293663025,1.0151548385620117,0.7685809135437012
1757491480570233600,2.823233642578125,1.970507264137268,0.7210102081298828,0.7247664928436279
1757491480580274000,2.83327392578125,2.074430465698242,-0.5177907943725586,0.9838459491729736
1757491480590314800,2.843314697265625,2.5647754669189453,-1.6693572998046875,1.444042682647705
1757491480600355600,2.85335546875,2.19087553024292,-2.2507190704345703,1.7058714628219604
1757491480610393900,2.863393798828125,2.5514025688171387,-4.026480674743652,1.1649894714355469
1757491480620433000,2.873432861328125,1.9851946830749512,-3.7590417861938477,1.3937618732452393
1757491480630473500,2.883473388671875,2.536620855331421,-1.9476566314697266,1.6862472295761108
1757491480640517000,2.89351708984375,1.1261732578277588,0.2568521499633789,2.114351511001587
1757491480650556700,2.903556640625,1.0897181034088135,1.1814117431640625,1.4051798582077026
1757491480660599800,2.913599853515625,1.9908617734909058,1.0493793487548828,0.29631471633911133
1757491480670640400,2.923640380859375,1.5805984735488892,1.9930167198181152,1.0396254062652588
1757491480680677400,2.933677490234375,1.266215443611145,2.4291086196899414,1.403617024421692
1757491480690721800,2.9437216796875,0.594449520111084,2.214254379272461,1.2676646709442139
1757491480700758500,2.953758544921875,0.14870262145996094,1.1198205947875977,0.6368976831436157
1757491480710803500,2.963803466796875,0.0016188621520996094,-1.0628347396850586,0.23297515511512756
1757491480720844300,2.97384423828125,-0.051883697509765625,-2.603848457336426,-0.10856357961893082
1757491480730884400,2.98388427734375,1.8373477458953857,-1.8740921020507812,-0.9317838549613953
1757491480740921000,2.993921142578125,1.6500428915023804,-0.1039743423461914,-0.36971113085746765
1757491480750966500,3.003966552734375,-0.043082237243652344,3.036221981048584,2.7725625038146973
1757491480761007400,3.01400732421875,1.3487999439239502,-0.702667236328125,1.90291166305542
1757491480771044000,3.024044189453125,1.1488924026489258,-2.9146041870117188,0.6437506079673767
1757491480781088300,3.034088134765625,1.5252395868301392,-0.7826919555664062,-0.5262072086334229
1757491480791128800,3.04412890625,1.6690995693206787,-0.3200054168701172,-1.369866967201233
1757491480801166000,3.054166015625,1.5616198778152466,-0.8856401443481445,-1.5954686403274536
1757491480811210200,3.064210205078125,0.7801899909973145,-0.26804351806640625,-0.6915216445922852
1757491480821251600,3.07425146484375,0.6105384826660156,-0.057892799377441406,0.22998985648155212
1757491480831291600,3.084291748046875,0.5597667694091797,0.09450149536132812,0.56690514087677
1757491480841329000,3.094328857421875,-0.1572420597076416,1.0733604431152344,1.3060474395751953
1757491480851373800,3.104373779296875,-2.82132887840271,7.214335918426514,5.859341144561768
1757491480861412900,3.114412841796875,2.5976831912994385,5.69515323638916,3.392892360687256
1757491480871451000,3.124450927734375,6.3013505935668945,-1.9079837799072266,-1.5387924909591675
1757491480881492500,3.134492431640625,1.5770297050476074,-1.262298583984375,-1.463578224182129
1757491480891533300,3.144533203125,0.7595771551132202,-1.0961809158325195,-0.634788990020752
1757491480901574700,3.15457470703125,1.646353006362915,-1.8135261535644531,-0.28283390402793884
1757491480911613200,3.16461328125,2.0479464530944824,-1.665121078491211,0.07685351371765137
1757491480921659100,3.1746591796875,0.7084343433380127,-0.23156356811523438,0.9790570139884949
1757491480931687200,3.184687255859375,0.2801811695098877,0.34581661224365234,1.745816946029663
1757491480941737700,3.19473779296875,1.0440524816513062,-0.5287799835205078,1.5759913921356201
1757491480951777000,3.204777099609375,0.7989147901535034,-0.7835016250610352,1.5444414615631104
1757491480961816800,3.21481689453125,0.9685835838317871,-1.1583833694458008,1.6577805280685425
1757491480971857700,3.224857666015625,-0.4375770092010498,-1.1952238082885742,1.961640477180481
1757491480981899500,3.2348994140625,0.2355327606201172,-1.0595407485961914,1.5874346494674683
1757491480991941400,3.24494140625,0.4093266725540161,0.09211349487304688,1.0964744091033936
1757491481001985000,3.254985107421875,1.6533700227737427,0.19034767150878906,0.5348304510116577
1757491481011999500,3.26499951171875,2.2491822242736816,-1.327528953552246,-0.47422707080841064
1757491481022040300,3.275040283203125,1.5259284973144531,-3.126577377319336,-1.9584568738937378
1757491481032096300,3.28509619140625,1.6702945232391357,-2.688661575317383,-1.0377027988433838
1757491481042220500,3.295220458984375,1.0935782194137573,-1.1265249252319336,-1.0564581155776978
1757491481052227000,3.30522705078125,-0.27381110191345215,-0.5412187576293945,-1.661749243736267
1757491481072269300,3.325269287109375,0.677193284034729,1.210566520690918,-0.5558021068572998
1757491481082310100,3.33531005859375,0.5998891592025757,1.504572868347168,1.8386735916137695
1757491481092351200,3.345351318359375,-1.928335428237915,-2.5497913360595703,5.28705358505249
1757491481102393600,3.3553935546875,3.1141858100891113,-5.042807579040527,-0.7453745603561401
1757491481112428500,3.365428466796875,2.3605034351348877,-1.9653711318969727,-3.2175638675689697
1757491481122468900,3.37546875,-0.03809642791748047,1.254429817199707,-0.5736961364746094
1757491481132509400,3.385509521484375,-0.11635994911193848,2.422220230102539,1.325334072113037
1757491481142550300,3.39555029296875,0.8579851388931274,2.6239023208618164,0.91669100522995
1757491481152595200,3.40559521484375,1.5304884910583496,1.7229361534118652,-0.11393046379089355
1757491481162635800,3.4156357421875,1.871924877166748,0.5499715805053711,0.5072965621948242
1757491481172676400,3.42567626953125,1.4711756706237793,-0.09721183776855469,1.2905538082122803
1757491481182717700,3.4357177734375,0.5801656246185303,-0.2704277038574219,1.46243155002594
1757491481192754200,3.445754150390625,0.05701315402984619,-0.1893024444580078,1.4002199172973633
1757491481202798800,3.455798828125,-0.06296181678771973,0.01329803466796875,1.5547471046447754
1757491481212835800,3.4658359375,0.12195444107055664,0.14648056030273438,1.9005093574523926
1757491481222880000,3.4758798828125,-0.49904799461364746,-0.016592025756835938,2.797760009765625
1757491481232921000,3.485921142578125,-0.4159562587738037,-0.013434410095214844,2.1664023399353027
1757491481242962000,3.4959619140625,1.729623794555664,0.04284477233886719,-0.33249759674072266
1757491481252998700,3.50599853515625,1.2469216585159302,-0.08808231353759766,-2.0010650157928467
1757491481263043300,3.516043212890625,1.853346586227417,-0.5302009582519531,-4.431094169616699
1757491481273084200,3.526084228515625,10.898533821105957,0.7489471435546875,-3.226555109024048
1757491481283120600,3.53612060546875,5.13323450088501,-0.9250011444091797,-3.6677114963531494
1757491481293165300,3.546165283203125,-10.741323471069336,-2.8476648330688477,0.38989031314849854
1757491481303206000,3.556205810546875,-7.488185882568359,-2.681759834289551,8.566275596618652
1757491481313247000,3.5662470703125,-2.0311193466186523,-2.989659309387207,6.426135540008545
1757491481323287600,3.57628759765625,-0.5298696756362915,-4.6918134689331055,2.603374481201172
1757491481333328400,3.586328369140625,4.260809898376465,-4.080740928649902,-0.2551632523536682
1757491481343369200,3.596369140625,2.6811070442199707,-0.8664121627807617,-2.466621160507202
1757491481353410300,3.606410400390625,1.016048789024353,2.9387941360473633,-4.482494354248047
1757491481363446500,3.616446533203125,0.8758152723312378,6.444729328155518,-6.072840213775635
1757491481373487600,3.626487548828125,1.0449309349060059,7.0589070320129395,-4.550820827484131
1757491481383528700,3.63652880859375,0.9670410752296448,4.721073150634766,-2.0842173099517822
1757491481393575000,3.646574951171875,1.9096306562423706,2.3082590103149414,-1.8447378873825073
1757491481403613400,3.656613525390625,1.145186185836792,1.0210075378417969,-0.7998085021972656
1757491481413654000,3.666654052734375,-0.583656907081604,0.6735086441040039,1.8579306602478027
1757491481423694800,3.67669482421875,-0.08042490482330322,0.01633167266845703,1.7442494630813599
1757491481443773000,3.69677294921875,0.5719057321548462,0.25209617614746094,1.9006006717681885
1757491481453816600,3.706816650390625,0.8726044297218323,0.5442609786987305,2.4259533882141113
1757491481463857700,3.716857666015625,2.460555076599121,-0.3850116729736328,-0.28114205598831177
1757491481473898500,3.7268984375,3.4679150581359863,-0.9329214096069336,-0.909106969833374
1757491481483939000,3.73693896484375,4.168644905090332,5.487814426422119,-0.5920056104660034
1757491481493980000,3.74697998046875,6.17207145690918,31.49549102783203,0.4584367275238037
1757491481504020500,3.7570205078125,2.194244623184204,2.320852756500244,-3.641648292541504
1757491481514057700,3.7670576171875,2.131521701812744,1.53570556640625,-7.295398712158203
1757491481524102400,3.777102294921875,-0.05766606330871582,0.09551048278808594,-3.5747580528259277
1757491481534142500,3.787142578125,-1.021073341369629,-2.719728469848633,-2.6904759407043457
1757491481544183600,3.79718359375,-1.3752601146697998,-5.468871116638184,-3.7884600162506104
1757491481554224000,3.80722412109375,-0.017627239227294922,-2.4879159927368164,-5.117640972137451
1757491481564265000,3.817264892578125,1.2687517404556274,1.503580093383789,-5.537029266357422
1757491481574306600,3.827306640625,2.116389751434326,2.152316093444824,-5.287095069885254
1757491481584342300,3.83734228515625,0.23870331048965454,1.0402765274047852,-4.168261528015137
1757491481594388500,3.847388427734375,-1.5596764087677002,0.7143354415893555,-2.9568209648132324
1757491481604426000,3.857426025390625,-0.5545358061790466,0.33232593536376953,-1.5068919658660889
1757491481614465000,3.867465087890625,0.8134652972221375,-0.5599546432495117,0.0784502625465393
1757491481624505900,3.877505859375,0.19616106152534485,-1.9576215744018555,2.082249641418457
1757491481634547700,3.887547607421875,0.9424804449081421,-3.3420562744140625,3.687140941619873
1757491481644591400,3.89759130859375,-0.08046898245811462,-5.442241668701172,4.776089668273926
1757491481654627800,3.9076279296875,-0.05901037156581879,-5.989975929260254,4.288492202758789
1757491481664672300,3.91767236328125,-0.38074037432670593,-5.017553329467773,2.015268564224243
1757491481674712800,3.927712890625,-0.30262231826782227,-6.105219841003418,2.1065235137939453
1757491481684753700,3.937753662109375,0.11156410723924637,-6.013043403625488,2.9360744953155518
1757491481694794800,3.947794677734375,0.4184095561504364,-5.306431770324707,3.8771047592163086
1757491481704831500,3.95783154296875,0.48540887236595154,-3.790093421936035,3.606282949447632
1757491481714876000,3.9678759765625,0.9332320690155029,-2.29532527923584,2.24285888671875
1757491481724915200,3.977915283203125,1.4853061437606812,-1.4677848815917969,0.8034521341323853
1757491481734957300,3.987957275390625,1.437893271446228,-1.6660881042480469,0.053702592849731445
1757491481744998100,3.997998046875,0.7879564762115479,-2.293306350708008,-0.16016659140586853
1757491481755038700,4.008038818359375,0.14785581827163696,-2.8563156127929688,0.17768126726150513
1757491481765079800,4.018079833984375,0.24352587759494781,-3.750338554382324,0.7962730526924133
1757491481775120100,4.0281201171875,0.4059108793735504,-3.9599428176879883,1.4059056043624878
1757491481785161200,4.0381611328125,0.2599110007286072,-4.882389068603516,2.454519510269165
1757491481795201500,4.048201416015625,0.13555586338043213,-4.25240421295166,3.159017324447632
1757491481805242600,4.05824267578125,0.033035218715667725,-1.4779396057128906,3.701786994934082
1757491481815283200,4.068283203125,-0.05186101794242859,0.1524333953857422,4.421526908874512
1757491481825324800,4.07832470703125,-0.48182475566864014,0.8784217834472656,4.28203010559082
1757491481835365000,4.088365234375,-1.2336561679840088,1.061203956604004,2.7366561889648438
1757491481845410300,4.098410400390625,-0.3153385519981384,0.47699737548828125,-0.17817163467407227
1757491481855442400,4.1084423828125,1.2814985513687134,-0.12763023376464844,-0.42556631565093994
1757491481865483000,4.11848291015625,3.802793502807617,1.4160223007202148,-0.9183394908905029
1757491481875527200,4.128527099609375,3.7380356788635254,5.55531644821167,-1.925999402999878
1757491481885564700,4.138564697265625,0.8358181118965149,9.125597953796387,-2.3081576824188232
1757491481895609300,4.148609375,0.3889128565788269,8.396199226379395,-2.9282445907592773
1757491481905650200,4.158650146484375,1.802915334701538,2.982212543487549,-2.261687994003296
1757491481915690500,4.1686904296875,2.1397063732147217,0.2760581970214844,-2.998009204864502
1757491481925731300,4.1787314453125,0.32129722833633423,0.10129547119140625,-2.669409990310669
1757491481935772400,4.1887724609375,-0.42139196395874023,-0.42658042907714844,-1.6125363111495972
1757491481945812700,4.198812744140625,0.4359888732433319,-0.4776601791381836,-0.8628151416778564
1757491481955850000,4.20885009765625,-0.08068746328353882,-0.7662191390991211,-0.0514376163482666
1757491481965894100,4.21889404296875,-0.2361736297607422,-0.6935453414916992,0.31606602668762207
1757491481975935500,4.228935546875,0.29314374923706055,-0.30093860626220703,0.3244144916534424
1757491481985975800,4.238975830078125,0.8570176362991333,0.33476829528808594,0.12587761878967285
1757491481996017400,4.249017333984375,1.0190954208374023,0.684504508972168,0.03695416450500488
1757491482006062600,4.2590625,0.7855263948440552,0.9299421310424805,0.21332591772079468
1757491482016094500,4.269094482421875,0.19923615455627441,1.2452030181884766,0.6837536096572876
1757491482026134800,4.279134765625,-1.2665306329727173,15.648443222045898,2.126626491546631
1757491482036175400,4.28917529296875,-0.12196677923202515,15.68235969543457,1.529715895652771
1757491482046216200,4.29921630859375,2.7615363597869873,3.344407081604004,1.2522754669189453
1757491482056257800,4.3092578125,4.06843376159668,-4.832359313964844,1.815254807472229
1757491482066310100,4.31931005859375,3.492011308670044,-5.143641471862793,2.4536595344543457
1757491482076339000,4.3293388671875,2.017946720123291,-9.597119331359863,1.8463184833526611
1757491482086383900,4.3393837890625,0.07231217622756958,-9.139883995056152,0.8168374300003052
1757491482096422400,4.34942236328125,-0.8294702768325806,-5.157184600830078,-0.38182878494262695
1757491482106461000,4.3594609375,-0.4719920754432678,-4.0764665603637695,-1.1549127101898193
1757491482116502000,4.369501953125,0.09122949838638306,-3.9468936920166016,-0.9626084566116333
1757491482126544000,4.3795439453125,0.4838257133960724,-3.7562294006347656,-0.5412178039550781
1757491482136587000,4.3895869140625,0.39104926586151123,-3.480973243713379,-1.0442841053009033
1757491482146624000,4.3996240234375,0.4970901608467102,-3.6283016204833984,-1.4920258522033691
1757491482156669000,4.4096689453125,0.29227373003959656,-3.4678659439086914,-1.6664037704467773
1757491482166709200,4.419709228515625,0.00017386674880981445,-2.097844123840332,-1.500596284866333
1757491482176750000,4.42975,-0.018064558506011963,-0.8567886352539062,-1.0740723609924316
1757491482186786600,4.43978662109375,0.025271475315093994,1.2184925079345703,-0.4302513599395752
1757491482196831500,4.44983154296875,0.47006136178970337,3.302182197570801,0.4092859923839569
1757491482206868200,4.4598681640625,0.15639358758926392,4.197934627532959,1.5202720165252686
1757491482216913000,4.469912841796875,0.6165174245834351,4.167707443237305,2.3156638145446777
1757491482226953500,4.479953369140625,0.605938196182251,3.3133950233459473,2.730707883834839
1757491482236994300,4.489994384765625,0.8247374296188354,1.764573097229004,2.925713539123535
1757491482247035400,4.500035400390625,0.626399040222168,0.20678997039794922,2.3768463134765625
1757491482257072400,4.510072265625,0.8536943197250366,-0.5190792083740234,1.6475704908370972
1757491482267116800,4.52011669921875,0.9704331159591675,-0.7591457366943359,0.7507312297821045
1757491482277154000,4.530154052734375,1.0358611345291138,-0.6624307632446289,-0.13538610935211182
1757491482287198200,4.5401982421875,1.077441930770874,-0.29074573516845703,-0.777451753616333
1757491482297239300,4.5502392578125,0.9973949193954468,0.07498359680175781,-1.0194730758666992
1757491482307279600,4.560279541015625,0.8698156476020813,0.2918825149536133,-1.1056493520736694
1757491482317320200,4.5703203125,0.6347891092300415,0.3295783996582031,-0.9312330484390259
1757491482327356400,4.5803564453125,0.3659798502922058,0.2115650177001953,-0.6603193879127502
1757491482337398000,4.59039794921875,0.1686880886554718,0.00785064697265625,-0.4767393171787262
1757491482347438300,4.600438232421875,0.05414387583732605,-0.042487144470214844,-0.434445321559906
1757491482357479200,4.610479248046875,-0.012806892395019531,-0.03861522674560547,-0.5073785781860352
1757491482367523300,4.6205234375,-0.03286856412887573,-0.009701728820800781,-0.5926756262779236
1757491482377577700,4.63057763671875,-0.012171149253845215,0.029564857482910156,-0.6365262269973755
1757491482387605800,4.640605712890625,0.07441180944442749,-0.006880760192871094,-0.6066181659698486
1757491482397642500,4.650642578125,0.21720832586288452,-0.11066627502441406,-0.5148983001708984
1757491482407687200,4.660687255859375,0.3923003673553467,-0.22530746459960938,-0.4124288558959961
1757491482417727200,4.670727294921875,0.5580562949180603,-0.2897329330444336,-0.3093072175979614
1757491482427768300,4.680768310546875,0.6441386938095093,-0.2713508605957031,-0.24313898384571075
1757491482437809200,4.69080908203125,0.6669445633888245,-0.22273921966552734,-0.2071334570646286
1757491482447850000,4.70085009765625,0.6579084396362305,-0.14032459259033203,-0.2136666178703308
1757491482457890000,4.71089013671875,0.6035182476043701,-0.03142261505126953,-0.23794615268707275
1757491482467927300,4.72092724609375,0.541887104511261,0.0463714599609375,-0.24733594059944153
1757491482477972200,4.73097216796875,0.4580661952495575,0.11318302154541016,-0.20700395107269287
1757491482488012800,4.7410126953125,0.33196526765823364,0.1583852767944336,-0.13937439024448395
1757491482498053600,4.7510537109375,0.2388508915901184,0.1688385009765625,-0.06747149676084518
1757491482508094200,4.76109423828125,0.15326106548309326,0.119659423828125,-0.020856212824583054
1757491482518135600,4.771135498046875,0.11364948749542236,0.0691070556640625,0.04097709804773331
1757491482528171800,4.781171875,0.09149199724197388,0.03516674041748047,0.11032853275537491
1757491482538216400,4.791216552734375,0.09256750345230103,-0.03695106506347656,0.1878625601530075
1757491482548257500,4.801257568359375,0.156489759683609,-0.0855865478515625,0.2732446789741516
1757491482558297900,4.8112978515625,0.2650647759437561,-0.08539390563964844,0.34939101338386536
1757491482568339000,4.8213388671875,0.3805695176124573,-0.015897750854492188,0.3980591893196106
1757491482578379500,4.831379638671875,0.4657225012779236,0.0919027328491211,0.421845406293869
1757491482588418000,4.84141796875,0.48061758279800415,0.1568593978881836,0.4265272617340088
1757491482598456800,4.851456787109375,0.46798813343048096,0.17777442932128906,0.40116018056869507
1757491482608497700,4.86149755859375,0.46240633726119995,0.12238311767578125,0.33951085805892944
1757491482618541000,4.871541015625,0.4351499080657959,0.05490303039550781,0.2611469626426697
1757491482628579600,4.88157958984375,0.4189004898071289,-0.019481658935546875,0.13855911791324615
1757491482638624300,4.891624267578125,0.438390851020813,-0.13596343994140625,0.04115217924118042
1757491482648665000,4.9016650390625,0.463611364364624,-0.2551145553588867,-0.021910756826400757
1757491482658701600,4.91170166015625,0.5118691921234131,-0.33620452880859375,-0.0740116536617279
1757491482668746200,4.921746337890625,0.510848879814148,-0.3324899673461914,-0.11404132843017578
1757491482678787000,4.931787109375,0.5214876532554626,-0.2797966003417969,-0.13968876004219055
1757491482688827600,4.94182763671875,0.4651319682598114,-0.1625051498413086,-0.14408870041370392
1757491482698864600,4.95186474609375,0.44572657346725464,-0.022490501403808594,-0.1149551272392273
1757491482708909000,4.961908935546875,0.4425193667411804,0.10178947448730469,-0.08905096352100372
1757491482718946000,4.971946044921875,0.4408279061317444,0.19853687286376953,-0.057040080428123474
1757491482728991000,4.981990966796875,0.4045518934726715,0.15789413452148438,-0.007270693778991699
1757491482739031600,4.992031494140625,0.36968162655830383,0.023967742919921875,0.060940951108932495
1757491482749072600,5.00207275390625,0.35460591316223145,-0.04177284240722656,0.08035710453987122
1757491482759113200,5.01211328125,0.40971821546554565,-0.19719886779785156,0.10823243856430054
1757491482769150000,5.02214990234375,0.44214874505996704,-0.24041080474853516,0.15678179264068604
1757491482779195000,5.03219482421875,0.4764690399169922,-0.20611190795898438,0.23289883136749268
1757491482789231400,5.0422314453125,0.49331969022750854,-0.14324665069580078,0.3598955571651459
1757491482799276000,5.052276123046875,0.44458770751953125,0.07518196105957031,0.432449609041214
1757491482809316600,5.062316650390625,0.37549781799316406,0.18744659423828125,0.48462313413619995
1757491482819357400,5.072357421875,0.316189706325531,0.1981487274169922,0.5389683246612549
1757491482829402400,5.08240234375,0.3628086447715759,0.1859426498413086,0.5813568830490112
1757491482839434800,5.092434814453125,0.2576872706413269,0.12510299682617188,0.5671560764312744
1757491482849475800,5.102475830078125,0.15861141681671143,0.02584552764892578,0.551378607749939
1757491482859519000,5.11251904296875,0.12059158086776733,-0.15605926513671875,0.5499659776687622
1757491482869557800,5.122557861328125,0.028081059455871582,-0.14123153686523438,0.5386393070220947
1757491482879602000,5.132601806640625,0.02692657709121704,-0.17473983764648438,0.5665826797485352
1757491482889643000,5.14264306640625,0.011218488216400146,-0.3099393844604492,0.6114610433578491
1757491482899683600,5.15268359375,0.03977084159851074,-0.36897850036621094,0.6559053659439087
1757491482909724000,5.162723876953125,0.10504591464996338,-0.35535240173339844,0.6773403882980347
1757491482919761000,5.172760986328125,0.26566314697265625,-0.3862323760986328,0.7073500156402588
1757491482929801700,5.1828017578125,0.14405745267868042,-0.3388700485229492,0.6692623496055603
1757491482939846100,5.19284619140625,0.1111142635345459,-0.15630531311035156,0.7153801321983337
1757491482949887200,5.20288720703125,0.082061767578125,-0.19616413116455078,0.807977557182312
1757491482959927800,5.212927734375,-0.13957691192626953,-0.44025421142578125,0.9180928468704224
1757491482969968000,5.222968017578125,-0.3821125030517578,-0.7385759353637695,1.0322761535644531
1757491482980005000,5.233005126953125,0.013164520263671875,-1.0954904556274414,1.309124231338501
1757491482990050000,5.243050048828125,0.1511402130126953,-1.5253267288208008,1.530972957611084
1757491483000087000,5.253087158203125,0.026691079139709473,-1.588113784790039,1.5569173097610474
1757491483010131500,5.26313134765625,0.5137203335762024,-1.079178810119629,1.4660093784332275
1757491483020172500,5.273172607421875,0.6950103640556335,-0.528590202331543,1.2574559450149536
1757491483030213400,5.28321337890625,0.22420823574066162,-0.2206096649169922,1.1384919881820679
1757491483040249900,5.293249755859375,-0.25429677963256836,0.10922431945800781,0.9985799193382263
1757491483050294800,5.303294677734375,-1.1779347658157349,0.13486099243164062,0.5716001987457275
1757491483060335600,5.313335693359375,-1.2225974798202515,-0.04130363464355469,-0.5520660877227783
1757491483070372000,5.3233720703125,0.46365886926651,0.19211673736572266,-2.296055316925049
1757491483080415500,5.33341552734375,1.3658350706100464,0.6634969711303711,-3.991420269012451
1757491483090453800,5.343453857421875,1.721184253692627,1.207406997680664,-4.443454265594482
1757491483100494600,5.35349462890625,1.70962655544281,1.1979637145996094,-3.4407119750976562
1757491483110535400,5.363535400390625,2.5290024280548096,0.8372697830200195,-2.066359519958496
1757491483120580000,5.373580078125,3.310232639312744,0.7481307983398438,-1.5314444303512573
1757491483130621000,5.383620849609375,3.8430495262145996,0.989903450012207,-1.3639822006225586
1757491483140657400,5.393657470703125,4.272904396057129,1.2913837432861328,-0.9331358075141907
1757491483150702300,5.403702392578125,3.947953701019287,1.4302959442138672,-0.21086394786834717
1757491483160742700,5.41374267578125,2.5753488540649414,1.276926040649414,0.536960244178772
1757491483170779400,5.423779296875,0.42260271310806274,0.9138345718383789,0.9404608011245728
1757491483180824000,5.433823974609375,-1.4838284254074097,0.4207572937011719,0.8576749563217163
1757491483190865200,5.443865234375,-2.5845999717712402,-0.11716938018798828,0.5488699674606323
1757491483200905500,5.453905517578125,-2.891975164413452,-0.6004209518432617,0.01753532886505127
1757491483210946600,5.463946533203125,-2.5125341415405273,-0.6150436401367188,-0.45577144622802734
1757491483220987600,5.473987548828125,-1.5076533555984497,-0.11084175109863281,-0.6204601526260376
1757491483231028000,5.484028076171875,-0.28404033184051514,0.5871343612670898,-0.4975282549858093
1757491483241065000,5.49406494140625,0.7055591940879822,1.4327421188354492,-0.2347571849822998
1757491483251109400,5.504109375,0.9017876386642456,2.0646986961364746,0.23787248134613037
1757491483261150200,5.514150146484375,0.4891508221626282,2.126781940460205,0.9636929035186768
1757491483271190800,5.524190673828125,-0.3606419563293457,1.6900343894958496,1.4480574131011963
1757491483281232100,5.534232177734375,-0.9186151623725891,0.9065093994140625,1.2690494060516357
1757491483291272400,5.5442724609375,-0.8828762769699097,0.1403961181640625,0.5639505386352539
1757491483301309200,5.55430908203125,-0.566982626914978,-0.39991188049316406,-0.2967231869697571
1757491483311353600,5.564353515625,0.1086004376411438,-0.6317605972290039,-1.1747043132781982
1757491483321398000,5.57439794921875,0.8928737640380859,-0.3929452896118164,-1.7441577911376953
1757491483331409200,5.5844091796875,1.826150894165039,0.2504444122314453,-1.7224245071411133
1757491483341472300,5.59447216796875,2.589219093322754,0.5509805679321289,-1.0010439157485962
1757491483351513900,5.604513916015625,2.4119386672973633,0.3378276824951172,0.2716022729873657
1757491483361553400,5.614553466796875,1.4349370002746582,-0.34969425201416016,1.619425892829895
1757491483371594000,5.624593994140625,0.38705259561538696,-1.0334749221801758,2.5142602920532227
1757491483381638700,5.634638671875,-0.13330453634262085,-1.5785646438598633,2.6761868000030518
1757491483391679700,5.6446796875,-0.27579203248023987,-1.9304561614990234,2.1274521350860596
1757491483401718000,5.654718017578125,-0.5767741799354553,-2.216970443725586,1.2351597547531128
1757491483411758600,5.664758544921875,-1.1555458307266235,-2.3846092224121094,0.19431471824645996
1757491483421797600,5.674797607421875,-1.7313055992126465,-2.2301769256591797,-0.887946367263794
1757491483431859000,5.68485888671875,-1.8897775411605835,-1.7211122512817383,-1.9009839296340942
1757491483441879300,5.69487939453125,-1.6150034666061401,-0.9195795059204102,-2.5270438194274902
1757491483451923000,5.7049228515625,-1.0377094745635986,0.053330421447753906,-2.2549691200256348
1757491483461964500,5.714964599609375,-0.3306801915168762,0.7027606964111328,-1.5557583570480347
1757491483472003300,5.72500341796875,0.6516590118408203,1.0107660293579102,-0.6553182601928711
1757491483482043600,5.735043701171875,1.4595471620559692,1.0857477188110352,0.1432139277458191
1757491483492084200,5.745084228515625,1.9602779150009155,0.9242916107177734,0.76607745885849
1757491483502205200,5.755205078125,2.0952372550964355,0.6126642227172852,1.15018892288208
1757491483522208500,5.77520849609375,1.4795268774032593,-0.0071010589599609375,1.276207685470581
1757491483532250400,5.78525048828125,1.1345064640045166,-0.12269783020019531,1.0807268619537354
1757491483542291000,5.795291015625,0.8830314874649048,-0.028377532958984375,0.7335705757141113
1757491483552331800,5.805331787109375,0.6530213356018066,0.10221385955810547,0.41786515712738037
1757491483562368500,5.815368408203125,0.5067020058631897,0.18377304077148438,0.16226470470428467
1757491483572412000,5.825411865234375,0.44900649785995483,0.17557334899902344,-0.012343406677246094
1757491483582450200,5.8354501953125,0.45610591769218445,0.088409423828125,-0.13638752698898315
1757491483592491000,5.845490966796875,0.4614420235157013,0.045441627502441406,-0.22491002082824707
1757491483602533000,5.855533203125,0.34977051615715027,0.05029106140136719,-0.2839928865432739
1757491483612583400,5.86558349609375,0.40606915950775146,0.11291790008544922,-0.24539071321487427
1757491483622613000,5.875613037109375,0.4424862265586853,0.10750198364257812,-0.21569395065307617
1757491483632657400,5.885657470703125,0.451846718788147,0.012164115905761719,-0.11658507585525513
1757491483642698500,5.895698486328125,0.43595603108406067,-0.06693267822265625,0.06518447399139404
1757491483652739000,5.905739013671875,0.28777050971984863,-0.1652507781982422,0.2902625799179077
1757491483662780000,5.91577978515625,0.18376827239990234,-0.25019073486328125,0.4670742154121399
1757491483672816600,5.925816650390625,0.2747054696083069,-0.21590900421142578,0.5547943711280823
1757491483682857200,5.935857177734375,0.0026404857635498047,-0.21880531311035156,0.5250275731086731
1757491483692902000,5.94590185546875,0.1628846526145935,-0.20902442932128906,0.47154659032821655
1757491483702942700,5.955942626953125,0.2626529633998871,-0.09137439727783203,0.3073508143424988
1757491483712983300,5.9659833984375,0.3253048062324524,-0.029674530029296875,0.07284480333328247
1757491483723024400,5.9760244140625,0.28812557458877563,-0.05420207977294922,-0.10563230514526367
1757491483733064700,5.986064697265625,0.2089579701423645,-0.05282115936279297,-0.20758509635925293
1757491483743102200,5.996102294921875,0.1784622073173523,0.0029745101928710938,-0.23640775680541992
1757491483753147000,6.00614697265625,0.15852636098861694,0.04925823211669922,-0.23904752731323242
1757491483763187200,6.016187255859375,0.15173429250717163,0.06448936462402344,-0.23511207103729248
1757491483773228300,6.026228271484375,0.18080878257751465,0.046265602111816406,-0.23890647292137146
1757491483783268600,6.0362685546875,0.25427359342575073,0.04119682312011719,-0.27142155170440674
1757491483793309700,6.046309814453125,0.21689820289611816,-0.012805938720703125,-0.2999812662601471
1757491483803350800,6.056350830078125,0.06045961380004883,-0.07180023193359375,-0.2727331519126892
1757491483813388000,6.066387939453125,-0.08671081066131592,-0.10865020751953125,-0.15299564599990845
1757491483823428600,6.0764287109375,-0.17861896753311157,-0.0945730209350586,-0.016978204250335693
1757491483833468400,6.086468505859375,-0.14199399948120117,0.05196189880371094,0.10227698087692261
1757491483843510800,6.0965107421875,-0.13996028900146484,-0.08417034149169922,0.2205483317375183
1757491483853551600,6.106551513671875,0.008738160133361816,-0.09119033813476562,0.25822681188583374
1757491483863594800,6.1165947265625,0.13739776611328125,0.055908203125,0.2512906789779663
1757491483873635600,6.126635498046875,0.18296819925308228,0.10988235473632812,0.24707633256912231
1757491483883672300,6.13667236328125,0.07138681411743164,0.09368038177490234,0.21132969856262207
1757491483893717000,6.146717041015625,-0.023164212703704834,0.09049701690673828,0.1741321086883545
1757491483903758000,6.156758056640625,-0.05996215343475342,0.12217521667480469,0.08689618110656738
1757491483913798100,6.166798095703125,-0.045533180236816406,0.11277198791503906,0.057846784591674805
1757491483923839000,6.1768388671875,-0.0926247239112854,0.09392166137695312,0.01227867603302002
1757491483933879300,6.18687939453125,-0.1094818115234375,0.09521293640136719,-0.02736377716064453
1757491483943920600,6.196920654296875,-0.03756612539291382,0.11499691009521484,-0.007921874523162842
1757491483953957600,6.20695751953125,0.03564733266830444,0.17083358764648438,-0.062396228313446045
1757491483964001800,6.217001708984375,-0.09063476324081421,0.05279350280761719,-0.07045352458953857
1757491483974042600,6.227042724609375,-0.08591955900192261,0.06420516967773438,0.06096452474594116
1757491483984084000,6.237083984375,-0.05606573820114136,0.06842517852783203,0.2072582244873047
1757491483994124000,6.2471240234375,0.0001246333122253418,0.028833389282226562,0.283672571182251
1757491484004160800,6.257160888671875,0.02299678325653076,0.0182037353515625,0.2712589502334595
1757491484014205700,6.267205810546875,0.043228089809417725,0.038435935974121094,0.24588072299957275
1757491484024246800,6.277246826171875,-0.06553399562835693,0.05628013610839844,0.2039940357208252
1757491484034287400,6.287287353515625,-0.25324398279190063,0.060746192932128906,0.20147788524627686
1757491484044328200,6.297328125,-0.2993265390396118,0.07580280303955078,0.18565350770950317
1757491484054368800,6.30736865234375,-0.22999805212020874,-0.005661964416503906,0.11488121747970581
1757491484064408000,6.317407958984375,-0.17357760667800903,-0.0797891616821289,0.047006309032440186
1757491484074446000,6.327446044921875,-0.11599034070968628,0.020012855529785156,0.04142552614212036
1757491484084487700,6.33748779296875,0.006696045398712158,0.15320491790771484,0.02341359853744507
1757491484094528500,6.347528564453125,0.04317504167556763,0.2826814651489258,0.028713345527648926
1757491484104574000,6.357573974609375,0.08531719446182251,0.35172080993652344,0.15188050270080566
1757491484114609200,6.367609130859375,0.16009670495986938,0.29483604431152344,0.3571949601173401
1757491484124653800,6.37765380859375,0.223796546459198,0.20627784729003906,0.4177834987640381
1757491484134694400,6.3876943359375,0.09696376323699951,-0.1324605941772461,0.3788514733314514
1757491484144735200,6.3977353515625,-0.04633224010467529,-0.3432159423828125,0.24411529302597046
1757491484154776000,6.407776123046875,-0.07037067413330078,-0.15182781219482422,0.06509071588516235
1757491484164817000,6.41781689453125,-0.2555356025695801,0.06424808502197266,-0.005446255207061768
1757491484174857500,6.427857421875,-0.22804629802703857,0.26793956756591797,-0.05568736791610718
1757491484184894200,6.437894287109375,-0.22295796871185303,0.2689065933227539,0.058010220527648926
1757491484194939000,6.44793896484375,-0.15903711318969727,0.19625568389892578,0.22501510381698608
1757491484204954400,6.457954345703125,-0.3355720639228821,-0.00101470947265625,0.43739986419677734
1757491484214995200,6.4679951171875,-0.5453987121582031,-0.13006973266601562,0.5365865230560303
1757491484225036500,6.47803662109375,-0.5776364207267761,-0.23029232025146484,0.46452605724334717
1757491484235083300,6.488083251953125,-0.4075355529785156,-0.3814535140991211,0.2569868564605713
1757491484245142500,6.498142578125,-0.25187456607818604,-0.3214282989501953,0.03541064262390137
1757491484255178800,6.5081787109375,-0.12788736820220947,-0.1769390106201172,-0.1326104998588562
1757491484265224400,6.518224365234375,0.12020373344421387,0.0846405029296875,-0.3503243923187256
1757491484275265300,6.528265380859375,0.3095998764038086,0.2556295394897461,-0.5968165993690491
1757491484285306000,6.53830615234375,0.5771089792251587,0.38109779357910156,-0.8712747693061829
1757491484295346400,6.548346435546875,0.5581022500991821,0.43868064880371094,-1.080730676651001
1757491484305389000,6.55838916015625,0.34740400314331055,0.37545108795166016,-1.2101078033447266
1757491484315424800,6.5684248046875,0.33271336555480957,0.2974262237548828,-1.255730152130127
1757491484325464600,6.578464599609375,0.45666468143463135,0.192108154296875,-1.1475931406021118
1757491484335506000,6.588505859375,0.6475814580917358,0.17053985595703125,-0.9243996143341064
1757491484345548500,6.598548583984375,0.7602566480636597,0.09315872192382812,-0.5089332461357117
1757491484355591000,6.6085908203125,0.8581159114837646,-0.08287334442138672,0.051215529441833496
1757491484365631700,6.6186318359375,0.5478649139404297,-0.22973251342773438,0.5630569458007812
1757491484375672600,6.628672607421875,0.16643333435058594,-0.19137001037597656,1.0020103454589844
1757491484385713000,6.638712890625,-0.521510124206543,-0.15085411071777344,1.174460768699646
1757491484395754000,6.64875390625,-0.6751176714897156,-0.12083625793457031,0.8162509202957153
1757491484405794300,6.658794189453125,-0.5766657590866089,0.1280231475830078,0.08718454837799072
1757491484415831000,6.6688310546875,-0.19949007034301758,0.3730354309082031,-0.3939592242240906
1757491484425876000,6.6788759765625,0.07780396938323975,0.5061874389648438,-0.40358608961105347
1757491484435917000,6.6889169921875,0.2742578983306885,0.48835086822509766,0.14444589614868164
1757491484445957600,6.69895751953125,0.14651381969451904,0.26089000701904297,0.9781252145767212
1757491484455998200,6.708998291015625,-0.14582431316375732,0.03513813018798828,1.4417731761932373
1757491484466040000,6.7190400390625,-0.38406288623809814,-0.13103675842285156,1.687540054321289
1757491484476077800,6.729077880859375,-0.6311591863632202,-0.21687698364257812,1.7700762748718262
1757491484486116600,6.73911669921875,-0.672050952911377,-0.23675060272216797,1.7825056314468384
1757491484496157400,6.749157470703125,-0.5798906087875366,-0.26379966735839844,1.7839467525482178
1757491484506197800,6.75919775390625,0.010288834571838379,-0.022737503051757812,1.902485966682434
1757491484516240100,6.769240234375,-0.33612191677093506,-0.15030479431152344,2.082228660583496
1757491484526282200,6.7792822265625,0.10745060443878174,0.03661155700683594,2.316746950149536
1757491484536324400,6.789324462890625,0.022666215896606445,-0.05197334289550781,2.3436198234558105
1757491484546366200,6.7993662109375,0.32322263717651367,-0.2339010238647461,2.2265233993530273
1757491484556401700,6.809401611328125,0.6568788290023804,0.17905616760253906,1.807712435722351
1757491484566442800,6.81944287109375,0.4293173551559448,0.13408946990966797,1.3724184036254883
1757491484576483800,6.82948388671875,-0.13727617263793945,-0.0797128677368164,0.9724987745285034
1757491484586526500,6.8395263671875,0.3661489486694336,0.05845928192138672,0.5621963739395142
1757491484596579800,6.849579833984375,0.9012110233306885,-0.23058605194091797,0.4521067142486572
1757491484606609700,6.859609619140625,0.3594869375228882,-0.7210197448730469,0.2553427219390869
1757491484616650000,6.86964990234375,-0.08939254283905029,-0.9034633636474609,-0.22242212295532227
1757491484626686700,6.879686767578125,-0.8987221717834473,-1.0176267623901367,-0.7847120761871338
1757491484636726800,6.889726806640625,-0.32399284839630127,-0.8947944641113281,-0.47769343852996826
1757491484646772500,6.8997724609375,-1.3588340282440186,-0.7988109588623047,-0.38429903984069824
1757491484656812800,6.909812744140625,-1.6996216773986816,-0.543701171875,-0.23289084434509277
1757491484666853400,6.919853271484375,-1.823215365409851,-0.6852970123291016,0.02214503288269043
1757491484676894700,6.929894775390625,-1.1719497442245483,-0.43598461151123047,0.20771539211273193
1757491484686935300,6.939935302734375,-0.48870378732681274,-0.11928081512451172,0.7540466785430908
1757491484696971800,6.9499716796875,-1.1384345293045044,-0.03206157684326172,0.8419163227081299
1757491484707012600,6.9600126953125,-0.8446837663650513,0.21404361724853516,0.9528194665908813
1757491484717057300,6.970057373046875,-0.5291146039962769,0.4966259002685547,1.092634677886963
1757491484727097900,6.980097900390625,-0.375095009803772,0.5810842514038086,1.1802088022232056
1757491484737139200,6.99013916015625,-0.6722423434257507,0.529353141784668,1.0706955194473267
1757491484747179800,7.0001796875,-1.2130541801452637,0.47272205352783203,0.8015303611755371
1757491484757219800,7.0102197265625,-1.5906083583831787,0.5507287979125977,0.6553459167480469
1757491484767257300,7.02025732421875,-1.1131129264831543,0.6264104843139648,0.6818802356719971
1757491484777302000,7.030302001953125,-0.4345010221004486,0.6793327331542969,0.7567939758300781
1757491484787342600,7.040342529296875,-0.46421170234680176,1.0039758682250977,0.5567376613616943
1757491484797383200,7.050383056640625,-0.39029884338378906,1.089055061340332,0.2889988422393799
1757491484807421700,7.060421630859375,-0.9951067566871643,1.0985536575317383,-0.14320087432861328
1757491484817460500,7.07046044921875,-1.695156455039978,0.991084098815918,-0.4564405679702759
1757491484827501800,7.080501708984375,-1.62210214138031,0.8882532119750977,-0.7421512603759766
1757491484837542000,7.0905419921875,0.4965570867061615,1.2671031951904297,-1.1269633769989014
1757491484847586800,7.1005869140625,2.213411331176758,1.6044130325317383,-1.6829543113708496
1757491484857623600,7.11062353515625,2.8802764415740967,1.9429106712341309,-2.4015250205993652
1757491484867668500,7.12066845703125,4.244668006896973,1.9735770225524902,-3.390432834625244
1757491484877708800,7.130708740234375,5.3535566329956055,1.8409228324890137,-3.9675745964050293
1757491484887749600,7.14074951171875,6.152514457702637,1.3849506378173828,-3.9520654678344727
1757491484897786000,7.1507861328125,4.836853981018066,0.3180398941040039,-2.5964202880859375
1757491484907831300,7.160831298828125,1.5835994482040405,-2.0946531295776367,-0.17171931266784668
1757491484917871600,7.17087158203125,4.598460674285889,-4.388861656188965,1.3756687641143799
1757491484927908900,7.180908935546875,5.455082416534424,-6.247869491577148,1.7096866369247437
1757491484937953300,7.190953369140625,4.191152572631836,-7.2017822265625,1.4942429065704346
1757491484947994400,7.200994384765625,3.410019636154175,-6.91855525970459,0.08877217769622803
1757491484958030800,7.21103076171875,1.7995672225952148,-5.920631408691406,-0.9843541383743286
1757491484968075300,7.2210751953125,0.6440947651863098,-5.940629959106445,0.06560921669006348
1757491484978116400,7.231116455078125,-0.08851146697998047,-7.089354515075684,2.676068067550659
1757491484988157200,7.2411572265625,-2.6411209106445312,-8.62866497039795,4.862471103668213
1757491484998193700,7.251193603515625,-3.667208433151245,-9.719588279724121,6.115237712860107
1757491485008238300,7.26123828125,-3.062591552734375,-9.099373817443848,6.791165351867676
1757491485018279000,7.27127880859375,-4.909007549285889,-6.299576759338379,5.563155651092529
1757491485028316000,7.28131591796875,-4.531754016876221,-2.904348373413086,3.4080822467803955
1757491485038361000,7.291361083984375,-2.282896041870117,-1.545166015625,2.3158516883850098
1757491485048407000,7.301406982421875,-1.3221752643585205,-1.507894515991211,1.9934866428375244
1757491485058438100,7.311438232421875,-1.663774013519287,-1.7431535720825195,2.2869908809661865
1757491485068479000,7.32147900390625,-1.9577491283416748,-1.6833362579345703,3.1413004398345947
1757491485078522000,7.331522216796875,-2.1023707389831543,-1.1127643585205078,4.356554985046387
1757491485088560000,7.34156005859375,-2.5015692710876465,-0.5005369186401367,5.516467094421387
1757491485098605300,7.351605224609375,-2.915719747543335,-0.3915824890136719,6.386001110076904
1757491485108646100,7.361646240234375,-3.3674402236938477,-0.7213497161865234,6.899526119232178
1757491485118686700,7.371686767578125,-3.5632572174072266,-1.0693540573120117,6.458154201507568
1757491485128727300,7.381727294921875,-2.427067279815674,-1.5664587020874023,4.9375715255737305
1757491485138768000,7.391767822265625,-1.9333491325378418,-1.8596420288085938,3.506276845932007
1757491485148808200,7.40180810546875,-2.6108286380767822,-2.0386857986450195,2.268129348754883
1757491485158845200,7.41184521484375,-2.5867385864257812,-2.6510696411132812,1.0337120294570923
1757491485168890000,7.42189013671875,-3.3668575286865234,-3.4965391159057617,-0.02394282817840576
1757491485178930400,7.431930419921875,-3.8395028114318848,-4.158524513244629,-1.1083699464797974
1757491485188971500,7.441971435546875,-3.408858299255371,-4.471131324768066,-2.208085060119629
1757491485199012000,7.45201220703125,-2.6109395027160645,-4.44411563873291,-3.2213962078094482
1757491485209053000,7.462052978515625,-2.1241085529327393,-4.203529357910156,-3.9290623664855957
1757491485219089700,7.472089599609375,-1.3313038349151611,-3.7699851989746094,-4.2512993812561035
1757491485229130800,7.482130859375,0.2911386489868164,-3.466419219970703,-3.9586386680603027
1757491485239175400,7.492175537109375,2.395360231399536,-3.353102684020996,-3.0637595653533936
1757491485249215500,7.502215576171875,3.5610108375549316,-3.40865421295166,-1.2292394638061523
1757491485259256300,7.51225634765625,3.4689574241638184,-3.447878837585449,0.9262316226959229
1757491485269297200,7.522297119140625,3.223325490951538,-3.476273536682129,2.702742099761963
1757491485279334100,7.532334228515625,2.406728506088257,-3.56777286529541,3.158813953399658
1757491485289378800,7.54237890625,2.3668529987335205,-3.959263801574707,2.1551737785339355
1757491485299415000,7.5524150390625,2.955244302749634,-4.866443634033203,0.7823796272277832
1757491485309456100,7.5624560546875,3.493504047393799,-5.726051330566406,-0.40710926055908203
1757491485319497500,7.57249755859375,4.075800895690918,-5.7295331954956055,-1.649198293685913
1757491485329539000,7.5825390625,3.998690605163574,-5.237905025482178,-3.172051429748535
1757491485339582700,7.592582763671875,3.7638421058654785,-3.8776097297668457,-4.432182788848877
1757491485349619200,7.602619140625,3.4234492778778076,-2.0769553184509277,-5.28575325012207
1757491485359663900,7.612663818359375,3.253471851348877,-1.0493741035461426,-6.763538360595703
1757491485369700600,7.62270068359375,3.194699764251709,0.4965019226074219,-7.943918704986572
1757491485379745500,7.63274560546875,3.015658140182495,2.4709839820861816,-8.453166961669922
1757491485389785600,7.64278564453125,2.3570947647094727,3.6019678115844727,-8.596820831298828
1757491485399827000,7.652826904296875,2.464087963104248,4.259471893310547,-8.709616661071777
1757491485419908400,7.672908447265625,3.378941535949707,5.2534871101379395,-8.025099754333496
1757491485429949000,7.682948974609375,3.3875951766967773,5.247810363769531,-7.39682674407959
1757491485439985400,7.6929853515625,3.306962490081787,5.04646635055542,-7.005492687225342
1757491485450030000,7.703030029296875,3.4173269271850586,5.165017127990723,-6.541887283325195
1757491485460045000,7.713045166015625,3.206312417984009,5.081584930419922,-5.8784356117248535
1757491485470098000,7.723097900390625,3.2174034118652344,5.303668975830078,-5.6160664558410645
1757491485480147000,7.73314697265625,2.9986019134521484,5.111484050750732,-5.098337173461914
1757491485490192600,7.743192626953125,2.671566963195801,4.425602912902832,-4.67903995513916
1757491485500233000,7.75323291015625,2.251282215118408,3.8301374912261963,-3.9810962677001953
1757491485510272000,7.76327197265625,1.812469482421875,3.2610855102539062,-3.0437471866607666
1757491485520314600,7.773314697265625,1.587035894393921,2.5379388332366943,-1.759145736694336
1757491485530352600,7.7833525390625,1.6762409210205078,1.7234339714050293,-0.6258106231689453
1757491485540392200,7.79339208984375,1.829840898513794,0.979954719543457,0.006856441497802734
1757491485550436600,7.8034365234375,1.582127332687378,0.547914981842041,0.08667278289794922
1757491485560477400,7.8134775390625,1.535604476928711,0.30230283737182617,0.1377425193786621
1757491485570518500,7.8235185546875,1.2064764499664307,-0.3808894157409668,-0.11756467819213867
1757491485580557300,7.833557373046875,1.062990427017212,-0.7447047233581543,-0.46031999588012695
1757491485590600000,7.843599853515625,0.6835689544677734,-1.0724034309387207,-1.3733391761779785
1757491485600636400,7.853636474609375,0.43639039993286133,-1.2100768089294434,-2.3978090286254883
1757491485610681000,7.86368115234375,0.40749192237854004,-1.3772993087768555,-3.359513759613037
1757491485620722200,7.87372216796875,0.2033846378326416,-1.4314484596252441,-3.924532651901245
1757491485630762200,7.88376220703125,-0.843996524810791,-1.3217782974243164,-3.9342844486236572
1757491485640803300,7.89380322265625,-1.604116678237915,-1.5392799377441406,-4.225541114807129
1757491485650841600,7.903841552734375,-0.7517490386962891,-1.3496437072753906,-3.5224504470825195
1757491485660886300,7.91388623046875,-0.4614100456237793,-0.9766583442687988,-1.3880951404571533
1757491485670921700,7.923921630859375,1.1305935382843018,-1.3736252784729004,0.8108940124511719
1757491485680962000,7.933962158203125,2.8861377239227295,-2.11248779296875,1.2493858337402344
1757491485691004000,7.94400390625,3.6211817264556885,-3.232428550720215,0.057068824768066406
1757491485701045500,7.95404541015625,1.4496145248413086,-4.26606559753418,-0.46570634841918945
1757491485711088000,7.964088134765625,-1.0015144348144531,-4.738279342651367,-0.2353968620300293
1757491485721127200,7.974127197265625,-0.604135274887085,-4.778482437133789,-0.28903865814208984
1757491485731167200,7.984167236328125,-0.05118417739868164,-4.5122175216674805,-0.15489912033081055
1757491485741211000,7.9942109375,-0.3236124515533447,-4.441450119018555,0.2577662467956543
1757491485751251200,8.004251220703125,1.7854487895965576,-4.403075218200684,0.8353991508483887
1757491485761289700,8.014289794921876,2.290163993835449,-4.53990364074707,1.209507703781128
1757491485771332600,8.02433251953125,1.385292887687683,-4.917280197143555,1.6340715885162354
1757491485781373000,8.034373046875,1.392069935798645,-5.1399431228637695,1.9502861499786377
1757491485791414300,8.044414306640626,1.5008854866027832,-4.704960823059082,2.0359463691711426
1757491485801452800,8.054452880859374,0.8601608872413635,-3.4856204986572266,1.828235387802124
1757491485811493000,8.0644931640625,0.6254552602767944,-1.5571966171264648,1.1909208297729492
1757491485821536500,8.07453662109375,0.7391607761383057,0.2957172393798828,0.3969540596008301
1757491485831574300,8.08457421875,0.6548053026199341,1.6240816116333008,-0.274367094039917
1757491485841618000,8.094617919921875,1.015411138534546,2.6627464294433594,-0.657156229019165
1757491485851658200,8.104658203125,1.2975108623504639,3.411715507507324,-0.7275674343109131
1757491485861694700,8.11469482421875,1.1904456615447998,3.8051319122314453,-0.27834653854370117
1757491485871740000,8.124739990234374,1.1700129508972168,3.887883186340332,0.5322000980377197
1757491485881778400,8.1347783203125,1.0424000024795532,3.533291816711426,1.4825432300567627
1757491485891821600,8.144821533203125,0.6655173897743225,2.921072006225586,2.332811117172241
1757491485901862100,8.154862060546876,0.33160537481307983,2.400729179382324,2.8676674365997314
1757491485911903200,8.1649033203125,-0.16947457194328308,2.027529716491699,3.000169277191162
1757491485921939700,8.174939697265625,-0.784339189529419,1.442215919494629,2.8881630897521973
1757491485931980000,8.18497998046875,0.14472952485084534,1.5035362243652344,2.852682590484619
1757491485942023200,8.195023193359376,0.03303493559360504,1.1765308380126953,2.4936556816101074
1757491485952063700,8.205063720703125,-0.25871002674102783,0.9630165100097656,2.0215461254119873
1757491485962105900,8.21510595703125,-0.4986649751663208,0.7834320068359375,1.4529517889022827
1757491485972147000,8.22514697265625,-1.164673924446106,0.4919404983520508,0.7183651924133301
1757491485982187500,8.2351875,-1.1951236724853516,0.37407398223876953,0.1601412296295166
1757491485992224500,8.245224609375,-0.13236771523952484,0.7458419799804688,-0.11062479019165039
1757491486002269000,8.25526904296875,-0.5660768151283264,1.0423088073730469,-0.05847811698913574
1757491486012309500,8.2653095703125,-1.38447105884552,0.8921909332275391,0.28081297874450684
1757491486022349300,8.275349365234375,-0.9133061766624451,1.080526351928711,0.6949120163917542
1757491486032391000,8.285390869140626,0.17922374606132507,1.3989171981811523,1.2011198997497559
1757491486042431700,8.295431640625,-0.23304304480552673,1.428126335144043,1.5725096464157104
1757491486052470300,8.30547021484375,-0.09166082739830017,1.4421453475952148,1.817091464996338
1757491486062511000,8.315510986328125,0.9621371626853943,1.6922740936279297,1.8343043327331543
1757491486072554000,8.325553955078124,0.3382148742675781,1.5894527435302734,1.5898818969726562
1757491486082594600,8.335594482421875,0.4237580895423889,1.4355545043945312,1.298950433731079
1757491486092635600,8.3456357421875,0.44597333669662476,1.2665166854858398,0.8424738049507141
1757491486102676200,8.35567626953125,0.1991204023361206,0.9670629501342773,0.23116111755371094
1757491486112716500,8.365716552734375,0.3005695343017578,0.5788812637329102,-0.33760523796081543
1757491486122755800,8.375755859375,0.07462775707244873,-0.2056722640991211,-0.4956987500190735
1757491486132796000,8.3857958984375,-0.018441736698150635,-1.2773828506469727,-0.2950282394886017
1757491486142839300,8.39583935546875,-0.3532821536064148,-2.239959716796875,-0.11426392942667007
1757491486152881000,8.405880859375,-0.0062711238861083984,-2.760713577270508,-0.04604092240333557
1757491486162918100,8.415918212890626,-0.08987212181091309,-3.519742965698242,0.34710532426834106
1757491486172957400,8.42595751953125,0.05918014049530029,-4.450107574462891,1.5431755781173706
1757491486182998500,8.43599853515625,0.8825874328613281,-4.880388259887695,2.8961007595062256
1757491486193040100,8.4460400390625,0.028041362762451172,-5.318793296813965,3.6916275024414062
1757491486203081500,8.45608154296875,-1.0047976970672607,-5.5217180252075195,3.888278007507324
1757491486213123800,8.466123779296876,-1.386656403541565,-5.426827430725098,3.173326015472412
1757491486223164700,8.47616455078125,-1.6984705924987793,-5.438591003417969,2.361192464828491
1757491486233205200,8.486205322265626,-2.3188347816467285,-5.501468658447266,2.1640398502349854
1757491486243244300,8.496244384765625,-2.6975646018981934,-5.27858829498291,2.786191940307617
1757491486253284600,8.50628466796875,-3.309138774871826,-4.755353927612305,3.9110653400421143
1757491486263327700,8.51632763671875,-3.6504709720611572,-4.209454536437988,5.313822269439697
1757491486273366800,8.52636669921875,-3.4158835411071777,-3.8654069900512695,6.703803539276123
1757491486283409000,8.536408935546875,-3.116454601287842,-3.796916961669922,7.843995571136475
1757491486293450000,8.546449951171875,-2.295931816101074,-3.711886405944824,8.617650985717773
1757491486303490300,8.556490234375,-0.9728525876998901,-3.327042579650879,8.856971740722656
1757491486313528800,8.56652880859375,0.4471481144428253,-3.0388565063476562,8.689985275268555
1757491486323569400,8.5765693359375,1.8059403896331787,-2.8124685287475586,7.888198375701904
1757491486333610200,8.5866103515625,2.3254220485687256,-2.7554426193237305,6.436457633972168
1757491486343651800,8.59665185546875,2.1441972255706787,-3.1303977966308594,4.648188591003418
1757491486353691600,8.606691650390625,1.9946181774139404,-3.8778257369995117,2.681957244873047
1757491486363733200,8.616733154296876,1.6834464073181152,-4.608806610107422,0.5819599628448486
1757491486373772500,8.6267724609375,1.3262665271759033,-4.9611005783081055,-1.231279730796814
1757491486383816000,8.63681591796875,1.3161511421203613,-4.846590042114258,-2.2200236320495605
1757491486393855500,8.64685546875,1.2722318172454834,-4.158951759338379,-2.3876678943634033
1757491486403898600,8.656898681640625,1.954491138458252,-3.2748165130615234,-1.725947618484497
1757491486413934600,8.6669345703125,3.384139060974121,-2.4598703384399414,-0.3459174633026123
1757491486423975200,8.67697509765625,3.983872890472412,-1.6551904678344727,1.2584059238433838
1757491486434022100,8.687022216796874,3.3689661026000977,-1.0492048263549805,2.2102279663085938
1757491486444063000,8.69706298828125,2.773155927658081,-0.8132505416870117,1.878335952758789
1757491486454100000,8.707099853515626,2.244448661804199,-1.1814136505126953,0.6737666130065918
1757491486464126700,8.717126708984376,2.0366461277008057,-1.7117681503295898,-0.5403752326965332
1757491486474156800,8.72715673828125,2.403597593307495,-2.058905601501465,-1.5349838733673096
1757491486484197600,8.73719775390625,2.3130569458007812,-1.9746742248535156,-2.413672685623169
1757491486494239000,8.747239013671875,1.9551937580108643,-1.2199831008911133,-2.790193557739258
1757491486504279600,8.757279541015626,1.0908362865447998,-0.4864339828491211,-3.439859390258789
1757491486514342700,8.7673427734375,1.6875391006469727,0.32773256301879883,-4.171663284301758
1757491486524383700,8.7773837890625,2.7112154960632324,1.3188705444335938,-4.666844367980957
1757491486534413600,8.78741357421875,2.2401065826416016,1.6649842262268066,-5.15297794342041
1757491486544467200,8.79746728515625,2.627734661102295,2.3541784286499023,-5.430718421936035
1757491486554504700,8.807504638671874,3.0448994636535645,2.8169169425964355,-5.624906539916992
1757491486564547000,8.817547119140626,3.4035303592681885,3.1496939659118652,-5.656740665435791
1757491486574586600,8.827586669921875,3.177584648132324,2.9992921352386475,-5.641537189483643
1757491486584628200,8.837628173828126,3.215125799179077,2.981635093688965,-5.58549165725708
1757491486594692600,8.847692626953124,3.536430835723877,3.1604599952697754,-5.448482513427734
1757491486604724200,8.85772412109375,3.8598623275756836,3.351294994354248,-5.217133522033691
1757491486614752000,8.867751953125,3.7982192039489746,3.884913206100464,-5.194008827209473
1757491486624789000,8.8777890625,3.2139153480529785,4.133365154266357,-5.576576232910156
1757491486634831400,8.887831298828125,3.105806827545166,4.629962921142578,-5.863338947296143
1757491486644874800,8.897874755859375,2.9010558128356934,4.63592529296875,-5.450589179992676
1757491486654916400,8.907916259765624,2.834744930267334,4.308658599853516,-4.989170551300049
1757491486664951800,8.917951904296874,2.622819185256958,3.9845447540283203,-4.501810073852539
1757491486674993000,8.927992919921875,2.202470541000366,3.652179002761841,-3.869178056716919
1757491486685034000,8.938033935546875,1.5478014945983887,3.1560165882110596,-2.8032381534576416
1757491486695076000,8.948076171875,1.2541210651397705,2.4650301933288574,-1.5768470764160156
1757491486705118500,8.958118408203125,1.152299404144287,1.9012293815612793,-0.6630730628967285
1757491486715159300,8.9681591796875,1.330430269241333,1.2548413276672363,0.07108402252197266
1757491486725200000,8.978199951171876,1.595118761062622,0.5621004104614258,0.6645627021789551
1757491486735238400,8.98823828125,1.8110729455947876,-0.07390022277832031,1.0885210037231445
1757491486745281300,8.99828125,1.788569450378418,-0.4900627136230469,1.1476902961730957
1757491486755319800,9.00831982421875,1.123652696609497,-0.6508922576904297,0.6834754943847656
1757491486765361000,9.01836083984375,0.062340497970581055,-0.751854419708252,-0.06446266174316406
1757491486775403500,9.028403564453125,-0.6744506359100342,-0.6688899993896484,-0.7901749610900879
1757491486785444000,9.038444091796874,-0.6635138988494873,-0.8411746025085449,-1.4370007514953613
1757491486795485000,9.04848486328125,-0.31305527687072754,-0.901069164276123,-2.542966365814209
1757491486805523200,9.058523193359376,-0.3020763397216797,-0.6645956039428711,-2.9760420322418213
1757491486815564000,9.06856396484375,-1.6708025932312012,-1.1895170211791992,-1.108593463897705
1757491486825607200,9.078607177734375,-2.4104645252227783,-2.4571056365966797,1.6627230644226074
1757491486835645400,9.0886455078125,-2.2267727851867676,-4.17081880569458,2.631396770477295
1757491486845688800,9.098688720703125,-2.4592537879943848,-5.993990898132324,1.4024462699890137
1757491486855729200,9.108729248046876,-2.8471012115478516,-6.5965471267700195,0.40749645233154297
1757491486865769700,9.118769775390625,-1.8268120288848877,-5.110979080200195,-0.13563823699951172
1757491486875808800,9.128808837890626,-0.2945530414581299,-2.5772571563720703,-0.7594308853149414
1757491486885849300,9.138849365234375,-0.08696126937866211,-0.2383565902709961,-1.2786965370178223
1757491486895894800,9.148894775390625,0.4290957450866699,1.442885398864746,-1.8069593906402588
1757491486905929000,9.158928955078125,1.4128749370574951,2.326258659362793,-2.0776419639587402
1757491486915969300,9.16896923828125,2.0647482872009277,2.253849983215332,-1.7373194694519043
1757491486926010600,9.1790107421875,2.159562826156616,1.4739022254943848,-0.9690427780151367
1757491486936058400,9.189058349609375,2.3505454063415527,0.43194580078125,-0.18035507202148438
1757491486946093600,9.199093505859375,2.3072524070739746,-0.8082599639892578,0.6410012245178223
1757491486956134100,9.209134033203124,1.8586931228637695,-2.1015968322753906,1.5681936740875244
1757491486966151700,9.219151611328124,1.1742562055587769,-3.215104103088379,2.6130146980285645
1757491486976213800,9.2292138671875,0.9697675704956055,-3.6594772338867188,3.4828941822052
1757491486986255400,9.23925537109375,1.3511133193969727,-3.2604198455810547,3.8418309688568115
1757491486996297500,9.24929736328125,1.4202399253845215,-2.139751434326172,3.877795457839966
1757491487006336000,9.2593359375,0.8041101694107056,-0.8369531631469727,3.884050130844116
1757491487016381700,9.269381591796876,0.4198228716850281,0.21787071228027344,3.8480825424194336
1757491487026420000,9.279419921875,0.003584355115890503,0.8622379302978516,3.705112934112549
1757491487036458500,9.28945849609375,0.2502571940422058,1.0923309326171875,3.3170790672302246
1757491487046499800,9.299499755859374,0.371023565530777,1.076960563659668,2.723825454711914
1757491487056542200,9.309542236328125,0.14809785783290863,0.9742307662963867,1.9743435382843018
1757491487066584300,9.319584228515625,-0.2903140187263489,0.8035869598388672,1.4017293453216553
1757491487076621600,9.32962158203125,-0.511538028717041,0.8585948944091797,0.9402890205383301
1757491487086661600,9.33966162109375,-0.34813544154167175,0.9931421279907227,0.4288654327392578
1757491487096706600,9.34970654296875,0.10212123394012451,1.2487096786499023,0.24868988990783691
1757491487106747100,9.3597470703125,0.4278263747692108,1.4983348846435547,0.3332071304321289
1757491487116787700,9.36978759765625,0.21162718534469604,2.0483808517456055,0.6007564067840576
1757491487126828800,9.379828857421876,-0.5631760954856873,2.502289295196533,0.8591654300689697
1757491487136865300,9.389865234375,0.0040892064571380615,3.1599693298339844,1.3476037979125977
1757491487146910200,9.39991015625,-0.7098519206047058,3.387711524963379,1.5344090461730957
1757491487156947200,9.409947265625,-1.189948320388794,3.8303780555725098,1.6140646934509277
1757491487166991400,9.419991455078126,-1.8311125040054321,4.125415802001953,1.2275221347808838
1757491487177032200,9.4300322265625,-0.810119092464447,4.316657066345215,0.9568674564361572
1757491487187072800,9.44007275390625,-1.2309435606002808,3.817938804626465,0.576810359954834
1757491487197110300,9.4501103515625,-2.4013724327087402,2.9410934448242188,0.125571608543396
1757491487207155000,9.460155029296875,-2.8431003093719482,2.0899667739868164,-0.07431411743164062
1757491487217194500,9.470194580078125,-2.4073078632354736,1.3170881271362305,0.8456207513809204
1757491487227231500,9.4802314453125,-1.8223932981491089,0.6702814102172852,1.6875004768371582
1757491487237276700,9.490276611328126,-1.1191902160644531,0.29724597930908203,2.173982858657837
1757491487247317200,9.500317138671875,1.0229027271270752,0.8229150772094727,2.4511618614196777
1757491487257357300,9.510357421875,0.3519454002380371,1.326894760131836,2.3157920837402344
1757491487267395000,9.52039501953125,-0.7074011564254761,0.9077024459838867,1.905608057975769
1757491487277435000,9.530434814453125,-0.69981849193573,0.058030128479003906,1.130874514579773
1757491487287476200,9.540476318359374,0.7059550881385803,-0.7932024002075195,-0.5993072986602783
1757491487297516500,9.5505166015625,1.8573476076126099,-1.1301498413085938,-2.4874649047851562
1757491487307558400,9.560558349609375,1.9688713550567627,-1.3854541778564453,-3.1544551849365234
1757491487317602000,9.57060205078125,2.080008029937744,-1.9888639450073242,-2.8266983032226562
1757491487327638800,9.580638671875,1.9686239957809448,-2.9467554092407227,-1.9710218906402588
1757491487337683000,9.590682861328125,1.86533784866333,-3.8601608276367188,-1.2678780555725098
1757491487347723800,9.600723876953126,1.5685374736785889,-4.725072860717773,-0.9138373732566833
1757491487357764600,9.6107646484375,1.6783437728881836,-5.45304012298584,-0.831530749797821
1757491487367805200,9.62080517578125,1.8615243434906006,-5.787561416625977,-0.8165484666824341
1757491487377845500,9.630845458984375,1.3001147508621216,-5.999015808105469,0.05822646617889404
1757491487387883300,9.64088330078125,1.6298935413360596,-5.630549430847168,1.7865278720855713
1757491487397923300,9.65092333984375,0.7321335673332214,-5.402294158935547,3.646688938140869
1757491487407967700,9.6609677734375,-0.37466633319854736,-5.613378524780273,5.428776741027832
1757491487418008800,9.6710087890625,-0.20606189966201782,-5.348041534423828,6.424269676208496
1757491487428049200,9.681049072265624,-1.1573491096496582,-5.078493118286133,6.2362518310546875
1757491487438090200,9.69109033203125,-1.8884594440460205,-4.5823974609375,4.652481555938721
1757491487448130000,9.701130126953124,-2.5148797035217285,-4.239289283752441,2.337684154510498
1757491487458167800,9.711167724609375,-2.4465408325195312,-3.699462890625,0.3981807827949524
1757491487468212500,9.72121240234375,-3.108275890350342,-2.8133792877197266,-0.30054810643196106
1757491487478253000,9.731253173828126,-4.507482051849365,-2.3782081604003906,1.269899845123291
1757491487488293400,9.74129345703125,-5.3434319496154785,-2.525618553161621,4.201274394989014
1757491487498334500,9.75133447265625,-5.116214752197266,-2.1806821823120117,6.839409351348877
1757491487508375300,9.761375244140625,-4.228942394256592,-1.1794042587280273,8.598332405090332
1757491487518411500,9.77141162109375,-2.5520453453063965,-0.33985424041748047,9.550614356994629
1757491487528452400,9.781452392578124,-0.04872193932533264,0.16255760192871094,9.924324989318848
1757491487538493400,9.791493408203126,1.9493731260299683,0.5723819732666016,9.514302253723145
1757491487548535600,9.80153564453125,3.3915417194366455,0.4007387161254883,7.816725254058838
1757491487558578400,9.811578369140625,3.844222068786621,-0.28952980041503906,5.685415267944336
1757491487568619300,9.821619384765626,2.988503932952881,-1.5525569915771484,3.603708267211914
1757491487578659800,9.831659912109375,1.0236382484436035,-3.4654979705810547,1.623889446258545
1757491487588696300,9.8416962890625,-0.9717741012573242,-6.033217430114746,-0.8697242736816406
1757491487598737000,9.85173681640625,-1.9043455123901367,-8.067744255065918,-4.044813632965088
1757491487608782300,9.8617822265625,-1.1547627449035645,-8.594283103942871,-6.9457244873046875
1757491487618822400,9.871822509765625,-0.07782977819442749,-8.028467178344727,-8.090649604797363
1757491487628863000,9.881863037109374,0.6462001204490662,-6.023977279663086,-7.540734767913818
1757491487638903000,9.891903076171875,1.7985687255859375,-3.464463233947754,-6.045633316040039
1757491487648940800,9.90194091796875,2.9325642585754395,-1.9675464630126953,-3.9296605587005615
1757491487658985200,9.911985107421875,3.1638786792755127,-1.454071044921875,-1.5396649837493896
1757491487669026000,9.922026123046875,1.5202827453613281,-1.4462289810180664,0.45547914505004883
1757491487679066400,9.93206640625,0.33230018615722656,-1.3636980056762695,0.7517595291137695
1757491487689107500,9.942107421875,1.5904616117477417,-1.3690457344055176,-0.6457853317260742
1757491487699147800,9.952147705078126,2.926708698272705,-1.670238971710205,-2.1064367294311523
1757491487709188400,9.962188232421875,2.7713913917541504,-1.5299782752990723,-2.708254814147949
1757491487719225300,9.972225341796875,3.2492516040802,-0.8470168113708496,-3.398784637451172
1757491487729270000,9.98227001953125,3.12661075592041,0.2224416732788086,-4.3895978927612305
1757491487739310600,9.992310546875,3.094986915588379,1.0992040634155273,-5.781844139099121
1757491487749352000,10.00235205078125,3.5412404537200928,2.386631488800049,-7.149224758148193
1757491487759394000,10.01239404296875,2.9839582443237305,3.3704276084899902,-7.83894681930542
1757491487769429200,10.02242919921875,2.4664831161499023,3.9961979389190674,-8.152832984924316
1757491487779469800,10.0324697265625,2.2174057960510254,4.949933052062988,-8.168027877807617
1757491487789511200,10.04251123046875,1.8103315830230713,5.523493766784668,-8.079373359680176
1757491487799553000,10.052552978515624,1.49760901927948,5.800412178039551,-8.238574028015137
1757491487809595600,10.062595703125,1.4656051397323608,5.7225565910339355,-7.989635467529297
1757491487819637000,10.072636962890625,1.773693323135376,6.2668304443359375,-7.049393177032471
1757491487829651500,10.0826513671875,1.9548373222351074,5.951658248901367,-5.318807601928711
1757491487839691000,10.09269091796875,2.1424756050109863,5.1778459548950195,-4.589735507965088
1757491487849744400,10.102744384765625,1.8901426792144775,3.688349485397339,-3.3056864738464355
1757491487859798000,10.112798095703125,1.2842113971710205,1.9577760696411133,-1.6404204368591309
1757491487869839400,10.12283935546875,1.5021731853485107,0.629025936126709,-0.8106255531311035
1757491487879879400,10.13287939453125,2.650655508041382,-0.6132707595825195,-0.6252951622009277
1757491487889918000,10.14291796875,3.9071288108825684,-1.9035868644714355,-0.8493776321411133
1757491487899957800,10.152957763671875,3.315004348754883,-2.590259552001953,-1.8060493469238281
1757491487909998300,10.162998291015626,2.147439956665039,-2.237147808074951,-3.048549175262451
1757491487920039400,10.173039306640625,1.4442685842514038,-1.906203269958496,-4.953781604766846
1757491487930083800,10.183083740234375,1.7926380634307861,-1.1848783493041992,-6.016148567199707
1757491487940123400,10.193123291015626,0.8350274562835693,-0.2995138168334961,-5.4219536781311035
1757491487950162700,10.20316259765625,-0.7486710548400879,-0.33777475357055664,-2.9090042114257812
1757491487960204800,10.213204833984374,-1.2584354877471924,-1.931218147277832,-0.17815303802490234
1757491487970242000,10.223241943359374,-1.8482954502105713,-4.215958595275879,1.2655081748962402
1757491487980286700,10.23328662109375,-3.7566123008728027,-6.954812049865723,1.379448413848877
1757491487990325000,10.243324951171875,-3.0604987144470215,-9.65504264831543,1.0461125373840332
1757491488000367900,10.253367919921875,-0.9371498823165894,-10.22268295288086,0.5705747604370117
1757491488010408400,10.263408447265626,-1.48984956741333,-8.425273895263672,0.7877740859985352
1757491488020449500,10.273449462890625,-1.49765944480896,-5.450624465942383,0.8684701919555664
1757491488030489900,10.28348974609375,-1.0421565771102905,-2.15793514251709,0.25936460494995117
1757491488040526300,10.2935263671875,-1.446815013885498,0.33275699615478516,-0.3418140411376953
1757491488050571800,10.30357177734375,0.1716349720954895,1.3901214599609375,-0.8506565093994141
1757491488060609800,10.31360986328125,1.2240684032440186,1.1023802757263184,-1.1592836380004883
1757491488070653000,10.32365283203125,2.0917904376983643,-0.04775047302246094,-1.2652983665466309
1757491488080693200,10.333693359375,2.292044162750244,-1.4666852951049805,-1.2704663276672363
1757491488090733800,10.34373388671875,1.9231127500534058,-2.5651321411132812,-0.9716877937316895
1757491488100773000,10.353773193359375,1.340639352798462,-3.1842098236083984,-0.3704402446746826
1757491488110813200,10.363813232421874,0.47796523571014404,-3.1821794509887695,0.48472023010253906
1757491488120856300,10.373856201171876,0.1717306524515152,-2.4245681762695312,1.2710506916046143
1757491488130899200,10.383899169921875,0.13931789994239807,-1.252847671508789,1.7955920696258545
1757491488140934100,10.39393408203125,-0.08538225293159485,-0.11031341552734375,2.135479211807251
1757491488150974700,10.403974609375,-0.47291719913482666,0.7308855056762695,2.3503451347351074
1757491488161015800,10.414015869140625,-1.290902853012085,1.0839004516601562,2.082378387451172
1757491488171061500,10.4240615234375,-1.8325518369674683,1.2066926956176758,1.5166890621185303
1757491488181098500,10.434098388671876,-1.3249024152755737,1.5021553039550781,0.6795182228088379
1757491488191140600,10.444140625,-1.2493383884429932,1.8559670448303223,-0.19669079780578613
1757491488201181200,10.45418115234375,-1.4651464223861694,2.1763391494750977,-0.9466848373413086
1757491488211222000,10.464221923828125,-1.4062530994415283,2.5659494400024414,-1.5380604267120361
1757491488221261300,10.47426123046875,-0.9292399883270264,2.992403030395508,-1.7516523599624634
1757491488231301600,10.484301513671875,-0.9193027019500732,3.172459602355957,-1.6520893573760986
1757491488241343700,10.49434375,-0.4572078585624695,3.3088808059692383,-0.996552586555481
1757491488251383300,10.50438330078125,-0.2187771201133728,3.2256011962890625,-0.11808085441589355
1757491488261425700,10.51442578125,-0.24861687421798706,3.0374746322631836,1.033207654953003
1757491488271466500,10.524466552734374,-0.5413069725036621,2.811800956726074,2.1039299964904785
1757491488281507000,10.534507080078125,-1.4864170551300049,2.7181215286254883,2.746450185775757
1757491488291543600,10.54454345703125,-1.5306475162506104,2.60414457321167,2.8134419918060303
1757491488301588500,10.55458837890625,-0.2416982650756836,2.976083755493164,2.680310010910034
1757491488311629000,10.564629150390624,-0.27228862047195435,3.112074851989746,2.299269437789917
1757491488321670000,10.574669921875,-0.7829192876815796,3.1500024795532227,1.7851974964141846
1757491488331710200,10.584710205078125,-1.2096068859100342,2.709432601928711,1.2013225555419922
1757491488341751000,10.5947509765625,-0.8783268928527832,2.015326976776123,0.8729187250137329
1757491488351791900,10.6047919921875,-1.4947504997253418,1.2526273727416992,0.8752987384796143
1757491488361828000,10.614828125,-1.949304223060608,0.6562576293945312,0.9945694208145142
1757491488371873800,10.624873779296875,-1.6607533693313599,0.4384288787841797,0.6633049249649048
1757491488381915400,10.634915283203124,-0.6382458209991455,0.5306949615478516,0.3834347724914551
1757491488391950300,10.644950439453124,-0.33009761571884155,0.6839580535888672,0.38104796409606934
1757491488401991400,10.654991455078125,0.832648754119873,0.6130123138427734,0.898064374923706
1757491488412033500,10.665033447265625,1.577686071395874,0.48297691345214844,1.2299095392227173
1757491488422075000,10.675074951171876,0.7901790142059326,0.10687541961669922,1.1537281274795532
1757491488432115000,10.685114990234375,0.011780023574829102,-0.3907957077026367,0.49882686138153076
1757491488442157800,10.69515771484375,0.12904655933380127,-1.7585277557373047,0.2891010046005249
1757491488452198400,10.705198486328126,-0.12608706951141357,-3.3968772888183594,0.5573911666870117
1757491488462239000,10.715239013671875,-0.609033465385437,-4.974262237548828,0.8863964080810547
1757491488472279800,10.72527978515625,0.18704664707183838,-6.344625473022461,1.431652545928955
1757491488482316800,10.73531689453125,0.4377526044845581,-7.514198303222656,2.3855810165405273
1757491488492361000,10.74536083984375,0.07648336887359619,-8.07569408416748,3.768643617630005
1757491488502400000,10.75539990234375,-0.5654641389846802,-7.936474800109863,5.2387895584106445
1757491488512442000,10.765442138671874,-1.3984400033950806,-7.135109901428223,5.948516845703125
1757491488522483200,10.775483154296875,-2.2987358570098877,-6.457419395446777,5.211854934692383
1757491488532524000,10.78552392578125,-2.6346540451049805,-5.977239608764648,3.485913038253784
1757491488542564400,10.795564453125,-2.477013111114502,-5.179222106933594,1.6397559642791748
1757491488552601600,10.8056015625,-2.757554054260254,-3.7710275650024414,0.5305590629577637
1757491488562645500,10.8156455078125,-3.10524845123291,-2.12288761138916,1.1389601230621338
1757491488572687400,10.825687255859375,-4.614771842956543,-0.8923187255859375,3.4767308235168457
1757491488582727700,10.835727783203126,-6.040082931518555,-0.14425277709960938,6.346016883850098
1757491488592767700,10.845767822265625,-5.826050281524658,0.44739627838134766,8.614686965942383
1757491488602809000,10.85580908203125,-3.903681755065918,0.7058162689208984,9.731945037841797
1757491488612847000,10.86584716796875,-1.0375096797943115,0.5590400695800781,9.86477279663086
1757491488622890500,10.875890380859374,1.226014494895935,0.42146873474121094,8.988541603088379
1757491488632927700,10.885927734375,2.24918794631958,0.10808658599853516,7.338327407836914
1757491488642967000,10.895967041015625,1.9835249185562134,-0.6144895553588867,5.308806419372559
1757491488653009700,10.906009765625,1.2875288724899292,-1.8086605072021484,3.4684555530548096
1757491488663049700,10.9160498046875,0.14201289415359497,-3.5756330490112305,1.8472809791564941
1757491488673093000,10.926093017578125,-1.8060228824615479,-5.389731407165527,-0.22575855255126953
1757491488683132400,10.93613232421875,-3.7256040573120117,-6.724583625793457,-2.6487462520599365
1757491488693172500,10.94617236328125,-3.32755184173584,-7.272420883178711,-4.378762245178223
1757491488703215400,10.95621533203125,-2.3021068572998047,-6.6573896408081055,-4.837531089782715
1757491488713255700,10.966255615234376,-1.2327847480773926,-4.908288955688477,-4.51560640335083
1757491488723296500,10.976296630859375,0.7748732566833496,-3.0488052368164062,-4.099231243133545
1757491488733335600,10.98633544921875,1.960532546043396,-2.0310916900634766,-3.5560507774353027
1757491488743375600,10.996375732421875,1.7641568183898926,-1.9733543395996094,-2.46618390083313
1757491488753419000,11.0064189453125,1.0810519456863403,-2.5332393646240234,-0.8844027519226074
1757491488763459000,11.016458984375,-0.5583975315093994,-3.117344856262207,0.4365239143371582
1757491488773500000,11.0265,-2.486469030380249,-3.3019447326660156,0.9219307899475098
1757491488783543300,11.036543212890624,-2.242621660232544,-2.9865970611572266,0.0635995864868164
1757491488793579300,11.046579345703124,0.22526371479034424,-2.6411123275756836,-1.5539345741271973
1757491488803618300,11.056618408203125,2.2472341060638428,-2.38405179977417,-2.7360434532165527
1757491488813660200,11.06666015625,2.2164764404296875,-1.859109878540039,-3.398122787475586
1757491488823701800,11.07670166015625,1.8619318008422852,-1.139401912689209,-4.370929718017578
1757491488833742000,11.0867421875,1.0823078155517578,-0.42710018157958984,-5.588332653045654
1757491488843771600,11.096771728515625,1.7045247554779053,0.3969593048095703,-6.702560901641846
1757491488853800200,11.10680029296875,1.9297162294387817,1.3617396354675293,-7.495719909667969
1757491488863859500,11.116859375,1.7728354930877686,2.0110416412353516,-7.876986026763916
1757491488873904600,11.126904541015625,2.1793100833892822,3.0311410427093506,-7.5852813720703125
1757491488883943700,11.136943603515626,2.0577614307403564,3.7561182975769043,-7.1117987632751465
1757491488893984300,11.146984375,2.177215337753296,4.34130334854126,-6.794003009796143
1757491488904026000,11.157026123046874,2.0914113521575928,4.640811920166016,-6.474786758422852
1757491488914069200,11.1670693359375,1.698141098022461,4.452271938323975,-5.9228315353393555
1757491488924106200,11.177106201171876,2.141357183456421,4.639843463897705,-5.327116966247559
1757491488934143200,11.187143310546874,2.7316935062408447,4.202147483825684,-4.805502891540527
1757491488944192000,11.19719189453125,2.6601240634918213,3.4806199073791504,-4.687664985656738
1757491488954231000,11.20723095703125,2.330288887023926,3.049896240234375,-4.555680274963379
1757491488964268800,11.217268798828124,2.2907469272613525,2.9144370555877686,-3.990536689758301
1757491488974311400,11.2273115234375,1.3605031967163086,2.6014909744262695,-3.195223808288574
1757491488984352000,11.23735205078125,0.655489444732666,2.512423038482666,-2.2060723304748535
1757491488994388000,11.247387939453125,0.1439502239227295,1.8220677375793457,-1.1531944274902344
1757491489004434400,11.257434326171875,0.26804161071777344,1.2440214157104492,-0.5159564018249512
1757491489014475000,11.26747509765625,0.5420594215393066,0.8131937980651855,-0.4258251190185547
1757491489024515600,11.277515625,0.49943065643310547,0.37154722213745117,-0.8405637741088867
1757491489034538800,11.287538818359375,0.5986833572387695,-0.29270315170288086,-1.4657282829284668
1757491489044596500,11.297596435546875,0.2060091495513916,-0.7892975807189941,-2.362581253051758
1757491489054674700,11.3076748046875,-1.2458038330078125,-0.8914523124694824,-3.013698101043701
1757491489064689700,11.317689697265624,-1.7998144626617432,-0.9655089378356934,-3.837785243988037
1757491489074723800,11.327723876953126,-1.2876274585723877,-0.7626304626464844,-4.066882133483887
1757491489084760800,11.3377607421875,-0.9929909706115723,-0.7914104461669922,-2.6362767219543457
1757491489094801400,11.347801513671875,0.12293744087219238,-2.0017757415771484,-0.3924102783203125
1757491489104840400,11.35784033203125,-0.9592231512069702,-3.8220767974853516,1.843979835510254
1757491489114880800,11.367880859375,-1.2926297187805176,-5.864094257354736,2.089773654937744
1757491489124919600,11.37791943359375,-2.381946563720703,-6.798988342285156,1.5998649597167969
1757491489134960000,11.387960205078125,-2.1632943153381348,-6.449183464050293,1.8915114402770996
1757491489145001500,11.39800146484375,-2.4326000213623047,-4.859841823577881,2.1357269287109375
1757491489155042600,11.40804248046875,-2.886524200439453,-2.9799885749816895,1.555037021636963
1757491489165089000,11.418089111328126,-1.676274299621582,-1.3171563148498535,0.3050389289855957
1757491489175125000,11.428125,-0.7490277290344238,0.1367969512939453,-0.854332447052002
1757491489185165600,11.43816552734375,0.04307675361633301,1.1243219375610352,-1.5622687339782715
1757491489195205600,11.44820556640625,1.0279759168624878,1.5793423652648926,-1.9804320335388184
1757491489205248800,11.458248779296875,1.5549404621124268,1.548391342163086,-2.1136820316314697
1757491489215289000,11.4682890625,1.8312828540802002,1.2073354721069336,-1.9646573066711426
1757491489225328000,11.478328125,2.0716986656188965,0.6344242095947266,-1.5859706401824951
1757491489235370800,11.488370849609375,2.3763692378997803,-0.005702972412109375,-0.9693851470947266
1757491489245409300,11.4984091796875,2.0213255882263184,-0.7319583892822266,-0.15868663787841797
1757491489255450000,11.5084501953125,1.9538151025772095,-1.3846864700317383,0.7239851951599121
1757491489265492500,11.518492431640626,1.740014672279358,-1.673563003540039,1.542576789855957
1757491489275533600,11.528533447265625,1.1627933979034424,-1.4895925521850586,2.1336793899536133
1757491489285574400,11.538574462890624,1.1123907566070557,-0.8530912399291992,2.414900302886963
1757491489295612400,11.5486123046875,0.9365742802619934,-0.09912872314453125,2.5386552810668945
1757491489305655600,11.558655517578124,0.5766164064407349,0.5804224014282227,2.539031982421875
1757491489315693800,11.56869384765625,0.3866913914680481,0.9905643463134766,2.4595565795898438
1757491489325735000,11.57873486328125,0.29602929949760437,1.0224957466125488,2.0394911766052246
1757491489335743200,11.5887431640625,-0.10318338871002197,1.0322775840759277,1.3389763832092285
1757491489355858400,11.6088583984375,-0.4611005187034607,1.0874238014221191,0.26683664321899414
1757491489365900300,11.618900390625,-0.4038655161857605,1.0873823165893555,-0.20760393142700195
1757491489375940900,11.62894091796875,-0.7579296827316284,1.019449234008789,-0.5764029026031494
1757491489385977600,11.6389775390625,-0.7917888164520264,0.805419921875,-0.7592165470123291
1757491489396022500,11.6490224609375,-0.9583209156990051,0.5903997421264648,-0.8372478485107422
1757491489406062600,11.6590625,-0.9731197357177734,0.4135465621948242,-0.8032891750335693
1757491489416100400,11.669100341796875,-1.1957817077636719,0.4568605422973633,-0.774238109588623
1757491489426140000,11.679139892578124,-0.2944924235343933,0.7980146408081055,-0.32590413093566895
1757491489436180200,11.68918017578125,-0.6967312097549438,1.140742301940918,0.10740160942077637
1757491489446221300,11.69922119140625,-1.5848802328109741,1.2990031242370605,0.5224277973175049
1757491489456262100,11.70926220703125,-1.0713396072387695,1.589601993560791,1.0909531116485596
1757491489466317300,11.7193173828125,-1.179697036743164,1.622105598449707,1.2048158645629883
1757491489476347600,11.72934765625,-1.3244589567184448,1.6459970474243164,1.0596866607666016
1757491489486389200,11.73938916015625,-1.5080604553222656,1.6530499458312988,0.6956627368927002
1757491489496426500,11.749426513671875,-1.8325483798980713,1.5892868041992188,0.25982141494750977
1757491489506465500,11.759465576171875,-1.3900506496429443,1.58451509475708,0.18179917335510254
1757491489516506000,11.769506103515624,-1.761285424232483,1.603971004486084,0.09493732452392578
1757491489526546700,11.779546630859375,-2.3303260803222656,1.6653037071228027,-0.0008370876312255859
1757491489536591400,11.78959130859375,-1.8621461391448975,1.7694382667541504,0.317704439163208
1757491489546632200,11.799632080078124,-2.161172866821289,1.8999557495117188,0.5541133880615234
1757491489556672800,11.8096728515625,-2.1494944095611572,2.078878402709961,0.5656671524047852
1757491489566709000,11.819708984375,-1.411372423171997,2.647158622741699,0.4464571475982666
1757491489576755000,11.8297548828125,-1.6066207885742188,2.8672518730163574,0.2839694023132324
1757491489586794500,11.83979443359375,-1.9774761199951172,2.5853686332702637,0.18377184867858887
1757491489596835600,11.849835693359376,-1.483466386795044,1.682173252105713,0.25072360038757324
1757491489606876000,11.8598759765625,-0.6417881846427917,0.654902458190918,0.15308332443237305
1757491489616913200,11.8699130859375,-0.49708735942840576,-0.39322948455810547,0.10599994659423828
1757491489626957000,11.87995703125,-0.8192529678344727,-1.2392797470092773,0.1640610694885254
1757491489636993800,11.889993896484375,-0.583435595035553,-1.7318916320800781,0.2962188720703125
1757491489647039000,11.9000390625,0.43587422370910645,-2.1506242752075195,0.2582409381866455
1757491489657079600,11.91007958984375,2.158982753753662,-2.473428726196289,-0.2474517822265625
1757491489667119900,11.920119873046875,2.2865586280822754,-2.931406021118164,-1.1342705488204956
1757491489677161000,11.930160888671875,1.5135105848312378,-3.63230037689209,-1.7091645002365112
1757491489687197400,11.940197509765625,1.710578203201294,-4.545529365539551,-1.365177869796753
1757491489697238000,11.950238037109376,1.5574421882629395,-5.368039131164551,-0.4337402582168579
1757491489707282700,11.96028271484375,1.696861982345581,-5.49357795715332,0.8821771144866943
1757491489717323300,11.9703232421875,1.6483060121536255,-5.342618942260742,2.328446388244629
1757491489727364400,11.9803642578125,0.4112035036087036,-5.601387023925781,3.48164701461792
1757491489737410300,11.990410400390624,0.1867072582244873,-6.004828453063965,4.43243932723999
1757491489747441000,12.00044091796875,-0.6391404867172241,-6.457760810852051,5.243401527404785
1757491489757481500,12.0104814453125,-2.009871482849121,-6.920230865478516,5.697206497192383
1757491489767523800,12.02052392578125,-3.1337342262268066,-6.999569892883301,4.640267848968506
1757491489777572900,12.03057275390625,-3.0919151306152344,-6.6756696701049805,2.59336519241333
1757491489787607600,12.040607666015624,-2.743856906890869,-6.197522163391113,0.8922381401062012
1757491489797648100,12.050648193359375,-3.33431339263916,-5.517982482910156,-0.282690167427063
1757491489807689200,12.060689208984375,-3.5153677463531494,-4.2141313552856445,-0.8218550086021423
1757491489817729800,12.070729736328126,-5.3297576904296875,-2.9917526245117188,0.04348081350326538
1757491489827766500,12.0807666015625,-6.47340202331543,-2.2269229888916016,2.8690085411071777
1757491489837811200,12.090811279296876,-5.6934733390808105,-1.295729637145996,5.664882659912109
1757491489847851800,12.100851806640625,-5.291083335876465,-0.5870819091796875,8.071565628051758
1757491489857892000,12.11089208984375,-3.9661061763763428,-0.4234628677368164,9.906800270080566
1757491489867933000,12.120932861328125,-1.1892821788787842,-0.6899375915527344,10.78409194946289
1757491489877947400,12.130947509765624,0.825092077255249,-0.9619960784912109,10.225696563720703
1757491489887990500,12.140990478515626,1.8569164276123047,-1.0483436584472656,8.383485794067383
1757491489898050800,12.15105078125,2.0321061611175537,-1.4649477005004883,5.786331653594971
1757491489908094700,12.1610947265625,1.7160972356796265,-1.9361190795898438,2.515632152557373
1757491489918136300,12.17113623046875,-1.1281485557556152,-2.8549041748046875,-0.9274882078170776
1757491489928152800,12.18115283203125,-3.4427833557128906,-3.7028112411499023,-4.33804178237915
1757491489938191600,12.191191650390625,-2.9112308025360107,-4.514500617980957,-6.576299667358398
1757491489948234000,12.20123388671875,-2.2961041927337646,-4.893035888671875,-6.934006214141846
1757491489958294300,12.211294189453126,-1.9663282632827759,-4.466550827026367,-5.882604598999023
1757491489968339200,12.221339111328126,-1.5124738216400146,-2.679288864135742,-4.587455749511719
1757491489978380000,12.231380126953125,-0.4606044292449951,-0.855799674987793,-2.8863019943237305
1757491489988418800,12.241418701171876,-0.15315255522727966,0.09283733367919922,-1.2769417762756348
1757491489998457600,12.25145751953125,0.08960844576358795,0.3918619155883789,0.24584150314331055
1757491490008499000,12.2614990234375,-0.026403862982988358,0.12211894989013672,1.1904840469360352
1757491490018538500,12.27153857421875,-0.0469348281621933,-0.32367897033691406,1.1418490409851074
1757491490028583400,12.28158349609375,1.3738094568252563,-0.464324951171875,0.12891626358032227
1757491490038624300,12.291624267578126,2.5029799938201904,-0.1717691421508789,-0.9540009498596191
1757491490058701600,12.31170166015625,1.0482338666915894,0.2698650360107422,-1.9474618434906006
1757491490068746000,12.32174609375,0.14603477716445923,0.4778923988342285,-2.970594882965088
1757491490078782700,12.33178271484375,1.5919166803359985,1.4627671241760254,-4.955163478851318
1757491490088827400,12.341827392578125,1.9936516284942627,2.1339993476867676,-7.104143142700195
1757491490098868000,12.351867919921874,2.137298345565796,2.9631643295288086,-8.344618797302246
1757491490108908800,12.36190869140625,2.021254539489746,4.139946937561035,-8.367733001708984
1757491490118949400,12.371949462890624,1.4356367588043213,4.9248881340026855,-7.6338090896606445
1757491490128985900,12.38198583984375,0.48207277059555054,4.904908180236816,-7.102723121643066
1757491490139031000,12.392031005859375,0.42089319229125977,5.278834819793701,-6.915311336517334
1757491490149067300,12.4020673828125,0.1515594720840454,5.139403820037842,-6.695460796356201
1757491490159112200,12.4121123046875,0.013922810554504395,4.715661525726318,-6.290671348571777
1757491490169152300,12.42215234375,0.9198505282402039,5.186673164367676,-5.451783180236816
1757491490179192000,12.432192138671875,1.6244840621948242,4.753376007080078,-4.42152214050293
1757491490189234000,12.44223388671875,2.5842716693878174,3.6533710956573486,-3.4635870456695557
1757491490199270400,12.4522705078125,2.6092348098754883,2.52079439163208,-2.3129358291625977
1757491490209311200,12.462311279296875,2.302522659301758,1.7720484733581543,-1.2544760704040527
1757491490219356000,12.47235595703125,1.8097248077392578,1.6999011039733887,-0.6427922248840332
1757491490229401600,12.482401611328125,1.0209579467773438,1.7454566955566406,-0.519294261932373
1757491490239433000,12.492432861328124,0.0412745475769043,1.8400073051452637,-0.9333438873291016
1757491490249474000,12.50247412109375,0.0025870800018310547,1.6358466148376465,-2.5480527877807617
1757491490259517200,12.51251708984375,0.6454384326934814,1.516014575958252,-5.287214279174805
1757491490269555200,12.52255517578125,-0.7308968305587769,1.2855744361877441,-6.79199743270874
1757491490279595800,12.532595703125,-0.7881159782409668,-0.12965822219848633,-5.181886672973633
1757491490289640400,12.542640380859375,0.40487778186798096,-2.958061695098877,-0.9835095405578613
1757491490299681500,12.552681640625,-1.7372679710388184,-6.447894096374512,2.751157760620117
1757491490309721600,12.5627216796875,-5.860379219055176,-9.712779998779297,3.1403260231018066
1757491490319762000,12.572761962890626,-4.697271823883057,-11.862006187438965,2.199143886566162
1757491490329803500,12.582803466796875,-2.5308585166931152,-10.851385116577148,2.3135251998901367
1757491490339839700,12.59283984375,-2.676389217376709,-6.778263092041016,2.5719428062438965
1757491490349884200,12.60288427734375,-2.5297248363494873,-2.595526695251465,1.517235279083252
1757491490359925200,12.61292529296875,-1.9447276592254639,0.31769275665283203,-0.2360372543334961
1757491490369965600,12.622965576171875,-0.9297367930412292,1.861490249633789,-1.7293727397918701
1757491490380006400,12.63300634765625,0.7652155160903931,1.9282970428466797,-2.7009072303771973
1757491490390047000,12.643046875,1.3742252588272095,0.9110841751098633,-2.8905189037323
1757491490400083700,12.653083740234376,1.023905873298645,-0.5244417190551758,-2.447913885116577
1757491490410128400,12.66312841796875,1.60348379611969,-1.6052074432373047,-1.8553731441497803
1757491490420168700,12.673168701171875,1.6238301992416382,-2.2702178955078125,-1.1483848094940186
1757491490430205400,12.683205322265625,1.4049111604690552,-2.3521385192871094,-0.24901175498962402
1757491490440250000,12.69325,1.0008057355880737,-1.8524770736694336,0.6473450660705566
1757491490450290400,12.70329052734375,0.41910257935523987,-0.9536380767822266,1.376183271408081
1757491490460331800,12.713331787109375,0.13056859374046326,0.1156463623046875,1.8746201992034912
1757491490470368300,12.7233681640625,0.13182133436203003,0.9056825637817383,2.0804617404937744
1757491490480411400,12.733411376953125,0.022606849670410156,1.337134838104248,2.013552665710449
1757491490490449400,12.743449462890625,-0.10949909687042236,1.5415754318237305,2.1443557739257812
1757491490500490200,12.753490234375,-0.2223009467124939,1.4083504676818848,2.0191164016723633
1757491490510533400,12.763533447265624,-0.5628893375396729,1.3469972610473633,1.705824851989746
1757491490520575200,12.7735751953125,-0.6126800179481506,1.4648723602294922,1.1341614723205566
1757491490530611700,12.78361181640625,-0.1849880814552307,1.5317645072937012,0.5978302955627441
1757491490540656600,12.79365673828125,-0.7104905247688293,1.6560711860656738,-0.17882800102233887
1757491490550697500,12.803697509765625,-0.9371602535247803,1.8461432456970215,-0.9559860229492188
1757491490560738000,12.813738037109376,-0.5593751668930054,2.0522541999816895,-1.5945451259613037
1757491490570774300,12.823774169921874,-0.4059498906135559,2.017361640930176,-1.9484387636184692
1757491490580819200,12.833819091796874,-0.6671930551528931,1.8704519271850586,-1.9365075826644897
1757491490590859800,12.84385986328125,-0.989618718624115,1.515942096710205,-1.6616194248199463
1757491490600896300,12.853896240234375,-1.0014903545379639,1.2955245971679688,-0.9447858333587646
1757491490610941000,12.86394091796875,-1.5638083219528198,1.1242523193359375,-0.21633195877075195
1757491490620982300,12.873982177734375,-2.008014440536499,1.0655393600463867,0.379896879196167
1757491490631022000,12.88402197265625,-1.9034382104873657,1.1801128387451172,0.6908230781555176
1757491490641062400,12.8940625,-1.2188345193862915,1.4186625480651855,0.900395393371582
1757491490651104300,12.904104248046876,-1.2389651536941528,1.7334380149841309,0.7797544002532959
1757491490661140500,12.914140380859376,-0.6671643257141113,1.9574790000915527,0.6863420009613037
