time,seconds_elapsed,z,y,x
1757491477819055400,0.072055419921875,7.007529258728027,3.2240171432495117,-2.3854479789733887
1757491477829096000,0.082095947265625,7.401300430297852,3.21638560295105,-2.9016976356506348
1757491477839137000,0.092136962890625,7.638251781463623,3.2014966011047363,-3.099743127822876
1757491477849177000,0.102177001953125,7.86270809173584,2.9480104446411133,-2.609679937362671
1757491477859239700,0.11223974609375,8.829516410827637,2.395772933959961,-2.0248212814331055
1757491477869280000,0.122280029296875,9.82064151763916,2.0416555404663086,-2.172588348388672
1757491477879302100,0.13230224609375,10.431087493896484,2.15029239654541,-1.8274493217468262
1757491477889347300,0.142347412109375,10.503362655639648,2.1663036346435547,-0.9577555060386658
1757491477899409200,0.1524091796875,10.490793228149414,2.268655776977539,-0.8758289217948914
1757491477909422800,0.1624228515625,10.727445602416992,2.5526678562164307,-1.1685948371887207
1757491477919462000,0.1724619140625,11.104830741882324,2.5249850749969482,-1.4867992401123047
1757491477929502700,0.182502685546875,10.784157752990723,2.3458688259124756,-1.6320973634719849
1757491477939536000,0.192535888671875,10.622624397277832,2.330381155014038,-1.833060622215271
1757491477949609700,0.202609619140625,10.201543807983398,2.4800937175750732,-2.0616321563720703
1757491477959649800,0.21264990234375,10.095450401306152,2.5459342002868652,-2.0439748764038086
1757491477969665300,0.222665283203125,10.111311912536621,2.3477392196655273,-1.5561562776565552
1757491477979731700,0.232731689453125,9.771635055541992,2.3446717262268066,-0.8242787718772888
1757491477989768400,0.2427685546875,9.586981773376465,2.411484956741333,-0.25498247146606445
1757491477999812900,0.252812744140625,9.412205696105957,2.507701873779297,-0.11028291285037994
1757491478009851100,0.26285107421875,9.299827575683594,2.5674071311950684,-0.3205985724925995
1757491478019869700,0.27286962890625,9.16073989868164,2.5992801189422607,-0.7063643336296082
1757491478029934800,0.282934814453125,9.041403770446777,2.6477625370025635,-0.8069207668304443
1757491478039975700,0.2929755859375,9.01791000366211,2.8279263973236084,-1.0490344762802124
1757491478050012700,0.3030126953125,9.456124305725098,2.614767551422119,-0.5513397455215454
1757491478060057000,0.31305712890625,9.64795970916748,2.6378865242004395,-0.7059902548789978
1757491478070107000,0.32310693359375,9.514108657836914,2.8010663986206055,-1.0729764699935913
1757491478080138800,0.333138671875,9.974020004272461,2.5814731121063232,-0.9882815480232239
1757491478090153700,0.34315380859375,10.178050994873047,2.4788966178894043,-0.8157494068145752
1757491478100215800,0.3532158203125,10.12358283996582,2.567033052444458,-0.7636007070541382
1757491478110260700,0.3632607421875,9.728838920593262,2.6070611476898193,-0.7650222778320312
1757491478120257500,0.373257568359375,9.38788890838623,2.662576675415039,-0.7989152073860168
1757491478130342100,0.383342041015625,9.227178573608398,2.8052561283111572,-0.8747814297676086
1757491478140382700,0.3933828125,9.16305923461914,2.90573787689209,-0.9024643898010254
1757491478150421200,0.403421142578125,9.277755737304688,2.9100024700164795,-0.8289175033569336
1757491478160438500,0.4134384765625,9.378312110900879,2.873042106628418,-0.6172551512718201
1757491478170484200,0.423484130859375,9.437045097351074,2.8866591453552246,-0.4957493841648102
1757491478180519400,0.43351953125,9.586308479309082,2.9619266986846924,-0.5436334013938904
1757491478190559000,0.44355908203125,9.599177360534668,3.0299370288848877,-0.7843255400657654
1757491478200601600,0.4536015625,9.506776809692383,2.9949967861175537,-0.9296984672546387
1757491478210644200,0.463644287109375,9.53505802154541,2.875436305999756,-0.8972271084785461
1757491478220666600,0.47366650390625,9.616236686706543,2.8184990882873535,-0.7595604658126831
1757491478230749000,0.4837490234375,9.707066535949707,2.8227639198303223,-0.6835445761680603
1757491478240785700,0.49378564453125,9.67579174041748,2.7706151008605957,-0.7481880187988281
1757491478250830300,0.503830322265625,9.54081916809082,2.767397880554199,-0.7893383502960205
1757491478260871000,0.513870849609375,9.371503829956055,2.769866943359375,-0.7515549063682556
1757491478270886100,0.52388623046875,9.311649322509766,2.884713888168335,-1.0309282541275024
1757491478280952000,0.5339521484375,9.316362380981445,2.8663084506988525,-0.9021651148796082
1757491478290993400,0.543993408203125,9.297284126281738,2.839897394180298,-0.8676736354827881
1757491478301034000,0.554033935546875,9.364919662475586,2.7502644062042236,-0.8709656596183777
1757491478311056100,0.56405615234375,9.474529266357422,2.6722283363342285,-0.820687472820282
1757491478321115400,0.574115478515625,9.522039413452148,2.6052656173706055,-0.812981128692627
1757491478331155700,0.58415576171875,9.571793556213379,2.55423903465271,-0.8899696469306946
1757491478341182200,0.59418212890625,9.44759464263916,2.4945337772369385,-0.8551788926124573
1757491478351237000,0.604237060546875,9.331700325012207,2.503586769104004,-0.9560346603393555
1757491478361278700,0.61427880859375,9.058686256408691,2.652625799179077,-1.0909329652786255
1757491478371314400,0.624314453125,8.85794734954834,2.605415105819702,-1.1464484930038452
1757491478381359600,0.634359619140625,8.7129487991333,2.750114679336548,-1.143605351448059
1757491478391404500,0.644404541015625,8.903363227844238,2.8288989067077637,-0.9446622133255005
1757491478401436700,0.654436767578125,9.135825157165527,2.7735331058502197,-0.919897198677063
1757491478411462700,0.664462646484375,9.387141227722168,2.7357494831085205,-1.0836007595062256
1757491478421519000,0.67451904296875,9.55937385559082,2.616712808609009,-1.218798279762268
1757491478431550200,0.68455029296875,9.807847023010254,2.46789813041687,-1.3856441974639893
1757491478441598700,0.6945986328125,10.197578430175781,2.429590940475464,-1.4616601467132568
1757491478451618300,0.704618408203125,10.214487075805664,2.373701333999634,-1.272443413734436
1757491478461645800,0.714645751953125,10.18493366241455,2.369511604309082,-1.1290905475616455
1757491478471722500,0.724722412109375,9.892242431640625,2.5015666484832764,-0.9502736330032349
1757491478481752300,0.73475244140625,9.518298149108887,2.5392005443573,-0.7131728529930115
1757491478491802000,0.744802001953125,9.36013126373291,2.656291961669922,-0.6794295310974121
1757491478501843000,0.754843017578125,9.293617248535156,2.8072762489318848,-0.7771428823471069
1757491478511866000,0.7648662109375,9.110535621643066,2.614917278289795,-0.7000046968460083
1757491478521928200,0.77492822265625,9.258976936340332,2.4875006675720215,-0.8113350868225098
1757491478531944400,0.7849443359375,9.757569313049316,2.5593268871307373,-1.0017489194869995
1757491478542029000,0.795029052734375,10.403030395507812,2.394575834274292,-0.7015759348869324
1757491478552046800,0.805046875,9.790115356445312,2.3815572261810303,-0.5377227663993835
1757491478562089500,0.81508935546875,10.042404174804688,2.9346179962158203,-0.6580313444137573
1757491478572205800,0.825205810546875,9.81719970703125,3.0120553970336914,-0.06224924325942993
1757491478582200800,0.835200927734375,9.252840995788574,2.801215887069702,0.25400984287261963
1757491478592211700,0.845211669921875,8.773252487182617,2.7055227756500244,0.4298340380191803
1757491478602254300,0.85525439453125,8.601693153381348,2.858527183532715,0.16909049451351166
1757491478612270600,0.8652705078125,8.503755569458008,2.8313679695129395,0.13115736842155457
1757491478622310100,0.87531005859375,8.663344383239746,2.740163803100586,0.1835305243730545
1757491478632351000,0.88535107421875,8.95004940032959,2.8063786029815674,0.22916999459266663
1757491478642415000,0.8954150390625,9.126996040344238,2.8847885131835938,0.2634370028972626
1757491478652453600,0.90545361328125,8.870741844177246,2.8447604179382324,0.47322893142700195
1757491478662473000,0.915472900390625,8.730531692504883,2.7630584239959717,0.8635586500167847
1757491478672535600,0.92553564453125,8.956110000610352,2.8166286945343018,0.8342296481132507
1757491478682558200,0.93555810546875,9.25867748260498,2.965143918991089,0.41853639483451843
1757491478692616200,0.9456162109375,9.5501708984375,2.812513589859009,0.2849099934101105
1757491478702661600,0.95566162109375,9.972074508666992,2.7515363693237305,0.1703624129295349
1757491478712677000,0.965677001953125,9.79864501953125,2.6577134132385254,0.12277765572071075
1757491478722742500,0.975742431640625,9.456198692321777,2.687042474746704,0.08162731677293777
1757491478732740900,0.985740966796875,9.955240249633789,2.6289830207824707,0.3306991159915924
1757491478742824000,0.995823974609375,10.110414505004883,2.5142111778259277,0.5690718293190002
1757491478752860700,1.005860595703125,10.061707496643066,2.4548048973083496,0.7681646347045898
1757491478762893800,1.015893798828125,9.84031867980957,2.4874260425567627,1.0235960483551025
1757491478772946200,1.0259462890625,9.7744779586792,2.5599253177642822,1.351377248764038
1757491478782961400,1.03596142578125,9.639280319213867,2.537928581237793,1.7563713788986206
1757491478793008400,1.04600830078125,9.462035179138184,2.177077531814575,2.6091561317443848
1757491478803068000,1.05606787109375,9.597456932067871,2.2392518520355225,2.7927615642547607
1757491478813101000,1.06610107421875,9.8877534866333,2.2259342670440674,3.000084400177002
1757491478823124000,1.0761240234375,10.141314506530762,2.191667318344116,3.3459715843200684
1757491478833190000,1.08618994140625,10.053253173828125,2.047865390777588,3.7224597930908203
1757491478843191800,1.09619189453125,10.116325378417969,2.0101568698883057,4.054804801940918
1757491478853271600,1.106271484375,10.115427017211914,1.5051298141479492,5.050194263458252
1757491478863275300,1.116275146484375,10.052729606628418,2.106673002243042,4.86599063873291
1757491478873327400,1.126327392578125,8.284536361694336,0.6399252414703369,6.737882137298584
1757491478883389700,1.1363896484375,7.5178680419921875,0.05903203412890434,7.3412957191467285
1757491478893431300,1.146431396484375,7.383044719696045,1.2452841997146606,6.501454830169678
1757491478903471000,1.15647119140625,7.314884662628174,2.3324761390686035,5.148730754852295
1757491478913513000,1.166512939453125,7.65650749206543,1.9345149993896484,4.878410339355469
1757491478923530200,1.1765302734375,9.219921112060547,1.5712696313858032,3.477278709411621
1757491478933576200,1.186576171875,4.275221347808838,1.7764976024627686,3.9706339836120605
1757491478943603500,1.196603515625,3.6605846881866455,-1.1070938110351562,5.897966384887695
1757491478953678800,1.206678955078125,2.688389301300049,-2.369960308074951,5.847463607788086
1757491478963719700,1.2167197265625,1.698162317276001,-1.3116484880447388,6.312612056732178
1757491478973734100,1.226734130859375,2.361431121826172,-3.2965164184570312,7.946505069732666
1757491478983796500,1.23679638671875,5.4310221672058105,-2.1413140296936035,5.910236358642578
1757491478993841000,1.2468408203125,6.050222396850586,-1.5845125913619995,4.401590347290039
1757491479003856100,1.256856201171875,5.97914457321167,-2.0912604331970215,2.8161797523498535
1757491479013918200,1.266918212890625,5.527164459228516,-2.089240312576294,1.784952163696289
1757491479023939800,1.27693994140625,4.609212398529053,-2.1344308853149414,0.5239560604095459
1757491479034004200,1.287004150390625,5.121796131134033,-1.5932663679122925,-1.1787701845169067
1757491479044044500,1.29704443359375,3.762338399887085,-1.3180080652236938,-1.8937387466430664
1757491479054081800,1.307081787109375,3.831545829772949,-2.0875942707061768,-2.2822728157043457
1757491479064120300,1.317120361328125,5.344905853271484,-2.973823070526123,-3.9228994846343994
1757491479074166500,1.32716650390625,7.5761518478393555,-3.8913259506225586,-6.207940578460693
1757491479084203300,1.337203369140625,7.2090163230896,-4.341959476470947,-7.308300495147705
1757491479094206000,1.3472060546875,6.9817914962768555,-5.564872741699219,-7.185448169708252
1757491479104288500,1.35728857421875,7.750329971313477,-7.914108753204346,-6.550835132598877
1757491479114308900,1.367308837890625,11.852869987487793,-10.948160171508789,-5.019892692565918
1757491479124370200,1.3773701171875,10.679560661315918,-12.868085861206055,0.7827543020248413
1757491479134408700,1.38740869140625,10.248754501342773,-13.248838424682617,5.856142520904541
1757491479144409000,1.3974091796875,10.262895584106445,-13.783120155334473,8.94069766998291
1757491479154488300,1.40748828125,10.03963565826416,-12.804564476013184,10.604592323303223
1757491479164508000,1.4175078125,9.03279972076416,-10.901248931884766,12.493244171142578
1757491479174547700,1.427547607421875,8.602890014648438,-9.89890193939209,13.98408317565918
1757491479184614400,1.437614501953125,8.98012638092041,-9.731232643127441,15.503727912902832
1757491479194653000,1.44765283203125,7.561861515045166,-9.127819061279297,18.576387405395508
1757491479204695600,1.457695556640625,5.882853031158447,-8.53420639038086,20.774263381958008
1757491479214732300,1.467732177734375,2.23663330078125,-7.289146900177002,23.65867805480957
1757491479224777000,1.47777685546875,-2.5096471309661865,-6.401496887207031,25.95516586303711
1757491479234817800,1.48781787109375,-5.312958240509033,-5.406107425689697,25.622821807861328
1757491479244828700,1.49782861328125,-6.534973621368408,-3.947739362716675,23.36149787902832
1757491479254926300,1.50792626953125,-7.0441155433654785,-1.5753847360610962,20.07672882080078
1757491479264914200,1.5179140625,-6.326528549194336,-0.8003367185592651,17.348384857177734
1757491479274980600,1.527980712890625,-3.980734348297119,-0.9173533320426941,15.414244651794434
1757491479285002000,1.538001953125,-1.9295021295547485,-1.4169185161590576,14.15324878692627
1757491479295036200,1.5480361328125,-0.8760533928871155,-1.8303672075271606,13.174169540405273
1757491479305078000,1.558078125,-0.6344634294509888,-2.542492628097534,12.94993782043457
1757491479335221000,1.588220947265625,-4.370914459228516,-2.4000375270843506,13.510031700134277
1757491479345230300,1.598230224609375,-4.786907196044922,-2.377142906188965,13.092019081115723
1757491479355280000,1.60827978515625,-4.309338569641113,-2.4899697303771973,12.322956085205078
1757491479385403100,1.638403076171875,-1.0045920610427856,-3.8685061931610107,8.998906135559082
1757491479445649000,1.69864892578125,-4.902127742767334,-6.420500755310059,4.725406169891357
1757491479455692000,1.708692138671875,-7.172504425048828,-9.188647270202637,3.2341175079345703
1757491479465749800,1.718749755859375,-6.662015914916992,-6.323909759521484,4.520627021789551
1757491479475794400,1.72879443359375,-1.9597289562225342,-2.8779799938201904,7.356035232543945
1757491479485836000,1.7388359375,-0.4207061231136322,-4.779574871063232,10.827776908874512
1757491479495872300,1.748872314453125,0.3292027413845062,-7.702445983886719,9.840468406677246
1757491479505917700,1.758917724609375,-0.4902876019477844,-6.832602500915527,8.473005294799805
1757491479515958000,1.7689580078125,1.5229367017745972,-2.7095630168914795,11.332653999328613
1757491479525994500,1.778994384765625,3.0107834339141846,-4.235866546630859,11.706897735595703
1757491479536040200,1.789040283203125,6.022988319396973,-3.9541738033294678,8.84635066986084
1757491479546077400,1.799077392578125,2.0779426097869873,-5.868338108062744,6.0738654136657715
1757491479556116700,1.80911669921875,-0.16160862147808075,-4.7952117919921875,7.544877529144287
1757491479566135300,1.81913525390625,-0.06142623722553253,-4.284498691558838,10.550199508666992
1757491479586220800,1.839220703125,0.6496516466140747,-4.142866611480713,11.433211326599121
1757491479596282000,1.8492822265625,0.6154595017433167,-5.259238243103027,8.451007843017578
1757491479606323700,1.85932373046875,-0.8528595566749573,-4.729072093963623,7.147589683532715
1757491479616340700,1.8693408203125,-2.629880905151367,-3.6815340518951416,9.079336166381836
1757491479626410000,1.879409912109375,-2.1487960815429688,-5.429675579071045,10.4519624710083
1757491479636441900,1.88944189453125,0.8238298296928406,-6.709974765777588,7.886575222015381
1757491479646482200,1.899482177734375,0.9375544190406799,-6.507215976715088,5.887416839599609
1757491479656523800,1.909523681640625,0.38628947734832764,-6.106112003326416,6.319944381713867
1757491479666566000,1.91956591796875,-0.391900897026062,-5.6658782958984375,7.13075590133667
1757491479676609300,1.929609375,-1.7907131910324097,-4.577564239501953,8.422576904296875
1757491479686649900,1.93964990234375,-2.755875825881958,-3.5749919414520264,9.539996147155762
1757491479696690700,1.949690673828125,-2.7725603580474854,-3.0294880867004395,10.31818675994873
1757491479706731800,1.959731689453125,-2.5155577659606934,-2.524610757827759,10.277410507202148
1757491479716768500,1.9697685546875,-1.7607108354568481,-2.405723810195923,9.921497344970703
1757491479726809000,1.97980908203125,-1.3393313884735107,-2.3483378887176514,9.275586128234863
1757491479736853800,1.989853759765625,-0.994940459728241,-3.1680526733398438,8.800636291503906
1757491479746894000,1.99989404296875,-1.1685200929641724,-4.3050737380981445,8.163779258728027
1757491479756935400,2.009935302734375,-1.1166706085205078,-5.724910259246826,7.433248043060303
1757491479766975500,2.0199755859375,-1.2479028701782227,-6.500556945800781,7.627926826477051
1757491479777012200,2.03001220703125,-1.7630302906036377,-6.906972408294678,7.873406887054443
1757491479787057200,2.04005712890625,-1.9140894412994385,-7.2551045417785645,7.560290336608887
1757491479797094100,2.05009423828125,-2.538377523422241,-7.434819221496582,7.132401466369629
1757491479807138600,2.060138671875,-3.4240825176239014,-6.571859359741211,6.739004611968994
1757491479817179400,2.070179443359375,-3.184812068939209,-5.482497215270996,6.32637882232666
1757491479827219700,2.0802197265625,-2.593219757080078,-4.411840438842773,6.724639415740967
1757491479837256400,2.09025634765625,-2.3763201236724854,-4.1017165184021,7.222109317779541
1757491479847301400,2.10030126953125,-2.205059766769409,-4.663680553436279,7.33927583694458
1757491479857342000,2.110342041015625,-2.8238861560821533,-5.427056789398193,7.1018757820129395
1757491479867382800,2.1203828125,-3.199850559234619,-5.750872611999512,7.013140678405762
1757491479877421300,2.13042138671875,-2.678438425064087,-5.775712490081787,7.067832946777344
1757491479887460400,2.14046044921875,-2.3145196437835693,-5.767332553863525,7.226149559020996
1757491479897501700,2.150501708984375,-2.463932752609253,-5.7736921310424805,7.097910404205322
1757491479907541500,2.16054150390625,-2.7015573978424072,-5.745111465454102,6.9345808029174805
1757491479917586400,2.17058642578125,-2.5323171615600586,-5.678747177124023,6.751648902893066
1757491479927627000,2.180626953125,-2.4037036895751953,-5.333009243011475,6.0779805183410645
1757491479937667800,2.190667724609375,-2.681281328201294,-5.698798656463623,5.741445541381836
1757491479947708700,2.200708740234375,-3.0137014389038086,-6.2352495193481445,5.173795223236084
1757491479957745000,2.210744873046875,-2.9730746746063232,-6.474295616149902,4.4607720375061035
1757491479967786000,2.220785888671875,-3.292551040649414,-6.374936103820801,4.224269390106201
1757491479977830700,2.23083056640625,-4.241178512573242,-5.7026143074035645,4.731989860534668
1757491479987871000,2.24087109375,-3.2811787128448486,-4.176161289215088,5.332036972045898
1757491479997911800,2.250911865234375,0.9258078932762146,-1.3429975509643555,6.8745012283325195
1757491480007953200,2.260953125,3.484386444091797,3.046097993850708,9.36933422088623
1757491480017993500,2.270993408203125,1.851166844367981,5.217564105987549,11.948787689208984
1757491480028030500,2.281030517578125,-3.098994731903076,5.768754005432129,13.751097679138184
1757491480038070300,2.2910703125,-6.706009387969971,9.7088623046875,12.60696792602539
1757491480048115000,2.301114990234375,-6.240636348724365,7.094693183898926,10.83548355102539
1757491480058156500,2.311156494140625,-3.920879364013672,-2.2189760208129883,10.945916175842285
1757491480068197000,2.321197021484375,-0.9220669269561768,-7.2912421226501465,11.316718101501465
1757491480078238200,2.33123828125,0.7133972644805908,-10.937760353088379,10.580575942993164
1757491480088278500,2.341278564453125,3.1356561183929443,-13.178210258483887,9.4660005569458
1757491480098314800,2.351314697265625,3.6542999744415283,-12.363208770751953,7.933262348175049
1757491480108360200,2.361360107421875,2.5686042308807373,-9.267879486083984,6.669198513031006
1757491480118406100,2.37140625,1.5310919284820557,-7.991994857788086,5.8401312828063965
1757491480128437000,2.38143701171875,1.2367547750473022,-10.006491661071777,4.983081817626953
1757491480138478600,2.391478515625,2.3984663486480713,-11.700838088989258,5.400645732879639
1757491480148522000,2.40152197265625,2.7329063415527344,-12.70019245147705,7.283760070800781
1757491480168601000,2.42160107421875,-2.193986654281616,-11.909881591796875,5.032761573791504
1757491480178645200,2.431645263671875,-5.055431842803955,-9.028684616088867,1.6597803831100464
1757491480188685800,2.441685791015625,-3.9275381565093994,-8.785747528076172,1.4508862495422363
1757491480198726100,2.45172607421875,-3.9862709045410156,-8.430732727050781,1.8784009218215942
1757491480208767000,2.46176708984375,-4.931830883026123,-7.9694743156433105,2.609006404876709
1757491480218808000,2.47180810546875,-5.0715179443359375,-7.436689853668213,3.3387889862060547
1757491480228844500,2.481844482421875,-4.382436752319336,-6.690297603607178,4.109048843383789
1757491480238886100,2.49188623046875,-4.3628339767456055,-6.27512788772583,5.912481307983398
1757491480248929800,2.5019296875,-4.977844715118408,-8.918401718139648,7.273435115814209
1757491480258970600,2.511970703125,-5.493196487426758,-10.210746765136719,5.524919509887695
1757491480269011700,2.52201171875,-1.3361141681671143,-12.952630996704102,1.8965818881988525
1757491480279052000,2.532052001953125,0.690876841545105,-13.613954544067383,-0.9632920622825623
1757491480289089000,2.542089111328125,0.5672013759613037,-12.259659767150879,-1.039607286453247
1757491480299133400,2.552133544921875,-0.9033622145652771,-10.710086822509766,-0.058134209364652634
1757491480309174500,2.562174560546875,-2.9326727390289307,-9.694122314453125,1.0821791887283325
1757491480329255700,2.582255615234375,-2.2963387966156006,-7.634884834289551,3.4736874103546143
1757491480339296500,2.592296630859375,-1.0283844470977783,-7.412747859954834,4.081440448760986
1757491480349337000,2.602337158203125,0.12075755000114441,-7.67730712890625,4.627991676330566
1757491480359374000,2.6123740234375,0.3678840696811676,-8.617480278015137,5.150376796722412
1757491480369416700,2.622416748046875,0.224905326962471,-9.58788013458252,5.404685974121094
1757491480379455500,2.63245556640625,-1.3600561618804932,-9.443928718566895,3.750741481781006
1757491480389496000,2.64249609375,-1.7271173000335693,-9.282544136047363,2.572195529937744
1757491480399537200,2.652537109375,-2.958634853363037,-9.913865089416504,2.364797830581665
1757491480409581800,2.662581787109375,-1.337086796760559,-10.13173770904541,2.2579567432403564
1757491480419618000,2.6726181640625,-1.328108549118042,-8.887052536010742,2.145803213119507
1757491480429663200,2.682663330078125,-1.4942811727523804,-8.268001556396484,2.080336809158325
1757491480439703800,2.692703857421875,-1.5572785139083862,-8.218995094299316,2.0952258110046387
1757491480449744600,2.70274462890625,-0.8265233039855957,-8.246378898620605,1.857825756072998
1757491480459785200,2.71278515625,-0.5494692921638489,-8.616357803344727,1.493682622909546
1757491480469822000,2.722822021484375,-1.8890999555587769,-8.94069766998291,1.5489736795425415
1757491480479862500,2.732862548828125,-2.2672340869903564,-9.695170402526855,2.869076728820801
1757491480489907500,2.742907470703125,-2.7713632583618164,-10.685321807861328,5.324106216430664
1757491480499947800,2.75294775390625,-0.9207950234413147,-11.992780685424805,4.772167682647705
1757491480509988600,2.762988525390625,-2.566434621810913,-10.581473350524902,5.02557897567749
1757491480520029400,2.773029541015625,-1.734000563621521,-8.137292861938477,3.0238020420074463
1757491480530070300,2.7830703125,-1.2141594886779785,-7.358653545379639,1.6161609888076782
1757491480540111000,2.793111083984375,-1.2134861946105957,-8.182184219360352,1.049782633781433
1757491480550147600,2.803147705078125,-1.4829834699630737,-8.216226577758789,1.7500866651535034
1757491480560192800,2.81319287109375,-1.1785458326339722,-8.122703552246094,2.825681686401367
1757491480570233600,2.823233642578125,-0.9445874094963074,-8.407089233398438,2.7988216876983643
1757491480580274000,2.83327392578125,-0.8029553890228271,-9.658658981323242,3.0558242797851562
1757491480590314800,2.843314697265625,-0.3075052797794342,-10.825457572937012,3.4549827575683594
1757491480600355600,2.85335546875,-0.6696282625198364,-11.431116104125977,3.6208560466766357
1757491480610393900,2.863393798828125,-0.29568392038345337,-13.234997749328613,2.9614031314849854
1757491480620433000,2.873432861328125,-0.842235267162323,-12.997148513793945,3.0657753944396973
1757491480630473500,2.883473388671875,-0.2628384530544281,-11.216086387634277,3.23374342918396
1757491480640517000,2.89351708984375,-1.5103671550750732,-9.046042442321777,3.748197555541992
1757491480650556700,2.903556640625,-1.5174750089645386,-8.161758422851562,2.8460323810577393
1757491480660599800,2.913599853515625,-0.6141875386238098,-8.329577445983887,1.4851531982421875
1757491480670640400,2.923640380859375,-1.0407295227050781,-7.4140944480896,1.9300258159637451
1757491480680677400,2.933677490234375,-1.3755437135696411,-6.996006965637207,1.9856910705566406
1757491480690721800,2.9437216796875,-2.0655975341796875,-7.218667984008789,1.5625907182693481
1757491480700758500,2.953758544921875,-2.5282769203186035,-8.312369346618652,0.6994061470031738
1757491480710803500,2.963803466796875,-2.692279815673828,-10.48982048034668,0.1545008271932602
1757491480720844300,2.97384423828125,-2.761786460876465,-12.025850296020508,-0.2098667472600937
1757491480730884400,2.98388427734375,-0.8889222145080566,-11.291653633117676,-0.9892542362213135
1757491480740921000,2.993921142578125,-1.0007762908935547,-9.543886184692383,-0.40304890275001526
1757491480750966500,3.003966552734375,-2.708066463470459,-6.399476528167725,2.7321581840515137
1757491480761007400,3.01400732421875,-1.3286323547363281,-10.134282112121582,1.8080711364746094
1757491480771044000,3.024044189453125,-1.5394717454910278,-12.34285831451416,0.5340566039085388
1757491480781088300,3.034088134765625,-1.1549030542373657,-10.213813781738281,-0.5894225239753723
1757491480791128800,3.04412890625,-0.8654291033744812,-9.791985511779785,-1.492485523223877
1757491480801166000,3.054166015625,-0.9644143581390381,-10.36060905456543,-1.6581343412399292
1757491480811210200,3.064210205078125,-1.7285387516021729,-9.748066902160645,-0.6970119476318359
1757491480821251600,3.07425146484375,-1.885583519935608,-9.541193008422852,0.2884264886379242
1757491480831291600,3.084291748046875,-1.9200000762939453,-9.392677307128906,0.6928969621658325
1757491480841329000,3.094328857421875,-2.6187329292297363,-8.417638778686523,1.4998177289962769
1757491480851373800,3.104373779296875,-5.287145614624023,-2.2747161388397217,6.090400218963623
1757491480861412900,3.114412841796875,0.08289923518896103,-3.7817912101745605,3.5625722408294678
1757491480871451000,3.124450927734375,3.7614405155181885,-11.379341125488281,-1.5031098127365112
1757491480881492500,3.134492431640625,-0.9347113370895386,-10.74068832397461,-1.576058030128479
1757491480891533300,3.144533203125,-1.7272669076919556,-10.578032493591309,-0.9054571390151978
1757491480901574700,3.15457470703125,-0.8298901915550232,-11.291803359985352,-0.7211036086082458
1757491480911613200,3.16461328125,-0.42205286026000977,-11.13573169708252,-0.5285948514938354
1757491480921659100,3.1746591796875,-1.7085621356964111,-9.708413124084473,0.26261401176452637
1757491480931687200,3.184687255859375,-2.1214122772216797,-9.122207641601562,0.8770260214805603
1757491480941737700,3.19473779296875,-1.3138929605484009,-9.994744300842285,0.5726631283760071
1757491480951777000,3.204777099609375,-1.53707754611969,-10.235811233520508,0.3752163052558899
1757491480961816800,3.21481689453125,-1.3547440767288208,-10.591649055480957,0.32187050580978394
1757491480971857700,3.224857666015625,-2.7515363693237305,-10.608333587646484,0.4761468768119812
1757491480981899500,3.2348994140625,-2.0767455101013184,-10.455328941345215,-0.005611410364508629
1757491480991941400,3.24494140625,-1.8996493816375732,-9.29227066040039,-0.5666776299476624
1757491481001985000,3.254985107421875,-0.6442646980285645,-9.18969440460205,-1.1684452295303345
1757491481011999500,3.26499951171875,-0.03845686465501785,-10.705673217773438,-2.201692819595337
1757491481022040300,3.275040283203125,-0.7376385927200317,-12.503868103027344,-3.7224597930908203
1757491481032096300,3.28509619140625,-0.5743839740753174,-12.062960624694824,-2.841992139816284
1757491481042220500,3.295220458984375,-1.1344027519226074,-10.50141716003418,-2.8790276050567627
1757491481052227000,3.30522705078125,-2.4817397594451904,-9.923517227172852,-3.471517562866211
1757491481062225000,3.315224853515625,-3.1933412551879883,-12.046351432800293,-5.783119201660156
1757491481072269300,3.325269287109375,-1.506701111793518,-8.19452953338623,-2.2758383750915527
1757491481082310100,3.33531005859375,-1.5780034065246582,-7.910068511962891,0.16310499608516693
1757491481092351200,3.345351318359375,-4.103736400604248,-11.968464851379395,3.6308069229125977
1757491481102393600,3.3553935546875,0.9451859593391418,-14.472275733947754,-2.348562240600586
1757491481112428500,3.365428466796875,0.228047713637352,-11.416152000427246,-4.744709014892578
1757491481122468900,3.37546875,-2.1361515522003174,-8.215105056762695,-2.033200979232788
1757491481132509400,3.385509521484375,-2.2019174098968506,-7.054141044616699,-0.10871171951293945
1757491481142550300,3.39555029296875,-1.2321161031723022,-6.848090171813965,-0.5389946699142456
1757491481152595200,3.40559521484375,-0.5647323131561279,-7.7405290603637695,-1.6160861253738403
1757491481162635800,3.4156357421875,-0.2157026082277298,-8.908001899719238,-1.0396820306777954
1757491481172676400,3.42567626953125,-0.5351788997650146,-9.577554702758789,-0.23119010031223297
1757491481182717700,3.4357177734375,-1.369184136390686,-9.788169860839844,0.1041477769613266
1757491481192754200,3.445754150390625,-1.8973300457000732,-9.724498748779297,0.17747020721435547
1757491481202798800,3.455798828125,-2.062904119491577,-9.536105155944824,0.5351040959358215
1757491481212835800,3.4658359375,-1.8849849700927734,-9.411980628967285,0.9837924242019653
1757491481222880000,3.4758798828125,-2.5289504528045654,-9.575610160827637,1.941473126411438
1757491481232921000,3.485921142578125,-2.4800188541412354,-9.573141098022461,1.4066683053970337
1757491481242962000,3.4959619140625,-0.2552817463874817,-9.534459114074707,-1.0901848077774048
1757491481252998700,3.50599853515625,-0.6922235488891602,-9.672649383544922,-2.7895443439483643
1757491481263043300,3.516043212890625,-0.07257423549890518,-10.119242668151855,-5.198784351348877
1757491481273084200,3.526084228515625,8.988731384277344,-8.843657493591309,-3.992406129837036
1757491481283120600,3.53612060546875,3.362057685852051,-10.529324531555176,-4.611232280731201
1757491481293165300,3.546165283203125,-12.289661407470703,-12.471920013427734,-0.7414543628692627
1757491481303206000,3.556205810546875,-8.945560455322266,-12.31637191772461,7.396661758422852
1757491481313247000,3.5662470703125,-3.583371639251709,-12.619836807250977,5.351863861083984
1757491481323287600,3.57628759765625,-2.263343572616577,-14.30430793762207,1.6698060035705566
1757491481333328400,3.586328369140625,2.355071544647217,-13.670966148376465,-1.059733510017395
1757491481343369200,3.596369140625,0.7120505571365356,-10.451289176940918,-3.1700727939605713
1757491481353410300,3.606410400390625,-0.9332897663116455,-6.657077789306641,-5.087977886199951
1757491481363446500,3.616446533203125,-1.0158897638320923,-3.1692497730255127,-6.574851989746094
1757491481373487600,3.626487548828125,-0.7967454195022583,-2.5695769786834717,-4.963254928588867
1757491481383528700,3.63652880859375,-0.8510639071464539,-4.9147725105285645,-2.4298901557922363
1757491481393575000,3.646574951171875,0.09778817743062973,-7.330671310424805,-2.1366753578186035
1757491481403613400,3.656613525390625,-0.6632686853408813,-8.619500160217285,-1.059509038925171
1757491481413654000,3.666654052734375,-2.3949499130249023,-8.967856407165527,1.6561890840530396
1757491481423694800,3.67669482421875,-1.8758569955825806,-9.630376815795898,1.7161189317703247
1757491481433690600,3.686690673828125,-1.3935002088546753,-9.694197654724121,1.4282909631729126
1757491481443773000,3.69677294921875,-1.0491092205047607,-9.41183090209961,2.4512135982513428
1757491481453816600,3.706816650390625,-0.6404489278793335,-9.10761833190918,3.3738043308258057
1757491481463857700,3.716857666015625,1.0620529651641846,-10.023699760437012,0.9469067454338074
1757491481473898500,3.7268984375,2.1261258125305176,-10.535908699035645,0.6282535195350647
1757491481483939000,3.73693896484375,2.900874614715576,-4.0743327140808105,1.2396727800369263
1757491481493980000,3.74697998046875,4.996474266052246,21.956924438476562,2.470442056655884
1757491481504020500,3.7570205078125,1.1048492193222046,-7.257498741149902,-1.772158145904541
1757491481514057700,3.7670576171875,1.1708394289016724,-8.118364334106445,-5.772270679473877
1757491481524102400,3.777102294921875,-1.0295815467834473,-9.602619171142578,-2.374674081802368
1757491481534142500,3.787142578125,-2.041430950164795,-12.427477836608887,-1.6193033456802368
1757491481544183600,3.79718359375,-2.4367735385894775,-15.182905197143555,-2.8232874870300293
1757491481554224000,3.80722412109375,-1.0631752014160156,-12.212074279785156,-4.240505218505859
1757491481564265000,3.817264892578125,0.33092355728149414,-8.257002830505371,-5.002011299133301
1757491481574306600,3.827306640625,1.2382512092590332,-7.619846343994141,-4.867037773132324
1757491481584342300,3.83734228515625,-0.5464017391204834,-8.74848747253418,-4.035800933837891
1757491481594388500,3.847388427734375,-2.3424270153045654,-9.073949813842773,-3.1203181743621826
1757491481604426000,3.857426025390625,-1.2410194873809814,-9.46023941040039,-1.8177976608276367
1757491481614465000,3.867465087890625,0.25752630829811096,-10.360533714294434,-0.2711433470249176
1757491481624505900,3.877505859375,-0.22879590094089508,-11.765181541442871,1.7156699895858765
1757491481634547700,3.887547607421875,0.6394014954566956,-13.155689239501953,3.334674119949341
1757491481644591400,3.89759130859375,-0.2688239514827728,-15.26138973236084,4.471545696258545
1757491481654627800,3.9076279296875,-0.14282909035682678,-15.813627243041992,4.062661170959473
1757491481664672300,3.91767236328125,-0.3802291452884674,-14.843976020812988,1.8806453943252563
1757491481674712800,3.927712890625,-0.24772505462169647,-15.932663917541504,2.03739070892334
1757491481684753700,3.937753662109375,0.19699791073799133,-15.84071159362793,2.899827241897583
1757491481694794800,3.947794677734375,0.5248538851737976,-15.134122848510742,3.8469583988189697
1757491481704831500,3.95783154296875,0.6084265112876892,-13.617695808410645,3.575141668319702
1757491481714876000,3.9678759765625,1.070208191871643,-12.12289047241211,2.2131402492523193
1757491481724915200,3.977915283203125,1.632022500038147,-11.295319557189941,0.7769932746887207
1757491481734957300,3.987957275390625,1.5860837697982788,-11.493589401245117,0.02768295630812645
1757491481744998100,3.997998046875,0.9271546006202698,-12.120796203613281,-0.1966238170862198
1757491481755038700,4.008038818359375,0.26725277304649353,-12.683732032775879,0.11170447617769241
1757491481765079800,4.018079833984375,0.3272574543952942,-13.577293395996094,0.6758382320404053
1757491481775120100,4.0281201171875,0.4314800500869751,-13.785364151000977,1.2049567699432373
1757491481785161200,4.0381611328125,0.1975216418504715,-14.704214096069336,2.150891065597534
1757491481795201500,4.048201416015625,-0.04825812950730324,-14.067955017089844,2.754154920578003
1757491481805242600,4.05824267578125,-0.27720367908477783,-11.284022331237793,3.1880292892456055
1757491481815283200,4.068283203125,-0.4480898082256317,-9.641151428222656,3.7642836570739746
1757491481825324800,4.07832470703125,-0.933738648891449,-8.911368370056152,3.6115784645080566
1757491481835365000,4.088365234375,-1.68970787525177,-8.70449447631836,1.782333493232727
1757491481845410300,4.098410400390625,-0.8228572010993958,-9.247754096984863,-1.4603134393692017
1757491481855442400,4.1084423828125,0.6939443945884705,-9.795127868652344,-2.0522048473358154
1757491481865483000,4.11848291015625,3.0782699584960938,-8.197372436523438,-2.7840075492858887
1757491481875527200,4.128527099609375,2.924891471862793,-4.027047157287598,-3.906813383102417
1757491481885564700,4.138564697265625,0.0065840547904372215,-0.4471171796321869,-4.327444553375244
1757491481895609300,4.148609375,-0.4208557605743408,-1.1766753196716309,-4.955623626708984
1757491481905650200,4.158650146484375,1.020378828048706,-6.593182563781738,-4.288763523101807
1757491481915690500,4.1686904296875,1.4052467346191406,-9.306711196899414,-5.010390758514404
1757491481925731300,4.1787314453125,-0.34491467475891113,-9.49458122253418,-4.64557409286499
1757491481935772400,4.1887724609375,-1.0363900661468506,-10.039935111999512,-3.5219454765319824
1757491481945812700,4.198812744140625,-0.17342998087406158,-10.113332748413086,-2.6589105129241943
1757491481955850000,4.20885009765625,-0.6998550891876221,-10.426448822021484,-1.707514762878418
1757491481965894100,4.21889404296875,-0.8596680760383606,-10.378564834594727,-1.1873743534088135
1757491481975935500,4.228935546875,-0.32606035470962524,-10.009932518005371,-1.0191068649291992
1757491481985975800,4.238975830078125,0.24278701841831207,-9.39559555053711,-1.0569652318954468
1757491481996017400,4.249017333984375,0.4015525281429291,-9.063026428222656,-0.9946411848068237
1757491482006062600,4.2590625,0.15607202053070068,-8.83011531829834,-0.6840683221817017
1757491482016094500,4.269094482421875,-0.4536263942718506,-8.522834777832031,-0.10280103236436844
1757491482026134800,4.279134765625,-1.9631705284118652,5.877914905548096,1.4162451028823853
1757491482036175400,4.28917529296875,-0.872686505317688,5.918766021728516,0.7861959934234619
1757491482046216200,4.29921630859375,1.9828479290008545,-6.405611991882324,0.3762637674808502
1757491482056257800,4.3092578125,3.2963669300079346,-14.571036338806152,0.8164227604866028
1757491482066310100,4.31931005859375,2.74772047996521,-14.877419471740723,1.3872902393341064
1757491482076339000,4.3293388671875,1.3082815408706665,-19.32831573486328,0.7315782308578491
1757491482086383900,4.3393837890625,-0.6023662090301514,-18.87409019470215,-0.295833557844162
1757491482096422400,4.34942236328125,-1.4699649810791016,-14.898368835449219,-1.4559738636016846
1757491482106461000,4.3594609375,-1.0859200954437256,-13.821876525878906,-2.2082769870758057
1757491482116502000,4.369501953125,-0.5076456069946289,-13.692214965820312,-2.026317596435547
1757491482126544000,4.3795439453125,-0.10998363792896271,-13.500155448913574,-1.6211738586425781
1757491482136587000,4.3895869140625,-0.20126257836818695,-13.22639274597168,-2.1116859912872314
1757491482146624000,4.3996240234375,-0.09651625901460648,-13.3773775100708,-2.5248353481292725
1757491482156669000,4.4096689453125,-0.3110217750072479,-13.221230506896973,-2.6517279148101807
1757491482166709200,4.419709228515625,-0.6230161786079407,-11.855937004089355,-2.4239046573638916
1757491482176750000,4.42975,-0.6652140021324158,-10.62007999420166,-1.92134690284729
1757491482186786600,4.43978662109375,-0.6420201659202576,-8.550816535949707,-1.186850666999817
1757491482196831500,4.44983154296875,-0.20433014631271362,-6.473547458648682,-0.25243863463401794
1757491482206868200,4.4598681640625,-0.5027823448181152,-5.584550380706787,0.9457845091819763
1757491482216913000,4.469912841796875,-0.03329436853528023,-5.619266033172607,1.8085200786590576
1757491482226953500,4.479953369140625,-0.05678747221827507,-6.475193500518799,2.2753894329071045
1757491482236994300,4.489994384765625,0.1397615224123001,-8.024091720581055,2.50874924659729
1757491482247035400,4.500035400390625,0.002543839393183589,-9.595511436462402,2.328136682510376
1757491482257072400,4.510072265625,0.22041618824005127,-10.320879936218262,1.633743405342102
1757491482267116800,4.52011669921875,0.3298760950565338,-10.560449600219727,0.7641244530677795
1757491482277154000,4.530154052734375,0.3892074227333069,-10.46318531036377,-0.09950900822877884
1757491482287198200,4.5401982421875,0.444049596786499,-10.09245777130127,-0.7344961762428284
1757491482297239300,4.5502392578125,0.5147533416748047,-9.736096382141113,-1.1177929639816284
1757491482307279600,4.560279541015625,0.41629183292388916,-9.520468711853027,-1.231667160987854
1757491482317320200,4.5703203125,0.1794154942035675,-9.482834815979004,-1.0465654134750366
1757491482327356400,4.5803564453125,-0.09247604012489319,-9.600749015808105,-0.7644237279891968
1757491482337398000,4.59039794921875,-0.2932148873806,-9.804405212402344,-0.5715408325195312
1757491482347438300,4.600438232421875,-0.4113537669181824,-9.854609489440918,-0.5200654864311218
1757491482357479200,4.610479248046875,-0.4819079041481018,-9.850643157958984,-0.5841103792190552
1757491482367523300,4.6205234375,-0.5058499574661255,-9.821614265441895,-0.6613982319831848
1757491482377577700,4.63057763671875,-0.4901379644870758,-9.782109260559082,-0.6982090473175049
1757491482387605800,4.640605712890625,-0.41023150086402893,-9.818172454833984,-0.6618471145629883
1757491482397642500,4.650642578125,-0.27555763721466064,-9.921571731567383,-0.5641337633132935
1757491482407687200,4.660687255859375,-0.10871171951293945,-10.035745620727539,-0.45587095618247986
1757491482417727200,4.670727294921875,0.04997896030545235,-10.099790573120117,-0.3472340703010559
1757491482427768300,4.680768310546875,0.13130700588226318,-10.081085205078125,-0.2759317457675934
1757491482437809200,4.69080908203125,0.15188217163085938,-10.032378196716309,-0.23508067429065704
1757491482447850000,4.70085009765625,0.14260463416576385,-9.950002670288086,-0.23687632381916046
1757491482457890000,4.71089013671875,0.0892588347196579,-9.841141700744629,-0.2561795711517334
1757491482467927300,4.72092724609375,0.028655601665377617,-9.763404846191406,-0.260144978761673
1757491482477972200,4.73097216796875,-0.05446808785200119,-9.696666717529297,-0.2139817774295807
1757491482488012800,4.7410126953125,-0.18061259388923645,-9.65147590637207,-0.14028525352478027
1757491482498053600,4.7510537109375,-0.27465981245040894,-9.64100170135498,-0.06224924325942993
1757491482508094200,4.76109423828125,-0.3618237376213074,-9.690082550048828,-0.009651625528931618
1757491482518135600,4.771135498046875,-0.40364745259284973,-9.740435600280762,0.05820902809500694
1757491482528171800,4.781171875,-0.42863690853118896,-9.774253845214844,0.13325229287147522
1757491482538216400,4.791216552734375,-0.4315548539161682,-9.84607982635498,0.21637597680091858
1757491482548257500,4.801257568359375,-0.37304654717445374,-9.89433765411377,0.3076549172401428
1757491482558297900,4.8112978515625,-0.27151742577552795,-9.893739700317383,0.39070379734039307
1757491482568339000,4.8213388671875,-0.1637035459280014,-9.823708534240723,0.4480150043964386
1757491482578379500,4.831379638671875,-0.08693944662809372,-9.715296745300293,0.4817582666873932
1757491482588418000,4.84141796875,-0.08065467327833176,-9.649755477905273,0.4976946711540222
1757491482598456800,4.851456787109375,-0.10212766379117966,-9.628132820129395,0.48482584953308105
1757491482608497700,4.86149755859375,-0.11671733111143112,-9.682825088500977,0.43679216504096985
1757491482618541000,4.871541015625,-0.1536778211593628,-9.749488830566406,0.37319618463516235
1757491482628579600,4.88157958984375,-0.18038813769817352,-9.82296085357666,0.26665422320365906
1757491482638624300,4.891624267578125,-0.17260697484016418,-9.938405990600586,0.18584990501403809
1757491482648665000,4.9016650390625,-0.16003741323947906,-10.056395530700684,0.1396867036819458
1757491482658701600,4.91170166015625,-0.12457330524921417,-10.13630199432373,0.10437223315238953
1757491482668746200,4.921746337890625,-0.13774141669273376,-10.131363868713379,0.08057985454797745
1757491482678787000,4.931787109375,-0.13759177923202515,-10.077643394470215,0.0702548548579216
1757491482688827600,4.94182763671875,-0.20275895297527313,-9.959355354309082,0.07968202233314514
1757491482698864600,4.95186474609375,-0.22999300062656403,-9.818471908569336,0.12135609984397888
1757491482708909000,4.961908935546875,-0.2414402812719345,-9.693224906921387,0.15921440720558167
1757491482718946000,4.971946044921875,-0.25176528096199036,-9.595511436462402,0.20290859043598175
1757491482728991000,4.981990966796875,-0.29710546135902405,-9.635165214538574,0.2637362778186798
1757491482739031600,4.992031494140625,-0.3415478467941284,-9.768043518066406,0.3429693877696991
1757491482749072600,5.00207275390625,-0.3667617738246918,-9.832612037658691,0.3737199306488037
1757491482759113200,5.01211328125,-0.32187050580978394,-9.986888885498047,0.4118026793003082
1757491482769150000,5.02214990234375,-0.2992003858089447,-10.029011726379395,0.46993690729141235
1757491482779195000,5.03219482421875,-0.2737619876861572,-9.993697166442871,0.5547066330909729
1757491482789231400,5.0422314453125,-0.26485857367515564,-9.929876327514648,0.6899790167808533
1757491482799276000,5.052276123046875,-0.32119712233543396,-9.710433006286621,0.7716811299324036
1757491482809316600,5.062316650390625,-0.398185670375824,-9.5972318649292,0.8324339985847473
1757491482819357400,5.072357421875,-0.4660463333129883,-9.585485458374023,0.8949077129364014
1757491482829402400,5.08240234375,-0.4289361834526062,-9.596558570861816,0.9459341168403625
1757491482839434800,5.092434814453125,-0.5449053645133972,-9.65604019165039,0.9412953853607178
1757491482849475800,5.102475830078125,-0.6562356948852539,-9.753753662109375,0.9364321231842041
1757491482859519000,5.11251904296875,-0.7084592580795288,-9.933917045593262,0.9462333917617798
1757491482869557800,5.122557861328125,-0.8169465065002441,-9.917082786560059,0.9480290412902832
1757491482879602000,5.132601806640625,-0.8361001014709473,-9.948282241821289,0.9896283149719238
1757491482889643000,5.14264306640625,-0.8710405230522156,-10.081010818481445,1.0473884344100952
1757491482899683600,5.15268359375,-0.8627356290817261,-10.13742446899414,1.105447769165039
1757491482909724000,5.162723876953125,-0.8184428811073303,-10.120964050292969,1.1423335075378418
1757491482919761000,5.172760986328125,-0.6789058446884155,-10.148871421813965,1.1892448663711548
1757491482929801700,5.1828017578125,-0.820687472820282,-10.098443031311035,1.1699416637420654
1757491482939846100,5.19284619140625,-0.8744821548461914,-9.912518501281738,1.2370541095733643
1757491482949887200,5.20288720703125,-0.9256582260131836,-9.948805809020996,1.3504046201705933
1757491482959927800,5.212927734375,-1.1708394289016724,-10.189048767089844,1.4811878204345703
1757491482969968000,5.222968017578125,-1.438840389251709,-10.483086585998535,1.6189292669296265
1757491482980005000,5.233005126953125,-1.0720038414001465,-10.834959983825684,1.9238907098770142
1757491482990050000,5.243050048828125,-0.9644143581390381,-11.258957862854004,2.178274631500244
1757491483000087000,5.253087158203125,-1.118391513824463,-11.315221786499023,2.24665904045105
1757491483010131500,5.26313134765625,-0.6584802865982056,-10.798672676086426,2.212167501449585
1757491483020172500,5.273172607421875,-0.5001636743545532,-10.239551544189453,2.0731542110443115
1757491483030213400,5.28321337890625,-0.9942670464515686,-9.922245025634766,2.026317596435547
1757491483040249900,5.293249755859375,-1.4966005086898804,-9.58092212677002,1.9724481105804443
1757491483050294800,5.303294677734375,-2.5255086421966553,-9.526678085327148,1.6733225584030151
1757491483060335600,5.313335693359375,-2.621351480484009,-9.686341285705566,0.6249614357948303
1757491483070372000,5.3233720703125,-0.9193734526634216,-9.455824851989746,-1.1236287355422974
1757491483080415500,5.33341552734375,-0.02042553387582302,-8.979902267456055,-2.785653591156006
1757491483090453800,5.343453857421875,0.2933645248413086,-8.420856475830078,-3.1699979305267334
1757491483100494600,5.35349462890625,0.24832360446453094,-8.420706748962402,-2.135104179382324
1757491483110535400,5.363535400390625,1.062427043914795,-8.78073501586914,-0.7618798613548279
1757491483120580000,5.373580078125,1.8720412254333496,-8.876277923583984,-0.24121582508087158
1757491483130621000,5.383620849609375,2.4554781913757324,-8.643891334533691,-0.08484452217817307
1757491483140657400,5.393657470703125,2.9548938274383545,-8.354043006896973,0.33601123094558716
1757491483150702300,5.403702392578125,2.7194390296936035,-8.229394912719727,1.0455927848815918
1757491483160742700,5.41374267578125,1.4509609937667847,-8.398261070251465,1.7782185077667236
1757491483180824000,5.433823974609375,-2.6564416885375977,-9.233912467956543,2.206930160522461
1757491483190865200,5.443865234375,-3.697096347808838,-9.781286239624023,1.8847604990005493
1757491483200905500,5.453905517578125,-3.9660699367523193,-10.271424293518066,1.3373112678527832
1757491483210946600,5.463946533203125,-3.5627217292785645,-10.291101455688477,0.8472481369972229
1757491483220987600,5.473987548828125,-2.575861692428589,-9.788918495178223,0.6515969634056091
1757491483231028000,5.484028076171875,-1.3299790620803833,-9.095123291015625,0.7626280784606934
1757491483241065000,5.49406494140625,-0.3146878778934479,-8.253561019897461,1.016563057899475
1757491483251109400,5.504109375,-0.08955810964107513,-7.6256818771362305,1.4826842546463013
1757491483261150200,5.514150146484375,-0.46918871998786926,-7.567922115325928,2.2031893730163574
1757491483271190800,5.524190673828125,-1.2845640182495117,-8.008455276489258,2.686069965362549
1757491483281232100,5.534232177734375,-1.823409080505371,-8.791434288024902,2.5270049571990967
1757491483291272400,5.5442724609375,-1.7727566957473755,-9.557129859924316,1.8366519212722778
1757491483301309200,5.55430908203125,-1.438840389251709,-10.097994804382324,0.9854384660720825
1757491483311353600,5.564353515625,-0.7483376860618591,-10.331130027770996,0.10841244459152222
1757491483321398000,5.57439794921875,0.08387187868356705,-10.105999946594238,-0.5324106216430664
1757491483331409200,5.5844091796875,1.1143512725830078,-9.482609748840332,-0.608127236366272
1757491483341472300,5.59447216796875,1.9485061168670654,-9.194482803344727,0.050951603800058365
1757491483351513900,5.604513916015625,2.064849376678467,-9.427468299865723,1.2994530200958252
1757491483361553400,5.614553466796875,1.1416600942611694,-10.12253475189209,2.595015287399292
1757491483371594000,5.624593994140625,0.14006079733371735,-10.811841011047363,3.450568437576294
1757491483381638700,5.634638671875,-0.3388543725013733,-11.359888076782227,3.5947442054748535
1757491483391679700,5.6446796875,-0.44262802600860596,-11.712883949279785,3.0451252460479736
1757491483401718000,5.654718017578125,-0.7056161165237427,-11.999588966369629,2.160168409347534
1757491483411758600,5.664758544921875,-1.2476783990859985,-12.167034149169922,1.1293898820877075
1757491483421797600,5.674797607421875,-1.7919851541519165,-12.011934280395508,0.058957215398550034
1757491483431859000,5.68485888671875,-1.9271079301834106,-11.5018949508667,-0.9405471682548523
1757491483441879300,5.69487939453125,-1.6368108987808228,-10.69938850402832,-1.5546599626541138
1757491483451923000,5.7049228515625,-1.1525088548660278,-9.743951797485352,-1.4979472160339355
1757491483461964500,5.714964599609375,-0.4412064850330353,-9.095123291015625,-0.8060229420661926
1757491483472003300,5.72500341796875,0.5448305010795593,-8.787992477416992,0.08409633487462997
1757491483482043600,5.735043701171875,1.3604302406311035,-8.714071273803711,0.8695441484451294
1757491483492084200,5.745084228515625,1.8813936710357666,-8.876577377319336,1.4829834699630737
1757491483502205200,5.755205078125,2.1360769271850586,-9.185729026794434,1.9164836406707764
1757491483512193800,5.76519384765625,2.0196588039398193,-9.517400741577148,2.1379473209381104
1757491483522208500,5.77520849609375,1.7431284189224243,-9.79295825958252,2.171989917755127
1757491483532250400,5.78525048828125,1.4368951320648193,-9.906309127807617,1.992499589920044
1757491483542291000,5.795291015625,1.2122142314910889,-9.811214447021484,1.6469115018844604
1757491483552331800,5.805331787109375,1.0056395530700684,-9.68043041229248,1.3265373706817627
1757491483562368500,5.815368408203125,0.8812906742095947,-9.598953247070312,1.0627262592315674
1757491483572412000,5.825411865234375,0.8438813090324402,-9.60755729675293,0.8767267465591431
1757491483582450200,5.8354501953125,0.8696189522743225,-9.695320129394531,0.7387608885765076
1757491483592491000,5.845490966796875,0.893112063407898,-9.739089012145996,0.6345382928848267
1757491483602533000,5.855533203125,0.7998878359794617,-9.734973907470703,0.5586720108985901
1757491483612583400,5.86558349609375,0.874108076095581,-9.67309856414795,0.5802198052406311
1757491483622613000,5.875613037109375,0.9278279542922974,-9.67923355102539,0.5930138230323792
1757491483632657400,5.885657470703125,0.9539397358894348,-9.775151252746582,0.6757634282112122
1757491483642698500,5.895698486328125,0.9540145397186279,-9.854758262634277,0.8423100709915161
1757491483652739000,5.905739013671875,0.8204630017280579,-9.953519821166992,1.0534487962722778
1757491483662780000,5.91577978515625,0.7283610701560974,-10.038812637329102,1.2180501222610474
1757491483672816600,5.925816650390625,0.8300397992134094,-10.004695892333984,1.2965350151062012
1757491483682857200,5.935857177734375,0.5663034915924072,-10.007762908935547,1.25957453250885
1757491483692902000,5.94590185546875,0.7332242727279663,-9.998111724853516,1.1991957426071167
1757491483702942700,5.955942626953125,0.8406640887260437,-9.88049602508545,1.0300304889678955
1757491483712983300,5.9659833984375,0.9119663834571838,-9.818546295166016,0.7926303744316101
1757491483723024400,5.9760244140625,0.884058952331543,-9.84271240234375,0.6124666929244995
1757491483733064700,5.986064697265625,0.8146271109580994,-9.840917587280273,0.5089923143386841
1757491483743102200,5.996102294921875,0.7936030626296997,-9.784728050231934,0.4783914387226105
1757491483753147000,6.00614697265625,0.7818564772605896,-9.738116264343262,0.47397711873054504
1757491483763187200,6.016187255859375,0.7818564772605896,-9.722628593444824,0.47644615173339844
1757491483773228300,6.026228271484375,0.8176198601722717,-9.740585327148438,0.47143328189849854
1757491483783268600,6.0362685546875,0.8986486196517944,-9.745298385620117,0.43761518597602844
1757491483793309700,6.046309814453125,0.8709656596183777,-9.79879379272461,0.4075380265712738
1757491483803350800,6.056350830078125,0.726415753364563,-9.857227325439453,0.43282678723335266
1757491483813388000,6.066387939453125,0.592939019203186,-9.893440246582031,0.5502174496650696
1757491483823428600,6.0764287109375,0.5160253047943115,-9.878551483154297,0.6842927932739258
1757491483833468400,6.086468505859375,0.5669020414352417,-9.731158256530762,0.8031798601150513
1757491483843510800,6.0965107421875,0.5797709226608276,-9.866654396057129,0.9203460812568665
1757491483853551600,6.106551513671875,0.7385364174842834,-9.873014450073242,0.9577555060386658
1757491483863594800,6.1165947265625,0.8762030005455017,-9.72517204284668,0.9533411860466003
1757491483873635600,6.126635498046875,0.9301473498344421,-9.670330047607422,0.9534159898757935
1757491483883672300,6.13667236328125,0.8274211287498474,-9.685518264770508,0.9227402806282043
1757491483893717000,6.146717041015625,0.7425765991210938,-9.687687873840332,0.8909423351287842
1757491483903758000,6.156758056640625,0.7160159349441528,-9.654842376708984,0.8089408874511719
1757491483913798100,6.166798095703125,0.7410054206848145,-9.663147926330566,0.7849240899085999
1757491483923839000,6.1768388671875,0.7050175666809082,-9.680805206298828,0.7443722486495972
1757491483933879300,6.18687939453125,0.7002291679382324,-9.678260803222656,0.709805965423584
1757491483943920600,6.196920654296875,0.786270797252655,-9.657012939453125,0.7346458435058594
1757491483953957600,6.20695751953125,0.8746318221092224,-9.599552154541016,0.6857143044471741
1757491483964001800,6.217001708984375,0.7608324289321899,-9.716418266296387,0.680626630783081
1757491483974042600,6.227042724609375,0.7778910994529724,-9.703924179077148,0.8131307363510132
1757491483984084000,6.237083984375,0.8188918232917786,-9.698760986328125,0.9597007632255554
1757491483994124000,6.2471240234375,0.8857797980308533,-9.737442970275879,1.036689281463623
1757491484004160800,6.257160888671875,0.9202712774276733,-9.74701976776123,1.0257657766342163
1757491484014205700,6.267205810546875,0.9537152647972107,-9.725471496582031,1.0030957460403442
1757491484024246800,6.277246826171875,0.8594436049461365,-9.706018447875977,0.9654618501663208
1757491484034287400,6.287287353515625,0.6865373253822327,-9.699809074401855,0.9686790704727173
1757491484044328200,6.297328125,0.6543652415275574,-9.683049201965332,0.9594014883041382
1757491484054368800,6.30736865234375,0.7362170219421387,-9.762805938720703,0.8952817916870117
1757491484064408000,6.317407958984375,0.8047510385513306,-9.835380554199219,0.8336310982704163
1757491484074446000,6.327446044921875,0.8743325471878052,-9.733925819396973,0.8339303731918335
1757491484084487700,6.33748779296875,1.0096049308776855,-9.599177360534668,0.8211363554000854
1757491484094528500,6.347528564453125,1.0601824522018433,-9.467945098876953,0.8313117027282715
1757491484104574000,6.357573974609375,1.118017315864563,-9.397017478942871,0.9591770768165588
1757491484114609200,6.367609130859375,1.208922266960144,-9.451859474182129,1.1696423292160034
1757491484124653800,6.37765380859375,1.2886791229248047,-9.538274765014648,1.236680030822754
1757491484134694400,6.3876943359375,1.1776479482650757,-9.87466049194336,1.206303596496582
1757491484144735200,6.3977353515625,1.0501567125320435,-10.082880973815918,1.0825532674789429
1757491484154776000,6.407776123046875,1.0433481931686401,-9.888651847839355,0.9156324863433838
1757491484164817000,6.41781689453125,0.8769512176513672,-9.66958236694336,0.8558523058891296
1757491484174857500,6.427857421875,0.9241618514060974,-9.462932586669922,0.8153005242347717
1757491484184894200,6.437894287109375,0.9495254158973694,-9.45874309539795,0.9392752647399902
1757491484194939000,6.44793896484375,1.034369945526123,-9.527800559997559,1.119813084602356
1757491484204954400,6.457954345703125,0.8778490424156189,-9.720908164978027,1.3519009351730347
1757491484214995200,6.4679951171875,0.6855646967887878,-9.845406532287598,1.477297306060791
1757491484225036500,6.47803662109375,0.6688801050186157,-9.940875053405762,1.4348750114440918
1757491484235083300,6.488083251953125,0.8541314601898193,-10.087145805358887,1.2576292753219604
1757491484245142500,6.498142578125,1.0269628763198853,-10.022053718566895,1.0651953220367432
1757491484255178800,6.5081787109375,1.1703157424926758,-9.872265815734863,0.9234884977340698
1757491484265224400,6.518224365234375,1.4380922317504883,-9.605462074279785,0.7307552695274353
1757491484275265300,6.528265380859375,1.6470611095428467,-9.429189682006836,0.5089923143386841
1757491484285306000,6.53830615234375,1.9369091987609863,-9.298255920410156,0.25677812099456787
1757491484295346400,6.548346435546875,1.9450644254684448,-9.235259056091309,0.06262333691120148
1757491484315424800,6.5684248046875,1.7839046716690063,-9.370007514953613,-0.1331774741411209
1757491484325464600,6.578464599609375,1.956661343574524,-9.473258018493652,-0.06905775517225266
1757491484335506000,6.588505859375,2.1861305236816406,-9.490092277526855,0.1445499211549759
1757491484345548500,6.598548583984375,2.326341152191162,-9.56281566619873,0.5646575093269348
1757491484355591000,6.6085908203125,2.4438066482543945,-9.735198020935059,1.1297639608383179
1757491484365631700,6.6186318359375,2.1496939659118652,-9.879374504089355,1.6432453393936157
1757491484375672600,6.628672607421875,1.780911922454834,-9.83912181854248,2.0807857513427734
1757491484385713000,6.638712890625,1.0922049283981323,-9.797372817993164,2.265662908554077
1757491484395754000,6.64875390625,0.9399486184120178,-9.767969131469727,1.9002479314804077
1757491484405794300,6.658794189453125,1.0442460775375366,-9.519720077514648,1.156773567199707
1757491484415831000,6.6688310546875,1.4270938634872437,-9.275511741638184,0.6602011322975159
1757491484425876000,6.6788759765625,1.7102081775665283,-9.143231391906738,0.6335656046867371
1757491484435917000,6.6889169921875,1.9152865409851074,-9.161637306213379,1.1635072231292725
1757491484445957600,6.69895751953125,1.8005144596099854,-9.3875150680542,1.9918261766433716
1757491484455998200,6.708998291015625,1.5062521696090698,-9.603517532348633,2.547879457473755
1757491484466040000,6.7190400390625,1.2673556804656982,-9.76677131652832,2.819920778274536
1757491484476077800,6.729077880859375,1.0155155658721924,-9.851615905761719,2.917185068130493
1757491484486116600,6.73911669921875,0.964189887046814,-9.871967315673828,2.940004825592041
1757491484496157400,6.749157470703125,1.0416274070739746,-9.900772094726562,2.9465889930725098
1757491484506197800,6.75919775390625,1.6202759742736816,-9.658658981323242,3.088744640350342
1757491484516240100,6.769240234375,1.2551602125167847,-9.788020133972168,3.278110980987549
1757491484526282200,6.7792822265625,1.6811037063598633,-9.601198196411133,3.533916473388672
1757491484536324400,6.789324462890625,1.5734394788742065,-9.69083023071289,3.580379009246826
1757491484546366200,6.7993662109375,1.8522143363952637,-9.873613357543945,3.4823663234710693
1757491484556401700,6.809401611328125,2.185831308364868,-9.450961112976074,3.136404275894165
1757491484566442800,6.81944287109375,1.9702783823013306,-9.480066299438477,2.799495220184326
1757491484576483800,6.82948388671875,1.405620813369751,-9.690007209777832,2.423605442047119
1757491484586526500,6.8395263671875,1.9170821905136108,-9.547926902770996,2.03080677986145
1757491484596579800,6.849579833984375,2.45749831199646,-9.834781646728516,1.9297266006469727
1757491484606609700,6.859609619140625,1.918503761291504,-10.323872566223145,1.7391630411148071
1757491484616650000,6.86964990234375,1.4730325937271118,-10.50478458404541,1.2675052881240845
1757491484626686700,6.879686767578125,0.6671592593193054,-10.617910385131836,0.7084592580795288
1757491484636726800,6.889726806640625,1.2445359230041504,-10.494833946228027,1.0144681930541992
1757491484646772500,6.8997724609375,0.1975216418504715,-10.400711059570312,1.1082161664962769
1757491484656812800,6.909812744140625,-0.18899229168891907,-10.15253734588623,1.259649395942688
1757491484666853400,6.919853271484375,-0.342894583940506,-10.297985076904297,1.5183727741241455
1757491484676894700,6.929894775390625,0.2835632562637329,-10.051457405090332,1.7092355489730835
1757491484686935300,6.939935302734375,0.9408464431762695,-9.737442970275879,2.2619969844818115
1757491484696971800,6.9499716796875,0.13265374302864075,-9.654842376708984,2.4512884616851807
1757491484707012600,6.9600126953125,0.23006781935691833,-9.398663520812988,2.7460744380950928
1757491484717057300,6.970057373046875,0.4867711365222931,-9.113304138183594,2.9316999912261963
1757491484727097900,6.980097900390625,0.5816413760185242,-9.023447036743164,3.076249837875366
1757491484737139200,6.99013916015625,0.21039047837257385,-9.069235801696777,3.0287399291992188
1757491484747179800,7.0001796875,-0.424970805644989,-9.121010780334473,2.8189480304718018
1757491484757219800,7.0102197265625,-0.8973767161369324,-9.03870964050293,2.723853349685669
1757491484767257300,7.02025732421875,-0.5020341873168945,-8.958429336547852,2.7941830158233643
1757491484777302000,7.030302001953125,0.10093056410551071,-8.902464866638184,2.90035080909729
1757491484787342600,7.040342529296875,-0.005910685285925865,-8.574234962463379,2.7311856746673584
1757491484797383200,7.050383056640625,-0.014440028928220272,-8.48475170135498,2.4955811500549316
1757491484807421700,7.060421630859375,-0.7107786536216736,-8.469862937927246,2.096796989440918
1757491484817460500,7.07046044921875,-1.5027356147766113,-8.571316719055176,1.8157775402069092
1757491484827501800,7.080501708984375,-1.522787094116211,-8.66790771484375,1.558625340461731
1757491484837542000,7.0905419921875,0.502483069896698,-8.283413887023926,1.1962029933929443
1757491484847586800,7.1005869140625,2.1298668384552,-7.9428391456604,0.6492027640342712
1757491484857623600,7.11062353515625,2.726097822189331,-7.604658126831055,-0.0768389105796814
1757491484867668500,7.12066845703125,4.037596702575684,-7.578920364379883,-1.0922796726226807
1757491484877708800,7.130708740234375,5.475165367126465,-7.776292324066162,-1.937956690788269
1757491484887749600,7.14074951171875,6.258368492126465,-8.248772621154785,-2.0020763874053955
1757491484897786000,7.1507861328125,4.929287433624268,-9.33469295501709,-0.743025541305542
1757491484907831300,7.160831298828125,1.6755671501159668,-11.768623352050781,1.567079782485962
1757491484917871600,7.17087158203125,4.728174209594727,-14.08426570892334,2.989609718322754
1757491484927908900,7.180908935546875,5.638195514678955,-15.963563919067383,3.193490982055664
1757491484937953300,7.190953369140625,4.446855545043945,-16.935684204101562,2.8452842235565186
1757491484947994400,7.200994384765625,3.7595701217651367,-16.668132781982422,1.3037924766540527
1757491484958030800,7.21103076171875,2.2584056854248047,-15.683443069458008,0.08589198440313339
1757491484968075300,7.2210751953125,1.2246341705322266,-15.713744163513184,0.9794529676437378
1757491484978116400,7.231116455078125,0.6220435500144958,-16.868497848510742,3.4290952682495117
1757491484988157200,7.2411572265625,-1.7999159097671509,-18.40916633605957,5.459827423095703
1757491484998193700,7.251193603515625,-2.709338426589966,-19.49852752685547,6.5557732582092285
1757491485008238300,7.26123828125,-2.012850284576416,-18.875137329101562,7.079355239868164
1757491485018279000,7.27127880859375,-3.7882256507873535,-16.07085418701172,5.721019744873047
1757491485028316000,7.28131591796875,-3.357194423675537,-12.670863151550293,3.4555063247680664
1757491485038361000,7.291361083984375,-1.0701333284378052,-11.307141304016113,2.2619221210479736
1757491485048407000,7.301406982421875,-0.07466916739940643,-11.264793395996094,1.8507179021835327
1757491485058438100,7.311438232421875,-0.38404491543769836,-11.494711875915527,2.0677671432495117
1757491485068479000,7.32147900390625,-0.6529436707496643,-11.430068969726562,2.8582279682159424
1757491485078522000,7.331522216796875,-0.7832032442092896,-10.856432914733887,4.034529209136963
1757491485088560000,7.34156005859375,-1.181837797164917,-10.244115829467773,5.194370269775391
1757491485098605300,7.351605224609375,-1.607856035232544,-10.138022422790527,6.107533931732178
1757491485108646100,7.361646240234375,-2.0854244232177734,-10.473211288452148,6.707805156707764
1757491485118686700,7.371686767578125,-2.3354690074920654,-10.829572677612305,6.396334171295166
1757491485128727300,7.381727294921875,-1.291447401046753,-11.336769104003906,5.04794979095459
1757491485138768000,7.391767822265625,-0.9240870475769043,-11.638289451599121,3.828253746032715
1757491485148808200,7.40180810546875,-1.7500866651535034,-11.819799423217773,2.8285248279571533
1757491485158845200,7.41184521484375,-1.8795980215072632,-12.4262056350708,1.8405425548553467
1757491485168890000,7.42189013671875,-2.8184242248535156,-13.256844520568848,1.0338462591171265
1757491485178930400,7.431930419921875,-3.465532064437866,-13.89430046081543,0.20799627900123596
1757491485188971500,7.441971435546875,-3.2329204082489014,-14.171354293823242,-0.6254851818084717
1757491485199012000,7.45201220703125,-2.653224468231201,-14.09578800201416,-1.3663409948349
1757491485209053000,7.462052978515625,-2.388216257095337,-13.793145179748535,-1.7998411655426025
1757491485219089700,7.472089599609375,-1.8006641864776611,-13.285125732421875,-1.8480992317199707
1757491485229130800,7.482130859375,-0.356885701417923,-12.895843505859375,-1.2805986404418945
1757491485239175400,7.492175537109375,1.5946131944656372,-12.685752868652344,-0.10691606998443604
1757491485249215500,7.502215576171875,2.6277859210968018,-12.631808280944824,2.015094757080078
1757491485259256300,7.51225634765625,2.416123628616333,-12.544195175170898,4.474912643432617
1757491485269297200,7.522297119140625,2.056993246078491,-12.42238998413086,6.580014228820801
1757491485279334100,7.532334228515625,1.1225064992904663,-12.336573600769043,7.385588645935059
1757491485289378800,7.54237890625,0.9522188901901245,-12.526613235473633,6.735936641693115
1757491485299415000,7.5524150390625,1.3937246799468994,-13.218387603759766,5.698275089263916
1757491485309456100,7.5624560546875,1.7666215896606445,-13.857041358947754,4.8115973472595215
1757491485319497500,7.57249755859375,2.16263747215271,-13.635651588439941,3.839850664138794
1757491485329539000,7.5825390625,1.8772785663604736,-12.917391777038574,2.553715467453003
1757491485339582700,7.592582763671875,1.4202104806900024,-11.33198070526123,1.4972739219665527
1757491485349619200,7.602619140625,0.9287257790565491,-9.441983222961426,0.6912509202957153
1757491485359663900,7.612663818359375,0.5199158787727356,-8.205153465270996,-0.6421697735786438
1757491485369700600,7.62270068359375,0.23044191300868988,-6.455216884613037,-1.6994342803955078
1757491485379745500,7.63274560546875,-0.16834230720996857,-4.284348964691162,-2.105401039123535
1757491485389785600,7.64278564453125,-1.0335469245910645,-2.9718029499053955,-2.168922185897827
1757491485399827000,7.652826904296875,-1.1011083126068115,-2.1475989818573,-2.2108209133148193
1757491485409863400,7.662863525390625,-0.48475101590156555,-1.1026047468185425,-1.9465608596801758
1757491485419908400,7.672908447265625,-0.4470423460006714,-0.8747814297676086,-1.4105589389801025
1757491485429949000,7.682948974609375,-0.5401169657707214,-0.7730278968811035,-0.7448211908340454
1757491485439985400,7.6929853515625,-0.7042694091796875,-0.8882488012313843,-0.3271826207637787
1757491485450030000,7.703030029296875,-0.6596773862838745,-0.7055413126945496,0.15233108401298523
1757491485460045000,7.713045166015625,-0.9208698272705078,-0.7477391362190247,0.8203133344650269
1757491485470098000,7.723097900390625,-0.9435399174690247,-0.5047276616096497,1.0794856548309326
1757491485480147000,7.73314697265625,-1.1816881895065308,-0.6951414942741394,1.586532711982727
1757491485490192600,7.743192626953125,-1.51395845413208,-1.3932757377624512,1.9917513132095337
1757491485500233000,7.75323291015625,-1.9246388673782349,-2.0083611011505127,2.6787376403808594
1757491485510272000,7.76327197265625,-2.340332269668579,-2.602571964263916,3.6088101863861084
1757491485520314600,7.773314697265625,-2.5287258625030518,-3.3557729721069336,4.890381336212158
1757491485530352600,7.7833525390625,-2.3955483436584473,-4.203769207000732,6.021566867828369
1757491485540392200,7.79339208984375,-2.199298620223999,-4.981136798858643,6.65056848526001
1757491485550436600,7.8034365234375,-2.4087913036346436,-5.448081016540527,6.72261905670166
1757491485560477400,7.8134775390625,-2.4151508808135986,-5.734188079833984,6.761524677276611
1757491485570518500,7.8235185546875,-2.6874165534973145,-6.480355739593506,6.483049392700195
1757491485580557300,7.833557373046875,-2.7107601165771484,-6.96967077255249,6.094515323638916
1757491485590600000,7.843599853515625,-3.033902406692505,-7.413869857788086,5.1023430824279785
1757491485600636400,7.853636474609375,-3.230750799179077,-7.642815589904785,4.017021656036377
1757491485610681000,7.86368115234375,-3.206958293914795,-7.908646583557129,2.986093282699585
1757491485620722200,7.87372216796875,-3.365499496459961,-8.07818603515625,2.3271639347076416
1757491485630762200,7.88376220703125,-4.564096450805664,-8.269423484802246,1.8854337930679321
1757491485640803300,7.89380322265625,-5.288716793060303,-8.649502754211426,1.418489694595337
1757491485650841600,7.903841552734375,-4.480224609375,-8.726266860961914,1.7374422550201416
1757491485660886300,7.91388623046875,-4.067150115966797,-8.534356117248535,3.6997148990631104
1757491485670921700,7.923921630859375,-2.285490036010742,-9.09953784942627,5.778854846954346
1757491485680962000,7.933962158203125,-0.29373863339424133,-10.001029014587402,6.121973514556885
1757491485691004000,7.94400390625,0.6987327933311462,-11.27414608001709,4.844293117523193
1757491485701045500,7.95404541015625,-1.2422914505004883,-12.447604179382324,4.223072528839111
1757491485711088000,7.964088134765625,-3.512293815612793,-13.040393829345703,4.343979835510254
1757491485721127200,7.974127197265625,-2.9535470008850098,-13.18741226196289,4.182894706726074
1757491485731167200,7.984167236328125,-2.23087215423584,-13.027225494384766,4.204068660736084
1757491485741211000,7.9942109375,-2.329333782196045,-13.064559936523438,4.489202976226807
1757491485751251200,8.004251220703125,-0.05596446618437767,-13.130924224853516,4.927865505218506
1757491485761289700,8.014289794921876,0.5972036719322205,-13.366230010986328,5.155165195465088
1757491485771332600,8.02433251953125,-0.1736544370651245,-13.834370613098145,5.4310221672058105
1757491485781373000,8.034373046875,-0.04159925505518913,-14.138360023498535,5.604601860046387
1757491485791414300,8.044414306640626,0.18472762405872345,-13.776386260986328,5.5540242195129395
1757491485801452800,8.054452880859374,-0.3536684811115265,-12.624027252197266,5.2096333503723145
1757491485811493000,8.0644931640625,-0.5011363625526428,-10.758943557739258,4.429647445678711
1757491485821536500,8.07453662109375,-0.3084779381752014,-8.968230247497559,3.483189344406128
1757491485831574300,8.08457421875,-0.3158849775791168,-7.701772689819336,2.648136615753174
1757491485841618000,8.094617919921875,0.12577040493488312,-6.723217487335205,2.0958991050720215
1757491485851658200,8.104658203125,0.4902127981185913,-6.031368255615234,1.85236394405365
1757491485861694700,8.11469482421875,0.4655974209308624,-5.6920647621154785,2.123656988143921
1757491485871740000,8.124739990234374,0.5295674800872803,-5.660117149353027,2.752434015274048
1757491485881778400,8.1347783203125,0.483404278755188,-6.061295509338379,3.5189528465270996
1757491485891821600,8.144821533203125,0.1842787116765976,-6.714763164520264,4.189179420471191
1757491485901862100,8.154862060546876,-0.07294833660125732,-7.270143032073975,4.555043697357178
1757491485911903200,8.1649033203125,-0.501285970211029,-7.671920299530029,4.535740375518799
1757491485921939700,8.174939697265625,-1.0639982223510742,-8.271218299865723,4.34607458114624
1757491485931980000,8.18497998046875,-0.05693710967898369,-8.226028442382812,4.216787815093994
1757491485942023200,8.195023193359376,-0.08559270948171616,-8.56308650970459,3.79914927482605
1757491485952063700,8.205063720703125,-0.29867666959762573,-8.783951759338379,3.280954122543335
1757491485962105900,8.21510595703125,-0.4635024964809418,-8.969428062438965,2.6705822944641113
1757491485972147000,8.22514697265625,-1.092653751373291,-9.263989448547363,1.9118448495864868
1757491485982187500,8.2351875,-1.053299069404602,-9.386991500854492,1.3090298175811768
1757491485992224500,8.245224609375,0.09247604012489319,-9.01940631866455,0.9943419098854065
1757491486002269000,8.25526904296875,-0.2760065793991089,-8.727089881896973,0.9980080127716064
1757491486012309500,8.2653095703125,-1.0398317575454712,-8.88174057006836,1.2814964056015015
1757491486022349300,8.275349365234375,-0.5065233111381531,-8.697237014770508,1.637259840965271
1757491486032391000,8.285390869140626,0.6456114649772644,-8.381650924682617,2.089763879776001
1757491486042431700,8.295431640625,0.2812438905239105,-8.355015754699707,2.4088661670684814
1757491486052470300,8.30547021484375,0.4670189619064331,-8.343194007873535,2.6012253761291504
1757491486062511000,8.315510986328125,1.567304253578186,-8.094571113586426,2.5677812099456787
1757491486072554000,8.325553955078124,0.9895535111427307,-8.198419570922852,2.2730700969696045
1757491486082594600,8.335594482421875,1.1222072839736938,-8.352846145629883,1.9314473867416382
1757491486092635600,8.3456357421875,1.1945569515228271,-8.5217866897583,1.4220809936523438
1757491486102676200,8.35567626953125,1.0022727251052856,-8.820538520812988,0.7543231844902039
1757491486112716500,8.365716552734375,1.1607389450073242,-9.207276344299316,0.12547113001346588
1757491486122755800,8.375755859375,0.9970353841781616,-9.989582061767578,-0.09988310188055038
1757491486132796000,8.3857958984375,0.9671826958656311,-11.058368682861328,0.023867197334766388
1757491486142839300,8.39583935546875,0.693345844745636,-12.017395973205566,0.11956045031547546
1757491486152881000,8.405880859375,1.1011831760406494,-12.533571243286133,0.1007809266448021
1757491486162918100,8.415918212890626,1.0739490985870361,-13.287370681762695,0.40836101770401
1757491486172957400,8.42595751953125,1.274538278579712,-14.211980819702148,1.522787094116211
1757491486182998500,8.43599853515625,2.141089677810669,-14.636652946472168,2.806453227996826
1757491486193040100,8.4460400390625,1.322048306465149,-15.070077896118164,3.549478769302368
1757491486203081500,8.45608154296875,0.31685763597488403,-15.268871307373047,3.7089924812316895
1757491486213123800,8.466123779296876,-0.0463128387928009,-15.171158790588379,2.9730000495910645
1757491486223164700,8.47616455078125,-0.34760814905166626,-15.181259155273438,2.15029239654541
1757491486233205200,8.486205322265626,-0.9662100076675415,-15.243882179260254,1.9506009817123413
1757491486243244300,8.496244384765625,-1.361402988433838,-15.023316383361816,2.581697702407837
1757491486253284600,8.50628466796875,-2.0141971111297607,-14.50586986541748,3.734281301498413
1757491486263327700,8.51632763671875,-2.427121877670288,-13.969493865966797,5.189581871032715
1757491486273366800,8.52636669921875,-2.296189069747925,-13.637822151184082,6.659397125244141
1757491486283409000,8.536408935546875,-2.1278467178344727,-13.582381248474121,7.905579090118408
1757491486293450000,8.546449951171875,-1.461809754371643,-13.508909225463867,8.810736656188965
1757491486303490300,8.556490234375,-0.3115454912185669,-13.131672859191895,9.207351684570312
1757491486313528800,8.56652880859375,0.9227402806282043,-12.844742774963379,9.22179126739502
1757491486323569400,8.5765693359375,2.089763879776001,-12.610784530639648,8.628403663635254
1757491486333610200,8.5866103515625,2.4199392795562744,-12.53529167175293,7.413271427154541
1757491486343651800,8.59665185546875,2.059387445449829,-12.879308700561523,5.887267112731934
1757491486353691600,8.606691650390625,1.7438766956329346,-13.58215618133545,4.206238269805908
1757491486363733200,8.616733154296876,1.277156949043274,-14.253805160522461,2.4116344451904297
1757491486373772500,8.6267724609375,0.764573335647583,-14.531158447265625,0.9170540571212769
1757491486383816000,8.63681591796875,0.591517448425293,-14.327726364135742,0.2447323054075241
1757491486393855500,8.64685546875,0.37716159224510193,-13.541679382324219,0.3745429217815399
1757491486403898600,8.656898681640625,0.8952069878578186,-12.554445266723633,1.3085808753967285
1757491486413934600,8.6669345703125,2.1891233921051025,-11.634024620056152,2.9444940090179443
1757491486423975200,8.67697509765625,2.6910078525543213,-10.719439506530762,4.804265022277832
1757491486434022100,8.687022216796874,1.9946693181991577,-9.993247985839844,6.0190229415893555
1757491486444063000,8.69706298828125,1.2980314493179321,-9.620800018310547,5.955875873565674
1757491486454100000,8.707099853515626,0.6340145468711853,-9.835454940795898,5.017273902893066
1757491486464126700,8.717126708984376,0.26740241050720215,-10.201319694519043,4.055478572845459
1757491486474156800,8.72715673828125,0.46642041206359863,-10.378116607666016,3.295543909072876
1757491486484197600,8.73719775390625,0.2173486202955246,-10.132261276245117,2.6193313598632812
1757491486494239000,8.747239013671875,-0.17500117421150208,-9.36476993560791,2.2485294342041016
1757491486504279600,8.757279541015626,-1.1952303647994995,-8.470087051391602,1.7821838855743408
1757491486514342700,8.7673427734375,-0.7398831248283386,-7.4981160163879395,1.2203694581985474
1757491486524383700,8.7773837890625,0.15315409004688263,-6.353463172912598,0.8809913992881775
1757491486534413600,8.78741357421875,-0.4545242190361023,-5.860107898712158,0.5279214978218079
1757491486544467200,8.79746728515625,-0.2025344967842102,-5.027000427246094,0.3696048855781555
1757491486554504700,8.807504638671874,0.08394669741392136,-4.427627086639404,0.2794482409954071
1757491486564547000,8.817547119140626,0.3139396905899048,-3.969287157058716,0.33182138204574585
1757491486574586600,8.827586669921875,-0.04100070521235466,-4.005649089813232,0.41127896308898926
1757491486584628200,8.837628173828126,-0.11918635666370392,-3.9180362224578857,0.5235071778297424
1757491486594692600,8.847692626953124,0.09965864568948746,-3.6443490982055664,0.7084592580795288
1757491486604724200,8.85772412109375,0.3332429528236389,-3.3715596199035645,0.9775824546813965
1757491486614752000,8.867751953125,0.194977805018425,-2.7683706283569336,1.0304045677185059
1757491486624789000,8.8777890625,-0.45429977774620056,-2.464606285095215,0.667832612991333
1757491486634831400,8.887831298828125,-0.6085013151168823,-1.923965573310852,0.3994576036930084
1757491486644874800,8.897874755859375,-0.8449287414550781,-1.8862568140029907,0.8259247541427612
1757491486654916400,8.907916259765624,-0.9295487999916077,-2.194809675216675,1.2956372499465942
1757491486664951800,8.917951904296874,-1.144802451133728,-2.5118916034698486,1.7881693840026855
1757491486674993000,8.927992919921875,-1.5558570623397827,-2.849100112915039,2.4215104579925537
1757491486685034000,8.938033935546875,-2.1914427280426025,-3.3598132133483887,3.4840123653411865
1757491486695076000,8.948076171875,-2.4536077976226807,-4.072686672210693,4.706851005554199
1757491486705118500,8.958118408203125,-2.5126397609710693,-4.662259101867676,5.619490623474121
1757491486715159300,8.9681591796875,-2.2830958366394043,-5.338022232055664,6.35338830947876
1757491486725200000,8.978199951171876,-1.910872220993042,-6.057255268096924,6.981342315673828
1757491486735238400,8.98823828125,-1.561244010925293,-6.729651927947998,7.441553115844727
1757491486745281300,8.99828125,-1.514033317565918,-7.191583156585693,7.490260124206543
1757491486755319800,9.00831982421875,-2.1117606163024902,-7.4083333015441895,7.002216815948486
1757491486765361000,9.01836083984375,-3.1105170249938965,-7.577049732208252,6.214075565338135
1757491486775403500,9.028403564453125,-3.7959320545196533,-7.583633899688721,5.416507244110107
1757491486785444000,9.038444091796874,-3.871873140335083,-7.964536190032959,4.481795787811279
1757491486795485000,9.04848486328125,-3.4677767753601074,-8.183082580566406,3.2101755142211914
1757491486805523200,9.058523193359376,-3.3622822761535645,-8.084321022033691,2.6524763107299805
1757491486815564000,9.06856396484375,-4.605022430419922,-8.75537109375,4.3931355476379395
1757491486825607200,9.078607177734375,-5.204695224761963,-10.166977882385254,7.038354396820068
1757491486835645400,9.0886455078125,-4.868459701538086,-12.007295608520508,7.9025115966796875
1757491486845688800,9.098688720703125,-4.936544418334961,-13.943456649780273,6.586224555969238
1757491486855729200,9.108729248046876,-5.1793317794799805,-14.651092529296875,5.497984886169434
1757491486865769700,9.118769775390625,-4.051812171936035,-13.260734558105469,4.85214900970459
1757491486875808800,9.128808837890626,-2.4282443523406982,-10.81692886352539,4.120944976806641
1757491486885849300,9.138849365234375,-2.1295676231384277,-8.580743789672852,3.4659061431884766
1757491486895894800,9.148894775390625,-1.5119383335113525,-6.990545272827148,2.8196961879730225
1757491486905929000,9.158928955078125,-0.42280104756355286,-6.1967926025390625,2.4281694889068604
1757491486915969300,9.16896923828125,0.33848026394844055,-6.357129096984863,2.6449193954467773
1757491486926010600,9.1790107421875,0.5474491715431213,-7.222408771514893,3.288585662841797
1757491486936058400,9.189058349609375,0.8846575021743774,-8.34992790222168,3.9555952548980713
1757491486946093600,9.199093505859375,0.9784054756164551,-9.670853614807129,4.651933670043945
1757491486956134100,9.209134033203124,0.6749404072761536,-11.04243278503418,5.451896667480469
1757491486966151700,9.219151611328124,0.13841478526592255,-12.22995662689209,6.368875980377197
1757491486976213800,9.2292138671875,0.07841010391712189,-12.742240905761719,7.113173484802246
1757491486986255400,9.23925537109375,0.5874772667884827,-12.401740074157715,7.3553619384765625
1757491486996297500,9.24929736328125,0.7712322473526001,-11.335348129272461,7.273360252380371
1757491487006336000,9.2593359375,0.2588730454444885,-10.085125923156738,7.155221462249756
1757491487016381700,9.269381591796876,-0.029029695317149162,-9.083301544189453,6.983138084411621
1757491487026420000,9.279419921875,-0.3544166684150696,-8.492756843566895,6.690297603607178
1757491487036458500,9.28945849609375,-0.02199672721326351,-8.305709838867188,6.175693511962891
1757491487046499800,9.299499755859374,0.20036475360393524,-8.311396598815918,5.624578475952148
1757491487056542200,9.309542236328125,0.061949968338012695,-8.346860885620117,5.090372085571289
1757491487066584300,9.319584228515625,-0.3528454899787903,-8.534356117248535,4.468178749084473
1757491487076621600,9.32962158203125,-0.5330091714859009,-8.522834777832031,3.87239670753479
1757491487086661600,9.33966162109375,-0.3181295394897461,-8.42931079864502,3.2276830673217773
1757491487096706600,9.34970654296875,0.19026421010494232,-8.210091590881348,2.922497272491455
1757491487106747100,9.3597470703125,0.5727379322052002,-7.993117332458496,2.887556791305542
1757491487116787700,9.36978759765625,0.4126257002353668,-7.4718546867370605,3.0433297157287598
1757491487126828800,9.379828857421876,-0.30054712295532227,-7.042768955230713,3.198728322982788
1757491487136865300,9.389865234375,0.33608606457710266,-6.405611991882324,3.595043420791626
1757491487146910200,9.39991015625,-0.3084031045436859,-6.193874835968018,3.703306198120117
1757491487156947200,9.409947265625,-0.7184101343154907,-5.762319564819336,3.7211880683898926
1757491487166991400,9.419991455078126,-1.2874071598052979,-5.475240230560303,3.2830491065979004
1757491487177032200,9.4300322265625,-0.1934066116809845,-5.291335582733154,2.9594578742980957
1757491487187072800,9.44007275390625,-0.5517138838768005,-5.798532009124756,2.519747734069824
1757491487197110300,9.4501103515625,-1.6714520454406738,-6.68520975112915,2.00230073928833
1757491487207155000,9.460155029296875,-2.0703859329223633,-7.546972751617432,1.7310078144073486
1757491487217194500,9.470194580078125,-1.6012719869613647,-8.33137321472168,2.5743653774261475
1757491487227231500,9.4802314453125,-1.2530653476715088,-8.962394714355469,3.580379009246826
1757491487237276700,9.490276611328126,-0.5566518902778625,-9.341726303100586,4.036399841308594
1757491487247317200,9.500317138671875,1.685592770576477,-8.784475326538086,4.4438629150390625
1757491487257357300,9.510357421875,1.0200796127319336,-8.284835815429688,4.285621166229248
1757491487267395000,9.52039501953125,-0.06554127484560013,-8.700529098510742,3.9000048637390137
1757491487277435000,9.530434814453125,-0.08327332884073257,-9.550545692443848,3.1307179927825928
1757491487287476200,9.540476318359374,1.3132944107055664,-10.406322479248047,1.3810055255889893
1757491487297516500,9.5505166015625,2.450989246368408,-10.747422218322754,-0.5238812565803528
1757491487307558400,9.560558349609375,2.555959939956665,-11.00816535949707,-1.2158803939819336
1757491487317602000,9.57060205078125,2.670133352279663,-11.6198091506958,-0.9305214285850525
1757491487327638800,9.580638671875,2.572943925857544,-12.588263511657715,-0.13355156779289246
1757491487337683000,9.590682861328125,2.4946086406707764,-13.51302433013916,0.5014356374740601
1757491487347723800,9.600723876953126,2.233191728591919,-14.389226913452148,0.7807341814041138
1757491487357764600,9.6107646484375,2.3879916667938232,-15.128511428833008,0.7798363566398621
1757491487367805200,9.62080517578125,2.6221745014190674,-15.47447395324707,0.7024737596511841
1757491487377845500,9.630845458984375,2.114753484725952,-15.697134971618652,1.4766238927841187
1757491487387883300,9.64088330078125,2.498873233795166,-15.338976860046387,3.1013143062591553
1757491487397923300,9.65092333984375,1.655066728591919,-15.119308471679688,4.859705924987793
1757491487407967700,9.6609677734375,0.5996727347373962,-15.33725643157959,6.545672416687012
1757491487418008800,9.6710087890625,0.8124573826789856,-15.076886177062988,7.458087921142578
1757491487428049200,9.681049072265624,-0.10100538283586502,-14.810457229614258,7.202805995941162
1757491487438090200,9.69109033203125,-0.8042272925376892,-14.316802024841309,5.563825607299805
1757491487448130000,9.701130126953124,-1.4126538038253784,-13.9763765335083,3.1990275382995605
1757491487458167800,9.711167724609375,-1.340977430343628,-13.440375328063965,1.2107179164886475
1757491487468212500,9.72121240234375,-2.0170400142669678,-12.559383392333984,0.46679452061653137
1757491487478253000,9.731253173828126,-3.449894905090332,-12.130147933959961,2.0049195289611816
1757491487488293400,9.74129345703125,-4.340238571166992,-12.282629013061523,4.938789367675781
1757491487498334500,9.75133447265625,-4.190152168273926,-11.940033912658691,7.637204170227051
1757491487508375300,9.761375244140625,-3.4059016704559326,-10.93648910522461,9.518597602844238
1757491487518411500,9.77141162109375,-1.8542344570159912,-10.087968826293945,10.643573760986328
1757491487528452400,9.781452392578124,0.5096656680107117,-9.56745433807373,11.229180335998535
1757491487538493400,9.791493408203126,2.363675594329834,-9.127519607543945,11.065999984741211
1757491487548535600,9.80153564453125,3.665447950363159,-9.255085945129395,9.643844604492188
1757491487558578400,9.811578369140625,3.9885904788970947,-9.886706352233887,7.8075666427612305
1757491487568619300,9.821619384765626,3.0189387798309326,-11.076774597167969,6.033238410949707
1757491487578659800,9.831659912109375,0.959251880645752,-12.902277946472168,4.370615005493164
1757491487588696300,9.8416962890625,-1.110984444618225,-15.366510391235352,2.206256866455078
1757491487598737000,9.85173681640625,-2.1116859912872314,-17.27985191345215,-0.6277297735214233
1757491487608782300,9.8617822265625,-1.4649521112442017,-17.66950798034668,-3.189375877380371
1757491487618822400,9.871822509765625,-0.5514894127845764,-16.958728790283203,-4.020537853240967
1757491487628863000,9.881863037109374,-0.021921908482909203,-14.805892944335938,-3.188777446746826
1757491487638903000,9.891903076171875,0.9650129079818726,-12.096928596496582,-1.434126853942871
1757491487648940800,9.90194091796875,1.9995324611663818,-10.454880714416504,0.9240870475769043
1757491487658985200,9.911985107421875,2.1745336055755615,-9.793107986450195,3.552995204925537
1757491487669026000,9.922026123046875,0.460659384727478,-9.619976997375488,5.794791221618652
1757491487679066400,9.93206640625,-0.8221089839935303,-9.34621524810791,6.352715015411377
1757491487689107500,9.942107421875,0.3396025598049164,-9.143082618713379,5.219808578491211
1757491487699147800,9.952147705078126,1.6428712606430054,-9.274988174438477,3.9694368839263916
1757491487709188400,9.962188232421875,1.6907553672790527,-9.18969440460205,3.340958833694458
1757491487719225300,9.972225341796875,2.050708532333374,-8.330474853515625,2.843862771987915
1757491487729270000,9.98227001953125,1.7897405624389648,-7.090353488922119,2.022876024246216
1757491487739310600,9.992310546875,1.6118215322494507,-6.051270008087158,0.7776666283607483
1757491487749352000,10.00235205078125,1.9078046083450317,-4.611756324768066,-0.4645499587059021
1757491487759394000,10.01239404296875,1.1875240802764893,-3.491419553756714,-1.0574889183044434
1757491487769429200,10.02242919921875,0.5030816197395325,-2.7433061599731445,-1.2975825071334839
1757491487779469800,10.0324697265625,0.09412205219268799,-1.6766893863677979,-1.2526912689208984
1757491487789511200,10.04251123046875,-0.4602852761745453,-1.0018986463546753,-1.1166706085205078
1757491487799553000,10.052552978515624,-0.8959551453590393,-0.6376806497573853,-1.2375030517578125
1757491487809595600,10.062595703125,-1.0122984647750854,-0.6472574472427368,-0.9566332101821899
1757491487819637000,10.072636962890625,-0.7444471120834351,-0.0528968945145607,0.013916297815740108
1757491487829651500,10.0826513671875,-0.5782745480537415,-0.339752197265625,1.7641525268554688
1757491487839691000,10.09269091796875,-0.3917512595653534,-1.1038765907287598,2.5014171600341797
1757491487849744400,10.102744384765625,-0.646434485912323,-2.5959880352020264,3.7823150157928467
1757491487859798000,10.112798095703125,-1.2600234746932983,-4.3348517417907715,5.437381744384766
1757491487869839400,10.12283935546875,-1.046939492225647,-5.673360347747803,6.256722450256348
1757491487879879400,10.13287939453125,0.16849194467067719,-6.96039342880249,6.4266357421875
1757491487889918000,10.14291796875,1.43532395362854,-8.291719436645508,6.16918420791626
1757491487899957800,10.152957763671875,0.8312368988990784,-9.033173561096191,5.158008098602295
1757491487909998300,10.162998291015626,-0.2611176371574402,-9.179444313049316,3.4478750228881836
1757491487920039400,10.173039306640625,-0.9728689193725586,-8.929698944091797,1.4514847993850708
1757491487930083800,10.183083740234375,-0.6063315868377686,-8.311022758483887,0.28214171528816223
1757491487940123400,10.193123291015626,-1.498845100402832,-7.557896137237549,0.7494599223136902
1757491487950162700,10.20316259765625,-2.9605801105499268,-7.751527309417725,3.122936725616455
1757491487960204800,10.213204833984374,-3.297788381576538,-9.505354881286621,5.716381072998047
1757491487970242000,10.223241943359374,-3.682955503463745,-11.935619354248047,7.040374755859375
1757491487980286700,10.23328662109375,-5.359570026397705,-14.801777839660645,7.054215908050537
1757491487990325000,10.243324951171875,-4.442965030670166,-17.615264892578125,6.623633861541748
1757491488000367900,10.253367919921875,-2.139742851257324,-18.284442901611328,6.045733451843262
1757491488010408400,10.263408447265626,-2.5310451984405518,-16.585308074951172,6.1519012451171875
1757491488020449500,10.273449462890625,-2.3826797008514404,-13.707926750183105,6.112920761108398
1757491488030489900,10.28348974609375,-1.7909376621246338,-10.505532264709473,5.382913589477539
1757491488040526300,10.2935263671875,-2.167725086212158,-8.094870567321777,4.6535797119140625
1757491488050571800,10.30357177734375,-0.4454711675643921,-7.118036270141602,4.022408485412598
1757491488060609800,10.31360986328125,0.7069628834724426,-7.486668586730957,3.583446502685547
1757491488070653000,10.32365283203125,1.733102798461914,-8.734945297241211,3.3132009506225586
1757491488080693200,10.333693359375,2.0435259342193604,-10.23192024230957,3.1663317680358887
1757491488090733800,10.34373388671875,1.7999159097671509,-11.404629707336426,3.3230772018432617
1757491488100773000,10.353773193359375,1.3572131395339966,-12.093037605285645,3.783212661743164
1757491488110813200,10.363813232421874,0.6409726738929749,-12.15408992767334,4.4998273849487305
1757491488120856300,10.373856201171876,0.4770447015762329,-11.452888488769531,5.152097702026367
1757491488130899200,10.383899169921875,0.5728875994682312,-10.331279754638672,5.547889232635498
1757491488140934100,10.39393408203125,0.4578162431716919,-9.234360694885254,5.762993335723877
1757491488150974700,10.403974609375,0.15846621990203857,-8.424596786499023,5.885172367095947
1757491488161015800,10.414015869140625,-0.7588123083114624,-8.014664649963379,5.774814605712891
1757491488171061500,10.4240615234375,-1.2805237770080566,-7.9188971519470215,5.139378547668457
1757491488181098500,10.434098388671876,-0.6937199234962463,-7.672443866729736,4.16456413269043
1757491488191140600,10.444140625,-0.5489455461502075,-7.366060733795166,3.148524761199951
1757491488201181200,10.45418115234375,-0.7041945457458496,-7.090353488922119,2.2602760791778564
1757491488211222000,10.464221923828125,-0.5875520706176758,-6.742072105407715,1.5335609912872314
1757491488221261300,10.47426123046875,-0.05671265348792076,-6.354061603546143,1.1867010593414307
1757491488231301600,10.484301513671875,0.0007481880020350218,-6.210933208465576,1.1522095203399658
1757491488241343700,10.49434375,0.5067477822303772,-6.1105265617370605,1.6699557304382324
1757491488251383300,10.50438330078125,0.7859715223312378,-6.227468490600586,2.4117093086242676
1757491488261425700,10.51442578125,0.7954735159873962,-6.445190906524658,3.4340333938598633
1757491488271466500,10.524466552734374,0.5445312261581421,-6.695310115814209,4.387823581695557
1757491488281507000,10.534507080078125,-0.35823243856430054,-6.807613372802734,4.931457042694092
1757491488291543600,10.54454345703125,-0.37312138080596924,-6.936525821685791,4.91731595993042
1757491488301588500,10.55458837890625,0.9341875910758972,-6.576871871948242,4.717624664306641
1757491488311629000,10.564629150390624,0.923712968826294,-6.4502787590026855,4.280608177185059
1757491488321670000,10.574669921875,0.43694180250167847,-6.419752597808838,3.7165491580963135
1757491488331710200,10.584710205078125,0.02678513154387474,-6.868216514587402,3.0829834938049316
1757491488341751000,10.5947509765625,0.36825814843177795,-7.571064472198486,2.7029788494110107
1757491488351791900,10.6047919921875,-0.24286183714866638,-8.342520713806152,2.655169725418091
1757491488361828000,10.614828125,-0.7243956327438354,-8.947879791259766,2.7433810234069824
1757491488371873800,10.624873779296875,-0.4819827377796173,-9.175105094909668,2.3895628452301025
1757491488381915400,10.634915283203124,0.539518415927887,-9.089587211608887,2.072181463241577
1757491488391950300,10.644950439453124,0.839766263961792,-8.942791938781738,2.0375404357910156
1757491488401991400,10.654991455078125,2.0376152992248535,-9.009305953979492,2.557231903076172
1757491488412033500,10.665033447265625,2.904465913772583,-9.116671562194824,2.9327473640441895
1757491488422075000,10.675074951171876,2.1511902809143066,-9.489792823791504,2.8477532863616943
1757491488432115000,10.685114990234375,1.3974655866622925,-9.99145221710205,2.1507413387298584
1757491488442157800,10.69515771484375,1.5513678789138794,-11.36280632019043,1.8894740343093872
1757491488452198400,10.705198486328126,1.3405284881591797,-13.004779815673828,2.096871852874756
1757491488462239000,10.715239013671875,0.9069535136222839,-14.585551261901855,2.357839822769165
1757491488472279800,10.72527978515625,1.7533038854599,-15.95930004119873,2.8284499645233154
1757491488482316800,10.73531689453125,2.0566940307617188,-17.131935119628906,3.701809883117676
1757491488492361000,10.74536083984375,1.7481412887573242,-17.695844650268555,5.000888824462891
1757491488502400000,10.75539990234375,1.1569979190826416,-17.5584774017334,6.387131690979004
1757491488512442000,10.765442138671874,0.3719990849494934,-16.757766723632812,7.018153190612793
1757491488522483200,10.775483154296875,-0.48317983746528625,-16.079608917236328,6.210933208465576
1757491488532524000,10.78552392578125,-0.7795370817184448,-15.598523139953613,4.4210429191589355
1757491488542564400,10.795564453125,-0.5906196236610413,-14.800207138061523,2.5156326293945312
1757491488552601600,10.8056015625,-0.8533084392547607,-13.39323902130127,1.3544447422027588
1757491488562645500,10.8156455078125,-1.2040590047836304,-11.749095916748047,1.9214216470718384
1757491488572687400,10.825687255859375,-2.7434558868408203,-10.52558422088623,4.241477966308594
1757491488582727700,10.835727783203126,-4.23197603225708,-9.786972999572754,7.136965751647949
1757491488592767700,10.845767822265625,-4.113837242126465,-9.204957008361816,9.488296508789062
1757491488602809000,10.85580908203125,-2.3063645362854004,-8.952219009399414,10.74106216430664
1757491488612847000,10.86584716796875,0.43828853964805603,-9.096769332885742,11.055002212524414
1757491488622890500,10.875890380859374,2.5796027183532715,-9.221267700195312,10.402582168579102
1757491488632927700,10.885927734375,3.482665538787842,-9.508646965026855,9.010054588317871
1757491488642967000,10.895967041015625,3.1028854846954346,-10.19264030456543,7.255478382110596
1757491488653009700,10.906009765625,2.3104794025421143,-11.336620330810547,5.691391468048096
1757491488663049700,10.9160498046875,1.102006196975708,-13.043386459350586,4.337695121765137
1757491488673093000,10.926093017578125,-0.8747814297676086,-14.787188529968262,2.527528762817383
1757491488683132400,10.93613232421875,-2.815281867980957,-16.041601181030273,0.37162500619888306
1757491488693172500,10.94617236328125,-2.4781484603881836,-16.50173568725586,-1.085097074508667
1757491488703215400,10.95621533203125,-1.577778935432434,-15.791854858398438,-1.2642133235931396
1757491488713255700,10.966255615234376,-0.6745663285255432,-13.937171936035156,-0.65907883644104
1757491488723296500,10.976296630859375,1.1745803356170654,-11.958738327026367,0.040028057992458344
1757491488733335600,10.98633544921875,2.238877773284912,-10.813711166381836,0.8540566563606262
1757491488743375600,10.996375732421875,1.9524714946746826,-10.625242233276367,2.198176383972168
1757491488753419000,11.0064189453125,1.1775730848312378,-11.050213813781738,4.0230817794799805
1757491488763459000,11.016458984375,-0.5853074789047241,-11.489026069641113,5.586719989776611
1757491488773500000,11.0265,-2.6589853763580322,-11.513117790222168,6.319345951080322
1757491488783543300,11.036543212890624,-2.549675226211548,-11.02432632446289,5.708300590515137
1757491488793579300,11.046579345703124,-0.19467853009700775,-10.50246524810791,4.325125217437744
1757491488803618300,11.056618408203125,1.713649868965149,-10.077718734741211,3.350236415863037
1757491488813660200,11.06666015625,1.6766893863677979,-9.546205520629883,2.695871114730835
1757491488823701800,11.07670166015625,1.1673229932785034,-8.67471694946289,1.8923920392990112
1757491488833742000,11.0867421875,0.22333413362503052,-7.8080153465271,0.8340800404548645
1757491488843771600,11.096771728515625,0.6913257241249084,-6.833276271820068,-0.13504794239997864
1757491488853800200,11.10680029296875,0.7686135768890381,-5.7264814376831055,-0.8010849356651306
1757491488863859500,11.116859375,0.46148237586021423,-4.945897102355957,-1.0752958059310913
1757491488873904600,11.126904541015625,0.7260416746139526,-3.803039789199829,-0.6905027627944946
1757491488883943700,11.136943603515626,0.46971243619918823,-2.9631237983703613,-0.13602058589458466
1757491488893984300,11.146984375,0.46484923362731934,-2.272321939468384,0.2513911724090576
1757491488904026000,11.157026123046874,0.26568156480789185,-1.8795231580734253,0.6273556351661682
1757491488914069200,11.1670693359375,-0.2281225323677063,-1.988608956336975,1.2238860130310059
1757491488924106200,11.177106201171876,0.13833996653556824,-1.7318308353424072,1.8593969345092773
1757491488934143200,11.187143310546874,0.6691045761108398,-2.112583637237549,2.4135797023773193
1757491488944192000,11.19719189453125,0.545877993106842,-2.7880477905273438,2.555959939956665
1757491488954231000,11.20723095703125,0.16467618942260742,-3.180098295211792,2.7054479122161865
1757491488964268800,11.217268798828124,0.07115267962217331,-3.281477928161621,3.2828245162963867
1757491488974311400,11.2273115234375,-0.91712886095047,-3.5628714561462402,4.0863037109375
1757491488984352000,11.23735205078125,-1.6722750663757324,-3.620107889175415,5.085808277130127
1757491488994388000,11.247387939453125,-2.225036382675171,-4.283825397491455,6.1472625732421875
1757491489004434400,11.257434326171875,-2.123656988143921,-4.839953422546387,6.79511833190918
1757491489014475000,11.26747509765625,-1.8557307720184326,-5.258040904998779,6.8937296867370605
1757491489024515600,11.277515625,-1.8936638832092285,-5.701117992401123,6.4793829917907715
1757491489034538800,11.287538818359375,-1.7854759693145752,-6.386084079742432,5.840056419372559
1757491489044596500,11.297596435546875,-2.1671266555786133,-6.923657417297363,4.912602424621582
1757491489054674700,11.3076748046875,-3.5988593101501465,-7.093196392059326,4.211026668548584
1757491489064689700,11.317689697265624,-4.116156578063965,-7.260042667388916,3.318812370300293
1757491489074723800,11.327723876953126,-3.5435681343078613,-7.172579288482666,3.0068929195404053
1757491489084760800,11.3377607421875,-3.151667356491089,-7.346982002258301,4.335001468658447
1757491489094801400,11.347801513671875,-1.9069068431854248,-8.715867042541504,6.467561721801758
1757491489104840400,11.35784033203125,-2.860846519470215,-10.695721626281738,8.5834379196167
1757491489114880800,11.367880859375,-3.0503625869750977,-12.889184951782227,8.713098526000977
1757491489124919600,11.37791943359375,-3.9839515686035156,-13.963358879089355,8.114697456359863
1757491489134960000,11.387960205078125,-3.635969400405884,-13.739575386047363,8.297928810119629
1757491489145001500,11.39800146484375,-3.800196647644043,-12.266617774963379,8.432528495788574
1757491489155042600,11.40804248046875,-4.1531171798706055,-10.497751235961914,7.741950511932373
1757491489165089000,11.418089111328126,-2.861295461654663,-8.939949035644531,6.379724502563477
1757491489175125000,11.428125,-1.8761563301086426,-7.588347434997559,5.1018195152282715
1757491489185165600,11.43816552734375,-1.033247709274292,-6.703690052032471,4.268487453460693
1757491489195205600,11.44820556640625,0.006434416864067316,-6.352116584777832,3.71976637840271
1757491489205248800,11.458248779296875,0.5984007716178894,-6.484545707702637,3.455281972885132
1757491489215289000,11.4682890625,0.9578303098678589,-6.922684669494629,3.4769794940948486
1757491489225328000,11.478328125,1.303942084312439,-7.587374687194824,3.7339820861816406
1757491489235370800,11.488370849609375,1.82692551612854,-8.336984634399414,4.20885705947876
1757491489245409300,11.4984091796875,1.6136919260025024,-9.145102500915527,4.901155471801758
1757491489255450000,11.5084501953125,1.6811037063598633,-9.87121868133545,5.671339988708496
1757491489265492500,11.518492431640626,1.5955109596252441,-10.22503662109375,6.384512901306152
1757491489275533600,11.528533447265625,1.1344774961471558,-10.097620010375977,6.878391742706299
1757491489285574400,11.538574462890624,1.1887959241867065,-9.51193904876709,7.0674591064453125
1757491489295612400,11.5486123046875,1.1079916954040527,-8.80737018585205,7.097386360168457
1757491489305655600,11.558655517578124,0.8339303731918335,-8.178967475891113,6.996006965637207
1757491489315693800,11.56869384765625,0.7257423996925354,-7.814300060272217,6.821903705596924
1757491489325735000,11.57873486328125,0.7210288047790527,-7.784821510314941,6.390947341918945
1757491489335743200,11.5887431640625,0.3734954595565796,-7.7726263999938965,5.690867900848389
1757491489355858400,11.6088583984375,0.13624504208564758,-7.825373649597168,4.37996768951416
1757491489365900300,11.618900390625,0.24577976763248444,-7.876399993896484,3.78605580329895
1757491489375940900,11.62894091796875,-0.05514145642518997,-7.99064826965332,3.3033998012542725
1757491489385977600,11.6389775390625,-0.03157353401184082,-8.247201919555664,3.010409355163574
1757491489396022500,11.6490224609375,-0.13669395446777344,-8.501660346984863,2.824185371398926
1757491489406062600,11.6590625,-0.09112930297851562,-8.716315269470215,2.7497406005859375
1757491489416100400,11.669100341796875,-0.2572270333766937,-8.709656715393066,2.6694600582122803
1757491489426140000,11.679139892578124,0.7050175666809082,-8.403423309326172,3.00711727142334
1757491489436180200,11.68918017578125,0.3572597801685333,-8.092850685119629,3.3342251777648926
1757491489446221300,11.69922119140625,-0.48392802476882935,-7.963039875030518,3.651606559753418
1757491489456262100,11.70926220703125,0.0751928985118866,-7.6974334716796875,4.129324436187744
1757491489466317300,11.7193173828125,0.010848726145923138,-7.685536861419678,4.163142681121826
1757491489476347600,11.72934765625,-0.08978256583213806,-7.677232265472412,3.9512557983398438
1757491489486389200,11.73938916015625,-0.2338087558746338,-7.682170391082764,3.5318214893341064
1757491489496426500,11.749426513671875,-0.5249287486076355,-7.756390571594238,3.0469210147857666
1757491489506465500,11.759465576171875,-0.05282207578420639,-7.770755767822266,2.9228713512420654
1757491489516506000,11.769506103515624,-0.40619128942489624,-7.76132869720459,2.7933599948883057
1757491489526546700,11.779546630859375,-0.9611223340034485,-7.70970344543457,2.6566660404205322
1757491489536591400,11.78959130859375,-0.48056116700172424,-7.614983081817627,2.935441017150879
1757491489546632200,11.799632080078124,-0.7743746042251587,-7.493776321411133,3.135730743408203
1757491489556672800,11.8096728515625,-0.7606827616691589,-7.322965145111084,3.116502523422241
1757491489566709000,11.819708984375,-0.026411037892103195,-6.760926246643066,2.976067543029785
1757491489576755000,11.8297548828125,-0.23448212444782257,-6.54574728012085,2.801964282989502
1757491489586794500,11.83979443359375,-0.6174795627593994,-6.831255912780762,2.6944496631622314
1757491489596835600,11.849835693359376,-0.12547113001346588,-7.737311840057373,2.751685857772827
1757491489606876000,11.8598759765625,0.7164648771286011,-8.768389701843262,2.6394577026367188
1757491489616913200,11.8699130859375,0.8557026386260986,-9.822587013244629,2.5720460414886475
1757491489626957000,11.87995703125,0.5211129784584045,-10.677166938781738,2.6036195755004883
1757491489636993800,11.889993896484375,0.7426514625549316,-11.179425239562988,2.7054479122161865
1757491489647039000,11.9000390625,1.7526304721832275,-11.607987403869629,2.633397340774536
1757491489657079600,11.91007958984375,3.472041368484497,-11.94100570678711,2.088566780090332
1757491489667119900,11.920119873046875,3.603198766708374,-12.41071891784668,1.1516858339309692
1757491489677161000,11.930160888671875,2.8488755226135254,-13.125388145446777,0.5083937644958496
1757491489687197400,11.940197509765625,3.075127601623535,-14.054712295532227,0.7647978067398071
1757491489697238000,11.950238037109376,2.9617772102355957,-14.894329071044922,1.5925930738449097
1757491489707282700,11.96028271484375,3.147552251815796,-15.036484718322754,2.7959787845611572
1757491489717323300,11.9703232421875,3.153238534927368,-14.899641036987305,4.128651142120361
1757491489727364400,11.9803642578125,1.9793314933776855,-15.16921329498291,5.169230937957764
1757491489737410300,11.990410400390624,1.8267759084701538,-15.580118179321289,6.0084733963012695
1757491489747441000,12.00044091796875,1.0749965906143188,-16.037336349487305,6.714164733886719
1757491489757481500,12.0104814453125,-0.22273558378219604,-16.50173568725586,7.069030284881592
1757491489767523800,12.02052392578125,-1.2753612995147705,-16.580669403076172,5.920711040496826
1757491489777572900,12.03057275390625,-1.1653777360916138,-16.254159927368164,3.7935378551483154
1757491489787607600,12.040607666015624,-0.75581955909729,-15.772253036499023,2.023998260498047
1757491489797648100,12.050648193359375,-1.291671872138977,-15.088558197021484,0.788889467716217
1757491489807689200,12.060689208984375,-1.4278420209884644,-13.781623840332031,0.19213469326496124
1757491489817729800,12.070729736328126,-3.2136173248291016,-12.557962417602539,1.0105026960372925
1757491489827766500,12.0807666015625,-4.3610382080078125,-11.796082496643066,3.8144869804382324
1757491489837811200,12.090811279296876,-3.629983901977539,-10.87334156036377,6.6286468505859375
1757491489847851800,12.100851806640625,-3.3167922496795654,-10.17640495300293,9.09721851348877
1757491489857892000,12.11089208984375,-2.107196807861328,-10.023849487304688,11.031733512878418
1757491489867933000,12.120932861328125,0.5437830686569214,-10.29633903503418,12.042684555053711
1757491489877947400,12.130947509765624,2.435426950454712,-10.5646390914917,11.657367706298828
1757491489887990500,12.140990478515626,3.3539772033691406,-10.634520530700684,10.027365684509277
1757491489898050800,12.15105078125,3.423035144805908,-11.022231101989746,7.670049667358398
1757491489908094700,12.1610947265625,3.003525972366333,-11.4525146484375,4.658442974090576
1757491489918136300,12.17113623046875,0.06352116167545319,-12.31906509399414,1.4825345277786255
1757491489928152800,12.18115283203125,-2.3439981937408447,-13.10413932800293,-1.6558897495269775
1757491489938191600,12.191191650390625,-1.9320459365844727,-13.847463607788086,-3.625793933868408
1757491489948234000,12.20123388671875,-1.4847791194915771,-14.154520034790039,-3.7229835987091064
1757491489958294300,12.211294189453126,-1.351377248764038,-13.649942398071289,-2.418368101119995
1757491489968339200,12.221339111328126,-1.082478404045105,-11.771167755126953,-0.867598831653595
1757491489978380000,12.231380126953125,-0.2139817774295807,-9.97364616394043,0.7824550271034241
1757491489988418800,12.241418701171876,0.0024690204299986362,-8.923788070678711,2.636914014816284
1757491489998457600,12.25145751953125,0.18779519200325012,-8.514604568481445,4.404882431030273
1757491490008499000,12.2614990234375,0.015637129545211792,-8.663418769836426,5.599214553833008
1757491490018538500,12.27153857421875,-0.08402151614427567,-8.974664688110352,5.8075852394104
1757491490028583400,12.28158349609375,1.2303204536437988,-8.965836524963379,5.058125019073486
1757491490038624300,12.291624267578126,2.7257237434387207,-8.602741241455078,4.097751140594482
1757491490058701600,12.31170166015625,0.950498104095459,-7.882235527038574,3.5416977405548096
1757491490068746000,12.32174609375,-0.12143091857433319,-7.538817405700684,2.7064952850341797
1757491490078782700,12.33178271484375,1.1779472827911377,-6.420276165008545,0.8953565955162048
1757491490088827400,12.341827392578125,1.4306851625442505,-5.618293762207031,-1.0956465005874634
1757491490098868000,12.351867919921874,1.4115315675735474,-4.661361217498779,-2.194061517715454
1757491490108908800,12.36190869140625,1.1216834783554077,-3.3610851764678955,-2.092158079147339
1757491490118949400,12.371949462890624,0.35830724239349365,-2.4601919651031494,-1.252017855644226
1757491490128985900,12.38198583984375,-0.7650970816612244,-2.3708581924438477,-0.6292261481285095
1757491490139031000,12.392031005859375,-0.9698013067245483,-1.8920927047729492,-0.35666123032569885
1757491490149067300,12.4020673828125,-1.3583353757858276,-1.9395278692245483,-0.06516718119382858
1757491490159112200,12.4121123046875,-1.5840636491775513,-2.2888567447662354,0.3965396583080292
1757491490169152300,12.42215234375,-0.7260416746139526,-1.758241891860962,1.2850877046585083
1757491490179192000,12.432192138671875,-0.04399345442652702,-2.1499931812286377,2.352078676223755
1757491490189234000,12.44223388671875,0.9111433625221252,-3.2235682010650635,3.335646629333496
1757491490199270400,12.4522705078125,0.9335141777992249,-4.338443279266357,4.503418445587158
1757491490209311200,12.462311279296875,0.6169558763504028,-5.076231479644775,5.5703349113464355
1757491490219356000,12.47235595703125,0.11215338855981827,-5.148880481719971,6.17838716506958
1757491490229401600,12.482401611328125,-0.688108503818512,-5.121945858001709,6.2801408767700195
1757491490239433000,12.492432861328124,-1.673172950744629,-5.067028522491455,5.824494361877441
1757491490249474000,12.50247412109375,-1.690830111503601,-5.338321685791016,4.146158695220947
1757491490259517200,12.51251708984375,-0.9793033003807068,-5.555071830749512,1.3227964639663696
1757491490269555200,12.52255517578125,-2.2236149311065674,-5.906196117401123,-0.2799719572067261
1757491490279595800,12.532595703125,-2.083928108215332,-7.459808826446533,1.2196961641311646
1757491490289640400,12.542640380859375,-0.6613982319831848,-10.43542766571045,5.292083740234375
1757491490299681500,12.552681640625,-2.593818187713623,-14.063016891479492,8.894758224487305
1757491490309721600,12.5627216796875,-6.522104740142822,-17.44849395751953,9.158719062805176
1757491490319762000,12.572761962890626,-5.179481506347656,-19.70794677734375,8.09315013885498
1757491490329803500,12.582803466796875,-2.866532802581787,-18.80488395690918,8.074146270751953
1757491490339839700,12.59283984375,-2.892719268798828,-14.836493492126465,8.192883491516113
1757491490349884200,12.60288427734375,-2.6540474891662598,-10.752359390258789,6.998476028442383
1757491490359925200,12.61292529296875,-2.3079357147216797,-7.9281744956970215,5.095833778381348
1757491490369965600,12.622965576171875,-1.2277017831802368,-6.469955921173096,3.4729392528533936
1757491490380006400,12.63300634765625,0.5261258482933044,-6.487463474273682,2.3680150508880615
1757491490390047000,12.643046875,1.194407343864441,-7.5912652015686035,2.0352959632873535
1757491490400083700,12.653083740234376,0.9506477117538452,-9.151387214660645,2.261024236679077
1757491490410128400,12.66312841796875,1.6310498714447021,-10.318634986877441,2.6939258575439453
1757491490420168700,12.673168701171875,1.7667711973190308,-11.064129829406738,3.243170738220215
1757491490430205400,12.683205322265625,1.665242075920105,-11.218031883239746,3.992032051086426
1757491490440250000,12.69325,1.371279001235962,-10.780715942382812,4.749273300170898
1757491490450290400,12.70329052734375,0.8900445103645325,-9.935113906860352,5.351489543914795
1757491490460331800,12.713331787109375,0.694617748260498,-8.911293983459473,5.735085487365723
1757491490470368300,12.7233681640625,0.7909843921661377,-8.11477279663086,5.94285774230957
1757491490480411400,12.733411376953125,0.7467664480209351,-7.571139335632324,6.118607044219971
1757491490490449400,12.743449462890625,0.6659621596336365,-7.292963027954102,6.39768123626709
1757491490500490200,12.753490234375,0.5338321328163147,-7.3017168045043945,6.524723529815674
1757491490510533400,12.763533447265624,0.2190694510936737,-7.372495174407959,6.1891608238220215
1757491490520575200,12.7735751953125,0.21779753267765045,-7.308300495147705,5.503446578979492
1757491490530611700,12.78361181640625,0.6889315247535706,-7.29386043548584,4.852223873138428
1757491490540656600,12.79365673828125,0.1999906599521637,-7.21709680557251,3.9684641361236572
1757491490550697500,12.803697509765625,0.008978256024420261,-7.069329261779785,3.092036724090576
1757491490560738000,12.813738037109376,0.4279635548591614,-6.901585578918457,2.3585879802703857
1757491490570774300,12.823774169921874,0.627206027507782,-6.972588539123535,1.910872220993042
1757491490580819200,12.833819091796874,0.41285014152526855,-7.153350830078125,1.830666422843933
1757491490590859800,12.84385986328125,0.1338508427143097,-7.539565563201904,2.0167407989501953
1757491490600896300,12.853896240234375,0.16415245831012726,-7.788562774658203,2.649782657623291
1757491490610941000,12.86394091796875,-0.35651159286499023,-7.984438419342041,3.302427053451538
1757491490620982300,12.873982177734375,-0.7609072327613831,-8.062997817993164,3.8335659503936768
1757491490631022000,12.88402197265625,-0.6203975081443787,-7.964162349700928,4.090119361877441
1757491490641062400,12.8940625,0.09778817743062973,-7.737910270690918,4.254197120666504
1757491490651104300,12.904104248046876,0.10691606998443604,-7.432649612426758,4.096254825592041
1757491490661140500,12.914140380859376,0.7110779285430908,-7.21560001373291,3.9707834720611572
1757491490671185000,12.924184814453126,-0.3099743127822876,-7.2527852058410645,3.562422513961792
1757491490681225700,12.934225830078125,-1.0895113945007324,-7.519963264465332,3.230152130126953
1757491490691266300,12.944266357421874,-0.9586533308029175,-7.579518795013428,3.173065423965454
1757491490701307000,12.954306884765625,-1.1131541728973389,-7.707159519195557,2.904391050338745
1757491490711348000,12.964347900390624,-0.5850830674171448,-7.931541442871094,2.4827871322631836
