time,seconds_elapsed,z,y,x
1757491477798973400,0.051973388671875,-0.3993772864341736,-1.7237790822982788,-0.04131833836436272
1757491477809014000,0.062013916015625,-0.4257570803165436,-1.6150623559951782,-0.18442533910274506
1757491477819055400,0.072055419921875,-0.44600823521614075,-1.474703311920166,-0.33026358485221863
1757491477829096000,0.082095947265625,-0.46259552240371704,-1.3641380071640015,-0.46669238805770874
1757491477839137000,0.092136962890625,-0.4508878290653229,-1.2367522716522217,-0.576058566570282
1757491477849177000,0.102177001953125,-0.41456565260887146,-1.0474306344985962,-0.6556309461593628
1757491477859239700,0.11223974609375,-0.3931487202644348,-0.930387020111084,-0.7271428108215332
1757491477869280000,0.122280029296875,-0.40775421261787415,-0.9085537791252136,-0.7281087040901184
1757491477879302100,0.13230224609375,-0.4109017848968506,-0.9031079411506653,-0.6478701829910278
1757491477889347300,0.142347412109375,-0.37734416127204895,-0.8532794713973999,-0.5460649132728577
1757491477899409200,0.1524091796875,-0.3414883315563202,-0.6333646774291992,-0.42600688338279724
1757491477909422800,0.1624228515625,-0.2997869551181793,-0.3169237971305847,-0.28036847710609436
1757491477919462000,0.1724619140625,-0.30902984738349915,-0.1847251057624817,-0.15436504781246185
1757491477929502700,0.182502685546875,-0.37353041768074036,-0.24990849196910858,-0.06871400773525238
1757491477939536000,0.192535888671875,-0.41316673159599304,-0.3863206207752228,0.014722052030265331
1757491477949609700,0.202609619140625,-0.37711101770401,-0.4855445921421051,0.11929192394018173
1757491477959649800,0.21264990234375,-0.27542227506637573,-0.5351065993309021,0.22775879502296448
1757491477969665300,0.222665283203125,-0.17936255037784576,-0.6285017132759094,0.3178730905056
1757491477979731700,0.232731689453125,-0.15653005242347717,-0.6348468661308289,0.4078041613101959
1757491477989768400,0.2427685546875,-0.19040408730506897,-0.5235321521759033,0.4796324670314789
1757491477999812900,0.252812744140625,-0.23989950120449066,-0.3479667007923126,0.5027647614479065
1757491478009851100,0.26285107421875,-0.28481507301330566,-0.17261771857738495,0.45580071210861206
1757491478019869700,0.27286962890625,-0.30030322074890137,-0.048113130033016205,0.35519447922706604
1757491478029934800,0.282934814453125,-0.2779536843299866,0.0412350669503212,0.24143165349960327
1757491478039975700,0.2929755859375,-0.2320055514574051,0.1211405023932457,0.1550978124141693
1757491478050012700,0.3030126953125,-0.21914874017238617,0.10596879571676254,0.10986580699682236
1757491478060057000,0.31305712890625,-0.2602505683898926,-0.05992075055837631,0.08423545211553574
1757491478070107000,0.32310693359375,-0.28015199303627014,-0.20109589397907257,0.0889318510890007
1757491478080138800,0.333138671875,-0.29079383611679077,-0.3710156977176666,0.11474540084600449
1757491478090153700,0.34315380859375,-0.30599886178970337,-0.5302769541740417,0.1782800555229187
1757491478100215800,0.3532158203125,-0.31599119305610657,-0.6011559963226318,0.2772042453289032
1757491478110260700,0.3632607421875,-0.3090132176876068,-0.5596877932548523,0.35574406385421753
1757491478120257500,0.373257568359375,-0.27342382073402405,-0.4470907151699066,0.36951684951782227
1757491478130342100,0.383342041015625,-0.2177831083536148,-0.31877240538597107,0.3184559643268585
1757491478140382700,0.3933828125,-0.16262538731098175,-0.21441902220249176,0.23591922223567963
1757491478150421200,0.403421142578125,-0.13096630573272705,-0.15066787600517273,0.15598046779632568
1757491478160438500,0.4134384765625,-0.14005933701992035,-0.12198985368013382,0.09827469289302826
1757491478170484200,0.423484130859375,-0.17533230781555176,-0.08653368800878525,0.06896381825208664
1757491478180519400,0.43351953125,-0.21218739449977875,-0.06468376517295837,0.06370118260383606
1757491478190559000,0.44355908203125,-0.23938322067260742,-0.07807350903749466,0.06020386517047882
1757491478200601600,0.4536015625,-0.24842630326747894,-0.12085738778114319,0.04205111041665077
1757491478210644200,0.463644287109375,-0.2408987283706665,-0.16923698782920837,0.009775842539966106
1757491478220666600,0.47366650390625,-0.2353363335132599,-0.18720655143260956,-0.0075775268487632275
1757491478230749000,0.4837490234375,-0.2317390888929367,-0.17178502678871155,0.004879594314843416
1757491478240785700,0.49378564453125,-0.21884895861148834,-0.13554613292217255,0.027329057455062866
1757491478250830300,0.503830322265625,-0.19266901910305023,-0.090530626475811,0.041135143488645554
1757491478260871000,0.513870849609375,-0.16017726063728333,-0.039769526571035385,0.03940314054489136
1757491478270886100,0.52388623046875,-0.13782770931720734,-0.00832695234566927,0.016853751614689827
1757491478280952000,0.5339521484375,-0.13607905805110931,0.002364854561164975,-0.003097626380622387
1757491478290993400,0.543993408203125,-0.13712824881076813,-0.005062786862254143,-0.02191653847694397
1757491478301034000,0.554033935546875,-0.1480865180492401,-0.03132599592208862,-0.047197166830301285
1757491478311056100,0.56405615234375,-0.16808785498142242,-0.06523334234952927,-0.05507446452975273
1757491478321115400,0.574115478515625,-0.17456622421741486,-0.07037939876317978,-0.03372415900230408
1757491478331155700,0.58415576171875,-0.16837097704410553,-0.059854134917259216,0.005562404170632362
1757491478341182200,0.59418212890625,-0.1505846083164215,-0.043266844004392624,0.05052794888615608
1757491478351237000,0.604237060546875,-0.12242285162210464,-0.035256315022706985,0.07910604774951935
1757491478361278700,0.61427880859375,-0.09256239980459213,-0.007027947809547186,0.09237921237945557
1757491478371314400,0.624314453125,-0.053209226578474045,0.004912902135401964,0.06326818466186523
1757491478381359600,0.634359619140625,-0.025663666427135468,0.04676416516304016,0.014921898953616619
1757491478391404500,0.644404541015625,-0.04673085734248161,0.07480934262275696,-0.047780051827430725
1757491478401436700,0.654436767578125,-0.10773411393165588,0.07227794826030731,-0.11755991727113724
1757491478411462700,0.664462646484375,-0.15591385960578918,0.058388590812683105,-0.1814776062965393
1757491478421519000,0.67451904296875,-0.14415620267391205,0.04275057464838028,-0.22955742478370667
1757491478431550200,0.68455029296875,-0.08576761186122894,0.03518969938158989,-0.23931661248207092
1757491478441598700,0.6945986328125,-0.010525267571210861,0.003014356829226017,-0.19010432064533234
1757491478451618300,0.704618408203125,0.06674885004758835,-0.015588055364787579,-0.08728311210870743
1757491478461645800,0.714645751953125,0.11832599341869354,-0.033091310411691666,0.03678847476840019
1757491478471722500,0.724722412109375,0.11855915188789368,-0.06641577184200287,0.13776110112667084
1757491478481752300,0.73475244140625,0.08395233750343323,-0.09169639647006989,0.1779303252696991
1757491478491802000,0.744802001953125,0.04105187579989433,-0.12147358059883118,0.1552976667881012
1757491478501843000,0.754843017578125,0.004763016942888498,-0.170719176530838,0.1012224331498146
1757491478511866000,0.7648662109375,-0.01530493889003992,-0.18107791244983673,0.03767113387584686
1757491478521928200,0.77492822265625,0.014022587798535824,-0.12485432624816895,-0.010491959750652313
1757491478531944400,0.7849443359375,0.0852513387799263,-0.1267695277929306,-0.021983154118061066
1757491478542029000,0.795029052734375,0.17176836729049683,-0.3165574371814728,-0.03052660822868347
1757491478552046800,0.805046875,0.25578731298446655,-0.4980516731739044,-0.027279095724225044
1757491478562089500,0.81508935546875,0.25210681557655334,-0.6935352087020874,0.0222163088619709
1757491478572205800,0.825205810546875,0.1734837293624878,-0.8682513236999512,0.11214739829301834
1757491478582200800,0.835200927734375,0.05064452439546585,-0.9239253401756287,0.19510050117969513
1757491478592211700,0.845211669921875,-0.035589393228292465,-0.8342940211296082,0.21073850989341736
1757491478602254300,0.85525439453125,-0.05322587862610817,-0.6715021133422852,0.1463378667831421
1757491478612270600,0.8652705078125,-0.02150019071996212,-0.47337058186531067,0.04056891053915024
1757491478622310100,0.87531005859375,0.017936255782842636,-0.25925132632255554,-0.052626337856054306
1757491478632351000,0.88535107421875,0.04797989875078201,-0.10107254981994629,-0.10368721187114716
1757491478642415000,0.8954150390625,0.06619927287101746,-0.028994448482990265,-0.12222300469875336
1757491478652453600,0.90545361328125,0.06228560581803322,0.020467648282647133,-0.15672989189624786
1757491478662473000,0.915472900390625,0.013223200105130672,0.06794793158769608,-0.21693375706672668
1757491478672535600,0.92553564453125,-0.08878196775913239,0.10904976725578308,-0.27320730686187744
1757491478682558200,0.93555810546875,-0.16330818831920624,0.0892815813422203,-0.3289812505245209
1757491478692616200,0.9456162109375,-0.21040543913841248,0.018852220848202705,-0.36423754692077637
1757491478702661600,0.95566162109375,-0.2484596073627472,-0.09252909570932388,-0.3399061858654022
1757491478712677000,0.965677001953125,-0.24577832221984863,-0.22369524836540222,-0.31772318482398987
1757491478722742500,0.975742431640625,-0.25931796431541443,-0.26529669761657715,-0.29182636737823486
1757491478732740900,0.985740966796875,-0.30368396639823914,-0.3315792381763458,-0.25252315402030945
1757491478742824000,0.995823974609375,-0.3477335274219513,-0.44141173362731934,-0.20642514526844025
1757491478752860700,1.005860595703125,-0.3667522966861725,-0.5171037316322327,-0.16575631499290466
1757491478762893800,1.015893798828125,-0.33652544021606445,-0.5408855080604553,-0.1687040627002716
1757491478772946200,1.0259462890625,-0.27294084429740906,-0.50691157579422,-0.20470979809761047
1757491478782961400,1.03596142578125,-0.18810585141181946,-0.4698399603366852,-0.24467916786670685
1757491478793008400,1.04600830078125,-0.15205015242099762,-0.39316537976264954,-0.2456950545310974
1757491478803068000,1.05606787109375,-0.12455455213785172,-0.3382241427898407,-0.18615734577178955
1757491478813101000,1.06610107421875,-0.08848219364881516,-0.3879360556602478,-0.07820674031972885
1757491478823124000,1.0761240234375,-0.045981429517269135,-0.5702463388442993,0.061636101454496384
1757491478833190000,1.08618994140625,0.01878560520708561,-0.7971224784851074,0.22174674272537231
1757491478843191800,1.09619189453125,0.10043969750404358,-1.0282953977584839,0.4018254280090332
1757491478853271600,1.106271484375,0.21904881298542023,-1.393731951713562,0.5372716188430786
1757491478863275300,1.116275146484375,0.40573906898498535,-1.8283655643463135,0.5915133953094482
1757491478873327400,1.126327392578125,0.6315493583679199,-2.1996145248413086,0.5198849439620972
1757491478883389700,1.1363896484375,0.696865975856781,-2.3659536838531494,0.33484339714050293
1757491478893431300,1.146431396484375,0.7683612108230591,-2.6741840839385986,0.11699368059635162
1757491478903471000,1.15647119140625,0.9266065955162048,-2.986311674118042,-0.09682580083608627
1757491478913513000,1.166512939453125,1.1949176788330078,-3.3346612453460693,-0.1799454391002655
1757491478923530200,1.1765302734375,1.585884690284729,-4.18520975112915,-0.007810681592673063
1757491478933576200,1.186576171875,2.0775413513183594,-4.041286468505859,0.20226167142391205
1757491478943603500,1.196603515625,2.30283522605896,-2.8131775856018066,0.30002009868621826
1757491478953678800,1.206678955078125,2.1621930599212646,-1.736269474029541,0.29327526688575745
1757491478963719700,1.2167197265625,1.7519408464431763,-0.8323122262954712,0.07236121594905853
1757491478973734100,1.226734130859375,1.2494258880615234,-0.17846325039863586,-0.3199714720249176
1757491478983796500,1.23679638671875,0.9157982468605042,-0.34616807103157043,-0.778236985206604
1757491478993841000,1.2468408203125,0.9547350406646729,-0.9974689483642578,-1.2032612562179565
1757491479003856100,1.256856201171875,1.2143527269363403,-1.6112486124038696,-1.4951375722885132
1757491479013918200,1.266918212890625,1.5000838041305542,-2.2199654579162598,-1.6623761653900146
1757491479023939800,1.27693994140625,1.6807953119277954,-2.5871007442474365,-1.7823508977890015
1757491479034004200,1.287004150390625,1.8189061880111694,-2.941995620727539,-1.8213210105895996
1757491479044044500,1.29704443359375,1.9705066680908203,-3.137878894805908,-1.8156087398529053
1757491479054081800,1.307081787109375,2.048013925552368,-3.476219415664673,-1.8173407316207886
1757491479064120300,1.317120361328125,2.0840864181518555,-4.148054599761963,-1.892216682434082
1757491479074166500,1.32716650390625,2.275606155395508,-5.419946670532227,-2.0812551975250244
1757491479084203300,1.337203369140625,2.7493932247161865,-6.929806232452393,-2.307581663131714
1757491479094206000,1.3472060546875,3.471639633178711,-8.387223243713379,-2.392183542251587
1757491479104288500,1.35728857421875,4.316026210784912,-9.541221618652344,-2.1946849822998047
1757491479114308900,1.367308837890625,5.234005928039551,-10.224431991577148,-1.2865808010101318
1757491479124370200,1.3773701171875,6.068832874298096,-10.664344787597656,-0.06106986850500107
1757491479134408700,1.38740869140625,6.535325527191162,-9.908041000366211,1.21888267993927
1757491479144409000,1.3974091796875,6.674418926239014,-8.515291213989258,2.1274197101593018
1757491479154488300,1.40748828125,6.658131122589111,-7.2144551277160645,2.54443359375
1757491479164508000,1.4175078125,6.49252462387085,-6.123174667358398,2.7267603874206543
1757491479174547700,1.427547607421875,6.165741920471191,-5.23570442199707,2.824535608291626
1757491479184614400,1.437614501953125,5.665292263031006,-4.758553504943848,2.9350509643554688
1757491479194653000,1.44765283203125,5.022651195526123,-4.384939670562744,3.1776649951934814
1757491479204695600,1.457695556640625,4.254906177520752,-3.8790440559387207,3.4840800762176514
1757491479214732300,1.467732177734375,3.418830156326294,-3.1386616230010986,3.6926536560058594
1757491479224777000,1.47777685546875,2.524132490158081,-1.9749698638916016,3.58658504486084
1757491479234817800,1.48781787109375,1.659794807434082,-0.7121376395225525,3.0496630668640137
1757491479244828700,1.49782861328125,0.9578160047531128,0.3615562617778778,2.2187998294830322
1757491479254926300,1.50792626953125,0.5586718916893005,1.1925195455551147,1.3622727394104004
1757491479264914200,1.5179140625,0.31047874689102173,1.5955939292907715,0.5774075388908386
1757491479274980600,1.527980712890625,0.011491194367408752,1.4164478778839111,-0.08456853032112122
1757491479285002000,1.538001953125,-0.33396074175834656,0.8053661584854126,-0.4625122547149658
1757491479295036200,1.5480361328125,-0.5973588824272156,0.03390735015273094,-0.4619460105895996
1757491479335221000,1.588220947265625,-0.9815977811813354,-1.0290281772613525,-0.04391634836792946
1757491479345230300,1.598230224609375,-1.0943280458450317,-0.4654766321182251,-0.3729974925518036
1757491479355280000,1.60827978515625,-1.2614001035690308,0.09157982468605042,-0.8108786344528198
1757491479385403100,1.638403076171875,-1.6286519765853882,0.9037241339683533,-1.5530765056610107
1757491479445649000,1.69864892578125,-1.0846521854400635,0.602821409702301,-1.670220136642456
1757491479455692000,1.708692138671875,-0.6547982096672058,1.0642844438552856,-2.5415024757385254
1757491479465749800,1.718749755859375,-0.2673617899417877,1.6725016832351685,-3.473738193511963
1757491479475794400,1.72879443359375,-0.14027583599090576,1.8129607439041138,-3.9002280235290527
1757491479485836000,1.7388359375,-0.5827701091766357,1.8122279644012451,-3.5337586402893066
1757491479495872300,1.748872314453125,-1.011541485786438,1.44937264919281,-2.8647713661193848
1757491479505917700,1.758917724609375,-1.3763952255249023,0.7273759245872498,-2.5274133682250977
1757491479515958000,1.7689580078125,-1.9490398168563843,0.11606106162071228,-2.1807122230529785
1757491479525994500,1.778994384765625,-2.492140293121338,-0.6124140620231628,-1.4384976625442505
1757491479536040200,1.789040283203125,-2.505913019180298,-1.3141928911209106,-0.6868569850921631
1757491479546077400,1.799077392578125,-1.9237258434295654,-1.8240022659301758,0.011091500520706177
1757491479556116700,1.80911669921875,-1.2039108276367188,-1.8253679275512695,0.15563073754310608
1757491479566135300,1.81913525390625,-0.8998770713806152,-1.5760256052017212,0.06714854389429092
1757491479586220800,1.839220703125,-1.2247614860534668,-1.3705497980117798,0.1375945657491684
1757491479596282000,1.8492822265625,-1.2243118286132812,-1.4078211784362793,0.1628751903772354
1757491479606323700,1.85932373046875,-0.9225597381591797,-1.2509580850601196,0.1570962816476822
1757491479616340700,1.8693408203125,-0.7167507410049438,-0.7862474918365479,0.024081546813249588
1757491479626410000,1.879409912109375,-0.749625563621521,-0.2759552001953125,-0.28801262378692627
1757491479636441900,1.88944189453125,-0.7526732087135315,-0.16330818831920624,-0.44697415828704834
1757491479646482200,1.899482177734375,-0.5248311758041382,-0.4116678833961487,-0.38413897156715393
1757491479656523800,1.909523681640625,-0.13512977957725525,-0.8470675349235535,-0.24074885249137878
1757491479666566000,1.91956591796875,0.15506450831890106,-1.2170506715774536,-0.09304536879062653
1757491479676609300,1.929609375,0.35289624333381653,-1.3951308727264404,0.012573698535561562
1757491479686649900,1.93964990234375,0.567898154258728,-1.349149465560913,0.04759686067700386
1757491479696690700,1.949690673828125,0.7897781133651733,-1.2076245546340942,0.022849157452583313
1757491479706731800,1.959731689453125,0.9609469771385193,-1.06884765625,0.003480666084215045
1757491479716768500,1.9697685546875,1.1361626386642456,-1.0471642017364502,0.0543583445250988
1757491479726809000,1.97980908203125,1.3425711393356323,-1.0652004480361938,0.1805616319179535
1757491479736853800,1.989853759765625,1.5971428155899048,-1.0622360706329346,0.3751125633716583
1757491479746894000,1.99989404296875,1.809463381767273,-0.9621127247810364,0.5718284845352173
1757491479756935400,2.009935302734375,1.9471912384033203,-0.9169806241989136,0.6563969850540161
1757491479766975500,2.0199755859375,1.9249415397644043,-1.1286184787750244,0.6552645564079285
1757491479777012200,2.03001220703125,1.797272801399231,-1.3168742656707764,0.6524167060852051
1757491479787057200,2.04005712890625,1.626037359237671,-1.3828070163726807,0.6868569850921631
1757491479797094100,2.05009423828125,1.409253478050232,-1.2728912830352783,0.6875731348991394
1757491479807138600,2.060138671875,1.1404926776885986,-1.0492292642593384,0.5068948864936829
1757491479817179400,2.070179443359375,0.9094197750091553,-0.7254107594490051,0.18087805807590485
1757491479827219700,2.0802197265625,0.7873133420944214,-0.4869268834590912,-0.09854115545749664
1757491479837256400,2.09025634765625,0.7376680374145508,-0.27189165353775024,-0.250124990940094
1757491479847301400,2.10030126953125,0.6901711225509644,-0.14310699701309204,-0.2953236997127533
1757491479857342000,2.110342041015625,0.6607103943824768,-0.13584589958190918,-0.31847262382507324
1757491479867382800,2.1203828125,0.5965428948402405,0.031409263610839844,-0.3509477376937866
1757491479877421300,2.13042138671875,0.49683594703674316,0.27064260840415955,-0.3080139756202698
1757491479887460400,2.14046044921875,0.3604904115200043,0.40878674387931824,-0.1674383580684662
1757491479897501700,2.150501708984375,0.2036772519350052,0.40242496132850647,-0.027112556621432304
1757491479907541500,2.16054150390625,0.023515313863754272,0.3048996925354004,0.043733153492212296
1757491479917586400,2.17058642578125,-0.19286887347698212,0.2501416504383087,0.05713954567909241
1757491479927627000,2.180626953125,-0.3900178074836731,0.26100000739097595,0.06899712979793549
1757491479937667800,2.190667724609375,-0.5883824825286865,0.38810259103775024,0.11722683906555176
1757491479947708700,2.200708740234375,-0.8184394836425781,0.6189590096473694,0.20635853707790375
1757491479957745000,2.210744873046875,-1.03194260597229,0.7576194405555725,0.24308039247989655
1757491479967786000,2.220785888671875,-1.2617164850234985,0.8350767493247986,0.0992739275097847
1757491479977830700,2.23083056640625,-1.489025592803955,1.267179012298584,-0.3033841848373413
1757491479987871000,2.24087109375,-1.5920133590698242,2.0765087604522705,-0.9666925668716431
1757491479997911800,2.250911865234375,-1.260367512702942,2.212437868118286,-1.544100046157837
1757491480007953200,2.260953125,-0.5307433009147644,1.2003967761993408,-2.0926132202148438
1757491480017993500,2.270993408203125,0.14452259242534637,0.1107984259724617,-2.6416423320770264
1757491480028030500,2.281030517578125,0.7123374938964844,-0.15498124063014984,-2.636979341506958
1757491480038070300,2.2910703125,1.4425612688064575,0.7046100497245789,-2.2274930477142334
1757491480048115000,2.301114990234375,2.247161388397217,1.7343876361846924,-1.8834400177001953
1757491480058156500,2.311156494140625,2.783233880996704,2.313776969909668,-1.5825872421264648
1757491480068197000,2.321197021484375,3.0044143199920654,2.1082844734191895,-1.332345724105835
1757491480078238200,2.33123828125,2.7405998706817627,1.6553981304168701,-0.8419215083122253
1757491480088278500,2.341278564453125,2.2522740364074707,0.8711990714073181,-0.09890753775835037
1757491480098314800,2.351314697265625,1.8379582166671753,0.10118912905454636,0.9041571617126465
1757491480108360200,2.361360107421875,1.7604509592056274,-0.3407888412475586,1.9588489532470703
1757491480118406100,2.37140625,1.9941219091415405,-0.6099159717559814,2.71083927154541
1757491480128437000,2.38143701171875,2.353379964828491,-1.2133369445800781,2.9103198051452637
1757491480138478600,2.391478515625,2.7312071323394775,-2.1735177040100098,2.7537896633148193
1757491480148522000,2.40152197265625,2.7216811180114746,-3.1755998134613037,2.6794633865356445
1757491480168601000,2.42160107421875,2.1605277061462402,-3.8339953422546387,2.5978426933288574
1757491480178645200,2.431645263671875,2.287647008895874,-3.6098337173461914,2.3830904960632324
1757491480188685800,2.441685791015625,2.6716361045837402,-3.427140474319458,2.144922971725464
1757491480198726100,2.45172607421875,3.1070690155029297,-3.3687353134155273,1.9219272136688232
1757491480208767000,2.46176708984375,3.5095772743225098,-3.0651512145996094,1.6578296422958374
1757491480218808000,2.47180810546875,3.9356842041015625,-2.48246431350708,1.353462815284729
1757491480228844500,2.481844482421875,4.409121513366699,-1.8233028650283813,0.9833797812461853
1757491480238886100,2.49188623046875,4.947342395782471,-1.1409590244293213,0.8042670488357544
1757491480248929800,2.5019296875,4.84074068069458,0.057056277990341187,0.7554877400398254
1757491480258970600,2.511970703125,4.1893229484558105,1.897079586982727,0.11945845931768417
1757491480269011700,2.52201171875,3.464211940765381,3.0171878337860107,-1.0504616498947144
1757491480279052000,2.532052001953125,2.905773401260376,2.845519542694092,-1.809196949005127
1757491480289089000,2.542089111328125,2.445209503173828,1.9743703603744507,-1.5939452648162842
1757491480299133400,2.552133544921875,1.9972361326217651,1.171202540397644,-0.8223031759262085
1757491480309174500,2.562174560546875,1.4977855682373047,0.8886356949806213,-0.14622128009796143
1757491480329255700,2.582255615234375,0.5895815491676331,1.1824605464935303,0.14590485394001007
1757491480339296500,2.592296630859375,0.37519583106040955,1.1951508522033691,0.035672664642333984
1757491480349337000,2.602337158203125,0.259417861700058,0.9328851103782654,-0.0456816591322422
1757491480359374000,2.6123740234375,0.21914874017238617,0.543616771697998,-0.033540964126586914
1757491480369416700,2.622416748046875,0.054541539400815964,0.09862442314624786,0.1049695611000061
1757491480379455500,2.63245556640625,-0.07654134929180145,-0.25219008326530457,0.23675191402435303
1757491480389496000,2.64249609375,-0.045115429908037186,-0.4424442946910858,0.305732399225235
1757491480399537200,2.652537109375,0.035422854125499725,-0.3307465612888336,0.2661793529987335
1757491480409581800,2.662581787109375,-0.11964165419340134,-0.11259704828262329,0.044316042214632034
1757491480419618000,2.6726181640625,-0.3511642515659332,-0.06806451082229614,-0.11199750751256943
1757491480429663200,2.682663330078125,-0.44732388854026794,0.0017986217280849814,-0.15789566934108734
1757491480439703800,2.692703857421875,-0.5450656414031982,0.1664058119058609,-0.12966729700565338
1757491480449744600,2.70274462890625,-0.6378445625305176,0.1424575001001358,0.016837097704410553
1757491480459785200,2.71278515625,-0.5790396332740784,-0.06858077645301819,0.2394331842660904
1757491480469822000,2.722822021484375,-0.3174567222595215,-0.26431411504745483,0.3781602084636688
1757491480479862500,2.732862548828125,0.04098526015877724,-0.14350669085979462,0.2811678647994995
1757491480489907500,2.742907470703125,0.43947988748550415,0.30416691303253174,0.11657733470201492
1757491480499947800,2.75294775390625,0.5238319039344788,0.433467835187912,0.10566902905702591
1757491480509988600,2.762988525390625,0.06128637120127678,0.6475037932395935,0.022482771426439285
1757491480520029400,2.773029541015625,-0.40139240026474,0.8992775678634644,-0.09494391083717346
1757491480530070300,2.7830703125,-0.5376713275909424,0.8351933360099792,-0.16374118626117706
1757491480540111000,2.793111083984375,-0.48571112751960754,0.6442562937736511,-0.2134031355381012
1757491480550147600,2.803147705078125,-0.33297815918922424,0.5168706178665161,-0.2724745273590088
1757491480560192800,2.81319287109375,-0.17413322627544403,0.43018701672554016,-0.3163575828075409
1757491480570233600,2.823233642578125,0.12671956419944763,0.357526034116745,-0.23342113196849823
1757491480580274000,2.83327392578125,0.5294442772865295,0.28717994689941406,-0.08876531571149826
1757491480590314800,2.843314697265625,0.8706994652748108,0.09747530519962311,0.05793893337249756
1757491480600355600,2.85335546875,1.1156117916107178,-0.14110854268074036,0.14980188012123108
1757491480610393900,2.863393798828125,1.1974490880966187,-0.3772442638874054,0.23175573348999023
1757491480620433000,2.873432861328125,1.1261204481124878,-0.636645495891571,0.35451167821884155
1757491480630473500,2.883473388671875,1.1623259782791138,-0.9496223330497742,0.5060955286026001
1757491480640517000,2.89351708984375,1.470656394958496,-1.1460551023483276,0.570845901966095
1757491480650556700,2.903556640625,1.994288444519043,-1.193985104560852,0.3528629243373871
1757491480660599800,2.913599853515625,2.5199522972106934,-1.4192957878112793,0.09695903211832047
1757491480670640400,2.923640380859375,2.80548357963562,-1.4689576625823975,-0.05460815504193306
1757491480680677400,2.933677490234375,2.8061330318450928,-1.3131604194641113,-0.1194751113653183
1757491480690721800,2.9437216796875,2.518436908721924,-0.9803820848464966,-0.1493189036846161
1757491480700758500,2.953758544921875,1.8972960710525513,-0.5323420763015747,-0.17260107398033142
1757491480710803500,2.963803466796875,0.9170472621917725,-0.07149521261453629,-0.1772974729537964
1757491480720844300,2.97384423828125,-0.02036772482097149,0.3560105264186859,-0.17631489038467407
1757491480730884400,2.98388427734375,-0.3623390197753906,0.47188839316368103,-0.13178235292434692
1757491480740921000,2.993921142578125,-0.2856144607067108,0.23217208683490753,-0.08823239058256149
1757491480750966500,3.003966552734375,0.6677383184432983,0.5083770751953125,-0.2218799740076065
1757491480761007400,3.01400732421875,0.5725612640380859,0.4689573049545288,-0.14445596933364868
1757491480771044000,3.024044189453125,-0.05677316337823868,0.5256638526916504,-0.10412020981311798
1757491480781088300,3.034088134765625,-0.5030978322029114,0.4933885931968689,-0.06283517926931381
1757491480791128800,3.04412890625,-0.574476420879364,0.35860854387283325,0.007344372104853392
1757491480801166000,3.054166015625,-0.6163610219955444,0.18479172885417938,0.08403560519218445
1757491480811210200,3.064210205078125,-0.6264199614524841,0.1428738534450531,0.11729345470666885
1757491480821251600,3.07425146484375,-0.6258870363235474,0.22244620323181152,0.13867706060409546
1757491480831291600,3.084291748046875,-0.6351632475852966,0.28849560022354126,0.1911868304014206
1757491480841329000,3.094328857421875,-0.4940880537033081,0.38943490386009216,0.11979153752326965
1757491480851373800,3.104373779296875,0.3829232454299927,0.9783836007118225,-0.3080306351184845
1757491480861412900,3.114412841796875,1.3891022205352783,1.256870150566101,-0.4942212700843811
1757491480871451000,3.124450927734375,1.5185363292694092,0.2364521473646164,0.03840390592813492
1757491480881492500,3.134492431640625,1.4655269384384155,-0.45475152134895325,0.2681111991405487
1757491480891533300,3.144533203125,1.5434672832489014,-0.6276856660842896,0.15511447191238403
1757491480901574700,3.15457470703125,1.5688644647598267,-0.6966994404792786,0.039136677980422974
1757491480911613200,3.16461328125,1.5276460647583008,-0.8908173441886902,0.05059456452727318
1757491480921659100,3.1746591796875,1.6076513528823853,-0.902741551399231,0.08804919570684433
1757491480931687200,3.184687255859375,1.7271099090576172,-0.6848918199539185,0.09214605391025543
1757491480941737700,3.19473779296875,1.7561209201812744,-0.49042418599128723,0.11522836983203888
1757491480951777000,3.204777099609375,1.7244285345077515,-0.3643874228000641,0.11346305161714554
1757491480961816800,3.21481689453125,1.622273564338684,-0.36110660433769226,0.05840524286031723
1757491480971857700,3.224857666015625,1.2970393896102905,-0.3549446761608124,0.0006661561783403158
1757491480981899500,3.2348994140625,0.9655767679214478,-0.18162748217582703,-0.0012323890114203095
1757491480991941400,3.24494140625,0.6175934076309204,-0.03477335348725319,0.0038637060206383467
1757491481001985000,3.254985107421875,0.3498319387435913,-0.016387442126870155,0.024897588416934013
1757491481011999500,3.26499951171875,0.24314701557159424,-0.3146255612373352,0.12720252573490143
1757491481022040300,3.275040283203125,0.2919429540634155,-0.5531761050224304,0.10801722854375839
1757491481032096300,3.28509619140625,0.1308663785457611,-0.8234856128692627,0.024980857968330383
1757491481042220500,3.295220458984375,-0.26293185353279114,-1.0150721073150635,-0.0005828866851516068
1757491481052227000,3.30522705078125,-0.40367400646209717,-0.9164977073669434,0.02576358988881111
1757491481062225000,3.315224853515625,-0.5655332803726196,-0.3953636884689331,0.03240849822759628
1757491481072269300,3.325269287109375,-0.6223064661026001,-0.12595348060131073,0.053842075169086456
1757491481082310100,3.33531005859375,-0.3096294105052948,-0.07707427442073822,0.04345003888010979
1757491481092351200,3.345351318359375,-0.2733238935470581,0.3716152310371399,0.08423545211553574
1757491481102393600,3.3553935546875,-0.6284850835800171,0.24910910427570343,0.27785375714302063
1757491481112428500,3.365428466796875,-0.9002601504325867,-0.43961313366889954,0.30618202686309814
1757491481122468900,3.37546875,-0.6286848783493042,-0.5028812885284424,0.178213432431221
1757491481132509400,3.385509521484375,-0.11326320469379425,-0.36270537972450256,-0.011657733470201492
1757491481142550300,3.39555029296875,0.2775539755821228,-0.3437199294567108,-0.11532828956842422
1757491481152595200,3.40559521484375,0.3837226331233978,-0.4279887080192566,-0.07207810133695602
1757491481162635800,3.4156357421875,0.3015022873878479,-0.4634781777858734,0.026329822838306427
1757491481172676400,3.42567626953125,0.12688609957695007,-0.5192021131515503,0.06551646441221237
1757491481182717700,3.4357177734375,-0.042317572981119156,-0.5205844044685364,0.05582388862967491
1757491481192754200,3.445754150390625,-0.11919199675321579,-0.4671420156955719,0.009326186962425709
1757491481202798800,3.455798828125,-0.1266196370124817,-0.43253520131111145,-0.0296772588044405
1757491481212835800,3.4658359375,-0.08335279673337936,-0.5360226035118103,-0.06861408799886703
1757491481222880000,3.4758798828125,-0.09241251647472382,-0.7216137051582336,-0.09023085981607437
1757491481232921000,3.485921142578125,-0.20261140167713165,-0.4641609787940979,-0.038104135543107986
1757491481242962000,3.4959619140625,-0.2751224935054779,-0.3781435489654541,-0.00464643957093358
1757491481252998700,3.50599853515625,-0.29882100224494934,-0.2933252155780792,0.0506112165749073
1757491481263043300,3.516043212890625,-0.09058059006929398,0.3640376925468445,0.16775478422641754
1757491481273084200,3.526084228515625,0.6050863265991211,-1.3416885137557983,0.5595212578773499
1757491481283120600,3.53612060546875,1.1197752952575684,-4.921228885650635,1.5400031805038452
1757491481293165300,3.546165283203125,0.4678914546966553,-4.396164417266846,1.2714589834213257
1757491481303206000,3.556205810546875,-0.35556086897850037,-0.4374314546585083,-0.07960566133260727
1757491481313247000,3.5662470703125,-0.6465045809745789,3.226361036300659,-1.0399364233016968
1757491481323287600,3.57628759765625,-0.3855878710746765,5.2929606437683105,-1.3876034021377563
1757491481333328400,3.586328369140625,-0.29625630378723145,4.374414443969727,-0.8747130632400513
1757491481343369200,3.596369140625,-0.5069448351860046,2.539870262145996,-0.06161944940686226
1757491481353410300,3.606410400390625,-0.753339409828186,1.5815048217773438,0.4963862895965576
1757491481363446500,3.616446533203125,-0.8332281708717346,1.0670822858810425,0.6253374814987183
1757491481373487600,3.626487548828125,-0.7177000045776367,0.5789896845817566,0.4097360074520111
1757491481383528700,3.63652880859375,-0.5986412763595581,0.26196593046188354,0.16137634217739105
1757491481393575000,3.646574951171875,-0.5160212516784668,-0.21906545758247375,0.035805895924568176
1757491481403613400,3.656613525390625,-0.4286049008369446,-0.8159747123718262,0.04643108695745468
1757491481413654000,3.666654052734375,-0.6124973297119141,-0.6781969666481018,0.1953503042459488
1757491481423694800,3.67669482421875,-0.9407624006271362,-0.24759359657764435,0.34590160846710205
1757491481433690600,3.686690673828125,-1.3409557342529297,0.12713590264320374,0.398278146982193
1757491481443773000,3.69677294921875,-1.829081654548645,0.44775688648223877,0.37171515822410583
1757491481453816600,3.706816650390625,-2.5315933227539062,0.6077010035514832,0.33805760741233826
1757491481463857700,3.716857666015625,-3.083803653717041,0.3922327756881714,0.43504995107650757
1757491481473898500,3.7268984375,-3.165241241455078,-0.3001866340637207,0.7035108804702759
1757491481483939000,3.73693896484375,-3.0577735900878906,-1.1938518285751343,1.0397865772247314
1757491481493980000,3.74697998046875,-0.24091538786888123,-2.6951680183410645,1.5577895641326904
1757491481504020500,3.7570205078125,0.6040704250335693,-3.6722025871276855,1.2971559762954712
1757491481514057700,3.7670576171875,0.6608102917671204,-4.006596565246582,0.7581357359886169
1757491481524102400,3.777102294921875,0.9486896991729736,-3.786731481552124,0.20545922219753265
1757491481534142500,3.787142578125,0.8370085954666138,-3.1402103900909424,-0.1548813134431839
1757491481544183600,3.79718359375,0.7051263451576233,-2.445492744445801,0.10675153136253357
1757491481554224000,3.80722412109375,0.645422101020813,-2.1945016384124756,0.5323087573051453
1757491481564265000,3.817264892578125,0.7427308559417725,-2.4633123874664307,0.6527664661407471
1757491481574306600,3.827306640625,0.8153752088546753,-2.708857536315918,0.7853648662567139
1757491481584342300,3.83734228515625,0.7347202897071838,-2.2292251586914062,1.0759421586990356
1757491481594388500,3.847388427734375,0.6311829686164856,-0.9793661832809448,1.2619329690933228
1757491481604426000,3.857426025390625,0.5250976085662842,0.28558117151260376,1.3325122594833374
1757491481614465000,3.867465087890625,0.37116557359695435,0.9598144888877869,1.3687344789505005
1757491481624505900,3.877505859375,0.10581891238689423,1.2184330224990845,1.3425211906433105
1757491481634547700,3.887547607421875,-0.24018260836601257,1.155547857284546,1.2404494285583496
1757491481644591400,3.89759130859375,-0.5947275757789612,0.9167974591255188,1.15546452999115
1757491481654627800,3.9076279296875,-0.8599576950073242,0.5920629501342773,0.9981351494789124
1757491481664672300,3.91767236328125,-0.8033177256584167,0.22151358425617218,0.7198650240898132
1757491481674712800,3.927712890625,-0.5067782998085022,0.2885955274105072,0.4411119818687439
1757491481684753700,3.937753662109375,-0.20044639706611633,0.5036807060241699,0.2709590196609497
1757491481694794800,3.947794677734375,-0.021683383733034134,0.6565302610397339,0.1955001950263977
1757491481704831500,3.95783154296875,-0.0011824272805824876,0.7291079759597778,0.1621757298707962
1757491481714876000,3.9678759765625,-0.027662135660648346,0.7968060970306396,0.12423813343048096
1757491481724915200,3.977915283203125,-0.029777182266116142,0.7425310015678406,0.061802640557289124
1757491481734957300,3.987957275390625,0.03948640823364258,0.41484877467155457,-0.034173812717199326
1757491481744998100,3.997998046875,0.18579095602035522,0.08378579467535019,-0.13701167702674866
1757491481755038700,4.008038818359375,0.412650465965271,-0.007644142489880323,-0.2686441242694855
1757491481765079800,4.018079833984375,0.6743332743644714,0.09855780750513077,-0.458748459815979
1757491481775120100,4.0281201171875,0.9129170775413513,0.16915370523929596,-0.7091232538223267
1757491481785161200,4.0381611328125,1.0554078817367554,0.3086468279361725,-1.0543254613876343
1757491481795201500,4.048201416015625,1.0508613586425781,0.5295442342758179,-1.2562706470489502
1757491481805242600,4.05824267578125,1.396479845046997,0.8401561975479126,-1.0704463720321655
1757491481815283200,4.068283203125,2.0696473121643066,1.3046668767929077,-0.4773508608341217
1757491481825324800,4.07832470703125,2.721947431564331,1.8661032915115356,0.041101835668087006
1757491481835365000,4.088365234375,3.26060152053833,2.586151599884033,0.02576358988881111
1757491481845410300,4.098410400390625,3.607085943222046,2.909836769104004,-0.5223664045333862
1757491481855442400,4.1084423828125,3.1767656803131104,2.7437140941619873,-0.9977520704269409
1757491481865483000,4.11848291015625,2.0049970149993896,1.887620210647583,-0.9085870981216431
1757491481875527200,4.128527099609375,0.8427708745002747,0.5258470177650452,-0.4583321213722229
1757491481885564700,4.138564697265625,0.21210412681102753,-0.19170309603214264,-0.025363897904753685
1757491481895609300,4.148609375,0.02316558174788952,-0.25398871302604675,0.1552310436964035
1757491481905650200,4.158650146484375,-0.14637117087841034,-0.684858500957489,0.2177831083536148
1757491481915690500,4.1686904296875,-0.3961131274700165,-1.4032247066497803,0.30494964122772217
1757491481925731300,4.1787314453125,-0.6599776148796082,-1.6792131662368774,0.30839699506759644
1757491481935772400,4.1887724609375,-1.0126407146453857,-1.2391670942306519,0.043766461312770844
1757491481945812700,4.198812744140625,-1.3432706594467163,-0.5486629009246826,-0.1307165026664734
1757491481955850000,4.20885009765625,-1.4900414943695068,0.11860910803079605,-0.05127737298607826
1757491481965894100,4.21889404296875,-1.5590053796768188,0.6390103101730347,0.1008060872554779
1757491481975935500,4.228935546875,-1.5864843130111694,0.8659864068031311,0.17170175909996033
1757491481985975800,4.238975830078125,-1.5532430410385132,0.8050997257232666,0.10723449289798737
1757491481996017400,4.249017333984375,-1.4262737035751343,0.6314327716827393,-0.003297473071143031
1757491482006062600,4.2590625,-1.2307401895523071,0.5658164024353027,-0.11782637983560562
1757491482016094500,4.269094482421875,-0.9406458735466003,0.6968992948532104,-0.25440505146980286
1757491482026134800,4.279134765625,-0.20539261400699615,1.211121916770935,-0.4242249131202698
1757491482036175400,4.28917529296875,1.0090267658233643,1.8543789386749268,-0.2951738238334656
1757491482046216200,4.29921630859375,1.5427345037460327,1.8067988157272339,0.03732139989733696
1757491482056257800,4.3092578125,1.0098094940185547,1.012790560722351,0.2575026750564575
1757491482066310100,4.31931005859375,0.6453887820243835,0.01260700635612011,0.3099624812602997
1757491482076339000,4.3293388671875,0.23843395709991455,-0.6652568578720093,0.2705593407154083
1757491482086383900,4.3393837890625,-0.2867802381515503,-0.707158088684082,0.2763881981372833
1757491482096422400,4.34942236328125,-0.33402737975120544,-0.2734737694263458,0.28896191716194153
1757491482106461000,4.3594609375,-0.04674750939011574,0.15020157396793365,0.23498660326004028
1757491482116502000,4.369501953125,0.1898045539855957,0.3005197048187256,0.13636218011379242
1757491482126544000,4.3795439453125,0.03052660822868347,0.2328549027442932,0.058804936707019806
1757491482136587000,4.3895869140625,-0.2292409986257553,0.14941883087158203,0.02238284796476364
1757491482146624000,4.3996240234375,-0.4039571285247803,0.048862557858228683,-0.04255072772502899
1757491482156669000,4.4096689453125,-0.5650669932365417,-0.0646338015794754,-0.15956106781959534
1757491482166709200,4.419709228515625,-0.6995306015014648,-0.07469276338815689,-0.22849157452583313
1757491482176750000,4.42975,-0.8482666611671448,0.0000666156192892231,-0.2341538965702057
1757491482186786600,4.43978662109375,-0.9455754160881042,0.10856680572032928,-0.14312365651130676
1757491482196831500,4.44983154296875,-0.9167308211326599,0.14813648164272308,0.04090198874473572
1757491482206868200,4.4598681640625,-0.7753391861915588,0.1248876303434372,0.15608039498329163
1757491482216913000,4.469912841796875,-0.5997570753097534,-0.018652373924851418,-0.023148927837610245
1757491482226953500,4.479953369140625,-0.46432751417160034,-0.16052699089050293,-0.19365160167217255
1757491482236994300,4.489994384765625,-0.3390069007873535,-0.14498889446258545,-0.21758326888084412
1757491482247035400,4.500035400390625,-0.29369160532951355,-0.03472338989377022,-0.1667555421590805
1757491482257072400,4.510072265625,-0.28258344531059265,0.09061389416456223,-0.10398697853088379
1757491482267116800,4.52011669921875,-0.23856718838214874,0.16347472369670868,-0.07144524902105331
1757491482277154000,4.530154052734375,-0.20810718834400177,0.19163648784160614,-0.06698200851678848
1757491482287198200,4.5401982421875,-0.20484302937984467,0.18074482679367065,-0.06764816492795944
1757491482297239300,4.5502392578125,-0.2036772519350052,0.13108287751674652,-0.0662991926074028
1757491482307279600,4.560279541015625,-0.17413322627544403,0.05843855068087578,-0.05660662427544594
1757491482317320200,4.5703203125,-0.13712824881076813,0.008643376640975475,-0.03928656131029129
1757491482327356400,4.5803564453125,-0.1078173816204071,0.013955972157418728,-0.03557274118065834
1757491482337398000,4.59039794921875,-0.09494391083717346,0.06390102952718735,-0.03690505400300026
1757491482347438300,4.600438232421875,-0.08876531571149826,0.12122377008199692,-0.035972435027360916
1757491482357479200,4.610479248046875,-0.08140428364276886,0.16375784575939178,-0.0354062020778656
1757491482367523300,4.6205234375,-0.0740099549293518,0.18602411448955536,-0.041934531182050705
1757491482377577700,4.63057763671875,-0.06608269363641739,0.1915365606546402,-0.05757254734635353
1757491482387605800,4.640605712890625,-0.05787231773138046,0.18505819141864777,-0.07495922595262527
1757491482397642500,4.650642578125,-0.05211006850004196,0.17713093757629395,-0.08381910622119904
1757491482407687200,4.660687255859375,-0.048662710934877396,0.16933690011501312,-0.07932254672050476
1757491482417727200,4.670727294921875,-0.045481812208890915,0.1592612862586975,-0.06251876056194305
1757491482427768300,4.680768310546875,-0.042650651186704636,0.15436504781246185,-0.038970138877630234
1757491482437809200,4.69080908203125,-0.03986944630742073,0.1598774790763855,-0.01748660020530224
1757491482447850000,4.70085009765625,-0.04156814515590668,0.1724511831998825,-0.002914433367550373
1757491482457890000,4.71089013671875,-0.04463246464729309,0.18089471757411957,0.004413284827023745
1757491482467927300,4.72092724609375,-0.04841290041804314,0.17914605140686035,0.005828866735100746
1757491482477972200,4.73097216796875,-0.05021152272820473,0.16798794269561768,0.0027145864441990852
1757491482488012800,4.7410126953125,-0.0526929534971714,0.15246650576591492,-0.005129402503371239
1757491482498053600,4.7510537109375,-0.05319257080554962,0.1384938657283783,-0.012673621997237206
1757491482508094200,4.76109423828125,-0.05385872721672058,0.13438035547733307,-0.019268568605184555
1757491482518135600,4.771135498046875,-0.05111083388328552,0.13756124675273895,-0.02518070489168167
1757491482528171800,4.781171875,-0.04751358926296234,0.1411418467760086,-0.03437365964055061
1757491482538216400,4.791216552734375,-0.047780051827430725,0.1476535201072693,-0.047780051827430725
1757491482548257500,4.801257568359375,-0.05327584221959114,0.15556412935256958,-0.06371784210205078
1757491482558297900,4.8112978515625,-0.06465046107769012,0.15819543600082397,-0.0778236985206604
1757491482568339000,4.8213388671875,-0.08013858646154404,0.14733709394931793,-0.08618395775556564
1757491482578379500,4.831379638671875,-0.09574329853057861,0.12691940367221832,-0.09044735878705978
1757491482588418000,4.84141796875,-0.10986580699682236,0.11014892905950546,-0.09266232699155807
1757491482598456800,4.851456787109375,-0.12223966419696808,0.11036542803049088,-0.09294544160366058
1757491482608497700,4.86149755859375,-0.13344773650169373,0.12422147393226624,-0.09842457622289658
1757491482618541000,4.871541015625,-0.1443393975496292,0.14570501446723938,-0.10661830008029938
1757491482628579600,4.88157958984375,-0.15353234112262726,0.1706359088420868,-0.11696037650108337
1757491482638624300,4.891624267578125,-0.15674655139446259,0.19629958271980286,-0.12816844880580902
1757491482648665000,4.9016650390625,-0.15624693036079407,0.2143690586090088,-0.13458020985126495
1757491482658701600,4.91170166015625,-0.15296611189842224,0.21733345091342926,-0.1325317770242691
1757491482668746200,4.921746337890625,-0.14603808522224426,0.20805723965168,-0.12140696495771408
1757491482678787000,4.931787109375,-0.1352297067642212,0.19323526322841644,-0.10423678904771805
1757491482688827600,4.94182763671875,-0.12205646932125092,0.17837996780872345,-0.09244582802057266
1757491482698864600,4.95186474609375,-0.11258039623498917,0.17218472063541412,-0.08961465954780579
1757491482708909000,4.961908935546875,-0.10848353803157806,0.17326723039150238,-0.0905972421169281
1757491482718946000,4.971946044921875,-0.10105589777231216,0.17891289293766022,-0.09489394724369049
1757491482728991000,4.981990966796875,-0.09660930186510086,0.19413456320762634,-0.10200516879558563
1757491482739031600,4.992031494140625,-0.0979582667350769,0.21510183811187744,-0.10863342136144638
1757491482749072600,5.00207275390625,-0.08954804390668869,0.24238093197345734,-0.11314663290977478
1757491482759113200,5.01211328125,-0.07947243750095367,0.2597676217556,-0.11146458238363266
1757491482769150000,5.02214990234375,-0.071295365691185,0.25688648223876953,-0.10485298186540604
1757491482779195000,5.03219482421875,-0.06436733901500702,0.23593586683273315,-0.09667591750621796
1757491482789231400,5.0422314453125,-0.06781470030546188,0.2030610591173172,-0.09054727852344513
1757491482799276000,5.052276123046875,-0.07144524902105331,0.17118549346923828,-0.0885821208357811
1757491482809316600,5.062316650390625,-0.06826435774564743,0.14910240471363068,-0.09058059006929398
1757491482819357400,5.072357421875,-0.06751493364572525,0.145438551902771,-0.09945712238550186
1757491482829402400,5.08240234375,-0.0754588395357132,0.12726913392543793,-0.11068185418844223
1757491482839434800,5.092434814453125,-0.08651703596115112,0.10720118880271912,-0.12255608290433884
1757491482849475800,5.102475830078125,-0.09749195724725723,0.09574329853057861,-0.1384938657283783
1757491482859519000,5.11251904296875,-0.1119142398238182,0.08543453365564346,-0.15598046779632568
1757491482869557800,5.122557861328125,-0.12868472933769226,0.06746497005224228,-0.17531566321849823
1757491482879602000,5.132601806640625,-0.1283016800880432,0.05201014503836632,-0.19132006168365479
1757491482889643000,5.14264306640625,-0.12810184061527252,0.045032158493995667,-0.2030610591173172
1757491482899683600,5.15268359375,-0.14095865190029144,0.057172853499650955,-0.21331986784934998
1757491482909724000,5.162723876953125,-0.15594716370105743,0.07376014441251755,-0.21936523914337158
1757491482919761000,5.172760986328125,-0.17093567550182343,0.051210757344961166,-0.2123705893754959
1757491482929801700,5.1828017578125,-0.1980648934841156,0.03875363618135452,-0.2121540904045105
1757491482939846100,5.19284619140625,-0.2004963606595993,0.05101091042160988,-0.2222297042608261
1757491482949887200,5.20288720703125,-0.19904747605323792,0.06676550209522247,-0.23765122890472412
1757491482959927800,5.212927734375,-0.211038276553154,0.08828234672546387,-0.2538221776485443
1757491482969968000,5.222968017578125,-0.24203120172023773,0.15158383548259735,-0.2831830084323883
1757491482980005000,5.233005126953125,-0.2751891314983368,0.19135336577892303,-0.31549158692359924
1757491482990050000,5.243050048828125,-0.34451931715011597,0.1550978124141693,-0.3212871253490448
1757491483000087000,5.253087158203125,-0.47836676239967346,0.14637117087841034,-0.3019352853298187
1757491483010131500,5.26313134765625,-0.6086003184318542,0.05084437131881714,-0.28023526072502136
1757491483020172500,5.273172607421875,-0.6948342323303223,-0.1457882821559906,-0.24699406325817108
1757491483030213400,5.28321337890625,-0.7628820538520813,-0.2595177888870239,-0.2125038206577301
1757491483040249900,5.293249755859375,-0.8364257216453552,-0.20852354168891907,-0.1653566211462021
1757491483050294800,5.303294677734375,-0.9299706816673279,-0.008776607923209667,-0.09609302878379822
1757491483060335600,5.313335693359375,-1.054908275604248,0.1596776396036148,-0.04045233502984047
1757491483070372000,5.3233720703125,-1.132082462310791,-0.11041539162397385,-0.1003897413611412
1757491483080415500,5.33341552734375,-1.0312597751617432,-0.5740101337432861,-0.2906772494316101
1757491483090453800,5.343453857421875,-0.6755656599998474,-0.5791062116622925,-0.3450356125831604
1757491483100494600,5.35349462890625,-0.2063252329826355,-0.13131603598594666,-0.2082737386226654
1757491483110535400,5.363535400390625,0.08210375159978867,0.17518243193626404,0.03497320041060448
1757491483120580000,5.373580078125,0.13684514164924622,0.23558613657951355,0.29958710074424744
1757491483130621000,5.383620849609375,0.13228195905685425,0.24661102890968323,0.5341573357582092
1757491483140657400,5.393657470703125,0.14327354729175568,0.2063252329826355,0.7563371062278748
1757491483150702300,5.403702392578125,0.16185930371284485,0.10277124494314194,0.9624124765396118
1757491483160742700,5.41374267578125,0.15526434779167175,-0.039186637848615646,1.0805219411849976
1757491483180824000,5.433823974609375,0.11098162084817886,-0.24934226274490356,0.8362591862678528
1757491483190865200,5.443865234375,0.11584456264972687,-0.31154459714889526,0.5838692784309387
1757491483200905500,5.453905517578125,0.127035990357399,-0.35727623105049133,0.3883523941040039
1757491483210946600,5.463946533203125,0.11832599341869354,-0.35008174180984497,0.2825334966182709
1757491483220987600,5.473987548828125,0.10307101905345917,-0.2802519202232361,0.2574860155582428
1757491483231028000,5.484028076171875,0.08593414723873138,-0.2062586098909378,0.27272436022758484
1757491483241065000,5.49406494140625,0.058971475809812546,-0.1755654662847519,0.2960231602191925
1757491483251109400,5.504109375,0.0576891265809536,-0.10002335160970688,0.3272492289543152
1757491483261150200,5.514150146484375,0.05350899696350098,0.050794411450624466,0.343769907951355
1757491483271190800,5.524190673828125,0.017969563603401184,0.2271426022052765,0.31111159920692444
1757491483281232100,5.534232177734375,-0.025197358801960945,0.39353176951408386,0.2348533719778061
1757491483291272400,5.5442724609375,-0.045481812208890915,0.5156714916229248,0.1536322683095932
1757491483301309200,5.55430908203125,-0.013556278310716152,0.5846520066261292,0.09093032032251358
1757491483311353600,5.564353515625,0.08578426390886307,0.5948774814605713,0.08000535517930984
1757491483321398000,5.57439794921875,0.24497893452644348,0.5547748804092407,0.133914053440094
1757491483331409200,5.5844091796875,0.4352664649486542,0.4685409665107727,0.24111522734165192
1757491483341472300,5.59447216796875,0.5803053379058838,0.3088799715042114,0.38427218794822693
1757491483351513900,5.604513916015625,0.6098660230636597,0.0061785988509655,0.4935051500797272
1757491483361553400,5.614553466796875,0.4937882721424103,-0.33339452743530273,0.5212838649749756
1757491483371594000,5.624593994140625,0.29354172945022583,-0.5152551531791687,0.4970857501029968
1757491483381638700,5.634638671875,0.09502717852592468,-0.4978185296058655,0.4559839069843292
1757491483391679700,5.6446796875,-0.03182561323046684,-0.3355262279510498,0.4243747889995575
1757491483401718000,5.654718017578125,-0.08588418364524841,-0.1307831108570099,0.40045979619026184
1757491483411758600,5.664758544921875,-0.1100323498249054,0.0296772588044405,0.35479480028152466
1757491483421797600,5.674797607421875,-0.13411389291286469,0.1256537139415741,0.2796357274055481
1757491483431859000,5.68485888671875,-0.14177469909191132,0.17395003139972687,0.19108690321445465
1757491483441879300,5.69487939453125,-0.10433671623468399,0.19145329296588898,0.12180665880441666
1757491483451923000,5.7049228515625,-0.02371516078710556,0.2148020714521408,0.06603273004293442
1757491483461964500,5.714964599609375,0.06743165850639343,0.28389912843704224,0.021233728155493736
1757491483472003300,5.72500341796875,0.1244712844491005,0.36410433053970337,0.02263265661895275
1757491483482043600,5.735043701171875,0.13959303498268127,0.40690484642982483,0.06736504286527634
1757491483492084200,5.745084228515625,0.12287250906229019,0.3808581531047821,0.1182260736823082
1757491483502205200,5.755205078125,0.08704996109008789,0.2923260033130646,0.1552976667881012
1757491483512193800,5.76519384765625,0.05374215170741081,0.18427546322345734,0.17429976165294647
1757491483522208500,5.77520849609375,0.03502316027879715,0.09281221032142639,0.18664030730724335
1757491483532250400,5.78525048828125,0.03210872784256935,0.015438170172274113,0.2029944509267807
1757491483542291000,5.795291015625,0.04841290041804314,-0.07312729954719543,0.22307905554771423
1757491483552331800,5.805331787109375,0.07382676005363464,-0.16072683036327362,0.23765122890472412
1757491483562368500,5.815368408203125,0.10576894879341125,-0.22456125915050507,0.23432044684886932
1757491483572412000,5.825411865234375,0.13604575395584106,-0.2594511806964874,0.22076416015625
1757491483582450200,5.8354501953125,0.15781240165233612,-0.2673617899417877,0.20837365090847015
1757491483592491000,5.845490966796875,0.17318396270275116,-0.26503023505210876,0.20775745809078217
1757491483602533000,5.855533203125,0.18074482679367065,-0.2541385889053345,0.205775648355484
1757491483612583400,5.86558349609375,0.18142764270305634,-0.2509576976299286,0.19836466014385223
1757491483622613000,5.875613037109375,0.17986217141151428,-0.2540053427219391,0.19155322015285492
1757491483632657400,5.885657470703125,0.17241787910461426,-0.2554042935371399,0.18479172885417938
1757491483642698500,5.895698486328125,0.16109322011470795,-0.25676989555358887,0.17691442370414734
1757491483652739000,5.905739013671875,0.14742036163806915,-0.24431277811527252,0.15491461753845215
1757491483662780000,5.91577978515625,0.12247281521558762,-0.21761657297611237,0.1306498795747757
1757491483672816600,5.925816650390625,0.09377814084291458,-0.2070246934890747,0.11577794700860977
1757491483682857200,5.935857177734375,0.08568433672189713,-0.21786637604236603,0.09123008698225021
1757491483692902000,5.94590185546875,0.07369352877140045,-0.20684149861335754,0.08771611750125885
1757491483702942700,5.955942626953125,0.0518602579832077,-0.21435241401195526,0.0983746126294136
1757491483712983300,5.9659833984375,0.03638878092169762,-0.23501990735530853,0.10636848956346512
1757491483723024400,5.9760244140625,0.029494065791368484,-0.2595177888870239,0.11442898213863373
1757491483733064700,5.986064697265625,0.030193530023097992,-0.27633824944496155,0.11795961111783981
1757491483743102200,5.996102294921875,0.03197549656033516,-0.2719915807247162,0.10916634649038315
1757491483753147000,6.00614697265625,0.028944486752152443,-0.24757695198059082,0.09367821365594864
1757491483763187200,6.016187255859375,0.023948315531015396,-0.2015955150127411,0.08187059313058853
1757491483773228300,6.026228271484375,0.02028445526957512,-0.14836964011192322,0.08173736184835434
1757491483783268600,6.0362685546875,0.01920195296406746,-0.12144027650356293,0.09314528852701187
1757491483793309700,6.046309814453125,0.023531967774033546,-0.13949310779571533,0.11874233931303024
1757491483803350800,6.056350830078125,0.030909648165106773,-0.15927794575691223,0.14070884883403778
1757491483813388000,6.066387939453125,0.03357427194714546,-0.15421515703201294,0.15496458113193512
1757491483823428600,6.0764287109375,0.015438170172274113,-0.088515505194664,0.16292515397071838
1757491483833468400,6.086468505859375,0.017103560268878937,-0.12423813343048096,0.13404728472232819
1757491483843510800,6.0965107421875,0.018735643476247787,-0.12560375034809113,0.11757656931877136
1757491483853551600,6.106551513671875,-0.0017486599972471595,-0.13021688163280487,0.10706795752048492
1757491483863594800,6.1165947265625,-0.02363189123570919,-0.13554613292217255,0.09697568416595459
1757491483873635600,6.126635498046875,-0.03737136349081993,-0.1327982395887375,0.09539356827735901
1757491483883672300,6.13667236328125,-0.04396630823612213,-0.12417151778936386,0.10456986725330353
1757491483893717000,6.146717041015625,-0.04599808529019356,-0.1141292080283165,0.10971592366695404
1757491483903758000,6.156758056640625,-0.04566500708460808,-0.09915734827518463,0.11286351084709167
1757491483913798100,6.166798095703125,-0.04433269426226616,-0.08658365160226822,0.11647740751504898
1757491483923839000,6.1768388671875,-0.04626454785466194,-0.08370252698659897,0.12472109496593475
1757491483933879300,6.18687939453125,-0.045864854007959366,-0.06313495337963104,0.13354766368865967
1757491483943920600,6.196920654296875,-0.05858843773603439,-0.009426110424101353,0.15837863087654114
1757491483953957600,6.20695751953125,-0.036588627845048904,-0.10092266649007797,0.1443393975496292
1757491483964001800,6.217001708984375,-0.008893185295164585,-0.1453719288110733,0.14100861549377441
1757491483974042600,6.227042724609375,0.00609532929956913,-0.16019390523433685,0.13353100419044495
1757491483984084000,6.237083984375,0.009592649526894093,-0.14823640882968903,0.12174004316329956
1757491483994124000,6.2471240234375,0.0018818912794813514,-0.11729345470666885,0.12253943085670471
1757491484004160800,6.257160888671875,-0.010325420647859573,-0.09292878955602646,0.13328120112419128
1757491484014205700,6.267205810546875,-0.024697741493582726,-0.10097262263298035,0.1489858329296112
1757491484024246800,6.277246826171875,-0.038220711052417755,-0.13637882471084595,0.16059359908103943
1757491484034287400,6.287287353515625,-0.04787997528910637,-0.1480199098587036,0.16054363548755646
1757491484044328200,6.297328125,-0.05527431145310402,-0.12976722419261932,0.1471872180700302
1757491484054368800,6.30736865234375,-0.05570731312036514,-0.10287117213010788,0.13561274111270905
1757491484064408000,6.317407958984375,-0.05622358247637749,-0.07369352877140045,0.12970061600208282
1757491484074446000,6.327446044921875,-0.05250976234674454,-0.04593146964907646,0.1287180334329605
1757491484084487700,6.33748779296875,-0.048696018755435944,-0.029027756303548813,0.1374613344669342
1757491484094528500,6.347528564453125,-0.04591481387615204,-0.03610566630959511,0.15511447191238403
1757491484104574000,6.357573974609375,-0.042184341698884964,-0.06091998517513275,0.16762155294418335
1757491484114609200,6.367609130859375,-0.04904574900865555,-0.08473506569862366,0.17051933705806732
1757491484124653800,6.37765380859375,-0.06050363555550575,-0.12074080854654312,0.17281757295131683
1757491484134694400,6.3876943359375,-0.08252009749412537,-0.15729613602161407,0.17406661808490753
1757491484144735200,6.3977353515625,-0.10387040674686432,-0.1555807739496231,0.18136101961135864
1757491484154776000,6.407776123046875,-0.10298774391412735,-0.12557044625282288,0.19568337500095367
1757491484164817000,6.41781689453125,-0.09502717852592468,-0.08346936851739883,0.20462653040885925
1757491484174857500,6.427857421875,-0.09264567494392395,-0.07316060364246368,0.21053867042064667
1757491484184894200,6.437894287109375,-0.10943280905485153,-0.0823369026184082,0.21913208067417145
1757491484194939000,6.44793896484375,-0.1482197493314743,-0.12910106778144836,0.22606010735034943
1757491484204954400,6.457954345703125,-0.20600880682468414,-0.1727343052625656,0.21838265657424927
1757491484214995200,6.4679951171875,-0.25670328736305237,-0.192019522190094,0.19614969193935394
1757491484225036500,6.47803662109375,-0.28389912843704224,-0.17919601500034332,0.17724750936031342
1757491484235083300,6.488083251953125,-0.2847817838191986,-0.1732172667980194,0.18192724883556366
1757491484245142500,6.498142578125,-0.2669121325016022,-0.14763686060905457,0.20480972528457642
1757491484255178800,6.5081787109375,-0.2518570125102997,-0.105735644698143,0.21248717606067657
1757491484265224400,6.518224365234375,-0.2458949089050293,-0.10613533854484558,0.2113880068063736
1757491484275265300,6.528265380859375,-0.242630735039711,-0.11992476880550385,0.21650075912475586
1757491484285306000,6.53830615234375,-0.23858384788036346,-0.15491461753845215,0.2325051724910736
1757491484295346400,6.548346435546875,-0.227642223238945,-0.16144295036792755,0.2411651909351349
1757491484305389000,6.55838916015625,-0.21037212014198303,-0.11719352751970291,0.23498660326004028
1757491484315424800,6.5684248046875,-0.18254345655441284,-0.06230225786566734,0.23397070169448853
1757491484325464600,6.578464599609375,-0.14753694832324982,-0.03620558977127075,0.2372182160615921
1757491484335506000,6.588505859375,-0.10422013700008392,-0.06551646441221237,0.23477008938789368
1757491484345548500,6.598548583984375,-0.0531093031167984,-0.13674521446228027,0.2238951027393341
1757491484355591000,6.6085908203125,0.00004996171628590673,-0.22877469658851624,0.20662499964237213
1757491484365631700,6.6186318359375,0.04378311708569527,-0.27460622787475586,0.18067821860313416
1757491484375672600,6.628672607421875,0.0873996913433075,-0.22945749759674072,0.13736140727996826
1757491484385713000,6.638712890625,0.12047434598207474,-0.06156948581337929,0.08546783775091171
1757491484395754000,6.64875390625,0.1186424195766449,0.14702066779136658,0.050328101962804794
1757491484405794300,6.658794189453125,0.09939050674438477,0.32728254795074463,0.026163283735513687
1757491484415831000,6.6688310546875,0.09412787109613419,0.4530028700828552,0.008043835870921612
1757491484425876000,6.6788759765625,0.09259571135044098,0.5527763962745667,0.014355666004121304
1757491484435917000,6.6889169921875,0.07634150236845016,0.6629253625869751,0.032125383615493774
1757491484445957600,6.69895751953125,0.021733345463871956,0.7655633687973022,0.040935296565294266
1757491484455998200,6.708998291015625,-0.036555320024490356,0.835376501083374,0.011241385713219643
1757491484466040000,6.7190400390625,-0.07765715569257736,0.9079875349998474,-0.040602218359708786
1757491484476077800,6.729077880859375,-0.08262002468109131,0.9738537669181824,-0.10390371084213257
1757491484486116600,6.73911669921875,-0.06964662671089172,1.0001336336135864,-0.1803617924451828
1757491484496157400,6.749157470703125,-0.06628254055976868,1.0179699659347534,-0.2198648452758789
1757491484506197800,6.75919775390625,-0.0687972828745842,0.9347503781318665,-0.24592821300029755
1757491484516240100,6.769240234375,-0.09722549468278885,0.848966121673584,-0.2758719325065613
1757491484526282200,6.7792822265625,-0.1492522954940796,0.7724913954734802,-0.30298447608947754
1757491484536324400,6.789324462890625,-0.21142132580280304,0.7012792825698853,-0.3278154730796814
1757491484546366200,6.7993662109375,-0.3061487376689911,0.7082406282424927,-0.2928089499473572
1757491484556401700,6.809401611328125,-0.3508811295032501,0.6462880969047546,-0.21949847042560577
1757491484566442800,6.81944287109375,-0.3321787714958191,0.5545916557312012,-0.11053196340799332
1757491484576483800,6.82948388671875,-0.2878294289112091,0.5371883511543274,-0.030193530023097992
1757491484586526500,6.8395263671875,-0.2197149693965912,0.5520936250686646,-0.015521439723670483
1757491484596579800,6.849579833984375,-0.13914337754249573,0.39726224541664124,-0.024747703224420547
1757491484606609700,6.859609619140625,-0.11945845931768417,0.33922338485717773,-0.019052067771553993
1757491484616650000,6.86964990234375,-0.11970826983451843,0.3822570741176605,-0.022399501875042915
1757491484626686700,6.879686767578125,-0.09935719519853592,0.5828034281730652,-0.046980664134025574
1757491484636726800,6.889726806640625,-0.08265332877635956,0.49420464038848877,-0.08786600083112717
1757491484646772500,6.8997724609375,-0.09870769083499908,0.37761062383651733,-0.1464044749736786
1757491484656812800,6.909812744140625,-0.10508614033460617,0.4326517879962921,-0.22474443912506104
1757491484666853400,6.919853271484375,-0.12463782727718353,0.5482298731803894,-0.2845819294452667
1757491484676894700,6.929894775390625,-0.15233327448368073,0.7729910016059875,-0.3271160125732422
1757491484686935300,6.939935302734375,-0.1585618257522583,0.5200015306472778,-0.4094529151916504
1757491484696971800,6.9499716796875,-0.18137767910957336,0.4102023243904114,-0.4817308485507965
1757491484707012600,6.9600126953125,-0.19385145604610443,0.47045615315437317,-0.535040020942688
1757491484717057300,6.970057373046875,-0.20585891604423523,0.541968047618866,-0.578540027141571
1757491484727097900,6.980097900390625,-0.24296382069587708,0.5913968086242676,-0.6204912066459656
1757491484737139200,6.99013916015625,-0.312560498714447,0.5670821070671082,-0.6377113461494446
1757491484747179800,7.0001796875,-0.37562882900238037,0.4770177900791168,-0.6651236414909363
1757491484757219800,7.0102197265625,-0.38941824436187744,0.4021751582622528,-0.732538640499115
1757491484767257300,7.02025732421875,-0.3566933274269104,0.40943625569343567,-0.8315627574920654
1757491484777302000,7.030302001953125,-0.33750802278518677,0.4382475018501282,-0.8948975801467896
1757491484787342600,7.040342529296875,-0.35133078694343567,0.49223947525024414,-0.9247580170631409
1757491484797383200,7.050383056640625,-0.35109761357307434,0.3880693018436432,-1.0012160539627075
1757491484807421700,7.060421630859375,-0.351830393075943,0.30464988946914673,-1.0144559144973755
1757491484817460500,7.07046044921875,-0.3236519992351532,0.2868468463420868,-1.021350622177124
1757491484827501800,7.080501708984375,-0.2839990258216858,0.49002450704574585,-1.0747431516647339
1757491484837542000,7.0905419921875,-0.17351703345775604,0.6228060722351074,-1.131799340248108
1757491484847586800,7.1005869140625,-0.01227392815053463,0.7340375185012817,-1.0382710695266724
1757491484857623600,7.11062353515625,0.16768816113471985,0.7718251943588257,-0.8576927781105042
1757491484867668500,7.12066845703125,0.3822237551212311,0.6512842774391174,-0.6749327778816223
1757491484877708800,7.130708740234375,0.6022385358810425,0.37421324849128723,-0.48223045468330383
1757491484887749600,7.14074951171875,0.8159247636795044,0.019984684884548187,-0.30966269969940186
1757491484897786000,7.1507861328125,1.0523102283477783,-0.16424080729484558,-0.1274523288011551
1757491484907831300,7.160831298828125,1.2327053546905518,0.18435873091220856,0.14843624830245972
1757491484917871600,7.17087158203125,1.3029682636260986,0.37403005361557007,0.3777938187122345
1757491484927908900,7.180908935546875,1.3517475128173828,0.036338821053504944,0.6078508496284485
1757491484937953300,7.190953369140625,1.369250774383545,0.028877871111035347,0.83126300573349
1757491484947994400,7.200994384765625,1.4247915744781494,0.061186447739601135,1.0144559144973755
1757491484958030800,7.21103076171875,1.5287951231002808,0.04003598541021347,1.1656068563461304
1757491484968075300,7.2210751953125,1.622523307800293,0.10025651007890701,1.2711925506591797
1757491484978116400,7.231116455078125,1.612097978591919,0.1261366754770279,1.3310467004776
1757491484988157200,7.2411572265625,1.5770082473754883,0.26711198687553406,1.2691107988357544
1757491484998193700,7.251193603515625,1.5626858472824097,0.5325585603713989,1.0642178058624268
1757491485008238300,7.26123828125,1.4276559352874756,0.44176149368286133,0.833244800567627
1757491485018279000,7.27127880859375,1.2023286819458008,0.3773774802684784,0.6672886610031128
1757491485028316000,7.28131591796875,1.0419682264328003,0.5708292126655579,0.4807316064834595
1757491485038361000,7.291361083984375,0.913866400718689,0.6724846959114075,0.3892017602920532
1757491485048407000,7.301406982421875,0.7885790467262268,0.5913801789283752,0.3651701807975769
1757491485058438100,7.311438232421875,0.6827768087387085,0.4954037070274353,0.3183560371398926
1757491485068479000,7.32147900390625,0.5292111039161682,0.31973832845687866,0.2283250391483307
1757491485078522000,7.331522216796875,0.25855186581611633,-0.08793261647224426,0.09314528852701187
1757491485088560000,7.34156005859375,-0.09915734827518463,-0.5648338198661804,-0.05915467068552971
1757491485098605300,7.351605224609375,-0.5048964619636536,-0.8461849093437195,-0.18635720014572144
1757491485108646100,7.361646240234375,-0.943227231502533,-0.8725313544273376,-0.3876529335975647
1757491485118686700,7.371686767578125,-1.4007599353790283,-0.7888288497924805,-0.722246527671814
1757491485128727300,7.381727294921875,-1.836509346961975,-0.7465612292289734,-1.0806052684783936
1757491485138768000,7.391767822265625,-2.2114219665527344,-0.6873233318328857,-1.3658367395401
1757491485148808200,7.40180810546875,-2.4318530559539795,-0.3039171099662781,-1.508793830871582
1757491485158845200,7.41184521484375,-2.5419187545776367,0.22134704887866974,-1.5895153284072876
1757491485168890000,7.42189013671875,-2.630600929260254,0.6323320865631104,-1.7424980401992798
1757491485178930400,7.431930419921875,-2.719132900238037,0.8569433093070984,-1.9985018968582153
1757491485188971500,7.441971435546875,-2.790311813354492,0.9554345011711121,-2.2796196937561035
1757491485199012000,7.45201220703125,-2.8290653228759766,0.9721384048461914,-2.4570837020874023
1757491485209053000,7.462052978515625,-2.8321797847747803,1.0179033279418945,-2.4518046379089355
1757491485219089700,7.472089599609375,-2.8313469886779785,1.1319825649261475,-2.307997941970825
1757491485229130800,7.482130859375,-2.848050832748413,1.2223966121673584,-2.1164448261260986
1757491485239175400,7.492175537109375,-2.92206072807312,1.1793296337127686,-1.9193958044052124
1757491485249215500,7.502215576171875,-3.0849859714508057,0.949056088924408,-1.7191659212112427
1757491485259256300,7.51225634765625,-3.3646883964538574,0.7201648354530334,-1.570180058479309
1757491485269297200,7.522297119140625,-3.7101235389709473,0.4430438280105591,-1.4859280586242676
1757491485279334100,7.532334228515625,-3.980299949645996,0.17942917346954346,-1.5003169775009155
1757491485289378800,7.54237890625,-4.0444841384887695,-0.08938150852918625,-1.565933346748352
1757491485299415000,7.5524150390625,-3.922027826309204,-0.459231436252594,-1.5913139581680298
1757491485309456100,7.5624560546875,-3.760085344314575,-0.925174355506897,-1.56443452835083
1757491485319497500,7.57249755859375,-3.598625659942627,-1.420911192893982,-1.5121079683303833
1757491485329539000,7.5825390625,-3.4274234771728516,-1.8038510084152222,-1.4631121158599854
1757491485339582700,7.592582763671875,-3.2143869400024414,-2.0115251541137695,-1.4498223066329956
1757491485349619200,7.602619140625,-2.9809489250183105,-2.1982154846191406,-1.435333490371704
1757491485359663900,7.612663818359375,-2.797523021697998,-2.2432310581207275,-1.382707118988037
1757491485369700600,7.62270068359375,-2.6499693393707275,-2.176215648651123,-1.2909940481185913
1757491485379745500,7.63274560546875,-2.4320363998413086,-2.1045539379119873,-1.1954172849655151
1757491485389785600,7.64278564453125,-2.1978158950805664,-1.8825573921203613,-1.0680649280548096
1757491485399827000,7.652826904296875,-2.0079612731933594,-1.5086272954940796,-0.8969959616661072
1757491485419908400,7.672908447265625,-1.5496958494186401,-1.1716022491455078,-0.5155882239341736
1757491485429949000,7.682948974609375,-1.327316164970398,-1.0903977155685425,-0.31875574588775635
1757491485439985400,7.6929853515625,-1.0992909669876099,-0.9734207391738892,-0.1232222393155098
1757491485450030000,7.703030029296875,-0.8519138693809509,-0.9153485894203186,0.06205245107412338
1757491485460045000,7.713045166015625,-0.6248878240585327,-0.8314461708068848,0.24849291145801544
1757491485470098000,7.723097900390625,-0.42517417669296265,-0.7385507225990295,0.4061054587364197
1757491485480147000,7.73314697265625,-0.25357234477996826,-0.6557474732398987,0.5353397727012634
1757491485490192600,7.743192626953125,-0.1678047478199005,-0.5176366567611694,0.6311996579170227
1757491485500233000,7.75323291015625,-0.12580358982086182,-0.3972455859184265,0.7229293584823608
1757491485510272000,7.76327197265625,-0.10250478237867355,-0.2707591950893402,0.8127771615982056
1757491485520314600,7.773314697265625,-0.06736504286527634,-0.1711188703775406,0.8718152642250061
1757491485530352600,7.7833525390625,-0.0448489673435688,-0.14393970370292664,0.8813579678535461
1757491485540392200,7.79339208984375,-0.04188457131385803,-0.2166006863117218,0.8932321667671204
1757491485550436600,7.8034365234375,-0.02696267142891884,-0.3413384258747101,0.9415951371192932
1757491485560477400,7.8134775390625,0.04608135297894478,-0.4697900116443634,1.0050297975540161
1757491485570518500,7.8235185546875,0.15208345651626587,-0.4865271747112274,1.0479469299316406
1757491485580557300,7.833557373046875,0.2835160791873932,-0.43053674697875977,1.0708627700805664
1757491485590600000,7.843599853515625,0.43719831109046936,-0.3668855130672455,1.0970759391784668
1757491485600636400,7.853636474609375,0.648919403553009,-0.3142258822917938,1.1212241649627686
1757491485610681000,7.86368115234375,0.9191623330116272,-0.33429384231567383,1.0948610305786133
1757491485620722200,7.87372216796875,1.1774977445602417,-0.4612298905849457,1.1036043167114258
1757491485630762200,7.88376220703125,1.3634718656539917,-0.5519936680793762,1.256403923034668
1757491485640803300,7.89380322265625,1.5246483087539673,-0.561319887638092,1.4659099578857422
1757491485650841600,7.903841552734375,1.6800625324249268,-0.40407368540763855,1.7496259212493896
1757491485660886300,7.91388623046875,1.7699103355407715,0.08620060980319977,2.0412192344665527
1757491485670921700,7.923921630859375,1.7693108320236206,0.8132435083389282,2.1917037963867188
1757491485680962000,7.933962158203125,1.7466448545455933,1.4839128255844116,2.200713634490967
1757491485691004000,7.94400390625,1.6844592094421387,1.4745367765426636,2.1734678745269775
1757491485701045500,7.95404541015625,1.5475974082946777,0.7757055759429932,2.0613536834716797
1757491485711088000,7.964088134765625,1.4170807600021362,0.40733784437179565,1.827999234199524
1757491485721127200,7.974127197265625,1.4251246452331543,0.4717218577861786,1.714103102684021
1757491485731167200,7.984167236328125,1.5512778759002686,0.5854180455207825,1.7305904626846313
1757491485741211000,7.9942109375,1.6840095520019531,0.596509575843811,1.659361720085144
1757491485751251200,8.004251220703125,1.7378183603286743,0.507044792175293,1.5501455068588257
1757491485761289700,8.014289794921876,1.7297577857971191,0.26592954993247986,1.4729212522506714
1757491485771332600,8.02433251953125,1.6642580032348633,0.14583824574947357,1.382956862449646
1757491485781373000,8.034373046875,1.569031000137329,0.14402297139167786,1.2935254573822021
1757491485791414300,8.044414306640626,1.4978522062301636,-0.024281393736600876,1.2231626510620117
1757491485801452800,8.054452880859374,1.4837462902069092,-0.28633058071136475,1.1409257650375366
1757491485811493000,8.0644931640625,1.5349904298782349,-0.4863772988319397,1.0655667781829834
1757491485821536500,8.07453662109375,1.6290349960327148,-0.63169926404953,1.038304328918457
1757491485831574300,8.08457421875,1.7044938802719116,-0.6863573789596558,1.058622121810913
1757491485841618000,8.094617919921875,1.742098331451416,-0.7074579000473022,1.0708293914794922
1757491485851658200,8.104658203125,1.7821177244186401,-0.7939082980155945,1.0744266510009766
1757491485861694700,8.11469482421875,1.8234527111053467,-0.8434370160102844,1.0855681896209717
1757491485871740000,8.124739990234374,1.856544017791748,-0.9334180355072021,1.078723430633545
1757491485881778400,8.1347783203125,1.8422882556915283,-1.1014893054962158,1.0554745197296143
1757491485891821600,8.144821533203125,1.7637817859649658,-1.2588520050048828,1.0416851043701172
1757491485901862100,8.154862060546876,1.6217739582061768,-1.4175970554351807,1.0243650674819946
1757491485911903200,8.1649033203125,1.4594649076461792,-1.531559705734253,0.9770679473876953
1757491485921939700,8.174939697265625,1.2617331743240356,-1.3605906963348389,0.9590817093849182
1757491485931980000,8.18497998046875,1.0726447105407715,-1.1077178716659546,0.9817476868629456
1757491485942023200,8.195023193359376,0.9070549011230469,-1.068481206893921,0.9956037402153015
1757491485952063700,8.205063720703125,0.7415151000022888,-0.909819483757019,0.9736039042472839
1757491485962105900,8.21510595703125,0.6117146015167236,-0.7779039144515991,0.9564337730407715
1757491485972147000,8.22514697265625,0.5351565480232239,-0.5473805665969849,0.9523702263832092
1757491485982187500,8.2351875,0.4649770259857178,-0.18444199860095978,0.9197452068328857
1757491485992224500,8.245224609375,0.4752025306224823,-0.2969391345977783,0.7939249277114868
1757491486002269000,8.25526904296875,0.5439332127571106,-0.535173237323761,0.6836927533149719
1757491486012309500,8.2653095703125,0.611115038394928,-0.4236253798007965,0.6544485092163086
1757491486022349300,8.275349365234375,0.5700132250785828,0.050794411450624466,0.6352132558822632
1757491486032391000,8.285390869140626,0.5497453808784485,0.006977986078709364,0.5453987121582031
1757491486042431700,8.295431640625,0.5508944988250732,-0.1114978939294815,0.47906622290611267
1757491486052470300,8.30547021484375,0.5376213788986206,-0.008793261833488941,0.46349483728408813
1757491486062511000,8.315510986328125,0.5321089029312134,-0.09877430647611618,0.47446975111961365
1757491486072554000,8.325553955078124,0.5373049378395081,-0.2548713684082031,0.4890918731689453
1757491486082594600,8.335594482421875,0.5457984209060669,-0.18322625756263733,0.4983347952365875
1757491486092635600,8.3456357421875,0.5657498240470886,-0.10382044315338135,0.5399528741836548
1757491486102676200,8.35567626953125,0.593545138835907,-0.04822970926761627,0.5650503635406494
1757491486112716500,8.365716552734375,0.6430239081382751,-0.018485834822058678,0.6087002158164978
1757491486122755800,8.375755859375,0.7277089953422546,-0.0054458267986774445,0.6421579122543335
1757491486132796000,8.3857958984375,0.8144092559814453,0.09659264981746674,0.6324153542518616
1757491486142839300,8.39583935546875,0.8475505113601685,0.3123273253440857,0.6165275573730469
1757491486152881000,8.405880859375,0.838674008846283,0.3741133213043213,0.5996404886245728
1757491486162918100,8.415918212890626,0.8436201810836792,0.20872339606285095,0.5540754199028015
1757491486172957400,8.42595751953125,0.7748229503631592,0.13791099190711975,0.4921894967556
1757491486182998500,8.43599853515625,0.6482032537460327,-0.03986944630742073,0.40449005365371704
1757491486193040100,8.4460400390625,0.5212505459785461,-0.27508920431137085,0.33277833461761475
1757491486203081500,8.45608154296875,0.3550446033477783,-0.2867136299610138,0.24546189606189728
1757491486213123800,8.466123779296876,0.2295074611902237,-0.38587096333503723,0.15429842472076416
1757491486223164700,8.47616455078125,0.15949444472789764,-0.5702130198478699,0.07207810133695602
1757491486233205200,8.486205322265626,0.08291979134082794,-0.7238286733627319,-0.06253541260957718
1757491486243244300,8.496244384765625,-0.0473470501601696,-0.8508646488189697,-0.2799188196659088
1757491486253284600,8.50628466796875,-0.252223402261734,-0.9809982776641846,-0.556373655796051
1757491486263327700,8.51632763671875,-0.5113415122032166,-1.0494624376296997,-0.8732974529266357
1757491486273366800,8.52636669921875,-0.7846153974533081,-1.0938118696212769,-1.1726181507110596
1757491486283409000,8.536408935546875,-1.0544919967651367,-1.1198418140411377,-1.4212442636489868
1757491486293450000,8.546449951171875,-1.3371087312698364,-1.0599377155303955,-1.6288851499557495
1757491486303490300,8.556490234375,-1.61299729347229,-0.9419615268707275,-1.7833667993545532
1757491486313528800,8.56652880859375,-1.8966965675354004,-0.7587685585021973,-1.883906364440918
1757491486323569400,8.5765693359375,-2.2061262130737305,-0.5258137583732605,-1.9159650802612305
1757491486333610200,8.5866103515625,-2.5032150745391846,-0.24399636685848236,-1.8751963376998901
1757491486343651800,8.59665185546875,-2.767179489135742,0.08675018697977066,-1.7962568998336792
1757491486353691600,8.606691650390625,-3.007495403289795,0.36172282695770264,-1.7214142084121704
1757491486363733200,8.616733154296876,-3.206342935562134,0.4629952013492584,-1.7004302740097046
1757491486373772500,8.6267724609375,-3.310379981994629,0.3391401171684265,-1.7370189428329468
1757491486383816000,8.63681591796875,-3.2657806873321533,-0.06265199184417725,-1.7460952997207642
1757491486393855500,8.64685546875,-3.104454278945923,-0.4860275685787201,-1.659428358078003
1757491486403898600,8.656898681640625,-2.9245755672454834,-0.6129302978515625,-1.453069806098938
1757491486413934600,8.6669345703125,-2.849649667739868,-0.5084770321846008,-1.126053810119629
1757491486423975200,8.67697509765625,-2.9205453395843506,-0.5320423245429993,-0.7898447513580322
1757491486434022100,8.687022216796874,-3.0988752841949463,-0.8685178160667419,-0.6484031081199646
1757491486444063000,8.69706298828125,-3.2682955265045166,-1.341272234916687,-0.7263267636299133
1757491486454100000,8.707099853515626,-3.328566074371338,-1.6941018104553223,-0.8571098446846008
1757491486464126700,8.717126708984376,-3.2861485481262207,-1.8377749919891357,-0.9416950345039368
1757491486474156800,8.72715673828125,-3.183760404586792,-1.8937488794326782,-0.9528365135192871
1757491486484197600,8.73719775390625,-3.046199083328247,-1.9189295768737793,-0.9062222242355347
1757491486494239000,8.747239013671875,-2.8887696266174316,-1.8419551849365234,-0.8377913236618042
1757491486504279600,8.757279541015626,-2.741898775100708,-1.7130372524261475,-0.7630819082260132
1757491486514342700,8.7673427734375,-2.6103997230529785,-1.5229662656784058,-0.6884890794754028
1757491486524383700,8.7773837890625,-2.4701571464538574,-1.6198087930679321,-0.5918630957603455
1757491486534413600,8.78741357421875,-2.339923620223999,-1.6880065202713013,-0.5556908249855042
1757491486544467200,8.79746728515625,-2.1875903606414795,-1.585601568222046,-0.5741267204284668
1757491486554504700,8.807504638671874,-1.9966533184051514,-1.513740062713623,-0.5620359778404236
1757491486564547000,8.817547119140626,-1.7779209613800049,-1.595760464668274,-0.5163543224334717
1757491486574586600,8.827586669921875,-1.5971927642822266,-1.476118803024292,-0.49960049986839294
1757491486584628200,8.837628173828126,-1.4459919929504395,-1.307098388671875,-0.4513208270072937
1757491486594692600,8.847692626953124,-1.2714589834213257,-1.190337896347046,-0.3825235366821289
1757491486604724200,8.85772412109375,-1.1229228973388672,-1.0990910530090332,-0.2721414566040039
1757491486614752000,8.867751953125,-0.9805652499198914,-1.06045401096344,-0.1194751113653183
1757491486624789000,8.8777890625,-0.8602907657623291,-0.9413453340530396,0.02213303931057453
1757491486634831400,8.887831298828125,-0.7483432292938232,-0.7799190282821655,0.15687978267669678
1757491486644874800,8.897874755859375,-0.569879949092865,-0.6585786938667297,0.23037347197532654
1757491486654916400,8.907916259765624,-0.433601051568985,-0.5226994752883911,0.32598352432250977
1757491486664951800,8.917951904296874,-0.31987154483795166,-0.4402293264865875,0.46209588646888733
1757491486674993000,8.927992919921875,-0.23065657913684845,-0.41921210289001465,0.6138463020324707
1757491486685034000,8.938033935546875,-0.15991079807281494,-0.3738301992416382,0.7367854118347168
1757491486695076000,8.948076171875,-0.1107318103313446,-0.26801130175590515,0.8137097954750061
1757491486705118500,8.958118408203125,-0.07144524902105331,-0.15716290473937988,0.853212833404541
1757491486715159300,8.9681591796875,-0.024731049314141273,-0.08964797109365463,0.8893518447875977
1757491486725200000,8.978199951171876,0.030909648165106773,-0.07166175544261932,0.9420781135559082
1757491486735238400,8.98823828125,0.11138131469488144,-0.08859877288341522,0.9820974469184875
1757491486745281300,8.99828125,0.22835834324359894,-0.11168108880519867,1.0163878202438354
1757491486755319800,9.00831982421875,0.40505626797676086,-0.11514509469270706,1.0442330837249756
1757491486765361000,9.01836083984375,0.6218234896659851,-0.1826600283384323,1.0600709915161133
1757491486775403500,9.028403564453125,0.8640212416648865,-0.2524232268333435,1.1130471229553223
1757491486785444000,9.038444091796874,1.0655168294906616,-0.35068127512931824,1.2825171947479248
1757491486795485000,9.04848486328125,1.2618663311004639,-0.36402106285095215,1.470306634902954
1757491486805523200,9.058523193359376,1.5043805837631226,-0.21996477246284485,1.667822003364563
1757491486815564000,9.06856396484375,1.6949012279510498,0.04003598541021347,1.7400832176208496
1757491486825607200,9.078607177734375,1.6994976997375488,0.511641263961792,1.520451545715332
1757491486835645400,9.0886455078125,1.6107823848724365,1.1684212684631348,1.2522071599960327
1757491486845688800,9.098688720703125,1.5056794881820679,1.190271258354187,1.2097562551498413
1757491486855729200,9.108729248046876,1.4199119806289673,0.6940181851387024,1.1330317258834839
1757491486865769700,9.118769775390625,1.3963133096694946,0.44357675313949585,0.9394967555999756
1757491486875808800,9.128808837890626,1.4741203784942627,0.5571730136871338,0.8076144456863403
1757491486885849300,9.138849365234375,1.566349744796753,0.7438300251960754,0.7613665461540222
1757491486895894800,9.148894775390625,1.6065022945404053,0.8508313298225403,0.748659610748291
1757491486905929000,9.158928955078125,1.623139500617981,0.8685011267662048,0.7829500436782837
1757491486915969300,9.16896923828125,1.6158617734909058,0.8396399021148682,0.8426043391227722
1757491486926010600,9.1790107421875,1.5977755784988403,0.8982616662979126,0.902874767780304
1757491486936058400,9.189058349609375,1.590631127357483,0.9975355863571167,0.9875099658966064
1757491486946093600,9.199093505859375,1.5953607559204102,1.0678483247756958,1.0825371742248535
1757491486956134100,9.209134033203124,1.587816596031189,1.0905476808547974,1.1514010429382324
1757491486966151700,9.219151611328124,1.5341743230819702,1.0290114879608154,1.1769148111343384
1757491486976213800,9.2292138671875,1.4355000257492065,0.8533793687820435,1.1547818183898926
1757491486986255400,9.23925537109375,1.3526967763900757,0.5438332557678223,1.1207411289215088
1757491486996297500,9.24929736328125,1.342504620552063,0.21037212014198303,1.1038874387741089
1757491487006336000,9.2593359375,1.4162813425064087,-0.04666424170136452,1.0975255966186523
1757491487016381700,9.269381591796876,1.534857153892517,-0.24466250836849213,1.0895150899887085
1757491487026420000,9.279419921875,1.6631921529769897,-0.437448114156723,1.0751761198043823
1757491487036458500,9.28945849609375,1.7541391849517822,-0.6813778877258301,1.0351567268371582
1757491487046499800,9.299499755859374,1.763015627861023,-0.9784002304077148,1.002431869506836
1757491487056542200,9.309542236328125,1.7099896669387817,-1.2571866512298584,0.9809483289718628
1757491487066584300,9.319584228515625,1.600023865699768,-1.4894086122512817,0.9824804663658142
1757491487076621600,9.32962158203125,1.469407320022583,-1.496236801147461,0.9896582961082458
1757491487086661600,9.33966162109375,1.3659032583236694,-1.41862952709198,1.0036975145339966
1757491487096706600,9.34970654296875,1.3009530305862427,-1.3490828275680542,0.9903577566146851
1757491487106747100,9.3597470703125,1.2347038984298706,-1.460564136505127,0.9794161319732666
1757491487116787700,9.36978759765625,1.1611768007278442,-1.5090103149414062,1.0000170469284058
1757491487126828800,9.379828857421876,1.0656167268753052,-1.3376915454864502,1.018619418144226
1757491487136865300,9.389865234375,0.9511544704437256,-1.2545886039733887,1.0210175514221191
1757491487146910200,9.39991015625,0.7949241995811462,-1.2770047187805176,1.020201563835144
1757491487156947200,9.409947265625,0.6562471389770508,-1.1707861423492432,1.008194088935852
1757491487166991400,9.419991455078126,0.5997071266174316,-0.9050231575965881,0.9634950160980225
1757491487177032200,9.4300322265625,0.6419414281845093,-0.770559549331665,0.8798757791519165
1757491487187072800,9.44007275390625,0.7164843082427979,-0.9535026550292969,0.7932921051979065
1757491487197110300,9.4501103515625,0.7718085646629333,-0.9234090447425842,0.6947675943374634
1757491487207155000,9.460155029296875,0.8290480375289917,-0.8620560765266418,0.5754257440567017
1757491487217194500,9.470194580078125,0.8726979494094849,-0.7495922446250916,0.46600955724716187
1757491487227231500,9.4802314453125,0.8459017872810364,-0.6237220168113708,0.3623390197753906
1757491487237276700,9.490276611328126,0.7652136087417603,-0.31062862277030945,0.21401932835578918
1757491487247317200,9.500317138671875,0.6493690609931946,-0.21926531195640564,0.09369486570358276
1757491487257357300,9.510357421875,0.516370952129364,-0.45899826288223267,0.08276990801095963
1757491487267395000,9.52039501953125,0.3826734125614166,-0.4418613910675049,0.09980685263872147
1757491487277435000,9.530434814453125,0.26884397864341736,-0.3033175766468048,0.016520673409104347
1757491487287476200,9.540476318359374,0.19475075602531433,-0.27730417251586914,-0.07354364544153214
1757491487297516500,9.5505166015625,0.209855854511261,-0.2926757335662842,-0.056756507605314255
1757491487307558400,9.560558349609375,0.3408721387386322,-0.22807522118091583,0.013772779144346714
1757491487317602000,9.57060205078125,0.5154550075531006,-0.14180800318717957,0.10155551135540009
1757491487327638800,9.580638671875,0.6470874547958374,-0.06684877723455429,0.20221170783042908
1757491487337683000,9.590682861328125,0.724727988243103,0.006445060949772596,0.29750534892082214
1757491487347723800,9.600723876953126,0.797305703163147,0.10555244982242584,0.3894016146659851
1757491487357764600,9.6107646484375,0.8799423575401306,0.1984146237373352,0.45233669877052307
1757491487367805200,9.62080517578125,0.9858445525169373,0.03973621875047684,0.529344379901886
1757491487377845500,9.630845458984375,1.0570067167282104,-0.07470941543579102,0.5656998157501221
1757491487387883300,9.64088330078125,1.07645845413208,-0.18793931603431702,0.5773075819015503
1757491487397923300,9.65092333984375,1.0752593278884888,-0.4672086536884308,0.606784999370575
1757491487407967700,9.6609677734375,0.9903411269187927,-0.4849950075149536,0.5483464598655701
1757491487418008800,9.6710087890625,0.8543619513511658,-0.6220399737358093,0.4985179901123047
1757491487428049200,9.681049072265624,0.734387218952179,-0.8629387617111206,0.4343005418777466
1757491487438090200,9.69109033203125,0.6443062424659729,-0.9107853770256042,0.3364255428314209
1757491487448130000,9.701130126953124,0.5952771902084351,-0.777004599571228,0.20247817039489746
1757491487458167800,9.711167724609375,0.5646506547927856,-0.7329383492469788,0.028544792905449867
1757491487468212500,9.72121240234375,0.5072945952415466,-0.8835062980651855,-0.1441895067691803
1757491487478253000,9.731253173828126,0.29820480942726135,-1.0083273649215698,-0.3376079499721527
1757491487488293400,9.74129345703125,-0.15701301395893097,-1.1374117136001587,-0.5466644167900085
1757491487498334500,9.75133447265625,-0.7578192949295044,-1.3905510902404785,-0.7742233872413635
1757491487508375300,9.761375244140625,-1.3292980194091797,-1.5761421918869019,-0.9939883351325989
1757491487518411500,9.77141162109375,-1.805566430091858,-1.5741270780563354,-1.1703698635101318
1757491487528452400,9.781452392578124,-2.2184998989105225,-1.500683307647705,-1.2602509260177612
1757491487538493400,9.791493408203126,-2.5877504348754883,-1.4081876277923584,-1.2568535804748535
1757491487548535600,9.80153564453125,-2.8800597190856934,-1.2702265977859497,-1.1834931373596191
1757491487558578400,9.811578369140625,-3.093879222869873,-1.0242817401885986,-1.0713956356048584
1757491487568619300,9.821619384765626,-3.2534236907958984,-0.5910637378692627,-0.9712057709693909
1757491487578659800,9.831659912109375,-3.4062230587005615,0.052626337856054306,-0.9287049770355225
1757491487588696300,9.8416962890625,-3.578124761581421,0.6309331655502319,-0.9513376355171204
1757491487598737000,9.85173681640625,-3.706576347351074,0.5712788701057434,-1.086683988571167
1757491487608782300,9.8617822265625,-3.6507856845855713,-0.2025114893913269,-1.3524303436279297
1757491487618822400,9.871822509765625,-3.427290439605713,-0.934100866317749,-1.5894986391067505
1757491487628863000,9.881863037109374,-3.2086079120635986,-1.051261067390442,-1.5657001733779907
1757491487638903000,9.891903076171875,-3.012274980545044,-0.6299839019775391,-1.2474440336227417
1757491487648940800,9.90194091796875,-2.892366886138916,-0.19263571500778198,-0.8577260375022888
1757491487658985200,9.911985107421875,-2.942145347595215,-0.26050037145614624,-0.6275191307067871
1757491487669026000,9.922026123046875,-3.184126615524292,-0.6259703040122986,-0.6138962507247925
1757491487679066400,9.93206640625,-3.4454598426818848,-0.7996705770492554,-0.6739335656166077
1757491487689107500,9.942107421875,-3.4824814796447754,-0.8572264313697815,-0.6561971306800842
1757491487699147800,9.952147705078126,-3.281252145767212,-1.0458319187164307,-0.5490459203720093
1757491487709188400,9.962188232421875,-2.9879770278930664,-1.2998372316360474,-0.47994887828826904
1757491487719225300,9.972225341796875,-2.7420153617858887,-1.5445164442062378,-0.45786580443382263
1757491487729270000,9.98227001953125,-2.544600009918213,-1.7785204648971558,-0.4113847613334656
1757491487739310600,9.992310546875,-2.3578431606292725,-1.8385077714920044,-0.38798603415489197
1757491487749352000,10.00235205078125,-2.1252048015594482,-1.9762022495269775,-0.3713487684726715
1757491487759394000,10.01239404296875,-1.8651540279388428,-2.110532760620117,-0.3540786802768707
1757491487769429200,10.02242919921875,-1.6704033613204956,-2.0151891708374023,-0.37935930490493774
1757491487779469800,10.0324697265625,-1.4886425733566284,-1.8722819089889526,-0.3772442638874054
1757491487789511200,10.04251123046875,-1.3091301918029785,-1.6466381549835205,-0.2996203899383545
1757491487799553000,10.052552978515624,-1.1080342531204224,-1.353462815284729,-0.12756891548633575
1757491487809595600,10.062595703125,-0.9142327308654785,-0.950971245765686,0.08663361519575119
1757491487819637000,10.072636962890625,-0.6688041687011719,-0.6867237687110901,0.311694473028183
1757491487829651500,10.0826513671875,-0.4367986023426056,-0.5447992086410522,0.4831131398677826
1757491487839691000,10.09269091796875,-0.26841098070144653,-0.5596378445625305,0.5983248353004456
1757491487849744400,10.102744384765625,-0.17371688783168793,-0.6822105646133423,0.6767314076423645
1757491487859798000,10.112798095703125,-0.14660432934761047,-0.7583022713661194,0.7294243574142456
1757491487869839400,10.12283935546875,-0.13241519033908844,-0.7235788702964783,0.7773043513298035
1757491487879879400,10.13287939453125,0.03302469477057457,-0.7695602774620056,0.7447126507759094
1757491487889918000,10.14291796875,0.21543490886688232,-0.9050564765930176,0.6570631861686707
1757491487899957800,10.152957763671875,0.3904341459274292,-1.052160382270813,0.6182262301445007
1757491487909998300,10.162998291015626,0.6276690363883972,-1.0696803331375122,0.7069582343101501
1757491487920039400,10.173039306640625,0.9568334221839905,-0.9873101115226746,0.9068384170532227
1757491487930083800,10.183083740234375,1.3164411783218384,-0.7951740026473999,1.234787106513977
1757491487940123400,10.193123291015626,1.6332484483718872,-0.5111249685287476,1.6800459623336792
1757491487950162700,10.20316259765625,1.8373587131500244,-0.07772377133369446,2.0312435626983643
1757491487960204800,10.213204833984374,1.875529408454895,0.6108652353286743,1.9832968711853027
1757491487970242000,10.223241943359374,1.7454458475112915,1.345252513885498,1.8189893960952759
1757491487980286700,10.23328662109375,1.5965598821640015,1.630300760269165,1.74684476852417
1757491487990325000,10.243324951171875,1.5083107948303223,1.4264901876449585,1.5116915702819824
1757491488000367900,10.253367919921875,1.5047801733016968,1.2525068521499634,1.2576695680618286
1757491488010408400,10.263408447265626,1.5838030576705933,1.2954072952270508,1.1187094449996948
1757491488020449500,10.273449462890625,1.6024720668792725,1.2912938594818115,0.9776341915130615
1757491488030489900,10.28348974609375,1.5442999601364136,1.043333888053894,0.8391402959823608
1757491488040526300,10.2935263671875,1.5079444646835327,0.860623836517334,0.7733240723609924
1757491488050571800,10.30357177734375,1.5351402759552002,0.7125372886657715,0.7864972949028015
1757491488060609800,10.31360986328125,1.5907809734344482,0.5511776208877563,0.8489994406700134
1757491488070653000,10.32365283203125,1.6271864175796509,0.5150719881057739,0.919212281703949
1757491488080693200,10.333693359375,1.6314997673034668,0.656730055809021,0.9887923002243042
1757491488090733800,10.34373388671875,1.612647533416748,0.8599410057067871,1.0642011165618896
1757491488100773000,10.353773193359375,1.5730279684066772,1.0216004848480225,1.1241885423660278
1757491488110813200,10.363813232421874,1.5104758739471436,1.0554578304290771,1.138327717781067
1757491488120856300,10.373856201171876,1.436132788658142,0.9365323185920715,1.101689100265503
1757491488130899200,10.383899169921875,1.3787435293197632,0.6730508804321289,1.0375715494155884
1757491488140934100,10.39393408203125,1.346468210220337,0.40533939003944397,0.9698401689529419
1757491488150974700,10.403974609375,1.3451359272003174,0.24754364788532257,0.9250744581222534
1757491488161015800,10.414015869140625,1.3835065364837646,0.21740007400512695,0.8620227575302124
1757491488171061500,10.4240615234375,1.4546186923980713,0.32958078384399414,0.7688775062561035
1757491488181098500,10.434098388671876,1.4903912544250488,0.3791095018386841,0.6787465214729309
1757491488191140600,10.444140625,1.4905411005020142,0.25245654582977295,0.6172103881835938
1757491488201181200,10.45418115234375,1.4630955457687378,0.14778675138950348,0.5973588824272156
1757491488211222000,10.464221923828125,1.424625039100647,0.11544486880302429,0.5716286301612854
1757491488221261300,10.47426123046875,1.4119013547897339,0.1273857206106186,0.5098426342010498
1757491488231301600,10.484301513671875,1.4276726245880127,0.1649402678012848,0.44107866287231445
1757491488241343700,10.49434375,1.4397467374801636,0.2490258365869522,0.38205721974372864
1757491488251383300,10.50438330078125,1.3917502164840698,0.24059896171092987,0.35624366998672485
1757491488261425700,10.51442578125,1.2902445793151855,0.2885955274105072,0.35352909564971924
1757491488271466500,10.524466552734374,1.1333814859390259,0.26406431198120117,0.39234933257102966
1757491488281507000,10.534507080078125,0.9552013874053955,0.16417419910430908,0.3575093746185303
1757491488291543600,10.54454345703125,0.787146806716919,0.10023985058069229,0.22349540889263153
1757491488301588500,10.55458837890625,0.6533493399620056,0.10313763469457626,0.17992879450321198
1757491488311629000,10.564629150390624,0.5729609131813049,-0.0044632465578615665,0.24268069863319397
1757491488321670000,10.574669921875,0.5440331101417542,-0.10268797725439072,0.2409653514623642
1757491488331710200,10.584710205078125,0.5614031553268433,-0.15186695754528046,0.17081910371780396
1757491488341751000,10.5947509765625,0.553142786026001,-0.12910106778144836,0.11689376085996628
1757491488351791900,10.6047919921875,0.5356728434562683,-0.08570099622011185,0.0683809295296669
1757491488361828000,10.614828125,0.49875113368034363,0.13133269548416138,-0.0008660030434839427
1757491488371873800,10.624873779296875,0.38976797461509705,0.4339008331298828,-0.05858843773603439
1757491488381915400,10.634915283203124,0.31076186895370483,0.4381808936595917,-0.13103292882442474
1757491488391950300,10.644950439453124,0.30313438177108765,0.43691518902778625,-0.12562040984630585
1757491488401991400,10.654991455078125,0.35700976848602295,0.5155715942382812,-0.05004498362541199
1757491488412033500,10.665033447265625,0.39629632234573364,0.3479667007923126,0.02942745015025139
1757491488422075000,10.675074951171876,0.41025230288505554,0.14438936114311218,0.15902814269065857
1757491488432115000,10.685114990234375,0.47383689880371094,0.06433403491973877,0.30493301153182983
1757491488442157800,10.69515771484375,0.5805384516716003,-0.0013822740875184536,0.4147321879863739
1757491488452198400,10.705198486328126,0.668337881565094,-0.020983919501304626,0.4943545162677765
1757491488462239000,10.715239013671875,0.7350367307662964,0.0045631700195372105,0.513972818851471
1757491488472279800,10.72527978515625,0.8028348088264465,0.014555512927472591,0.5343072414398193
1757491488482316800,10.73531689453125,0.8791763186454773,-0.13018357753753662,0.5692970752716064
1757491488492361000,10.74536083984375,0.9365323185920715,-0.33424386382102966,0.5832030773162842
1757491488502400000,10.75539990234375,0.9377314448356628,-0.4501217305660248,0.5727777481079102
1757491488512442000,10.765442138671874,0.8884192109107971,-0.5524766445159912,0.5578891634941101
1757491488522483200,10.775483154296875,0.8133767247200012,-0.5711789727210999,0.5138728618621826
1757491488532524000,10.78552392578125,0.7251776456832886,-0.38680359721183777,0.4227260649204254
1757491488542564400,10.795564453125,0.6529829502105713,-0.36638590693473816,0.3140593469142914
1757491488552601600,10.8056015625,0.5970425009727478,-0.5111249685287476,0.14986848831176758
1757491488562645500,10.8156455078125,0.4775507152080536,-0.7127538323402405,-0.07512576133012772
1757491488572687400,10.825687255859375,0.19548353552818298,-0.9789331555366516,-0.3569597899913788
1757491488582727700,10.835727783203126,-0.2687440514564514,-1.3046503067016602,-0.6793960332870483
1757491488592767700,10.845767822265625,-0.8106621503829956,-1.4927394390106201,-0.9280222058296204
1757491488602809000,10.85580908203125,-1.3430207967758179,-1.4145660400390625,-1.0586388111114502
1757491488612847000,10.86584716796875,-1.8563108444213867,-1.1819109916687012,-1.1127640008926392
1757491488622890500,10.875890380859374,-2.3200221061706543,-0.9394634366035461,-1.125620722770691
1757491488632927700,10.885927734375,-2.6501691341400146,-0.6614598035812378,-1.11952543258667
1757491488642967000,10.895967041015625,-2.82753324508667,-0.2498585283756256,-1.075575828552246
1757491488653009700,10.906009765625,-2.8703339099884033,0.3343604505062103,-0.9415784478187561
1757491488663049700,10.9160498046875,-2.873631238937378,0.9207944273948669,-0.7314561605453491
1757491488673093000,10.926093017578125,-2.9360334873199463,1.2706429958343506,-0.6026215553283691
1757491488683132400,10.93613232421875,-3.0037150382995605,1.0960267782211304,-0.7384507656097412
1757491488693172500,10.94617236328125,-3.040037155151367,0.36215582489967346,-1.0939617156982422
1757491488703215400,10.95621533203125,-3.0620369911193848,-0.47328731417655945,-1.396629810333252
1757491488713255700,10.966255615234376,-3.116811513900757,-0.7850817441940308,-1.47347092628479
1757491488723296500,10.976296630859375,-3.106602668762207,-0.6217069029808044,-1.3001370429992676
1757491488733335600,10.98633544921875,-2.9981026649475098,-0.35499462485313416,-1.034407377243042
1757491488743375600,10.996375732421875,-2.875080108642578,-0.24351339042186737,-0.9034243822097778
1757491488753419000,11.0064189453125,-2.8482673168182373,-0.4794992208480835,-0.9743866920471191
1757491488763459000,11.016458984375,-2.9361000061035156,-0.8086303472518921,-1.111514925956726
1757491488773500000,11.0265,-3.03875470161438,-0.7808682918548584,-1.1929525136947632
1757491488783543300,11.036543212890624,-3.036856174468994,-0.4652601480484009,-1.1954339742660522
1757491488793579300,11.046579345703124,-2.8642051219940186,-0.37408000230789185,-1.1553813219070435
1757491488803618300,11.056618408203125,-2.616844654083252,-0.688572347164154,-1.0827369689941406
1757491488813660200,11.06666015625,-2.446108818054199,-1.0560407638549805,-1.0622193813323975
1757491488823701800,11.07670166015625,-2.3578431606292725,-1.2488763332366943,-1.1009563207626343
1757491488833742000,11.0867421875,-2.250891923904419,-1.1746165752410889,-1.148419976234436
1757491488843771600,11.096771728515625,-2.0901317596435547,-1.021084189414978,-1.1652404069900513
1757491488853800200,11.10680029296875,-1.8896520137786865,-1.0698134899139404,-1.118642807006836
1757491488863859500,11.116859375,-1.6933523416519165,-1.0319758653640747,-1.1107988357543945
1757491488873904600,11.126904541015625,-1.5353734493255615,-0.9274226427078247,-1.1078177690505981
1757491488883943700,11.136943603515626,-1.3786768913269043,-0.8571598529815674,-1.0708293914794922
1757491488893984300,11.146984375,-1.2060091495513916,-0.7692105770111084,-1.0067452192306519
1757491488904026000,11.157026123046874,-1.0066286325454712,-0.6988478302955627,-0.9071049094200134
1757491488914069200,11.1670693359375,-0.8410888314247131,-0.5746762752532959,-0.7751560211181641
1757491488924106200,11.177106201171876,-0.7124373912811279,-0.419711709022522,-0.6271860599517822
1757491488934143200,11.187143310546874,-0.5859176516532898,-0.3871699869632721,-0.47738417983055115
1757491488944192000,11.19719189453125,-0.49828484654426575,-0.4370151162147522,-0.33840733766555786
1757491488954231000,11.20723095703125,-0.43108633160591125,-0.5128570199012756,-0.2759552001953125
1757491488964268800,11.217268798828124,-0.3759785592556,-0.5655499696731567,-0.25357234477996826
1757491488974311400,11.2273115234375,-0.3723146915435791,-0.555890679359436,-0.22084742784500122
1757491488984352000,11.23735205078125,-0.33924004435539246,-0.5120242834091187,-0.16076014935970306
1757491488994388000,11.247387939453125,-0.3086468279361725,-0.3817408084869385,-0.07535891979932785
1757491489004434400,11.257434326171875,-0.2566533386707306,-0.22975726425647736,0.02956068143248558
1757491489014475000,11.26747509765625,-0.1407254934310913,-0.13552947342395782,0.14297376573085785
1757491489024515600,11.277515625,0.056140314787626266,-0.09937384724617004,0.22427813708782196
1757491489034538800,11.287538818359375,0.30416691303253174,-0.08228694647550583,0.2555375099182129
1757491489044596500,11.297596435546875,0.5559073686599731,-0.09301205724477768,0.36608612537384033
1757491489054674700,11.3076748046875,0.8413552641868591,-0.021233728155493736,0.5456318855285645
1757491489064689700,11.317689697265624,1.1454389095306396,0.04964528977870941,0.7084737420082092
1757491489074723800,11.327723876953126,1.4276059865951538,0.2355528324842453,1.007910966873169
1757491489084760800,11.3377607421875,1.7273263931274414,0.4882425367832184,1.2410823106765747
1757491489094801400,11.347801513671875,1.9375652074813843,0.6991309523582458,1.1766316890716553
1757491489104840400,11.35784033203125,2.0017659664154053,0.9658265709877014,0.9925227761268616
1757491489114880800,11.367880859375,1.910386085510254,1.2546218633651733,0.9884925484657288
1757491489124919600,11.37791943359375,1.7829504013061523,1.1909373998641968,0.9349835515022278
1757491489134960000,11.387960205078125,1.706425666809082,1.0129737854003906,0.7012293338775635
1757491489145001500,11.39800146484375,1.6726515293121338,1.0044969320297241,0.5732773542404175
1757491489155042600,11.40804248046875,1.6432241201400757,0.979799211025238,0.44655779004096985
1757491489165089000,11.418089111328126,1.6282023191452026,0.7636315226554871,0.3185725510120392
1757491489175125000,11.428125,1.656896948814392,0.5667157173156738,0.2712254822254181
1757491489185165600,11.43816552734375,1.7061924934387207,0.5347735285758972,0.27155858278274536
1757491489195205600,11.44820556640625,1.7289750576019287,0.6108152866363525,0.29037749767303467
1757491489205248800,11.458248779296875,1.7012296915054321,0.7577693462371826,0.3608734607696533
1757491489215289000,11.4682890625,1.6389440298080444,0.9721883535385132,0.4741699695587158
1757491489225328000,11.478328125,1.5709627866744995,1.187106966972351,0.6006563901901245
1757491489235370800,11.488370849609375,1.5097763538360596,1.2951241731643677,0.7100392580032349
1757491489245409300,11.4984091796875,1.4417119026184082,1.295623779296875,0.7936918139457703
1757491489255450000,11.5084501953125,1.3432539701461792,1.226210355758667,0.8259837031364441
1757491489265492500,11.518492431640626,1.2211809158325195,1.0523269176483154,0.8275991678237915
1757491489275533600,11.528533447265625,1.1189424991607666,0.8435202836990356,0.8097461462020874
1757491489285574400,11.538574462890624,1.0820374488830566,0.6569299101829529,0.7997205257415771
1757491489295612400,11.5486123046875,1.1278690099716187,0.44865620136260986,0.8027182221412659
1757491489305655600,11.558655517578124,1.2398499250411987,0.25212347507476807,0.809712827205658
1757491489315693800,11.56869384765625,1.3769614696502686,0.08218701928853989,0.8215537667274475
1757491489325735000,11.57873486328125,1.4617631435394287,-0.09566003084182739,0.8275159001350403
1757491489335743200,11.5887431640625,1.4767850637435913,-0.172384575009346,0.8149588108062744
1757491489350838800,11.6038388671875,1.4208945035934448,-0.3553277254104614,0.7749727964401245
1757491489360879400,11.61387939453125,1.3628222942352295,-0.4052228033542633,0.7729077339172363
1757491489370920400,11.62392041015625,1.2980886697769165,-0.44197797775268555,0.7917599678039551
1757491489380957400,11.63395751953125,1.2471942901611328,-0.381191223859787,0.7996872067451477
1757491489391001600,11.644001708984375,1.2138198614120483,-0.28904518485069275,0.7942746877670288
1757491489401043000,11.65404296875,1.2024285793304443,-0.23253847658634186,0.7591515779495239
1757491489411082500,11.66408251953125,1.1952340602874756,-0.18713992834091187,0.7316060662269592
1757491489421123800,11.674123779296876,1.2068418264389038,-0.0923292487859726,0.6937683820724487
1757491489431164400,11.684164306640625,1.173384189605713,-0.2053592950105667,0.6676217317581177
1757491489441201000,11.694200927734375,1.0986413955688477,-0.29750534892082214,0.6292344927787781
1757491489451246000,11.70424609375,1.013473391532898,-0.18211044371128082,0.5618860721588135
1757491489461285600,11.71428564453125,0.8978453278541565,-0.17478273808956146,0.5391368865966797
1757491489471327000,11.724326904296875,0.7614498138427734,-0.20789068937301636,0.5480800271034241
1757491489481368300,11.734368408203125,0.6456552147865295,-0.26453062891960144,0.5148388147354126
1757491489491409200,11.7444091796875,0.5744264721870422,-0.2708924114704132,0.4580323398113251
1757491489501445600,11.754445556640626,0.5334911942481995,-0.2533225417137146,0.3971123695373535
1757491489511485200,11.764485107421875,0.5114580988883972,-0.35381221771240234,0.3162909746170044
1757491489521528600,11.774528564453124,0.48566117882728577,-0.31236064434051514,0.26619601249694824
1757491489531554300,11.78455419921875,0.4551179111003876,-0.18024520576000214,0.19127009809017181
1757491489541610800,11.79461083984375,0.41379958391189575,-0.13929325342178345,0.11914203315973282
1757491489551651600,11.804651611328126,0.3512974679470062,-0.0892815813422203,0.062152374535799026
1757491489561696300,11.8146962890625,0.24501225352287292,-0.031092841178178787,-0.014538859017193317
1757491489571731000,11.82473095703125,0.15313266217708588,-0.07799023389816284,-0.09645941853523254
1757491489581770800,11.834770751953124,0.09992343187332153,-0.04305034503340721,-0.0921960175037384
1757491489591810600,11.844810546875,0.09657599776983261,0.10966596007347107,-0.04746362939476967
1757491489601851100,11.85485107421875,0.12413820624351501,0.19456757605075836,-0.05051129311323166
1757491489611892500,11.864892578125,0.20196190476417542,0.08007197082042694,-0.07875631749629974
1757491489621936600,11.8749365234375,0.28146764636039734,-0.05652335286140442,-0.1046198308467865
1757491489631975700,11.8849755859375,0.32646650075912476,-0.0766412690281868,-0.12122377008199692
1757491489642017000,11.89501708984375,0.3609234392642975,-0.04073544964194298,-0.08876531571149826
1757491489652056300,11.905056396484374,0.4102023243904114,-0.03134264796972275,-0.045981429517269135
1757491489662094000,11.915093994140625,0.525497317314148,-0.07677450031042099,0.046147968620061874
1757491489672203500,11.92520361328125,0.703527569770813,-0.09447760134935379,0.20057962834835052
1757491489682203600,11.93520361328125,0.908920168876648,-0.08848219364881516,0.3130434453487396
1757491489692220700,11.945220703125,1.076092004776001,-0.08018855005502701,0.421327143907547
1757491489702258200,11.955258056640625,1.1777641773223877,-0.07424310594797134,0.4913068413734436
1757491489712302300,11.96530224609375,1.209806203842163,-0.14617131650447845,0.5858510732650757
1757491489722343000,11.975343017578124,1.2085572481155396,-0.15378215909004211,0.6843255758285522
1757491489732384500,11.985384521484375,1.18409264087677,-0.0320754200220108,0.7516406774520874
1757491489742422500,11.995422607421874,1.1437568664550781,-0.15489797294139862,0.7980384826660156
1757491489752461800,12.0054619140625,1.0931789875030518,-0.22196324169635773,0.8060323596000671
1757491489762503200,12.015503173828124,0.9990177750587463,-0.14826971292495728,0.7827501893043518
1757491489772544000,12.0255439453125,0.863504946231842,-0.06794793158769608,0.7386173605918884
1757491489782599000,12.035598876953125,0.7472773790359497,-0.12124042958021164,0.6775641441345215
1757491489792628000,12.0456279296875,0.6819440722465515,-0.24073219299316406,0.6240884065628052
1757491489802664400,12.05566455078125,0.6415084004402161,-0.20855684578418732,0.5188857316970825
1757491489812709000,12.065709228515624,0.5663160085678101,-0.3625888228416443,0.37504592537879944
1757491489822750000,12.07575,0.36477047204971313,-0.5463313460350037,0.06626588851213455
1757491489832786000,12.085785888671875,0.01811944879591465,-0.7357361912727356,-0.3718150854110718
1757491489842831400,12.095831298828125,-0.36666902899742126,-0.9914069771766663,-0.7605671882629395
1757491489852872200,12.1058720703125,-0.7515574097633362,-1.025680661201477,-1.0340908765792847
1757491489862912800,12.115912841796876,-1.1651737689971924,-0.8111783862113953,-1.1814780235290527
1757491489872948700,12.12594873046875,-1.636928915977478,-0.5104921460151672,-1.2005300521850586
1757491489882994000,12.135993896484376,-2.111914873123169,-0.11351301521062851,-1.174200177192688
1757491489893010000,12.146010009765625,-2.4952878952026367,0.3386571407318115,-1.1897716522216797
1757491489903075300,12.156075439453126,-2.7763724327087402,0.8286150097846985,-1.2662630081176758
1757491489913115600,12.16611572265625,-2.954719066619873,1.2033611536026,-1.2885959148406982
1757491489923157000,12.176156982421874,-3.0544593334198,1.3773112297058105,-1.345435619354248
1757491489933171000,12.1861708984375,-2.9983856678009033,0.9142161011695862,-1.5311599969863892
1757491489943234000,12.196234130859375,-2.843787431716919,0.05364222824573517,-1.7628657817840576
1757491489953252600,12.206252685546875,-2.765014410018921,-0.4813145101070404,-1.8963302373886108
1757491489963294000,12.2162939453125,-2.803534984588623,-0.4176466166973114,-1.8237024545669556
1757491489973360400,12.2263603515625,-2.790478229522705,0.04140160605311394,-1.5695472955703735
1757491489983406000,12.236406005859376,-2.7453296184539795,0.49750208854675293,-1.2431973218917847
1757491489993437000,12.24643701171875,-2.7396671772003174,0.657346248626709,-0.9782670140266418
1757491490003477800,12.256477783203126,-2.8011367321014404,0.3527297079563141,-0.8226529359817505
1757491490013518300,12.266518310546875,-2.9385316371917725,-0.20794065296649933,-0.7907440662384033
1757491490023561700,12.276561767578125,-3.0761260986328125,-0.77007657289505,-0.9065386652946472
1757491490033602800,12.286602783203126,-3.081488609313965,-1.2390671968460083,-1.0657333135604858
1757491490043644200,12.29664404296875,-2.899944543838501,-1.552077293395996,-1.137012004852295
1757491490063725800,12.316725830078125,-2.406339406967163,-1.415981650352478,-1.114662528038025
1757491490073766400,12.326766357421874,-2.2815682888031006,-1.1809617280960083,-1.0265467166900635
1757491490083803100,12.33680322265625,-2.171452760696411,-1.328298807144165,-0.9261236190795898
1757491490093847600,12.34684765625,-2.0537595748901367,-1.5186196565628052,-0.9262402057647705
1757491490103888100,12.35688818359375,-1.912867546081543,-1.6220237016677856,-0.9701565504074097
1757491490113929000,12.366928955078125,-1.7364693880081177,-1.640726089477539,-0.9859944581985474
1757491490123969800,12.3769697265625,-1.5838862657546997,-1.5275294780731201,-0.9381977319717407
1757491490134009900,12.387009765625,-1.469207525253296,-1.2325221300125122,-0.8603740334510803
1757491490144050400,12.397050537109376,-1.2663629055023193,-0.9810648560523987,-0.7344372272491455
1757491490154087400,12.40708740234375,-1.0224997997283936,-0.709839403629303,-0.5589050650596619
1757491490164132000,12.417132080078124,-0.8212540149688721,-0.3875696659088135,-0.34195461869239807
1757491490174172400,12.42717236328125,-0.5910137891769409,-0.22163017094135284,-0.15236657857894897
1757491490184213800,12.4372138671875,-0.4148820638656616,-0.14340677857398987,0.012373851612210274
1757491490194254000,12.447254150390625,-0.3037838637828827,-0.19728215038776398,0.11336313188076019
1757491490204295000,12.457294921875,-0.19983020424842834,-0.29633957147598267,0.1303001493215561
1757491490214335700,12.467335693359376,-0.03135930374264717,-0.3357926905155182,0.14823640882968903
1757491490224376600,12.47737646484375,0.21445232629776,-0.367301881313324,0.18858881294727325
1757491490234414300,12.487414306640625,0.5088434219360352,-0.316773921251297,0.2446458637714386
1757491490244453000,12.497453125,0.8734639883041382,-0.04921228811144829,0.3508811295032501
1757491490254494200,12.507494140625,1.222246766090393,0.346134752035141,0.6261035799980164
1757491490264536800,12.517536865234375,1.4781173467636108,0.7593181133270264,1.1232725381851196
1757491490274579500,12.527579345703124,1.7107057571411133,1.186574101448059,1.5991579294204712
1757491490284620300,12.537620361328125,1.928488850593567,1.530860185623169,1.7050766944885254
1757491490294660900,12.547660888671874,1.953336477279663,1.6814614534378052,1.396829605102539
1757491490304701000,12.557700927734375,1.8130606412887573,1.7523071765899658,1.187373399734497
1757491490314738200,12.56773828125,1.7293248176574707,1.6576464176177979,1.0415185689926147
1757491490324782800,12.577782958984375,1.7541557550430298,1.3955305814743042,0.8593081831932068
1757491490334823000,12.587822998046875,1.7832667827606201,1.2275593280792236,0.6508179306983948
1757491490344859600,12.597859619140625,1.7495427131652832,1.0850019454956055,0.43066999316215515
1757491490354904800,12.60790478515625,1.6648575067520142,0.9072547554969788,0.33216214179992676
1757491490364945700,12.617945556640626,1.6010397672653198,0.7770212292671204,0.3124605715274811
1757491490374986200,12.627986328125,1.6085340976715088,0.6399263143539429,0.3084469735622406
1757491490385022700,12.638022705078125,1.688589334487915,0.5485629439353943,0.37208154797554016
1757491490395067400,12.6480673828125,1.7846990823745728,0.6714021563529968,0.4964528977870941
1757491490405108000,12.65810791015625,1.8226200342178345,0.9651604294776917,0.6105487942695618
1757491490415148800,12.668148681640625,1.7846324443817139,1.1368954181671143,0.7042936086654663
1757491490425188900,12.67818896484375,1.6818279027938843,1.1797293424606323,0.7303569912910461
