time,seconds_elapsed,z,y,x
1759306284703577000,0.1535771484375,0.05665658414363861,-0.033374425023794174,-0.05832197517156601
1759306284713619000,0.163618896484375,0.061469562351703644,-0.03072645515203476,-0.04130168259143829
1759306284723672000,0.173672119140625,0.07007963210344315,-0.024947550147771835,-0.023015696555376053
1759306284733696000,0.183696044921875,0.07709092646837234,-0.017852986231446266,-0.005146056413650513
1759306284743751200,0.193751220703125,0.07812346518039703,-0.0017819678178057075,0.01039203628897667
1759306284753790700,0.203790771484375,0.07605838030576706,0.0044465926475822926,0.02563035860657692
1759306284763807000,0.213806884765625,0.06986313313245773,-0.0007494257297366858,0.039436448365449905
1759306284773871000,0.22387109375,0.061019908636808395,0.006744831334799528,0.04551512002944946
1759306284783899400,0.2338994140625,0.01895214430987835,0.050794411450624466,0.04524866119027138
1759306284793950500,0.243950439453125,0.04130168259143829,0.0075941807590425014,0.04121841490268707
1759306284803990300,0.253990234375,0.06275191158056259,0.0026313168928027153,0.040219180285930634
1759306284814005200,0.264005126953125,0.050078291445970535,0.015438170172274113,0.042017802596092224
1759306284824068000,0.274068115234375,0.0404023714363575,0.003280819160863757,0.05017821490764618
1759306284834102300,0.284102294921875,0.03319123387336731,-0.004912902135401964,0.06836427748203278
1759306284844150000,0.29414990234375,0.03603905066847801,-0.016670558601617813,0.08866538852453232
1759306284854190600,0.304190673828125,0.041018567979335785,-0.0226659644395113,0.10666826367378235
1759306284864212700,0.314212646484375,0.04211772605776787,-0.01632082648575306,0.12283920496702194
1759306284874269000,0.32426904296875,0.038970138877630234,0.011424578726291656,0.14360661804676056
1759306284884287500,0.33428759765625,0.010025650262832642,0.10648506879806519,0.17429976165294647
1759306284894349000,0.34434912109375,0.005179364234209061,0.1891050934791565,0.2202145904302597
1759306284904390000,0.354389892578125,0.013040007092058659,0.26196593046188354,0.2767879068851471
1759306284914403600,0.364403564453125,0.0005662327748723328,0.351214200258255,0.3254006505012512
1759306284924448800,0.37444873046875,-0.02241615578532219,0.3875363767147064,0.3682178258895874
1759306284934484700,0.384484619140625,-0.010008996352553368,0.37243127822875977,0.39684590697288513
1759306284944523500,0.3945234375,0.017136868089437485,0.3169071674346924,0.4106519818305969
1759306284954590200,0.404590087890625,0.048496171832084656,0.2477767914533615,0.3885522484779358
1759306284964626000,0.4146259765625,0.05682312324643135,0.22081412374973297,0.33514317870140076
1759306284974644000,0.42464404296875,0.03480666130781174,0.2772209048271179,0.27848660945892334
1759306284984690700,0.434690673828125,-0.0003164241788908839,0.37812691926956177,0.26799464225769043
1759306284994731000,0.44473095703125,-0.04871267080307007,0.4467909634113312,0.34237098693847656
1759306285004787200,0.454787109375,-0.10570233315229416,0.4265231490135193,0.48487845063209534
1759306285014803700,0.4648037109375,-0.17178502678871155,0.40795406699180603,0.6495022773742676
1759306285024851500,0.4748515625,-0.20499292016029358,0.4947209060192108,0.8010528087615967
1759306285034908200,0.484908203125,-0.18422549962997437,0.6642576456069946,0.9300539493560791
1759306285044948700,0.49494873046875,-0.12134034931659698,0.8835062980651855,1.0282620191574097
1759306285054989300,0.5049892578125,-0.0013656201772391796,1.044133186340332,1.0387040376663208
1759306285065027800,0.51502783203125,0.1614096462726593,1.1179932355880737,0.9645275473594666
1759306285075043000,0.52504296875,0.2945076525211334,1.0984582901000977,0.8448692560195923
1759306285085108700,0.535108642578125,0.348849356174469,0.9755524396896362,0.6952172517776489
1759306285095110000,0.54510986328125,0.3048497140407562,0.8079642057418823,0.5308265686035156
1759306285105186300,0.555186279296875,0.18026186525821686,0.6793960332870483,0.3752291202545166
1759306285115229000,0.56522900390625,-0.009226263500750065,0.64335697889328,0.2519902288913727
1759306285125242400,0.575242431640625,-0.24083212018013,0.7239952087402344,0.17796362936496735
1759306285135307000,0.58530712890625,-0.47015640139579773,0.9964531064033508,0.1624421924352646
1759306285145330200,0.595330078125,-0.6458883881568909,1.3928992748260498,0.17823009192943573
1759306285155386600,0.60538671875,-0.7467777729034424,1.8890690803527832,0.19568337500095367
1759306285165441300,0.615441162109375,-0.7910937666893005,2.3843729496002197,0.18359264731407166
1759306285175461400,0.62546142578125,-0.8535959124565125,2.910003423690796,0.1528661996126175
1759306285185507000,0.635507080078125,-0.9755024909973145,3.430104970932007,0.13213208317756653
1759306285195561500,0.6455615234375,-1.1529831886291504,3.8293323516845703,0.16628924012184143
1759306285205586000,0.6555859375,-1.3353101015090942,3.8899192810058594,0.3698332607746124
1759306285215628000,0.6656279296875,-1.3717155456542969,3.4409964084625244,0.6936517953872681
1759306285225620500,0.675620361328125,-1.2358030080795288,2.496753454208374,0.8902178406715393
1759306285235708200,0.685708251953125,-0.9464580416679382,1.6130139827728271,0.775139331817627
1759306285245725200,0.69572509765625,-0.551910400390625,1.2945746183395386,0.3461514115333557
1759306285255786200,0.7057861328125,-0.21003904938697815,1.338724136352539,-0.1803617924451828
1759306285265814000,0.71581396484375,0.07384341210126877,1.5160049200057983,-0.6736504435539246
1759306285275870200,0.7258701171875,0.30931296944618225,1.6646077632904053,-1.0056127309799194
1759306285285910000,0.735909912109375,0.5127071142196655,1.693535566329956,-1.0755258798599243
1759306285295949300,0.74594921875,0.7107886672019958,1.6365792751312256,-0.8989611268043518
1759306285305985800,0.75598583984375,0.8990777134895325,1.5094267129898071,-0.5316759347915649
1759306285316000300,0.766000244140625,1.0856846570968628,1.3513644933700562,-0.07499253004789352
1759306285326066700,0.776066650390625,1.2648640871047974,1.171885371208191,0.34896591305732727
1759306285336105700,0.786105712890625,1.4064222574234009,1.0316927433013916,0.6277856230735779
1759306285346150000,0.79614990234375,1.4911073446273804,0.988975465297699,0.6979318261146545
1759306285356186400,0.806186279296875,1.5089936256408691,1.0641511678695679,0.5656831860542297
1759306285366199800,0.81619970703125,1.4748698472976685,1.1599444150924683,0.323085755109787
1759306285376263700,0.826263671875,1.3967297077178955,1.3833732604980469,0.06306833773851395
1759306285386305000,0.836304931640625,1.3015692234039307,1.5550251007080078,-0.2313227355480194
1759306285396332000,0.84633203125,1.2236456871032715,1.606902003288269,-0.5039305090904236
1759306285406360000,0.856360107421875,1.1425411701202393,1.7575864791870117,-0.7016289830207825
1759306285416400100,0.866400146484375,1.1073181629180908,1.98591148853302,-0.8264666795730591
1759306285426463500,0.87646337890625,1.0628688335418701,1.973904013633728,-0.8523635268211365
1759306285436504300,0.88650439453125,0.9264900088310242,1.8816914558410645,-0.7675285339355469
1759306285446500900,0.8965009765625,0.6917532682418823,1.7643146514892578,-0.6190422773361206
1759306285456584200,0.906584228515625,0.43308478593826294,1.5704631805419922,-0.4678415060043335
1759306285466610700,0.916610595703125,0.2050095647573471,1.3589586019515991,-0.36215582489967346
1759306285476662300,0.926662353515625,0.05014490708708763,1.1187094449996948,-0.3871866464614868
1759306285486704400,0.936704345703125,-0.050661180168390274,0.8450191020965576,-0.5792061686515808
1759306285496737500,0.946737548828125,-0.1728675365447998,0.7347536087036133,-0.8296142816543579
1759306285506782000,0.956781982421875,-0.27780377864837646,0.7039272785186768,-1.0196353197097778
1759306285516800800,0.96680078125,-0.39824482798576355,0.697215735912323,-1.096409797668457
1759306285526862600,0.976862548828125,-0.5616362690925598,0.6086335778236389,-1.1563472747802734
1759306285536904200,0.986904296875,-0.7902610898017883,0.5327417850494385,-1.234503984451294
1759306285546945500,0.996945556640625,-1.0244317054748535,0.48945826292037964,-1.2695271968841553
1759306285556983000,1.006983154296875,-1.2116048336029053,0.49022433161735535,-1.1686044931411743
1759306285566993200,1.0169931640625,-1.2965397834777832,0.6027547717094421,-0.8885524272918701
1759306285577062100,1.027062255859375,-1.3165078163146973,0.7739402651786804,-0.4975520670413971
1759306285587078100,1.037078125,-1.3670856952667236,0.8886523842811584,-0.09204613417387009
1759306285597141500,1.0471416015625,-1.5058794021606445,1.0992742776870728,0.21946515142917633
1759306285607183000,1.05718310546875,-1.784299373626709,1.4243918657302856,0.41373294591903687
1759306285617205000,1.067205078125,-2.200713634490967,1.7809685468673706,0.5367220640182495
1759306285627263500,1.077263427734375,-2.6907215118408203,2.11812686920166,0.6395432353019714
1759306285637281500,1.087281494140625,-3.1481876373291016,2.4184467792510986,0.7432304620742798
1759306285647341800,1.097341796875,-3.4886765480041504,2.69205379486084,0.8402061462402344
1759306285657382100,1.107382080078125,-3.7175679206848145,2.779686689376831,0.9402461647987366
1759306285667398000,1.11739794921875,-3.9220778942108154,2.7345545291900635,1.0528265237808228
1759306285677461500,1.12746142578125,-4.145323276519775,2.696850061416626,1.1756657361984253
1759306285687495700,1.13749560546875,-4.370634078979492,2.6602115631103516,1.3034178018569946
1759306285697540400,1.147540283203125,-4.4614644050598145,2.3917338848114014,1.4277392625808716
1759306285707581400,1.15758154296875,-4.306699752807617,1.902708649635315,1.521667242050171
1759306285717602300,1.167602294921875,-4.022134304046631,1.4093366861343384,1.564767599105835
1759306285727660800,1.177660888671875,-3.777355432510376,0.9378313422203064,1.5247482061386108
1759306285737699800,1.187699951171875,-3.6613609790802,0.4697900116443634,1.425241231918335
1759306285747740200,1.197740234375,-3.677398681640625,0.01878560520708561,1.301186203956604
1759306285757781200,1.20778125,-3.7255117893218994,-0.41323333978652954,1.2000137567520142
1759306285767796200,1.217796142578125,-3.6561481952667236,-0.7755556702613831,1.1482867002487183
1759306285777860400,1.2278603515625,-3.443411350250244,-0.8834230303764343,1.0907641649246216
1759306285787875600,1.23787548828125,-3.1589791774749756,-0.6911870241165161,0.9751860499382019
1759306285797917700,1.247917724609375,-2.8788440227508545,-0.31535834074020386,0.847733736038208
1759306285807980500,1.25798046875,-2.6490366458892822,0.07317725569009781,0.8220201134681702
1759306285818001700,1.268001708984375,-2.492906332015991,0.4188956618309021,0.9268064498901367
1759306285828045000,1.278045166015625,-2.35459566116333,0.7597677707672119,1.1132636070251465
1759306285838089500,1.28808935546875,-2.1627259254455566,1.1173604726791382,1.3350436687469482
1759306285848139300,1.29813916015625,-1.9205282926559448,1.419329047203064,1.556124210357666
1759306285858192600,1.308192626953125,-1.7083908319473267,1.6120812892913818,1.7406494617462158
1759306285868220200,1.31822021484375,-1.555241584777832,1.7017292976379395,1.8481837511062622
1759306285878259000,1.328259033203125,-1.4337013959884644,1.7752562761306763,1.8495993614196777
1759306285888297700,1.338297607421875,-1.215185523033142,2.1884729862213135,1.474336862564087
1759306285898315000,1.34831494140625,-0.7514575123786926,3.001883029937744,0.29111024737358093
1759306285908354600,1.3583544921875,-0.5069282054901123,3.670837163925171,-1.0308600664138794
1759306285918420000,1.368419921875,-0.7164509892463684,3.6928534507751465,-1.5209012031555176
1759306285928422000,1.378421875,-1.1902046203613281,3.0686817169189453,-1.100540041923523
1759306285938498000,1.388498046875,-1.64470636844635,2.097825765609741,-0.3390568494796753
1759306285948538600,1.39853857421875,-1.9747368097305298,1.3238354921340942,0.14833633601665497
1759306285958554000,1.40855419921875,-2.187540292739868,1.0453822612762451,0.23278827965259552
1759306285968617700,1.41861767578125,-2.414066791534424,1.145055890083313,0.03802086412906647
1759306285978658300,1.428658203125,-2.530644178390503,1.382973551750183,-0.12910106778144836
1759306285988673800,1.438673828125,-2.4315199851989746,1.9286720752716064,-0.44107866287231445
1759306285998740200,1.448740234375,-2.3145930767059326,2.672701835632324,-0.6697867512702942
1759306286008777500,1.458777587890625,-2.3053834438323975,3.207825183868408,-0.3146255612373352
1759306286018819300,1.4688193359375,-2.284432888031006,3.396414041519165,0.14612136781215668
1759306286028857300,1.478857421875,-2.0749433040618896,3.5528109073638916,0.36970004439353943
1759306286038872600,1.48887255859375,-1.8538627624511719,3.9073891639709473,0.7351866364479065
1759306286048938500,1.4989384765625,-1.7018126249313354,4.059139728546143,1.6230396032333374
1759306286058934800,1.508934814453125,-1.3555445671081543,3.9955549240112305,1.7848988771438599
1759306286069016600,1.5190166015625,-1.191786766052246,3.8969969749450684,1.1842924356460571
1759306286079057000,1.529056884765625,-1.326799988746643,3.266746759414673,0.2076408863067627
1759306286089074400,1.539074462890625,-1.604337215423584,2.2905113697052,-0.46496036648750305
1759306286099137300,1.54913720703125,-1.9267901182174683,1.2132203578948975,-0.6378445625305176
1759306286109189000,1.559189208984375,-2.3138270378112793,0.34839969873428345,-0.30501627922058105
1759306286119216400,1.56921630859375,-2.7315235137939453,0.036555320024490356,0.3811412751674652
1759306286139297800,1.5892978515625,-3.130584478378296,0.9175135493278503,1.4990845918655396
1759306286179456000,1.6294560546875,-1.6540491580963135,1.7252446413040161,2.264647960662842
1759306286199510500,1.649510498046875,-1.2593683004379272,0.9949042797088623,2.2015130519866943
1759306286229631200,1.67963134765625,-0.9842124581336975,-0.4079873561859131,0.5850183963775635
1759306286249711600,1.699711669921875,-0.6862741112709045,-0.4657098054885864,-0.43461695313453674
1759306286279836400,1.72983642578125,0.041185107082128525,-0.5996404886245728,-0.29897090792655945
1759306286289849000,1.73984912109375,0.06316825747489929,-0.13749463856220245,-0.12320558726787567
1759306286299899000,1.74989892578125,0.16514012217521667,0.17579862475395203,0.0395696796476841
1759306286309939700,1.759939697265625,0.42427489161491394,-0.021233728155493736,-0.024714395403862
1759306286320001500,1.77000146484375,0.7916266918182373,-0.1686207801103592,-0.21821612119674683
1759306286330041600,1.78004150390625,1.0590218305587769,-0.11589452624320984,-0.3758453130722046
1759306286340094500,1.790094482421875,1.0697635412216187,0.2581688463687897,-0.37379688024520874
1759306286350136000,1.800135986328125,0.7810181975364685,0.8426876068115234,-0.22692610323429108
1759306286370214400,1.82021435546875,-0.38214048743247986,0.9558342099189758,0.10488629341125488
1759306286380255200,1.830255126953125,-0.7621659636497498,0.09447760134935379,0.16184264421463013
1759306286390275000,1.840275146484375,-1.2091734409332275,-0.07287748903036118,0.2004963606595993
1759306286400333300,1.850333251953125,-1.6178102493286133,0.32145366072654724,0.40074291825294495
1759306286410373600,1.86037353515625,-2.0337748527526855,0.7269262671470642,0.9730044007301331
1759306286420415200,1.870415283203125,-2.4276063442230225,0.8451690077781677,1.9715725183486938
1759306286430453200,1.880453369140625,-2.857393741607666,1.1657899618148804,2.8526806831359863
1759306286450534000,1.900533935546875,-3.20249605178833,5.27907133102417,2.2691779136657715
1759306286460575000,1.910574951171875,-3.5865349769592285,4.493539810180664,2.2675957679748535
1759306286470612200,1.9206123046875,-3.8809759616851807,1.5812549591064453,1.5267633199691772
1759306286480653000,1.930653076171875,-4.107369422912598,-1.0059791803359985,0.6795459389686584
1759306286490692900,1.94069287109375,-4.463180065155029,-1.9995510578155518,0.33749139308929443
1759306286500734700,1.950734619140625,-4.62390661239624,-0.9607471227645874,0.6835761666297913
1759306286510772700,1.960772705078125,-4.405357360839844,0.6296841502189636,1.0113416910171509
1759306286520812300,1.970812255859375,-3.8455698490142822,0.9702731370925903,0.7651137113571167
1759306286530854100,1.980854248046875,-2.98789381980896,1.7868140935897827,0.8411054611206055
1759306286540892400,1.990892333984375,-2.503798007965088,3.8090145587921143,1.1399431228637695
1759306286550931500,2.000931396484375,-2.963712215423584,3.633565664291382,0.7570698857307434
1759306286560973000,2.01097314453125,-3.162026882171631,1.7422149181365967,0.43878042697906494
1759306286571014000,2.021013916015625,-2.5316267013549805,0.5450823307037354,0.4086035490036011
1759306286581051100,2.031051025390625,-1.8076647520065308,0.22178004682064056,0.39484742283821106
1759306286591093500,2.041093505859375,-1.3293646574020386,0.258185476064682,0.29279229044914246
1759306286601131800,2.0511318359375,-1.180129051208496,0.5065785050392151,0.07514242082834244
1759306286611171600,2.061171630859375,-1.224428415298462,0.8572930693626404,-0.10437002032995224
1759306286621211600,2.071211669921875,-1.2050598859786987,1.0791397094726562,-0.17031948268413544
1759306286631251500,2.08125146484375,-0.9864274263381958,0.7151519656181335,-0.19503387808799744
1759306286641292800,2.091292724609375,-0.649185836315155,0.48974138498306274,-0.21045538783073425
1759306286651330300,2.101330322265625,-0.30041977763175964,0.3986944854259491,-0.19068720936775208
1759306286661371100,2.11137109375,-0.060803405940532684,0.22324559092521667,-0.1832762211561203
1759306286671411200,2.1214111328125,0.05654000863432884,0.07092898339033127,-0.21045538783073425
1759306286681450800,2.13145068359375,0.12633651494979858,-0.060936637222766876,-0.23057331144809723
1759306286691489500,2.141489501953125,0.1972322016954422,-0.15539757907390594,-0.2437465488910675
1759306286701530400,2.1515302734375,0.20587557554244995,-0.1234387457370758,-0.3080139756202698
1759306286711569200,2.161569091796875,0.15195022523403168,0.044149503111839294,-0.34576836228370667
1759306286721609700,2.171609619140625,0.062185682356357574,0.0654665008187294,-0.31667399406433105
1759306286731650800,2.18165087890625,0.008626722730696201,0.026446400210261345,-0.2692103683948517
1759306286741691600,2.191691650390625,0.016337480396032333,-0.09406125545501709,-0.23265504837036133
1759306286751731000,2.20173095703125,0.06335145235061646,-0.09422779083251953,-0.2806183099746704
1759306286761771800,2.211771728515625,0.10267132520675659,-0.16137634217739105,-0.31860584020614624
1759306286771808500,2.22180859375,0.15248315036296844,-0.33466023206710815,-0.27537232637405396
1759306286781851600,2.2318515625,0.16868740320205688,-0.4441596269607544,-0.2503248453140259
1759306286791888100,2.24188818359375,0.17568203806877136,-0.32916441559791565,-0.21080513298511505
1759306286801930800,2.2519306640625,0.22452794015407562,-0.2291743904352188,-0.13050000369548798
1759306286811967700,2.2619677734375,0.10227163136005402,-0.4411785900592804,-0.03252507746219635
1759306286822008300,2.27200830078125,-0.011724349111318588,-0.5800721645355225,-0.04659762606024742
1759306286832050200,2.28205029296875,0.030126914381980896,-0.406471848487854,-0.09227928519248962
1759306286842089700,2.29208984375,0.013656201772391796,-0.15533097088336945,-0.035755932331085205
1759306286852128800,2.302128662109375,-0.024181470274925232,-0.021633422002196312,0.03750459477305412
1759306286862169000,2.312169189453125,-0.017519908025860786,0.016637250781059265,0.08135432749986649
1759306286872208100,2.3222080078125,-0.007344372104853392,-0.016004402190446854,0.08660030364990234
1759306286882247400,2.332247314453125,-0.008876531384885311,-0.06510011106729507,0.05827201157808304
1759306286892288000,2.3422880859375,-0.013989279977977276,-0.08984781801700592,0.03274157643318176
1759306286902327000,2.3523271484375,-0.01712021417915821,-0.06278522312641144,0.04070214182138443
1759306286912367600,2.36236767578125,0.014322358183562756,-0.08496822416782379,0.0555407740175724
1759306286922409000,2.372408935546875,0.03933652490377426,-0.14955206215381622,0.05549081042408943
1759306286932447000,2.382447021484375,0.06043701991438866,-0.22601014375686646,0.033540964126586914
1759306286942488600,2.392488525390625,0.08005531877279282,-0.29091042280197144,-0.02396496944129467
1759306286952528600,2.402528564453125,0.11434570699930191,-0.20988915860652924,-0.02617993764579296
1759306286962566100,2.412566162109375,-0.04922894388437271,-0.19614969193935394,0.08496822416782379
1759306286972607700,2.422607666015625,-1.2008798122406006,0.15215007960796356,0.19731546938419342
1759306286982647000,2.43264697265625,-1.6199586391448975,1.0984748601913452,-0.23019027709960938
1759306286992687900,2.44268798828125,-1.4820476770401,1.7064090967178345,-0.4579823911190033
1759306287002725600,2.4527255859375,-1.2823506593704224,1.6050034761428833,-0.5074944496154785
1759306287012767200,2.462767333984375,-1.0252310037612915,1.2789698839187622,-0.5520769357681274
1759306287022807600,2.4728076171875,-0.5724779963493347,0.9399630427360535,-0.4806816577911377
1759306287032845300,2.48284521484375,-0.17899617552757263,0.38775286078453064,-0.3328116238117218
1759306287042887000,2.492886962890625,-0.09492725878953934,0.14477239549160004,-0.2486094981431961
1759306287052926500,2.502926513671875,-0.03427373617887497,0.20948946475982666,-0.18114452064037323
1759306287062964200,2.512964111328125,0.019485069438815117,0.14707063138484955,-0.08761619031429291
1759306287073006300,2.52300634765625,0.14990179240703583,-0.07387672364711761,0.0432501919567585
1759306287083044600,2.533044677734375,0.31527507305145264,-0.4780336916446686,0.19331853091716766
1759306287093085700,2.543085693359375,0.5033143162727356,-0.8502151370048523,0.29798832535743713
1759306287103125000,2.553125,0.7487096190452576,-1.0901479721069336,0.37236467003822327
1759306287113165600,2.56316552734375,0.962845504283905,-1.2454622983932495,0.4149320423603058
1759306287123204400,2.573204345703125,1.1225064992904663,-1.2289083003997803,0.4031577408313751
1759306287133246200,2.58324609375,1.180728554725647,-0.9993342161178589,0.3470507264137268
1759306287143286300,2.593286376953125,0.9672254920005798,-0.6431404948234558,0.2669287919998169
1759306287153324000,2.603323974609375,0.3359925150871277,-0.30987921357154846,0.13811083137989044
1759306287163364000,2.613364013671875,0.06455053389072418,0.11654402315616608,-0.046197932213544846
1759306287173406500,2.623406494140625,0.05021152272820473,0.5366387963294983,-0.06641577184200287
1759306287183443200,2.633443115234375,0.04826301708817482,0.6754823923110962,0.02338208258152008
1759306287193485000,2.643485107421875,-0.043816424906253815,0.5994739532470703,0.07935585826635361
1759306287203524600,2.653524658203125,-0.10012327879667282,0.6934685707092285,0.11990811675786972
1759306287213564200,2.663564208984375,-0.07374349236488342,0.5393866896629333,0.06326818466186523
1759306287223604000,2.67360400390625,-0.04801320657134056,0.3776439428329468,0.02291577309370041
1759306287233642800,2.683642822265625,-0.04807982221245766,0.3809081017971039,0.03202546015381813
1759306287243682600,2.6936826171875,-0.057555895298719406,0.41088512539863586,0.023865045979619026
1759306287253722400,2.703722412109375,-0.05037806183099747,0.3713987171649933,-0.026146629825234413
1759306287263762400,2.713762451171875,-0.047946590930223465,0.3729475438594818,-0.05654000863432884
1759306287273803800,2.7238037109375,-0.08200382441282272,0.4230424761772156,0.03060987778007984
1759306287283843300,2.73384326171875,-0.11627756059169769,0.4840790629386902,0.15767917037010193
1759306287293885000,2.743885009765625,-0.1271192580461502,0.5568899512290955,0.2506745755672455
1759306287303925000,2.753925048828125,-0.12715256214141846,0.5086102485656738,0.17523238062858582
1759306287313961200,2.763961181640625,-0.10801722854375839,0.453669011592865,0.028028521686792374
1759306287324004600,2.774004638671875,-0.10766749829053879,0.4208275079727173,0.024447932839393616
1759306287334044000,2.7840439453125,-0.10192190110683441,0.35131412744522095,0.02914433367550373
1759306287344082700,2.794082763671875,-0.09775841981172562,0.3546615540981293,0.022199654951691628
1759306287354122500,2.80412255859375,-0.08058824390172958,0.37541231513023376,0.006928024347871542
1759306287364162600,2.81416259765625,-0.07415983825922012,0.3146422207355499,-0.015271631069481373
1759306287374201300,2.824201416015625,-0.05660662427544594,0.20883996784687042,-0.06103656068444252
1759306287384242400,2.834242431640625,-0.0563734695315361,0.20234493911266327,-0.12873467803001404
1759306287394281700,2.84428173828125,-0.04270061105489731,0.22494429349899292,-0.2116711288690567
1759306287404321800,2.85432177734375,-0.02579689770936966,0.18261006474494934,-0.21783307194709778
1759306287414362000,2.864362060546875,0.00987576600164175,0.06346803158521652,-0.16991978883743286
1759306287424402000,2.87440185546875,0.041851263493299484,-0.027079248800873756,-0.09154651314020157
1759306287434441200,2.884441162109375,0.03482331335544586,-0.1405756175518036,-0.07016289979219437
1759306287444481000,2.89448095703125,0.032208651304244995,-0.21207082271575928,-0.08123774826526642
1759306287454520600,2.9045205078125,0.0009659265051595867,-0.21282024681568146,-0.09247913211584091
1759306287464561000,2.914560791015625,0.009226263500750065,-0.2168838083744049,-0.12355531752109528
1759306287474599400,2.924599365234375,0.015488131903111935,-0.20342744886875153,-0.12325555086135864
1759306287484639000,2.934638916015625,0.018735643476247787,-0.20670826733112335,-0.11208078265190125
1759306287494679600,2.944679443359375,0.012540390715003014,-0.22217974066734314,-0.0943443700671196
1759306287504720400,2.954720458984375,0.014955206774175167,-0.2315225899219513,-0.07339376211166382
1759306287514761500,2.964761474609375,0.033124618232250214,-0.2362522929906845,-0.04726378247141838
1759306287524800800,2.97480078125,0.027195826172828674,-0.22093069553375244,-0.01908537559211254
1759306287534840600,2.984840576171875,-0.006211906671524048,-0.19455091655254364,-0.0009659265051595867
1759306287544880600,2.994880615234375,-0.037421323359012604,-0.14160814881324768,-0.00954268779605627
1759306287554919000,3.0049189453125,-0.051327332854270935,-0.09141328185796738,-0.03102622553706169
1759306287564959500,3.01495947265625,-0.038637060672044754,-0.06291845440864563,-0.02856144681572914
1759306287574999000,3.0249990234375,-0.014388973824679852,-0.052709609270095825,-0.03432369604706764
1759306287585040000,3.035039794921875,-0.002331546740606427,-0.05557408183813095,-0.04253407195210457
1759306287595080200,3.045080078125,0.026229899376630783,-0.018902182579040527,-0.04889586567878723
1759306287605118500,3.055118408203125,0.03635547310113907,0.025696974247694016,0.00008326952229253948
1759306287625197300,3.075197265625,0.025780243799090385,0.04579823836684227,0.010658498853445053
1759306287635239700,3.08523974609375,0.010924961417913437,0.05469142273068428,0.009592649526894093
1759306287645279700,3.09527978515625,-0.0012157351011410356,0.08000535517930984,-0.021383613348007202
1759306287655318000,3.105318115234375,-0.008393567986786366,0.10969927161931992,-0.031625766307115555
1759306287665358800,3.11535888671875,-0.004180130083113909,0.12437136471271515,-0.03523966297507286
1759306287675398400,3.1253984375,-0.00016653904458507895,0.11126473546028137,-0.043733153492212296
1759306287685438000,3.13543798828125,0.009725880809128284,0.0927455946803093,-0.06133633106946945
1759306287695478300,3.145478271484375,0.02363189123570919,0.08090467005968094,-0.06641577184200287
1759306287705519000,3.15551904296875,0.03717151656746864,0.07309398800134659,-0.06556642055511475
1759306287715557000,3.16555712890625,0.036505360156297684,0.06291845440864563,-0.06501684337854385
1759306287725596700,3.1755966796875,0.03252507746219635,0.05134398862719536,-0.06037040427327156
1759306287735637000,3.185636962890625,0.02806182950735092,0.04876263439655304,-0.050960950553417206
1759306287745684200,3.195684326171875,0.02346535213291645,0.051660411059856415,-0.040135908871889114
1759306287755719000,3.205718994140625,0.013939318247139454,0.05126071721315384,-0.03232523053884506
1759306287765755600,3.215755615234375,-0.002797855995595455,0.0415848009288311,-0.022765887901186943
1759306287775795000,3.225794921875,-0.018302641808986664,0.03234188258647919,-0.010675152763724327
1759306287785837800,3.235837890625,-0.02271592617034912,0.027195826172828674,-0.0005329249543137848
1759306287795877400,3.24587744140625,-0.01673717424273491,0.0160377100110054,0.005112748593091965
1759306287805919000,3.2559189453125,-0.003547281725332141,-0.003913667518645525,0.0019818146247416735
1759306287815955700,3.265955810546875,0.0007161179091781378,-0.034623466432094574,0.006245214492082596
1759306287825996300,3.275996337890625,-0.0019318530103191733,-0.060137249529361725,0.02479766495525837
1759306287836034300,3.286034423828125,-0.006828100886195898,-0.07769046723842621,0.04003598541021347
1759306287846074400,3.296074462890625,-0.0038637060206383467,-0.10640180110931396,0.0374879390001297
1759306287856117800,3.30611767578125,0.0007327718194574118,-0.14267399907112122,0.027828674763441086
1759306287866157300,3.3161572265625,0.016970328986644745,-0.15568070113658905,0.03169238194823265
1759306287876196000,3.326196044921875,0.039802830666303635,-0.1770976185798645,0.022899119183421135
1759306287886210300,3.336210205078125,0.047280434519052505,-0.18773946166038513,-0.007760719861835241
1759306287896249900,3.346249755859375,0.01707025244832039,-0.20880666375160217,-0.03568931668996811
1759306287906289200,3.3562890625,-0.013539624400436878,-0.20449329912662506,-0.0563734695315361
1759306287916330800,3.366330810546875,0.025530437007546425,-0.1571129411458969,-0.06503349542617798
1759306287926396200,3.376396240234375,0.058638397604227066,-0.10974923521280289,-0.03677182272076607
1759306287936435000,3.38643505859375,0.045032158493995667,-0.07474272698163986,-0.0020151224453002214
1759306287946475500,3.3964755859375,0.02612997591495514,-0.09604307264089584,0.015371554531157017
1759306287956516000,3.40651611328125,0.010825037956237793,-0.16014394164085388,0.022949080914258957
1759306287966554000,3.41655419921875,-0.0038637060206383467,-0.20772415399551392,0.03399062156677246
1759306287976595000,3.426594970703125,-0.008643376640975475,-0.19356833398342133,0.03134264796972275
1759306287986635800,3.4366357421875,-0.002781202085316181,-0.14670424163341522,0.01333977747708559
1759306287996673300,3.44667333984375,-0.005012825131416321,-0.10660164803266525,-0.007777373772114515
1759306288006713900,3.4567138671875,0.004929556045681238,-0.07427641749382019,-0.014355666004121304
1759306288016753700,3.466753662109375,0.0007494257297366858,-0.04807982221245766,0.006295176222920418
1759306288026809300,3.476809326171875,0.01878560520708561,-0.031625766307115555,0.014488897286355495
1759306288036834000,3.486833984375,0.03180895745754242,-0.03946975618600845,0.008093797601759434
1759306288046874600,3.49687451171875,0.028578100726008415,-0.05242649093270302,-0.00737767992541194
1759306288056913200,3.5069130859375,0.038220711052417755,-0.05469142273068428,-0.02374846860766411
1759306288066953200,3.516953125,0.02518070489168167,-0.03488992899656296,-0.02814509905874729
1759306288076993800,3.526993896484375,0.04148487746715546,-0.012790199369192123,-0.04230091720819473
1759306288087032000,3.537031982421875,0.04061887413263321,-0.017003636807203293,-0.039020098745822906
1759306288097073400,3.547073486328125,0.04353330656886101,-0.017986217513680458,-0.04399961605668068
1759306288107112000,3.55711181640625,0.049661945551633835,-0.0333910807967186,-0.04964528977870941
1759306288117152300,3.56715234375,0.05848851427435875,-0.05334245786070824,-0.05439165234565735
1759306288127193300,3.577193359375,0.06426741927862167,-0.07062920928001404,-0.05655666068196297
1759306288137233000,3.58723291015625,0.08137097954750061,-0.0740765705704689,-0.05770577862858772
1759306288147272000,3.59727197265625,0.08610069006681442,-0.0767078846693039,-0.05077775567770004
1759306288157312300,3.607312255859375,0.07792361825704575,-0.06771478056907654,-0.03892017528414726
1759306288167351600,3.6173515625,0.04909571260213852,-0.04354996234178543,-0.023765122517943382
1759306288177392600,3.627392578125,0.007194486912339926,-0.009775842539966106,-0.014772013761103153
1759306288187431200,3.63743115234375,-0.02488093450665474,0.022016461938619614,-0.017753062769770622
1759306288197469000,3.647468994140625,-0.04303368926048279,0.04979517683386803,-0.02776205912232399
1759306288207512600,3.6575126953125,-0.02972722053527832,0.07630819082260132,-0.04300038143992424
1759306288217553000,3.667552978515625,0.01375612523406744,0.08550114929676056,-0.04809647798538208
1759306288227592400,3.677592529296875,0.04987844452261925,0.07179498672485352,-0.030759762972593307
1759306288237630700,3.687630615234375,0.07507580518722534,0.05490792542695999,-0.009476072154939175
1759306288247670500,3.69767041015625,0.07425975799560547,0.036755166947841644,0.004080206621438265
1759306288257711400,3.70771142578125,0.04787997528910637,0.03782101720571518,0.016520673409104347
1759306288267750700,3.717750732421875,0.01014222763478756,0.0659494623541832,0.03548946976661682
1759306288277792000,3.7277919921875,-0.045115429908037186,0.10783403366804123,0.047830015420913696
1759306288287831800,3.737831787109375,-0.10488629341125488,0.16089338064193726,0.041984494775533676
1759306288297825500,3.747825439453125,-0.14052565395832062,0.23073984682559967,0.020434340462088585
1759306288307909000,3.7579091796875,-0.14184130728244781,0.28374922275543213,-0.0012823506258428097
1759306288317949400,3.767949462890625,-0.11386274546384811,0.3253173828125,-0.017553215846419334
1759306288327989000,3.777989013671875,-0.08500152826309204,0.3759119510650635,-0.03177564963698387
1759306288338029600,3.788029541015625,-0.05194352939724922,0.4393799602985382,-0.037388015538454056
1759306288348070400,3.7980703125,-0.038054171949625015,0.5184527039527893,-0.023232197389006615
1759306288358109200,3.808109130859375,-0.03800421208143234,0.5628853440284729,-0.0017986217280849814
1759306288368149500,3.8181494140625,0.003597243456169963,0.5065118670463562,-0.01005895808339119
1759306288378188300,3.828188232421875,0.08791596442461014,0.2718416750431061,-0.0691470131278038
1759306288388229000,3.83822900390625,0.14427277445793152,0.022599348798394203,-0.11677718162536621
1759306288398267600,3.848267578125,0.11078177392482758,-0.023182235658168793,-0.1244046688079834
1759306288408309800,3.858309814453125,0.02504747360944748,0.09692572802305222,-0.12022453546524048
1759306288418348500,3.8683486328125,-0.07287748903036118,0.2212471216917038,-0.07855647057294846
1759306288428388400,3.878388427734375,-0.06893051415681839,0.14522205293178558,-0.013772779144346714
1759306288438429000,3.888428955078125,-0.06483364850282669,0.0210005734115839,0.06190256401896477
1759306288448468700,3.89846875,-0.06042036786675453,-0.07892285287380219,0.08738303929567337
1759306288458509600,3.908509521484375,-0.038137443363666534,-0.16976991295814514,0.0651167705655098
1759306288468546800,3.918546875,-0.012706929817795753,-0.17361696064472198,0.040635526180267334
1759306288478587100,3.928587158203125,0.021100496873259544,-0.1018386259675026,0.022432809695601463
1759306288488627500,3.93862744140625,0.06906374543905258,-0.022516079246997833,0.009526033885776997
1759306288498666200,3.948666259765625,0.0802551656961441,0.024181470274925232,0.01850248873233795
1759306288508707000,3.95870703125,0.07347702980041504,0.03818740323185921,0.02867802418768406
1759306288518746400,3.968746337890625,0.05645673722028732,0.025330590084195137,0.0341571569442749
1759306288528788700,3.978788818359375,0.039503064006567,0.0000666156192892231,0.04108518362045288
1759306288538826200,3.988826171875,0.037471286952495575,-0.04141826182603836,0.04496554285287857
1759306288548866600,3.998866455078125,0.038803599774837494,-0.08408556878566742,0.04100191220641136
1759306288558908700,4.00890869140625,0.03440696746110916,-0.11379612982273102,0.034340351819992065
1759306288568947000,4.018947021484375,0.024397971108555794,-0.13393069803714752,0.022282924503087997
1759306288578986800,4.02898681640625,0.010242151096463203,-0.12658633291721344,0.007444295566529036
1759306288589026300,4.0390263671875,-0.0008660030434839427,-0.09118013083934784,0.0015654671005904675
1759306288599068400,4.049068359375,-0.0018485834589228034,-0.04796324670314789,0.002831163816154003
1759306288609108000,4.05910791015625,0.004696401301771402,-0.012507082894444466,0.011724349111318588
1759306288619147300,4.069147216796875,0.01698698289692402,-0.0005662327748723328,0.023648545145988464
1759306288629186600,4.0791865234375,0.027379019185900688,0.0008493491332046688,0.025114089250564575
1759306288639225300,4.089225341796875,0.030459992587566376,0.007960566319525242,0.02258269488811493
1759306288649264000,4.09926416015625,0.028411561623215675,0.02045099437236786,0.018935490399599075
1759306288659305700,4.1093056640625,0.023815084248781204,0.03477335348725319,0.013489662669599056
1759306288669345000,4.119344970703125,0.017919601872563362,0.045731622725725174,0.0075442190282046795
1759306288679385600,4.129385498046875,0.012990045361220837,0.05527431145310402,0.008043835870921612
1759306288689424600,4.139424560546875,0.008676684461534023,0.0638677254319191,0.008060489781200886
1759306288699464400,4.14946435546875,0.00626186840236187,0.06898047029972076,0.00662825396284461
1759306288709506000,4.159506103515625,0.00791060458868742,0.057722434401512146,0.0075109112076461315
1759306288719543300,4.169543212890625,0.00791060458868742,0.027112556621432304,0.0045964778400957584
1759306288729583000,4.1795830078125,0.0026979325339198112,0.006811446975916624,-0.004013590980321169
1759306288739626000,4.1896259765625,-0.006045367568731308,0.018902182579040527,-0.009409456513822079
1759306288749664000,4.1996640625,-0.01803617924451828,0.02438131719827652,-0.01185758039355278
1759306288759704800,4.209704833984375,-0.025830205529928207,0.00011657733557512984,-0.01244046725332737
1759306288769745400,4.219745361328125,-0.026279861107468605,-0.0349898524582386,-0.008926493115723133
1759306288779782700,4.22978271484375,-0.021217074245214462,-0.04774674400687218,-0.00592879019677639
1759306288789823000,4.239822998046875,-0.008676684461534023,-0.05677316337823868,-0.007860642857849598
1759306288799862800,4.24986279296875,-0.0044799004681408405,-0.03552277758717537,-0.003114280290901661
1759306288809903400,4.2599033203125,-0.00004996171628590673,-0.03760451823472977,0.0024980856105685234
1759306288819944200,4.269944091796875,0.013872702606022358,-0.051210757344961166,0.007927258498966694
1759306288829984000,4.27998388671875,0.023531967774033546,-0.07017955183982849,0.012956737540662289
1759306288840021500,4.290021484375,0.02454785630106926,-0.04453254118561745,0.01707025244832039
1759306288850061600,4.3000615234375,0.020734110847115517,-0.017769716680049896,0.011624425649642944
1759306288860104400,4.3101044921875,0.02133365161716938,-0.007843988947570324,0.005978751927614212
1759306288870141200,4.32014111328125,0.019268568605184555,-0.02654632367193699,0.009109686128795147
1759306288880182500,4.3301826171875,0.02108384296298027,-0.0572061613202095,0.0045132082886993885
1759306288890223400,4.340223388671875,0.02263265661895275,-0.0799720510840416,-0.0074942572973668575
1759306288900262100,4.35026220703125,0.020067954435944557,-0.08711657673120499,-0.014472243376076221
1759306288910302200,4.36030224609375,0.017669793218374252,-0.09006431698799133,-0.016587289050221443
1759306288920340700,4.3703408203125,0.013806086964905262,-0.09484399110078812,-0.01590447872877121
1759306288930382600,4.380382568359375,0.008227028883993626,-0.09882427006959915,-0.013939318247139454
1759306288940422000,4.390421875,0.00782733503729105,-0.09574329853057861,-0.015621363185346127
1759306288950462700,4.400462646484375,0.012856814078986645,-0.08340275287628174,-0.016853751614689827
1759306288960500700,4.410500732421875,0.019551685079932213,-0.06571631133556366,-0.01194084994494915
1759306288970541600,4.42054150390625,0.021400267258286476,-0.04541520029306412,-0.006078675389289856
1759306288980582000,4.430581787109375,0.017636485397815704,-0.02229957841336727,-0.003930321428924799
1759306288990622200,4.440622314453125,0.013056661002337933,0.009492726065218449,-0.0038637060206383467
1759306289000662500,4.45066259765625,0.011507848277688026,0.0386703684926033,-0.0011824272805824876
1759306289010699800,4.46069970703125,0.01458882074803114,0.04541520029306412,-0.003280819160863757
1759306289020740600,4.47074072265625,0.015021822415292263,0.043316807597875595,-0.006944678258150816
1759306289030780400,4.480780517578125,0.0075608729384839535,0.04031910374760628,-0.006028713658452034
1759306289040820700,4.49082080078125,-0.007744065951555967,0.04558173567056656,-0.008859877474606037
1759306289050860000,4.500860107421875,-0.028411561623215675,0.059970710426568985,-0.011707695201039314
1759306289060901400,4.5109013671875,-0.05652335286140442,0.07998870313167572,-0.012507082894444466
1759306289070942000,4.52094189453125,-0.06949674338102341,0.09999004751443863,-0.01908537559211254
1759306289080981200,4.530981201171875,-0.05425842106342316,0.10999903827905655,-0.028078483417630196
1759306289091020800,4.541020751953125,-0.007660796400159597,0.09987346827983856,-0.028128445148468018
1759306289101060000,4.55106005859375,0.044482581317424774,0.06495022773742676,-0.02216634713113308
1759306289111099000,4.561098876953125,0.08451856672763824,0.021017227321863174,-0.025363897904753685
1759306289121138700,4.571138671875,0.1285015344619751,-0.03907006233930588,-0.04354996234178543
1759306289131179000,4.581178955078125,0.14234092831611633,-0.08736638724803925,-0.04746362939476967
1759306289141219000,4.591218994140625,0.12918433547019958,-0.08623392134904861,-0.04559839144349098
1759306289151259100,4.601259033203125,0.10098928213119507,-0.08117113262414932,-0.041651416569948196
1759306289161297700,4.611297607421875,0.07762385159730911,-0.09444429725408554,-0.038437213748693466
1759306289171338800,4.6213388671875,0.058055512607097626,-0.12991711497306824,-0.040269140154123306
1759306289181378000,4.6313779296875,0.030992917716503143,-0.16052699089050293,-0.04583154618740082
1759306289191419000,4.6414189453125,0.01991806924343109,-0.17158518731594086,-0.05206010490655899
1759306289201460000,4.6514599609375,0.02075076475739479,-0.1838258057832718,-0.04563169926404953
1759306289211499000,4.6614990234375,0.020301109179854393,-0.18006202578544617,-0.03277488425374031
1759306289221537800,4.671537841796875,0.015538093633949757,-0.14643777906894684,-0.02742898091673851
1759306289231577300,4.681577392578125,0.0075275651179254055,-0.10760088264942169,-0.02651301585137844
1759306289241619500,4.691619384765625,0.004862940404564142,-0.08576761186122894,-0.028861217200756073
1759306289251658000,4.701657958984375,0.009059724397957325,-0.08183728903532028,-0.033674195408821106
1759306289261696500,4.711696533203125,0.015005168505012989,-0.08315294981002808,-0.04236753284931183
1759306289271735800,4.72173583984375,0.021733345463871956,-0.07985547184944153,-0.060353752225637436
1759306289281765000,4.73176513671875,0.03470673784613609,-0.07057924568653107,-0.08138763159513474
1759306289291817200,4.741817138671875,0.04291711375117302,-0.0544249601662159,-0.09669256955385208
1759306289301858300,4.7518583984375,0.04466577246785164,-0.02103388123214245,-0.09884092211723328
1759306289311896300,4.761896240234375,0.042101070284843445,0.030043644830584526,-0.0913633182644844
1759306289321935400,4.771935302734375,0.028744639828801155,0.0802551656961441,-0.08461849391460419
1759306289331975700,4.7819755859375,0.011424578726291656,0.12741902470588684,-0.07729077339172363
1759306289342016500,4.7920166015625,0.004979517310857773,0.16738839447498322,-0.0717117115855217
1759306289352057600,4.8020576171875,-0.00023315467115025967,0.1332312375307083,-0.06515007466077805
1759306289362096600,4.8120966796875,0.007011293899267912,0.11013226956129074,-0.0622023344039917
1759306289372137700,4.8221376953125,0.015704631805419922,0.09023085981607437,-0.06673219799995422
1759306289382175000,4.832175048828125,0.017519908025860786,0.09186293929815292,-0.07770711928606033
1759306289392215600,4.842215576171875,0.014355666004121304,0.0993405431509018,-0.08716654032468796
1759306289402253800,4.85225390625,0.009126340039074421,0.12154019623994827,-0.08418548852205276
1759306289412294100,4.862294189453125,0.005812212824821472,0.09109685570001602,-0.08128771185874939
1759306289422334200,4.872334228515625,-0.0006994639988988638,0.07704096287488937,-0.07739069312810898
1759306289432375600,4.88237548828125,-0.00039969373028725386,0.07204478979110718,-0.07464279979467392
1759306289442413000,4.8924130859375,0.00489624822512269,0.07026282697916031,-0.07347702980041504
1759306289452454400,4.902454345703125,0.011657733470201492,0.06739835441112518,-0.0737934559583664
1759306289462493400,4.912493408203125,0.017902947962284088,0.06799789518117905,-0.06753158569335938
1759306289472535300,4.922535400390625,0.022232962772250175,0.08258671313524246,-0.056806471198797226
1759306289482575600,4.93257568359375,0.02271592617034912,0.11855915188789368,-0.046647585928440094
1759306289492614100,4.9426142578125,0.018652373924851418,0.07334379851818085,-0.0399194099009037
1759306289502653200,4.952653076171875,0.02313227392733097,0.05835528299212456,-0.03289146348834038
1759306289512695000,4.962695068359375,0.025696974247694016,0.04225095734000206,-0.03310796245932579
1759306289522734000,4.972734130859375,0.025946782901883125,0.038470521569252014,-0.033874042332172394
1759306289532773600,4.982773681640625,0.024747703224420547,0.04305034503340721,-0.0350564680993557
1759306289542813400,4.9928134765625,0.02199980802834034,0.05250976234674454,-0.04543185234069824
1759306289552854300,5.002854248046875,0.022033115848898888,0.05129402503371239,-0.05885490030050278
1759306289562893600,5.0128935546875,0.024581164121627808,0.03923660144209862,-0.06403426080942154
1759306289572934700,5.0229345703125,0.028494831174612045,0.033674195408821106,-0.07301072031259537
1759306289582972400,5.032972412109375,0.0292276032269001,0.03022683784365654,-0.07759054005146027
1759306289593014000,5.043013916015625,0.026896055787801743,0.0271791722625494,-0.08097128570079803
1759306289603052300,5.05305224609375,0.023865045979619026,0.0403357557952404,-0.08065485954284668
1759306289613092600,5.063092529296875,0.021533498540520668,0.05390869081020355,-0.08396898955106735
1759306289623133700,5.0731337890625,0.020134570077061653,0.05607369914650917,-0.09442763775587082
1759306289633173000,5.083173095703125,0.021267035976052284,0.03160911053419113,-0.10397032648324966
1759306289643213300,5.09321337890625,0.026246553286910057,0.015271631069481373,-0.10112251341342926
1759306289653253400,5.10325341796875,0.0267961323261261,0.029160987585783005,-0.10540256649255753
1759306289663291400,5.11329150390625,0.02174999937415123,0.06295175850391388,-0.12253943085670471
1759306289673333500,5.12333349609375,0.02191653847694397,0.07442630082368851,-0.13706164062023163
1759306289683370200,5.133370361328125,0.027662135660648346,0.051743682473897934,-0.14913572371006012
1759306289693411800,5.143411865234375,0.03240849822759628,0.03845386579632759,-0.16024386882781982
1759306289703451400,5.153451416015625,0.031209418550133705,0.04379976913332939,-0.16648907959461212
1759306289713491000,5.163490966796875,0.027878636494278908,0.06430072337388992,-0.16892056167125702
1759306289723529500,5.173529541015625,0.026662901043891907,0.08128771185874939,-0.17649808526039124
1759306289733570600,5.183570556640625,0.030343415215611458,0.07069582492113113,-0.1958332657814026
1759306289743610400,5.1936103515625,0.04368319362401962,0.07897281646728516,-0.2095893919467926
1759306289753649700,5.203649658203125,0.052543070167303085,0.08048832416534424,-0.22526071965694427
1759306289763689200,5.213689208984375,0.052076760679483414,0.0662991926074028,-0.2530560791492462
1759306289773732000,5.223732177734375,0.05159379541873932,0.08207044005393982,-0.2758719325065613
1759306289783769000,5.23376904296875,0.04604804515838623,0.0935782939195633,-0.304633229970932
1759306289793810200,5.24381005859375,0.040019333362579346,0.09536025673151016,-0.34220442175865173
1759306289803851800,5.253851806640625,0.039386484771966934,0.09129670262336731,-0.37865984439849854
1759306289813891000,5.26389111328125,0.04386638477444649,0.07885623723268509,-0.41906219720840454
1759306289823929600,5.2739296875,0.05818874388933182,0.06481699645519257,-0.4654266834259033
1759306289833968400,5.283968505859375,0.07817342877388,0.042184341698884964,-0.51322340965271
1759306289844009500,5.294009521484375,0.09747530519962311,0.028911178931593895,-0.5755922794342041
1759306289854048800,5.304048828125,0.11164777725934982,0.09038074314594269,-0.6460049748420715
1759306289864090400,5.31409033203125,0.1092662662267685,0.15732944011688232,-0.7318391799926758
1759306289874129700,5.324129638671875,0.09799157828092575,0.24870941042900085,-0.830513596534729
1759306289884169700,5.334169677734375,0.07908939570188522,0.3532792925834656,-0.9492392539978027
1759306289894209500,5.34420947265625,0.05474138632416725,0.41713035106658936,-1.0867505073547363
1759306289904246800,5.354246826171875,0.03648870438337326,0.3929988443851471,-1.2476105690002441
1759306289914289000,5.364288818359375,0.02568032033741474,0.267345130443573,-1.4330352544784546
1759306289924327000,5.374326904296875,0.023498659953475,0.08291979134082794,-1.6465215682983398
1759306289934368300,5.3843681640625,-0.003464012173935771,-0.10265466570854187,-1.8602244853973389
1759306289944408600,5.39440869140625,-0.09709226340055466,-0.34423622488975525,-2.05259370803833
1759306289954448400,5.404448486328125,-0.24461255967617035,-0.6362624168395996,-2.2130541801452637
1759306289964489500,5.414489501953125,-0.36242228746414185,-0.6458883881568909,-2.317307472229004
1759306289974528000,5.424528076171875,-0.4029079079627991,-0.30848029255867004,-2.380908966064453
1759306289984568000,5.434568115234375,-0.4113181531429291,-0.028411561623215675,-2.4715893268585205
1759306289994609000,5.44460888671875,-0.39719563722610474,-0.005079440772533417,-2.5614538192749023
1759306290004648700,5.454648681640625,-0.322469562292099,-0.1088499203324318,-2.558039665222168
1759306290014686200,5.464686279296875,-0.19786503911018372,-0.41706374287605286,-2.474503755569458
1759306290024729000,5.47472900390625,-0.07339376211166382,-0.7132201194763184,-2.40509033203125
1759306290034767600,5.484767578125,0.07097893953323364,-0.8693171739578247,-2.3659703731536865
1759306290044805400,5.494805419921875,0.21556814014911652,-0.7293077707290649,-2.369933843612671
1759306290054846700,5.5048466796875,0.2982381284236908,-0.43261849880218506,-2.4066224098205566
1759306290064887300,5.51488720703125,0.29737213253974915,-0.21273697912693024,-2.4763357639312744
1759306290074926600,5.524926513671875,0.24336351454257965,-0.10383709520101547,-2.5433177947998047
1759306290084967200,5.53496728515625,0.17852985858917236,-0.18587423861026764,-2.589782238006592
1759306290095008000,5.545008056640625,0.1219065859913826,-0.32776549458503723,-2.569314479827881
1759306290105047600,5.555047607421875,0.08242017775774002,-0.3478667736053467,-2.5325093269348145
1759306290115084800,5.565084716796875,0.08460183441638947,-0.2652134299278259,-2.536806106567383
1759306290125123800,5.575123779296875,0.14878597855567932,-0.20650841295719147,-2.5139567852020264
1759306290135167200,5.585167236328125,0.26266539096832275,-0.20460987091064453,-2.418346881866455
1759306290145206000,5.5952060546875,0.35118088126182556,-0.25300613045692444,-2.3204052448272705
1759306290155246300,5.605246337890625,0.39324864745140076,-0.26904383301734924,-2.3034682273864746
1759306290165286100,5.6152861328125,0.4200114905834198,-0.23378752171993256,-2.3358266353607178
1759306290175325200,5.6253251953125,0.42629000544548035,-0.10775076597929001,-2.3774282932281494
1759306290185365200,5.635365234375,0.44066232442855835,0.09073047339916229,-2.4194793701171875
1759306290195404500,5.645404541015625,0.4986012578010559,0.1961163878440857,-2.4513049125671387
1759306290205444000,5.655444091796875,0.5663160085678101,0.26926034688949585,-2.4823811054229736
1759306290215486500,5.665486572265625,0.5963263511657715,0.35257983207702637,-2.564018487930298
1759306290225523700,5.675523681640625,0.5400528311729431,0.39691251516342163,-2.696350574493408
1759306290235563800,5.685563720703125,0.4345836341381073,0.32506757974624634,-2.727243423461914
1759306290245606000,5.69560595703125,0.3308464586734772,0.1367618590593338,-2.6397438049316406
1759306290255646000,5.70564599609375,0.26398104429244995,0.0622023344039917,-2.5756096839904785
1759306290265689300,5.715689453125,0.25079116225242615,0.08598411083221436,-2.5536930561065674
1759306290275727600,5.7257275390625,0.2788030207157135,0.03072645515203476,-2.525881052017212
1759306290285765000,5.73576513671875,0.336841881275177,-0.0267961323261261,-2.5042476654052734
1759306290295802600,5.745802734375,0.3554442822933197,-0.018435873091220856,-2.485128879547119
1759306290305844000,5.755843994140625,0.34526875615119934,0.04749693721532822,-2.4938557147979736
1759306290315887900,5.765887939453125,0.30959609150886536,0.13552947342395782,-2.5139403343200684
1759306290325924900,5.7759248046875,0.2240949422121048,0.22775879502296448,-2.5233497619628906
1759306290335964200,5.785964111328125,0.1682044416666031,0.21740007400512695,-2.5243656635284424
1759306290346003700,5.796003662109375,0.13444697856903076,0.10883326828479767,-2.5102596282958984
1759306290356043500,5.80604345703125,0.11554478853940964,0.041434913873672485,-2.462096691131592
1759306290366082000,5.81608203125,0.0975419208407402,-0.03687174618244171,-2.40865421295166
1759306290376121600,5.82612158203125,0.09722549468278885,-0.049995023757219315,-2.361473798751831
1759306290386162200,5.836162109375,0.09051397442817688,-0.06150287017226219,-2.328265905380249
1759306290396201700,5.84620166015625,0.08318625390529633,-0.03039337694644928,-2.2988383769989014
1759306290406242800,5.856242919921875,0.07792361825704575,0.012124042958021164,-2.259884834289551
1759306290416282000,5.8662822265625,0.0758751928806305,0.08516807109117508,-2.227809429168701
1759306290426321700,5.87632177734375,0.08576761186122894,0.1811278760433197,-2.1861414909362793
1759306290436363500,5.886363525390625,0.07755723595619202,0.2478434145450592,-2.1224734783172607
1759306290446400500,5.896400390625,0.03503981605172157,0.24329689145088196,-2.0090603828430176
1759306290456442000,5.906442138671875,-0.0038803599309176207,0.2274923324584961,-1.8640216588974
1759306290466481000,5.91648095703125,0.009109686128795147,0.24108192324638367,-1.7400332689285278
1759306290476521500,5.926521484375,0.07915601134300232,0.27335718274116516,-1.608134388923645
1759306290486560500,5.936560546875,0.11276359111070633,0.27577200531959534,-1.4570001363754272
1759306290496601000,5.94660107421875,0.08778273314237595,0.17867974936962128,-1.348266839981079
1759306290506640600,5.956640625,0.043233536183834076,0.021350305527448654,-1.2312897443771362
1759306290516681700,5.966681640625,0.026812786236405373,-0.05757254734635353,-1.1195087432861328
1759306290526720800,5.976720703125,0.035256315022706985,-0.04103522002696991,-1.0197519063949585
1759306290536761000,5.986760986328125,0.034839969128370285,-0.032458461821079254,-0.9076710939407349
1759306290546800400,5.99680029296875,0.013889356516301632,-0.04889586567878723,-0.7838326692581177
1759306290556839400,6.00683935546875,-0.007843988947570324,-0.04896248131990433,-0.6833263635635376
1759306290566879700,6.016879638671875,-0.03419046476483345,-0.07096228748559952,-0.5625189542770386
1759306290576918300,6.026918212890625,-0.045198697596788406,-0.06814777851104736,-0.4475570321083069
1759306290586960600,6.036960693359375,-0.05620693042874336,-0.05319257080554962,-0.33547624945640564
1759306290597000400,6.04700048828125,-0.05712289363145828,-0.054458267986774445,-0.2256271094083786
1759306290607038700,6.057038818359375,-0.04543185234069824,-0.06325153261423111,-0.13396401703357697
1759306290617079800,6.067079833984375,-0.02856144681572914,-0.06603273004293442,-0.07434303313493729
1759306290627117300,6.077117431640625,-0.00044965543202124536,-0.0750424936413765,-0.031126148998737335
1759306290637157400,6.087157470703125,0.04261734336614609,-0.09864107519388199,0.0012490428052842617
1759306290647198500,6.097198486328125,0.09454421699047089,-0.11291347444057465,0.021350305527448654
1759306290657239600,6.107239501953125,0.14673756062984467,-0.10706795752048492,0.04020252451300621
1759306290667277600,6.117277587890625,0.20172874629497528,-0.07041271030902863,0.054458267986774445
1759306290677319700,6.127319580078125,0.24932560324668884,-0.012357197701931,0.06078675389289856
1759306290687357700,6.137357666015625,0.2861473858356476,0.0011657733703032136,0.06989643722772598
1759306290697396700,6.147396728515625,0.30236828327178955,0.003130934201180935,0.07509245723485947
1759306290707437800,6.157437744140625,0.30293452739715576,0.009109686128795147,0.08030512928962708
1759306290717477400,6.167477294921875,0.2996203899383545,0.005279287695884705,0.0884488895535469
1759306290727518000,6.17751806640625,0.2877461612224579,-0.008676684461534023,0.09622626006603241
1759306290737557200,6.18755712890625,0.2763215899467468,-0.01908537559211254,0.09709226340055466
1759306290747597300,6.197597412109375,0.26842764019966125,-0.03240849822759628,0.08635049313306808
1759306290757636600,6.20763671875,0.247710183262825,-0.02767878957092762,0.06458384543657303
1759306290767677000,6.217677001953125,0.21033881604671478,0.02654632367193699,0.02859475463628769
1759306290777716500,6.227716552734375,0.15716290473937988,0.08250344544649124,-0.00874330010265112
1759306290787755800,6.237755859375,0.10738437622785568,0.14334015548229218,0.0296772588044405
1759306290797777200,6.247777099609375,-0.009409456513822079,0.07953905314207077,0.14142495393753052
1759306290807836000,6.2578359375,-0.12800191342830658,-0.13861045241355896,0.1162109449505806
1759306290817876500,6.26787646484375,-0.12380512803792953,-0.24161484837532043,-0.11088170111179352
1759306290827916500,6.27791650390625,-0.10863342136144638,-0.1451720893383026,-0.31848928332328796
1759306290837955300,6.287955322265625,-0.12573698163032532,0.004862940404564142,-0.3539954125881195
1759306290847995400,6.297995361328125,-0.16374118626117706,0.12327220290899277,-0.23630225658416748
1759306290858035700,6.30803564453125,-0.19643281400203705,0.1141958236694336,-0.13344773650169373
1759306290868075000,6.318074951171875,-0.15651339292526245,-0.03482331335544586,-0.09242916852235794
1759306290878116400,6.328116455078125,-0.05480800196528435,-0.22579364478588104,-0.0947607159614563
1759306290888154000,6.338154052734375,0.0008826569537632167,-0.29307541251182556,-0.15116749703884125
1759306290898197500,6.348197509765625,0.019102029502391815,-0.21864911913871765,-0.20747435092926025
1759306290908235500,6.358235595703125,0.0358891636133194,-0.07777373492717743,-0.2116045206785202
1759306290918275300,6.368275390625,0.06103656068444252,0.010158881545066833,-0.17852985858917236
1759306290928313000,6.37831298828125,0.10365390032529831,-0.01961830072104931,-0.13025018572807312
1759306290938356500,6.3883564453125,0.1453053206205368,-0.13671191036701202,-0.09675918519496918
1759306290948394800,6.398394775390625,0.16843760013580322,-0.25175708532333374,-0.09394467622041702
1759306290958433300,6.408433349609375,0.1593279093503952,-0.28266671299934387,-0.11895884573459625
1759306290968473000,6.41847314453125,0.1344636231660843,-0.24259743094444275,-0.14312365651130676
1759306290978513700,6.428513671875,0.10028981417417526,-0.16958671808242798,-0.1479366421699524
1759306290988552700,6.438552734375,0.06616596132516861,-0.11879230290651321,-0.13587920367717743
1759306290998593300,6.44859326171875,0.03628885746002197,-0.11171439290046692,-0.11835930496454239
1759306291008635400,6.458635498046875,0.011757656931877136,-0.12215638905763626,-0.09471075981855392
1759306291018674700,6.4686748046875,-0.01723679155111313,-0.1427406221628189,-0.07967227697372437
1759306291028714000,6.4787138671875,-0.04386638477444649,-0.16149291396141052,-0.07162844389677048
1759306291038752800,6.488752685546875,-0.06933020800352097,-0.15598046779632568,-0.06335145235061646
1759306291048791800,6.498791748046875,-0.0890650823712349,-0.11629422008991241,-0.05347568914294243
1759306291058832000,6.508831787109375,-0.10478636622428894,-0.07905608415603638,-0.0452653132379055
1759306291068872000,6.518871826171875,-0.11414586007595062,-0.05574062094092369,-0.0378376729786396
1759306291078910700,6.52891064453125,-0.11551148444414139,-0.05820539593696594,-0.022266270592808723
1759306291088954400,6.538954345703125,-0.10766749829053879,-0.08222033083438873,-0.00003330780964461155
1759306291098990300,6.548990234375,-0.10113916546106339,-0.11271362751722336,0.023931661620736122
1759306291109006600,6.559006591796875,-0.09502717852592468,-0.13762786984443665,0.03823736682534218
1759306291119046000,6.5690458984375,-0.09292878955602646,-0.14643777906894684,0.04020252451300621
1759306291129085700,6.579085693359375,-0.08989778161048889,-0.1398095339536667,0.038470521569252014
1759306291139130400,6.58913037109375,-0.08723315596580505,-0.13839395344257355,0.03820405900478363
1759306291149191200,6.599191162109375,-0.08658365160226822,-0.14393970370292664,0.03252507746219635
1759306291159230500,6.60923046875,-0.09301205724477768,-0.13806086778640747,0.028661370277404785
1759306291169271600,6.619271484375,-0.10303770750761032,-0.12253943085670471,0.026979325339198112
1759306291179309300,6.629309326171875,-0.1087833046913147,-0.09496056288480759,0.025080781430006027
1759306291189350000,6.639349853515625,-0.1087166890501976,-0.057006314396858215,0.024747703224420547
1759306291199389200,6.64938916015625,-0.09937384724617004,-0.025647012516856194,0.030026990920305252
1759306291209430000,6.659429931640625,-0.0877494215965271,-0.0019651607144623995,0.04115179926156998
1759306291219470600,6.669470703125,-0.07174502313137054,0.015171707607805729,0.04349999874830246
1759306291229509400,6.67950927734375,-0.055624041706323624,0.026363130658864975,0.038470521569252014
1759306291239550500,6.689550537109375,-0.037421323359012604,0.030876340344548225,0.030926302075386047
1759306291249590500,6.699590576171875,-0.01623755693435669,0.0317256897687912,0.021300343796610832
1759306291259630300,6.70963037109375,0.0021483537275344133,0.03963629528880119,0.013906010426580906
1759306291269670100,6.719670166015625,0.018818913027644157,0.047280434519052505,0.013023353181779385
1759306291279709000,6.729708984375,0.033674195408821106,0.051876913756132126,0.013289815746247768
1759306291289748500,6.73974853515625,0.04773009195923805,0.05176033452153206,0.013439700938761234
1759306291299789800,6.749789794921875,0.059138014912605286,0.04255072772502899,0.012673621997237206
1759306291309828600,6.75982861328125,0.06906374543905258,0.031292688101530075,0.015404862351715565
1759306291319868000,6.769867919921875,0.07457618415355682,0.017503254115581512,0.019468415528535843
1759306291329909000,6.779908935546875,0.07422645390033722,0.0044799004681408405,0.021383613348007202
1759306291339947500,6.789947509765625,0.06766481697559357,0.0022149693686515093,0.019851455464959145
1759306291349987300,6.7999873046875,0.0585218220949173,0.003447358263656497,0.01748660020530224
1759306291360029000,6.81002880859375,0.04929555952548981,0.005079440772533417,0.013289815746247768
1759306291370068500,6.820068359375,0.0386703684926033,0.00857676099985838,0.007927258498966694
1759306291380109000,6.830109130859375,0.02463112585246563,0.011790964752435684,0.002364854561164975
1759306291390146300,6.840146240234375,0.00997568853199482,0.01022549718618393,-0.004313361365348101
1759306291400187600,6.850187744140625,-0.004979517310857773,0.007277756463736296,-0.00920960959047079
1759306291410227700,6.860227783203125,-0.014938552863895893,0.0021483537275344133,-0.012507082894444466
1759306291420267500,6.870267578125,-0.02191653847694397,-0.0014988514594733715,-0.014522205106914043
1759306291430308000,6.88030810546875,-0.02914433367550373,-0.00038303982000797987,-0.015155053697526455
1759306291440347000,6.890346923828125,-0.03488992899656296,0.005562404170632362,-0.016553981229662895
1759306291450385200,6.90038525390625,-0.03835394233465195,0.009176301769912243,-0.01590447872877121
1759306291460428300,6.91042822265625,-0.038637060672044754,0.011091500520706177,-0.013273161835968494
1759306291470466600,6.920466552734375,-0.036755166947841644,0.007427641656249762,-0.01177431084215641
1759306291480505600,6.930505615234375,-0.03227526694536209,0.00024980856687761843,-0.014938552863895893
1759306291490547000,6.940546875,-0.02571362815797329,-0.010075611993670464,-0.018319295719265938
1759306291500585200,6.950585205078125,-0.01765313930809498,-0.010625191032886505,-0.019301876425743103
1759306291510601700,6.960601806640625,-0.007744065951555967,-0.009575995616614819,-0.01828598789870739
1759306291520664000,6.9706640625,0.004046898800879717,-0.011757656931877136,-0.015155053697526455
1759306291530706200,6.9807060546875,0.01555474754422903,-0.010425344109535217,-0.011840926483273506
1759306291540743700,6.99074365234375,0.022516079246997833,-0.005562404170632362,-0.009159647859632969
1759306291550784500,7.000784423828125,0.027578866109251976,-0.004746363032609224,-0.007927258498966694
1759306291560823600,7.010823486328125,0.030076952651143074,-0.006245214492082596,-0.006495022680610418
1759306291570865200,7.020865234375,0.030759762972593307,-0.006694869603961706,-0.0038803599309176207
1759306291580904400,7.030904541015625,0.03159245848655701,-0.006861408706754446,-0.0025813551619648933
1759306291590945000,7.040945068359375,0.03167572617530823,-0.008976454846560955,-0.0027145864441990852
1759306291600984300,7.050984375,0.031292688101530075,-0.008926493115723133,-0.002747894264757633
1759306291611024400,7.0610244140625,0.02889452502131462,-0.007644142489880323,-0.002864471636712551
1759306291621064200,7.071064208984375,0.02671286277472973,-0.00671152351424098,-0.005529096350073814
1759306291631103500,7.081103515625,0.02363189123570919,-0.0074942572973668575,-0.008027181960642338
1759306291641143600,7.0911435546875,0.020151223987340927,-0.007943912409245968,-0.008843223564326763
1759306291651183600,7.10118359375,0.016437403857707977,-0.00874330010265112,-0.006161944940686226
1759306291661223000,7.111222900390625,0.01202411949634552,-0.005179364234209061,-0.008343606255948544
1759306291671263000,7.121262939453125,0.007943912409245968,0.0018818912794813514,-0.01483862940222025
1759306291681303000,7.131302978515625,0.00472970912232995,0.006561638321727514,-0.019601646810770035
1759306291691342600,7.141342529296875,0.002897779457271099,0.0168704055249691,-0.024314701557159424
1759306291701384200,7.15138427734375,0.0019151991000398993,0.016553981229662895,-0.025696974247694016
1759306291711422000,7.161421875,0.0037970903795212507,0.014971860684454441,-0.02274923399090767
1759306291721462800,7.171462890625,0.005912136286497116,0.011957503855228424,-0.01903541386127472
1759306291731503400,7.18150341796875,0.0075941807590425014,0.006295176222920418,-0.01886887475848198
1759306291741542100,7.191542236328125,0.006411753129214048,0.0017986217280849814,-0.01961830072104931
1759306291751583200,7.201583251953125,0.004130168352276087,-0.0025480473414063454,-0.020767418667674065
1759306291761622000,7.2116220703125,-0.0013822740875184536,-0.0007827335502952337,-0.021516844630241394
1759306291771661800,7.221661865234375,-0.008476837538182735,0.002797855995595455,-0.02279919572174549
1759306291781701000,7.231701171875,-0.011674387380480766,0.0010158881777897477,-0.022366194054484367
1759306291791740000,7.241739990234375,-0.012040773406624794,-0.006894716527312994,-0.021716691553592682
1759306291801780000,7.251780029296875,-0.010208843275904655,-0.017336715012788773,-0.020550917834043503
1759306291811821300,7.2618212890625,-0.009392802603542805,-0.008210374973714352,-0.020967265591025352
1759306291821859600,7.271859619140625,-0.00987576600164175,-0.0022316232789307833,-0.02484762668609619
1759306291831901400,7.2819013671875,-0.009642611257731915,-0.00737767992541194,-0.026729516685009003
1759306291841942000,7.29194189453125,-0.006894716527312994,-0.0103087667375803,-0.019135337322950363
1759306291851981600,7.301981689453125,-0.003513973904773593,-0.012756891548633575,-0.014955206774175167
1759306291862018800,7.312018798828125,-0.0013989279977977276,-0.010108919814229012,-0.01300669927150011
1759306291872060400,7.322060302734375,0.0003164241788908839,-0.006062021479010582,-0.011907542124390602
1759306291882098200,7.33209814453125,0.0021983154583722353,-0.004296707455068827,-0.010258805006742477
1759306291892137500,7.342137451171875,0.004713055212050676,-0.0018319295486435294,-0.007227794732898474
1759306291902180400,7.352180419921875,0.006861408706754446,-0.0025813551619648933,-0.005945444107055664
1759306291912219600,7.3622197265625,0.0074942572973668575,0.0005329249543137848,-0.00874330010265112
1759306291922258700,7.3722587890625,0.009176301769912243,0.0026812786236405373,-0.014388973824679852
1759306291932299000,7.382299072265625,0.010508613660931587,0.00567898154258728,-0.01590447872877121
1759306291942338800,7.3923388671875,0.011241385713219643,0.00671152351424098,-0.015055130235850811
1759306291952379400,7.40237939453125,0.012573698535561562,0.006211906671524048,-0.013772779144346714
1759306291962418400,7.41241845703125,0.014938552863895893,0.006145291030406952,-0.01252373680472374
1759306291972458200,7.422458251953125,0.01682044379413128,0.006944678258150816,-0.012806852348148823
1759306291982496000,7.43249609375,0.01707025244832039,0.008360260166227818,-0.014605474658310413
1759306291992538000,7.4425380859375,0.016837097704410553,0.01433901209384203,-0.015871170908212662
1759306292002577200,7.4525771484375,0.017603177577257156,0.015155053697526455,-0.014705398119986057
1759306292012618000,7.462617919921875,0.014605474658310413,0.011308001354336739,-0.011874234303832054
1759306292022657000,7.472656982421875,0.011840926483273506,0.010075611993670464,-0.010841691866517067
1759306292032699100,7.48269921875,0.00737767992541194,0.014072549529373646,-0.012090735137462616
1759306292042736600,7.492736572265625,0.005262633785605431,0.01657063513994217,-0.010608537122607231
1759306292052778800,7.50277880859375,0.005579058080911636,0.013040007092058659,-0.00729441037401557
1759306292062817800,7.51281787109375,0.008426875807344913,0.0022982389200478792,-0.003097626380622387
1759306292072854300,7.522854248046875,0.01022549718618393,-0.00791060458868742,0.0020317763555794954
1759306292082895600,7.5328955078125,0.009492726065218449,-0.01375612523406744,0.005978751927614212
1759306292092937500,7.5429375,0.008027181960642338,-0.012557044625282288,0.00634513795375824
1759306292102976800,7.552976806640625,0.00464643957093358,-0.0007827335502952337,0.0022649310994893312
1759306292113016600,7.5630166015625,0.0005995405954308808,0.011374616995453835,-0.00472970912232995
1759306292123056400,7.573056396484375,-0.0010491959983482957,0.014322358183562756,-0.005046132951974869
1759306292133095400,7.583095458984375,-0.0014821975491940975,0.006578292232006788,-0.003913667518645525
1759306292143135500,7.593135498046875,0.0017153521766886115,-0.0054125189781188965,-0.0005662327748723328
1759306292153176000,7.603176025390625,0.005212672054767609,-0.00962595734745264,0.0017153521766886115
1759306292163215000,7.613215087890625,0.007794027682393789,-0.007194486912339926,0.004146822262555361
1759306292173254700,7.623254638671875,0.0075442190282046795,-0.002448124112561345,0.003130934201180935
1759306292183288300,7.633288330078125,0.006561638321727514,0.0015488131903111935,0.0021983154583722353
1759306292193335000,7.6433349609375,0.006861408706754446,0.005545750260353088,0.0013156584464013577
1759306292203374000,7.6533740234375,0.006211906671524048,0.007660796400159597,0.0008326952229253948
1759306292213412900,7.663412841796875,0.005795558914542198,0.003597243456169963,-0.00023315467115025967
1759306292223454200,7.6734541015625,0.007277756463736296,-0.003080972470343113,-0.0005329249543137848
1759306292233494300,7.683494384765625,0.008060489781200886,-0.006361791864037514,0.0001498851488577202
1759306292243532000,7.693531982421875,0.007144525181502104,-0.0054458267986774445,0.0002664624771568924
1759306292253574000,7.703573974609375,0.005778905004262924,-0.0006661561783403158,-0.0021816615480929613
1759306292263613200,7.71361328125,0.002331546740606427,0.006994639988988638,-0.003164242021739483
1759306292273652500,7.723652587890625,0.0013989279977977276,0.01169104129076004,-0.003314126981422305
1759306292283692300,7.7336923828125,0.00048296325257979333,0.01210738904774189,-0.002431470202282071
1759306292293734100,7.743734130859375,0.0011990811908617616,0.007344372104853392,-0.002364854561164975
1759306292303773000,7.75377294921875,0.0021983154583722353,0.0021983154583722353,-0.0026812786236405373
1759306292313810700,7.763810791015625,0.0018152756383642554,-0.0020317763555794954,-0.003680513007566333
1759306292323852500,7.7738525390625,0.0011158116394653916,-0.0014988514594733715,-0.003996937070041895
1759306292333892900,7.783892822265625,0.0005329249543137848,0.0027145864441990852,-0.0026646247133612633
1759306292343932000,7.793931884765625,-0.0010158881777897477,0.003980283159762621,-0.0025813551619648933
1759306292353972700,7.80397265625,-0.0021316998172551394,0.0054291728883981705,-0.0021650076378136873
1759306292364011000,7.814010986328125,-0.0015654671005904675,0.003630551276728511,-0.002964395098388195
1759306292374050000,7.824050048828125,0.0006828100886195898,0.0012490428052842617,-0.003247511340305209
1759306292384091100,7.834091064453125,0.003680513007566333,-0.0005162710440345109,-0.004663093481212854
1759306292394131700,7.844131591796875,0.005945444107055664,0.00023315467115025967,-0.006411753129214048
1759306292404171300,7.854171142578125,0.008859877474606037,0.0006495022680610418,-0.005978751927614212
1759306292414212900,7.864212890625,0.010458651930093765,0.004296707455068827,-0.00601205974817276
1759306292424251000,7.8742509765625,0.011258039623498917,0.006744831334799528,-0.007027947809547186
1759306292434291000,7.884291015625,0.013056661002337933,0.008693338371813297,-0.008843223564326763
1759306292444328700,7.89432861328125,0.014039241708815098,0.006911370437592268,-0.011474540457129478
1759306292454369800,7.904369873046875,0.01628751866519451,0.0053125955164432526,-0.010775076225399971
1759306292464408600,7.91440869140625,0.016553981229662895,0.0026479708030819893,-0.009309533052146435
1759306292474426600,7.924426513671875,0.01707025244832039,0.0021150459069758654,-0.008293644525110722
1759306292484490500,7.934490478515625,0.01695367507636547,0.003647205187007785,-0.008809915743768215
1759306292494529800,7.94452978515625,0.015871170908212662,0.00551244243979454,-0.009476072154939175
1759306292504570000,7.954570068359375,0.016420749947428703,0.0053625572472810745,-0.009392802603542805
1759306292514609200,7.964609130859375,0.016470711678266525,0.002348200650885701,-0.006861408706754446
1759306292524648700,7.974648681640625,0.016670558601617813,0.0011824272805824876,-0.004213437903672457
1759306292534689000,7.98468896484375,0.016887059435248375,-0.0009159647743217647,-0.003980283159762621
1759306292544730000,7.994730224609375,0.015671323984861374,-0.002431470202282071,-0.003597243456169963
1759306292554769000,8.004768798828126,0.013522970490157604,-0.002364854561164975,-0.0020983919966965914
1759306292564808000,8.014807861328125,0.012174004688858986,-0.002364854561164975,-0.0012323890114203095
1759306292574847500,8.024847412109375,0.009659265168011189,-0.002747894264757633,-0.0004996171337552369
1759306292584888800,8.034888916015625,0.008693338371813297,-0.0020151224453002214,0.00009992343257181346
1759306292594928600,8.0449287109375,0.006145291030406952,-0.0022815850097686052,-0.0015821210108697414
1759306292604967400,8.054967529296874,0.006245214492082596,-0.003097626380622387,-0.0022982389200478792
1759306292615008300,8.06500830078125,0.00576225109398365,-0.003663859097287059,-0.003330780891701579
1759306292625046500,8.075046630859376,0.00551244243979454,-0.004313361365348101,-0.004163476172834635
1759306292635087600,8.085087646484375,0.004413284827023745,-0.002448124112561345,-0.004063552711158991
1759306292645125400,8.09512548828125,0.002831163816154003,-0.0015321592800319195,-0.0037804364692419767
1759306292655166500,8.10516650390625,0.0016653904458507895,-0.004163476172834635,-0.003247511340305209
1759306292665205800,8.115205810546875,0.0015155053697526455,-0.0022815850097686052,-0.002331546740606427
1759306292675247600,8.12524755859375,0.0006328483577817678,-0.0044799004681408405,0.0003330780891701579
1759306292685284000,8.1352841796875,0.0009825803572311997,-0.003697166917845607,0.003613897366449237
1759306292695326500,8.145326416015624,0.0012323890114203095,-0.003697166917845607,0.004013590980321169
1759306292705364500,8.155364501953125,0.0002165007608709857,-0.0038637060206383467,0.003147588111460209
1759306292715404800,8.16540478515625,-0.0016820443561300635,-0.0021650076378136873,0.0013822740875184536
1759306292725447000,8.175447021484375,-0.005645673722028732,-0.0008993108640424907,0.000016653904822305776
1759306292735484200,8.185484130859376,-0.01160777173936367,0.007177833002060652,-0.004429938737303019
1759306292745525000,8.19552490234375,-0.0210005734115839,0.01820271834731102,-0.00704460171982646
1759306292755563500,8.2055634765625,-0.025397205725312233,0.03455685079097748,-0.012956737540662289
1759306292765603300,8.215603271484374,-0.027612173929810524,0.033757466822862625,-0.013906010426580906
1759306292775646700,8.225646728515626,-0.023781776428222656,0.02604670636355877,-0.007144525181502104
1759306292785688600,8.2356884765625,-0.017969563603401184,0.013872702606022358,0.0019318530103191733
1759306292795727000,8.24572705078125,-0.01317323837429285,0.0075608729384839535,0.007361026015132666
1759306292805762600,8.255762451171876,-0.008876531384885311,0.004796324763447046,0.00662825396284461
1759306292815804000,8.265803955078125,-0.006694869603961706,0.007627488579601049,0.0008660030434839427
1759306292825845500,8.275845458984374,-0.00464643957093358,0.008276990614831448,-0.005229325965046883
1759306292835888000,8.28588818359375,0.0007993874605745077,0.005645673722028732,-0.008543453179299831
1759306292845927400,8.295927490234375,0.004096860531717539,-0.006678215693682432,-0.00567898154258728
1759306292855962600,8.305962646484375,0.010874999687075615,-0.014222434721887112,-0.006495022680610418
1759306292866004500,8.31600439453125,0.016470711678266525,-0.016137633472681046,-0.0074942572973668575
1759306292876042500,8.32604248046875,0.020384378731250763,-0.009892419911921024,-0.011208077892661095
1759306292886083000,8.3360830078125,0.023065658286213875,0.0006661561783403158,-0.016420749947428703
1759306292896122400,8.346122314453124,0.023115620017051697,0.008210374973714352,-0.01983480155467987
1759306292906163700,8.356163818359375,0.023282159119844437,0.005062786862254143,-0.02003464661538601
1759306292916202800,8.36620263671875,0.02299904264509678,-0.00551244243979454,-0.013106622733175755
1759306292926240800,8.37624072265625,0.018402565270662308,-0.015588055364787579,0.008726646192371845
1759306292936282400,8.386282470703126,0.015171707607805729,-0.012457121163606644,0.023781776428222656
1759306292946322000,8.396322021484375,0.01883556693792343,-0.007677450310438871,0.016354134306311607
1759306292956362500,8.406362548828126,0.025913475081324577,-0.022149693220853806,-0.00004996171628590673
1759306292966400800,8.41640087890625,0.021550152450799942,-0.030276799574494362,-0.008393567986786366
1759306292976440300,8.4264404296875,0.008143759332597256,-0.0016820443561300635,-0.03515639156103134
1759306292986479600,8.436479736328126,0.00929287914186716,0.051377296447753906,-0.08693338185548782
1759306292996520200,8.446520263671875,0.02951071970164776,0.11181432008743286,-0.13834398984909058
1759306293006561500,8.4565615234375,0.0588715523481369,0.17191825807094574,-0.19475075602531433
1759306293016599300,8.466599365234375,0.09361159801483154,0.212703675031662,-0.23871707916259766
1759306293026636000,8.476635986328125,0.13178235292434692,0.23120616376399994,-0.2882457971572876
1759306293036681700,8.486681640625,0.15528100728988647,0.24812652170658112,-0.33209550380706787
1759306293046720000,8.496719970703126,0.17448295652866364,0.2612498104572296,-0.3490658402442932
1759306293056758300,8.50675830078125,0.19739873707294464,0.274789422750473,-0.35074788331985474
1759306293066798600,8.516798583984375,0.22059762477874756,0.29292553663253784,-0.35158059000968933
1759306293076840000,8.52683984375,0.2379176914691925,0.3135763704776764,-0.35331258177757263
1759306293086878200,8.536878173828125,0.2431136965751648,0.3231523633003235,-0.3584419786930084
1759306293096920300,8.54692041015625,0.22745902836322784,0.3256671130657196,-0.36512020230293274
1759306293106957600,8.55695751953125,0.19235260784626007,0.31717362999916077,-0.3688340187072754
1759306293116997400,8.566997314453126,0.1451720893383026,0.3000534176826477,-0.36512020230293274
1759306293127038000,8.577037841796875,0.1013556644320488,0.277120977640152,-0.3561437427997589
1759306293137077000,8.587076904296875,0.06569965183734894,0.24629460275173187,-0.3397729694843292
1759306293147117600,8.59711767578125,0.04361657798290253,0.2222297042608261,-0.3229691684246063
1759306293157157400,8.607157470703125,0.03097626380622387,0.20787404477596283,-0.316157728433609
1759306293167198000,8.617197998046874,0.013606240041553974,0.22196324169635773,-0.31445902585983276
1759306293177236500,8.627236572265625,-0.004046898800879717,0.24369658529758453,-0.31444236636161804
1759306293187277000,8.637277099609374,-0.028294984251260757,0.2648470401763916,-0.3149086833000183
1759306293197318000,8.64731787109375,-0.05975421145558357,0.2668621838092804,-0.3112281858921051
1759306293207355100,8.657355224609375,-0.0897645503282547,0.2447124719619751,-0.29847127199172974
1759306293217395500,8.6673955078125,-0.12198985368013382,0.215551495552063,-0.2888786196708679
1759306293227437000,8.67743701171875,-0.14921899139881134,0.20051302015781403,-0.27772051095962524
1759306293237476600,8.6874765625,-0.17360030114650726,0.21255378425121307,-0.26627928018569946
1759306293247515400,8.697515380859375,-0.19833135604858398,0.24907580018043518,-0.26071688532829285
1759306293257555700,8.7075556640625,-0.21336983144283295,0.21272031962871552,-0.2538221776485443
1759306293267596000,8.717595947265625,-0.21133805811405182,0.128784641623497,-0.2370017170906067
1759306293277634600,8.727634521484376,-0.2192986160516739,0.002348200650885701,-0.15937787294387817
1759306293287673600,8.737673583984375,-0.26114988327026367,-0.07346037775278091,-0.002947741188108921
1759306293297688600,8.7476884765625,-0.2985212504863739,-0.10571898519992828,0.21093836426734924
1759306293307754800,8.757754638671875,-0.2889452576637268,-0.21481871604919434,0.377593994140625
1759306293317795000,8.767795166015626,-0.13091634213924408,-0.28336620330810547,0.5655999183654785
1759306293327835100,8.777835205078125,0.13602909445762634,-0.19811485707759857,0.7605172395706177
1759306293337875200,8.787875244140626,0.3491824269294739,-0.11820941418409348,0.893348753452301
1759306293347914800,8.797914794921875,0.46406105160713196,-0.1481531411409378,0.9991177320480347
1759306293357951700,8.80795166015625,0.5295442342758179,-0.11880895495414734,1.1398931741714478
1759306293367993900,8.817993896484374,0.5633516311645508,-0.08501818776130676,1.306731939315796
1759306293378034000,8.828033935546875,0.5714287757873535,-0.09516040980815887,1.4781006574630737
1759306293388073500,8.838073486328126,0.5612366199493408,-0.1283016800880432,1.6300009489059448
1759306293398088000,8.848087890625,0.5287114977836609,-0.1534157693386078,1.7744735479354858
1759306293408151300,8.8581513671875,0.45919811725616455,-0.15195022523403168,1.8910175561904907
1759306293418192600,8.868192626953125,0.38776952028274536,-0.13909341394901276,2.008427619934082
1759306293428232200,8.878232177734375,0.35569408535957336,-0.19171975553035736,2.1331820487976074
1759306293438271500,8.888271484375,0.31314337253570557,-0.2213970124721527,2.234271287918091
1759306293448313000,8.89831298828125,0.2578357458114624,-0.25766921043395996,2.35441255569458
1759306293458351900,8.908351806640624,0.194867342710495,-0.3135264217853546,2.4666764736175537
1759306293468390100,8.91839013671875,0.12417151778936386,-0.39443108439445496,2.5537097454071045
1759306293478432300,8.928432373046874,0.052959416061639786,-0.485744446516037,2.6282858848571777
1759306293488471300,8.93847119140625,-0.009825804270803928,-0.558838427066803,2.7182669639587402
1759306293498510800,8.9485107421875,-0.05485796183347702,-0.6068183183670044,2.8065993785858154
1759306293508552200,8.95855224609375,-0.07459283620119095,-0.6493024230003357,2.888486623764038
1759306293518591000,8.968591064453125,-0.10270462930202484,-0.8129770159721375,2.996237277984619
1759306293528629500,8.97862939453125,-0.13188226521015167,-0.9592482447624207,3.0924136638641357
1759306293538669300,8.98866943359375,-0.12562040984630585,-0.7968060970306396,3.072145938873291
1759306293548710100,8.998710205078124,-0.12796860933303833,-0.5511276721954346,3.025331735610962
1759306293558748000,9.008747802734375,-0.1566133201122284,-0.4002932608127594,3.0289289951324463
1759306293568791300,9.018791259765624,-0.19808153808116913,-0.3634881377220154,3.0664334297180176
1759306293578830000,9.028830078125,-0.2656797468662262,-0.33834072947502136,3.117161273956299
1759306293588869000,9.038869140625,-0.3453686833381653,-0.29544028639793396,3.146355628967285
1759306293598909200,9.0489091796875,-0.42803865671157837,-0.24949215352535248,3.168388843536377
1759306293608949000,9.058948974609375,-0.49208956956863403,-0.21996477246284485,3.176532506942749
1759306293618988800,9.06898876953125,-0.5298439860343933,-0.16254210472106934,3.1895391941070557
1759306293629028400,9.0790283203125,-0.5661494731903076,-0.08626722544431686,3.2126548290252686
1759306293639068700,9.089068603515624,-0.6123141050338745,-0.058172088116407394,3.264298677444458
1759306293649108700,9.099108642578125,-0.6747995615005493,-0.07655800133943558,3.3110294342041016
1759306293659146500,9.109146484375,-0.7561205625534058,-0.1364787518978119,3.3311972618103027
1759306293669187000,9.11918701171875,-0.8589584231376648,-0.18149425089359283,3.3325462341308594
1759306293679225600,9.1292255859375,-0.9638280868530273,-0.163274884223938,3.3210716247558594
1759306293689267000,9.139266845703125,-1.0440999269485474,-0.16943682730197906,3.290428638458252
1759306293699306000,9.149305908203125,-1.0686144828796387,-0.19601646065711975,3.240083694458008
1759306293709344500,9.159344482421876,-1.0421680212020874,-0.20582561194896698,3.1746838092803955
1759306293719385000,9.169385009765625,-0.9965030550956726,-0.1563301980495453,3.113464117050171
1759306293729426700,9.1794267578125,-0.95913165807724,-0.10778407007455826,3.0504791736602783
1759306293739465500,9.189465576171875,-0.9440932273864746,-0.050661180168390274,2.9620301723480225
1759306293749507000,9.199507080078124,-0.9420614242553711,0.032425154000520706,2.8467185497283936
1759306293759545300,9.20954541015625,-0.9542188048362732,0.14254076778888702,2.706759214401245
1759306293769587000,9.2195869140625,-0.9661929607391357,0.2584685981273651,2.584502935409546
1759306293779625200,9.229625244140625,-0.9438267350196838,0.33895692229270935,2.494838237762451
1759306293789664500,9.23966455078125,-0.8846887350082397,0.39469754695892334,2.411318778991699
1759306293799704800,9.249704833984374,-0.7988711595535278,0.44420960545539856,2.298921585083008
1759306293809744400,9.259744384765625,-0.6748995184898376,0.48800936341285706,2.170903205871582
1759306293819785200,9.26978515625,-0.516720712184906,0.567764937877655,2.0363895893096924
1759306293829825300,9.2798251953125,-0.3417048156261444,0.6645740866661072,1.9197455644607544
1759306293839865900,9.289865966796874,-0.1641242355108261,0.6669722199440002,1.8284821510314941
1759306293849904000,9.299904052734375,-0.00874330010265112,0.5215669870376587,1.733538269996643
1759306293859944400,9.3099443359375,0.10843357443809509,0.30673161149024963,1.6331651210784912
1759306293869985300,9.3199853515625,0.18322625756263733,0.11994142085313797,1.5328253507614136
1759306293880022800,9.330022705078125,0.2225627899169922,0.002814509905874729,1.432918667793274
1759306293890062300,9.340062255859374,0.2286747694015503,-0.0733771026134491,1.3299142122268677
1759306293900103000,9.35010302734375,0.19465084373950958,-0.14317362010478973,1.1912704706192017
1759306293910144000,9.36014404296875,0.10531929135322571,-0.23781776428222656,0.9881261587142944
1759306293920183800,9.370183837890625,-0.018602412194013596,-0.30937957763671875,0.7489927411079407
1759306293930222800,9.380222900390624,-0.13692840933799744,-0.22456125915050507,0.5181030035018921
1759306293940262000,9.390261962890625,-0.23373755812644958,0.06661561876535416,0.3503814935684204
1759306293950304000,9.400303955078124,-0.293241947889328,0.40665504336357117,0.2901110351085663
1759306293960342500,9.410342529296875,-0.32180339097976685,0.6080507040023804,0.3522633910179138
1759306293970382600,9.420382568359376,-0.3254006505012512,0.5823870301246643,0.44863954186439514
1759306293980419600,9.430419677734376,-0.29009437561035156,0.4303036034107208,0.4865771234035492
1759306293990461400,9.44046142578125,-0.21803292632102966,0.27495595812797546,0.45023831725120544
1759306294000500000,9.4505,-0.13348104059696198,0.1705026775598526,0.3825235366821289
1759306294010541800,9.460541748046875,-0.04599808529019356,0.17992879450321198,0.3280319571495056
1759306294020582100,9.47058203125,0.05001167580485344,0.23969964683055878,0.3117277920246124
1759306294030622700,9.480622802734375,0.11997473239898682,0.22073085606098175,0.3573095202445984
1759306294040659500,9.490659423828125,0.16998641192913055,0.11631087213754654,0.4286215603351593
1759306294050700300,9.5007001953125,0.20699138939380646,-0.021150458604097366,0.47661811113357544
1759306294060741400,9.510741455078126,0.21626760065555573,-0.10405359417200089,0.49771860241889954
1759306294070781400,9.520781494140625,0.19548353552818298,-0.11521171033382416,0.5136730670928955
1759306294080819700,9.53081982421875,0.15489797294139862,-0.10498621314764023,0.5237153172492981
1759306294090858000,9.54085791015625,0.09564337879419327,-0.1116311252117157,0.5282285809516907
1759306294100899800,9.55089990234375,0.03945310041308403,-0.09792496263980865,0.5159379839897156
1759306294110938000,9.560938232421876,-0.009309533052146435,-0.04654766246676445,0.47317075729370117
1759306294120979200,9.570979248046875,-0.04787997528910637,0.008110451512038708,0.4170137643814087
1759306294131019000,9.58101904296875,-0.08563438057899475,0.014239088632166386,0.37512919306755066
1759306294141057800,9.591057861328125,-0.09554345160722733,-0.018768951296806335,0.3431703746318817
1759306294151096800,9.601096923828125,-0.09176301211118698,-0.0576891265809536,0.3166906535625458
1759306294161137700,9.6111376953125,-0.07602507621049881,-0.0935782939195633,0.2930254638195038
1759306294171178000,9.621177978515625,-0.0498451367020607,-0.1168437972664833,0.27493932843208313
1759306294181216800,9.631216796875,-0.016853751614689827,-0.10680149495601654,0.2817840576171875
1759306294191259100,9.641259033203125,0.014122511260211468,-0.08396898955106735,0.3012358248233795
1759306294201297200,9.651297119140626,0.047696784138679504,-0.09262901544570923,0.32033786177635193
1759306294211338000,9.661337890625,0.06972990185022354,-0.10235489904880524,0.3287314176559448
1759306294221376800,9.671376708984376,0.0819205567240715,-0.12665294110774994,0.32346880435943604
1759306294231416800,9.681416748046875,0.07642477005720139,-0.1496020257472992,0.2993372976779938
1759306294241455600,9.69145556640625,0.06290179491043091,-0.13899348676204681,0.2644473612308502
1759306294251495400,9.701495361328124,0.051743682473897934,-0.0700463205575943,0.23655205965042114
1759306294261535200,9.71153515625,0.044482581317424774,-0.01292342972010374,0.21460221707820892
1759306294271576600,9.72157666015625,0.03427373617887497,0.005262633785605431,0.21052201092243195
1759306294281616400,9.731616455078125,0.020550917834043503,0.011741003021597862,0.2196483463048935
1759306294291655200,9.7416552734375,0.04594812169671059,0.01911868341267109,0.2123039811849594
1759306294301696300,9.7516962890625,0.042317572981119156,0.01966826245188713,0.2047930657863617
1759306294311733500,9.7617333984375,0.03802086412906647,0.03662193566560745,0.20169544219970703
1759306294321777000,9.77177685546875,0.02086734212934971,0.07322721928358078,0.17909608781337738
1759306294331808300,9.781808349609374,-0.007794027682393789,0.13451358675956726,0.13527967035770416
1759306294341828600,9.79182861328125,-0.028994448482990265,0.18950478732585907,0.10571898519992828
1759306294351868700,9.80186865234375,-0.02258269488811493,0.1823102980852127,0.11887557059526443
1759306294361914000,9.8119140625,-0.006128637120127678,0.13527967035770416,0.13889355957508087
1759306294371973000,9.82197314453125,0.004130168352276087,0.08565103262662888,0.13483001291751862
1759306294382015500,9.832015380859374,0.010924961417913437,0.06065352261066437,0.1198248416185379
1759306294392055000,9.842054931640625,0.008093797601759434,0.06418415158987045,0.11790964752435684
1759306294402094000,9.852093994140626,0.0045798239298164845,0.04594812169671059,0.1253039836883545
1759306294412134400,9.862134521484375,0.004230091813951731,0.0019651607144623995,0.131632462143898
1759306294422172200,9.872172119140625,0.0016487365355715156,-0.032208651304244995,0.1438397765159607
1759306294432213200,9.882213134765625,-0.0018319295486435294,-0.06258537620306015,0.1627919226884842
1759306294442250500,9.89225048828125,-0.0038637060206383467,-0.08288648724555969,0.17803023755550385
1759306294452292400,9.902292236328124,-0.01978483982384205,-0.07797358185052872,0.1864737719297409
1759306294462332700,9.912332763671875,-0.01169104129076004,-0.08356929570436478,0.18434207141399384
1759306294472370700,9.92237060546875,-0.004796324763447046,-0.1157945990562439,0.1836259514093399
1759306294482411300,9.932411376953125,-0.0012656967155635357,-0.14598813652992249,0.17330053448677063
1759306294492451300,9.942451416015626,-0.00009992343257181346,-0.1512008011341095,0.1623755693435669
1759306294502492000,9.952491943359375,0.0006828100886195898,-0.13914337754249573,0.15894487500190735
1759306294512532500,9.962532470703126,0.00044965543202124536,-0.13138265907764435,0.15180034935474396
1759306294522570800,9.97257080078125,-0.00046630934230051935,-0.13581259548664093,0.14032579958438873
1759306294532609000,9.982609130859375,0.0014155819080770016,-0.140792116522789,0.12963399291038513
1759306294542648600,9.992648681640626,0.00044965543202124536,-0.13333116471767426,0.11852584034204483
1759306294552689700,10.002689697265625,-0.009276225231587887,-0.1079506129026413,0.1049695611000061
1759306294562730200,10.012730224609374,-0.0008326952229253948,-0.10202182084321976,0.08458518236875534
1759306294572768300,10.022768310546875,0.028628062456846237,-0.13616232573986053,0.06828100979328156
1759306294582809000,10.03280908203125,0.02011791616678238,-0.14753694832324982,0.05695635452866554
1759306294592850000,10.042849853515625,0.011757656931877136,-0.10553579777479172,0.030743109062314034
1759306294602889000,10.052888916015625,-0.003197549842298031,-0.051443912088871,0.007893950678408146
1759306294612929300,10.06292919921875,-0.0045298621989786625,-0.0292276032269001,-0.003663859097287059
1759306294622968800,10.07296875,0.0020650841761380434,-0.043400075286626816,-0.003214203519746661
1759306294633008400,10.08300830078125,0.019984684884548187,-0.06285183876752853,0.0014155819080770016
1759306294643047700,10.093047607421875,0.030276799574494362,-0.07745730876922607,0.005878828465938568
1759306294653089300,10.10308935546875,0.031126148998737335,-0.07647473365068436,0.010625191032886505
1759306294663129900,10.1131298828125,0.029993683099746704,-0.05655666068196297,0.023098966106772423
1759306294673167600,10.123167724609376,0.023282159119844437,-0.031875573098659515,0.029993683099746704
1759306294683207400,10.13320751953125,0.017886294052004814,-0.026912709698081017,0.03080972470343113
1759306294693247000,10.1432470703125,0.020767418667674065,-0.038470521569252014,0.03039337694644928
1759306294703287000,10.153287109375,0.02851148508489132,-0.05325918644666672,0.023931661620736122
1759306294713326800,10.163326904296875,0.032042112201452255,-0.07727412134408951,0.019684916362166405
1759306294723366000,10.173365966796876,0.029027756303548813,-0.07500918954610825,0.020067954435944557
1759306294733406200,10.18340625,0.013306469656527042,-0.049745213240385056,0.02299904264509678
1759306294743447800,10.19344775390625,0.003280819160863757,-0.03887021541595459,0.014455589465796947
1759306294753487400,10.2034873046875,0.010874999687075615,-0.06416749209165573,0.028111791238188744
1759306294763526700,10.213526611328126,0.011807618662714958,-0.06520003825426102,0.029210949316620827
1759306294773567200,10.223567138671875,0.007977220229804516,-0.060053981840610504,0.019052067771553993
1759306294783607000,10.23360693359375,0.0037970903795212507,-0.05319257080554962,0.013439700938761234
1759306294793644800,10.243644775390624,0.0002997702977154404,-0.054758038371801376,0.018086140975356102
1759306294803684400,10.253684326171875,-0.0018652373692020774,-0.05530761927366257,0.018985452130436897
1759306294813725200,10.26372509765625,-0.006361791864037514,-0.05177699029445648,0.013939318247139454
1759306294823762700,10.2737626953125,-0.008460183627903461,-0.05042802542448044,0.009742534719407558
1759306294833805000,10.28380517578125,-0.007261102553457022,-0.05319257080554962,0.01005895808339119
1759306294843844600,10.2938447265625,-0.00551244243979454,-0.0622023344039917,0.005912136286497116
1759306294853883600,10.303883544921876,-0.006278522312641144,-0.06859743595123291,-0.004063552711158991
1759306294863923500,10.31392333984375,-0.00816041324287653,-0.059471093118190765,-0.012640314176678658
1759306294873964800,10.32396484375,-0.007627488579601049,-0.040968604385852814,-0.014772013761103153
1759306294884003600,10.334003662109374,-0.006828100886195898,-0.03610566630959511,-0.014455589465796947
1759306294894042400,10.34404248046875,-0.008010528050363064,-0.034040581434965134,-0.015454824082553387
1759306294904083500,10.35408349609375,-0.010625191032886505,-0.024431278929114342,-0.010508613660931587
1759306294914122500,10.36412255859375,-0.012873467989265919,-0.01861906610429287,-0.01102488487958908
1759306294924161000,10.3741611328125,-0.015188361518085003,-0.011907542124390602,-0.01308996882289648
1759306294934202000,10.3842021484375,-0.01483862940222025,-0.011507848277688026,-0.013473008759319782
1759306294944242200,10.3942421875,-0.010325420647859573,-0.010708460584282875,-0.00782733503729105
1759306294954280700,10.40428076171875,-0.0061785988509655,0.007927258498966694,0.003064318560063839
1759306294964321500,10.414321533203125,-0.0019151991000398993,0.02568032033741474,0.009309533052146435
1759306294974361900,10.42436181640625,0.0026313168928027153,0.028861217200756073,0.008893185295164585
1759306294984400100,10.434400146484375,0.006944678258150816,0.029044410213828087,0.005295941606163979
1759306294994439400,10.444439453125,0.008193721063435078,0.02379843033850193,0.005162710323929787
1759306295004481300,10.454481201171875,0.008759954012930393,0.0160377100110054,0.008177067153155804
1759306295014520300,10.464520263671876,0.004846286494284868,0.017086906358599663,0.0024980856105685234
1759306295024559900,10.474559814453125,-0.0007827335502952337,0.030360069125890732,-0.002847817726433277
1759306295034598400,10.484598388671875,0.0002664624771568924,0.03973621875047684,0.0003164241788908839
1759306295044640300,10.49464013671875,0.0045798239298164845,0.034839969128370285,0.0013156584464013577
1759306295054680000,10.50468017578125,0.008193721063435078,0.022232962772250175,-0.0007993874605745077
1759306295064721000,10.514720947265625,0.010625191032886505,0.010325420647859573,-0.004763016942888498
1759306295074758100,10.524758056640625,0.010158881545066833,0.0045132082886993885,-0.005146056413650513
1759306295084799200,10.53479931640625,0.006611600052565336,0.00671152351424098,-0.0011824272805824876
1759306295094840600,10.544840576171875,0.0038970138411968946,0.009476072154939175,0.0038303982000797987
1759306295104878000,10.554878173828126,0.0026812786236405373,0.009093032218515873,0.004996171221137047
1759306295114918700,10.564918701171875,0.0006328483577817678,0.010092265903949738,0.004363323096185923
1759306295124957200,10.574957275390625,0.0018152756383642554,0.005096094682812691,0.0016986982664093375
1759306295134999000,10.5849990234375,0.003597243456169963,-0.010125573724508286,-0.0002664624771568924
1759306295145038000,10.5950380859375,0.007694104220718145,-0.025863513350486755,-0.0004163476114626974
1759306295155076000,10.605076171875,0.007410987745970488,-0.021433575078845024,-0.006328484043478966
1759306295165118000,10.615117919921875,0.005562404170632362,-0.01991806924343109,-0.007977220229804516
1759306295175158000,10.625157958984374,0.006928024347871542,-0.02543051354587078,-0.0053125955164432526
1759306295185198300,10.6351982421875,0.007810681592673063,-0.02659628540277481,-0.0016653904458507895
1759306295195236600,10.645236572265626,0.006478368770331144,-0.029111025854945183,0.0037637825589627028
1759306295205276700,10.655276611328125,0.003014356829226017,-0.021949846297502518,0.005245979875326157
1759306295215317000,10.66531689453125,-0.0009326186846010387,-0.010908307507634163,0.007794027682393789
1759306295225355000,10.67535498046875,-0.0004330015217419714,-0.012157350778579712,0.009809150360524654
1759306295235394600,10.68539453125,0.0015987749211490154,-0.02086734212934971,0.01135796308517456
1759306295245435400,10.695435302734374,0.003530627815052867,-0.02095061168074608,0.01160777173936367
1759306295255475700,10.705475830078125,0.005012825131416321,-0.01210738904774189,0.013522970490157604
1759306295265515800,10.715515869140624,0.004113514441996813,0.000016653904822305776,0.01615428738296032
1759306295275554600,10.725554443359375,0.0037471286486834288,0.006728177424520254,0.014455589465796947
1759306295285595100,10.73559521484375,0.003663859097287059,0.003230857430025935,0.009575995616614819
1759306295295637500,10.745637451171875,0.005295941606163979,-0.0020317763555794954,0.008676684461534023
1759306295305679600,10.7556796875,0.005295941606163979,0.0016986982664093375,0.007161179091781378
1759306295315718100,10.76571826171875,0.0025647012516856194,0.00592879019677639,0.0012990045361220837
1759306295325753900,10.77575390625,0.0014155819080770016,0.004696401301771402,-0.003380742622539401
1759306295335775500,10.785775390625,0.0025480473414063454,0.0020317763555794954,-0.0026646247133612633
1759306295345834200,10.795834228515625,0.0017986217280849814,0.0005329249543137848,-0.006378445774316788
1759306295355873500,10.80587353515625,0.0025480473414063454,-0.0003663859097287059,-0.013023353181779385
1759306295365917200,10.815917236328126,0.0038803599309176207,-0.002414816292002797,-0.015571401454508305
1759306295375954200,10.8259541015625,0.007261102553457022,-0.0038303982000797987,-0.01160777173936367
1759306295385991000,10.835990966796874,0.00920960959047079,-0.006911370437592268,-0.0074942572973668575
1759306295396034000,10.846033935546876,0.009559341706335545,-0.0075608729384839535,-0.004163476172834635
1759306295406073600,10.856073486328125,0.008343606255948544,-0.002831163816154003,-0.0008826569537632167
1759306295416111000,10.866111083984375,0.006495022680610418,0.0002165007608709857,-0.005945444107055664
1759306295426151000,10.87615087890625,0.0053792111575603485,0,-0.015105091966688633
1759306295436192300,10.886192138671875,0.007943912409245968,-0.005029479041695595,-0.014622128568589687
1759306295446231000,10.89623095703125,0.009509379975497723,-0.00874330010265112,-0.012074081227183342
1759306295456272100,10.906272216796875,0.006944678258150816,-0.011324655264616013,-0.014788667671382427
1759306295466311000,10.916310791015626,0.004962863866239786,-0.004962863866239786,-0.014855283312499523
1759306295476349000,10.926348876953124,0.004230091813951731,0.002764548175036907,-0.012823506258428097
1759306295486390500,10.936390625,0.0076108346693217754,-0.003563935635611415,-0.016420749947428703
1759306295496429600,10.9464296875,0.01160777173936367,-0.014488897286355495,-0.02451454848051071
1759306295506467600,10.956467529296875,0.015638016164302826,-0.02438131719827652,-0.03382408246397972
1759306295516510500,10.966510498046874,0.017086906358599663,-0.027778713032603264,-0.03817075118422508
1759306295526551000,10.976551025390625,0.015338246710598469,-0.013139930553734303,-0.04438265785574913
1759306295536588800,10.9865888671875,0.01144123263657093,0.0013989279977977276,-0.048496171832084656
1759306295546628000,10.996628173828125,0.011557810008525848,0.004130168352276087,-0.05001167580485344
1759306295556669200,11.006669189453126,0.015105091966688633,-0.0014655436389148235,-0.05604039132595062
1759306295566709200,11.016709228515625,0.020600879564881325,-0.013689509592950344,-0.0658828467130661
1759306295576747500,11.02674755859375,0.024431278929114342,-0.02366519905626774,-0.07429306954145432
1759306295586786600,11.03678662109375,0.026113322004675865,-0.02354862168431282,-0.07897281646728516
1759306295596827000,11.046826904296875,0.02751225046813488,-0.01870233565568924,-0.0856010690331459
1759306295606866400,11.056866455078126,0.025663666427135468,-0.0074609494768083096,-0.09416117519140244
1759306295616906500,11.066906494140625,0.02704594098031521,-0.003197549842298031,-0.10208843648433685
1759306295626946300,11.0769462890625,0.030709801241755486,-0.01703694462776184,-0.11176435649394989
1759306295636984800,11.08698486328125,0.038936831057071686,-0.04128503054380417,-0.12188992649316788
1759306295647028200,11.0970283203125,0.04394965618848801,-0.052493106573820114,-0.13761121034622192
1759306295657065000,11.10706494140625,0.042184341698884964,-0.046031393110752106,-0.1564134806394577
1759306295667101400,11.117101318359374,0.031742341816425323,-0.029827143996953964,-0.17951244115829468
1759306295677145000,11.12714501953125,0.021983154118061066,-0.019401799887418747,-0.20552584528923035
1759306295687185000,11.137184814453125,0.01828598789870739,-0.0317256897687912,-0.23128943145275116
1759306295697225500,11.1472255859375,0.02141692116856575,-0.04889586567878723,-0.2659628689289093
1759306295707265300,11.157265380859375,0.02612997591495514,-0.060053981840610504,-0.3122440576553345
1759306295717304600,11.1673046875,0.028028521686792374,-0.07659130543470383,-0.3543950915336609
1759306295727345000,11.177344970703125,0.025413859635591507,-0.07787366211414337,-0.38770291209220886
1759306295737384200,11.18738427734375,0.01284016016870737,-0.03414050489664078,-0.43115293979644775
1759306295747423500,11.197423583984374,-0.006295176222920418,0.04133499041199684,-0.48439547419548035
1759306295757463600,11.207463623046875,-0.02601339854300022,0.09081374108791351,-0.5360725522041321
1759306295767505000,11.2175048828125,-0.04253407195210457,0.10365390032529831,-0.5899146199226379
1759306295777543200,11.227543212890625,-0.059337861835956573,0.12495424598455429,-0.6605105400085449
1759306295787582000,11.23758203125,-0.07685776799917221,0.16983652114868164,-0.7419314384460449
1759306295797611300,11.247611328125,-0.08766615390777588,0.21210412681102753,-0.8060989379882812
1759306295807664000,11.2576640625,-0.09277890622615814,0.24043242633342743,-0.8137097954750061
1759306295817703200,11.267703125,-0.08496822416782379,0.23010700941085815,-0.8002367615699768
1759306295827742700,11.27774267578125,-0.07790696620941162,0.2334710955619812,-0.8243849277496338
1759306295837781200,11.28778125,-0.07795692980289459,0.3027013838291168,-0.8805419206619263
1759306295847822800,11.29782275390625,-0.061469562351703644,0.42510756850242615,-0.9484732151031494
1759306295857862400,11.3078623046875,-0.025363897904753685,0.514122724533081,-1.0278457403182983
1759306295867900200,11.317900146484375,0.015638016164302826,0.489857941865921,-1.1026383638381958
1759306295877940000,11.32793994140625,0.042484112083911896,0.3770277500152588,-1.1616765260696411
1759306295887982600,11.337982666015625,0.054375000298023224,0.2510909140110016,-1.2232459783554077
1759306295898003500,11.34800341796875,0.06486696004867554,0.23933327198028564,-1.281301498413086
1759306295908059600,11.3580595703125,0.06473372876644135,0.23147262632846832,-1.355860948562622
1759306295918101800,11.368101806640626,0.05654000863432884,0.13796094059944153,-1.4571833610534668
1759306295928140300,11.378140380859374,0.04654766246676445,0.0025313934311270714,-1.5800725221633911
1759306295938179800,11.388179931640625,0.048662710934877396,-0.119891457259655,-1.7250447273254395
1759306295948219100,11.39821923828125,0.0581054724752903,-0.2012624442577362,-1.8556113243103027
1759306295958260000,11.408260009765625,0.08368587493896484,-0.30499961972236633,-1.9544522762298584
1759306295968297000,11.418296875,0.10731776058673859,-0.4533359408378601,-2.0021657943725586
1759306295978337500,11.428337646484374,0.11885891854763031,-0.5571730136871338,-1.981947898864746
1759306295988377600,11.438377685546875,0.1389768421649933,-0.5162876844406128,-1.9301875829696655
1759306295998418200,11.448418212890624,0.1692536324262619,-0.443759948015213,-1.882757306098938
1759306296008458000,11.4584580078125,0.18602411448955536,-0.40913647413253784,-1.8771781921386719
1759306296018499300,11.468499267578125,0.2274257242679596,-0.4317358434200287,-1.9234094619750977
1759306296028536600,11.47853662109375,0.31077852845191956,-0.5153217911720276,-1.9880266189575195
1759306296038577200,11.4885771484375,0.3986944854259491,-0.5357561111450195,-2.0567739009857178
1759306296048619300,11.498619384765625,0.45906490087509155,-0.46029728651046753,-2.151101589202881
1759306296058657800,11.50865771484375,0.4902576506137848,-0.3990442156791687,-2.251991033554077
1759306296068697300,11.518697265625,0.4895748496055603,-0.36069026589393616,-2.3507819175720215
1759306296078739000,11.528739013671874,0.47974902391433716,-0.30749770998954773,-2.42290997505188
1759306296088778500,11.538778564453125,0.4921228885650635,-0.26514682173728943,-2.396963119506836
1759306296098816800,11.548816650390625,0.5362390875816345,-0.2681278586387634,-2.2721755504608154
1759306296108856300,11.558856201171874,0.6000901460647583,-0.36603617668151855,-2.10695219039917
1759306296118893800,11.568893798828125,0.6351632475852966,-0.42630666494369507,-2.0373055934906006
1759306296128935700,11.578935791015626,0.6005398035049438,-0.33061331510543823,-2.1095502376556396
1759306296138975500,11.5889755859375,0.5176699757575989,-0.13494658470153809,-2.283583402633667
1759306296149016000,11.59901611328125,0.39796170592308044,0.038104135543107986,-2.4860782623291016
1759306296159055000,11.60905517578125,0.2873464822769165,0.10943280905485153,-2.6264705657958984
1759306296169093400,11.61909326171875,0.21898218989372253,0.08242017775774002,-2.6535332202911377
1759306296179134500,11.629134521484374,0.21288686990737915,0.026896055787801743,-2.617394208908081
1759306296189175000,11.639175048828125,0.255687415599823,0.0044799004681408405,-2.553626537322998
1759306296199213600,11.649213623046874,0.3160911202430725,0.0010825038189068437,-2.5235161781311035
1759306296209256000,11.659255859375,0.40144237875938416,-0.04739701375365257,-2.5407862663269043
1759306296219294200,11.669294189453124,0.4594312608242035,-0.1119808554649353,-2.5469982624053955
1759306296229335000,11.6793349609375,0.4957367777824402,-0.13554613292217255,-2.498668670654297
1759306296239372500,11.68937255859375,0.5556741952896118,-0.16825440526008606,-2.474637031555176
1759306296249412900,11.699412841796875,0.5843521952629089,-0.11591117829084396,-2.467925548553467
1759306296259452200,11.7094521484375,0.5416016578674316,-0.022449463605880737,-2.4593653678894043
1759306296269491700,11.71949169921875,0.45689988136291504,0.05713954567909241,-2.474836826324463
1759306296279531800,11.72953173828125,0.4043068587779999,0.09679249674081802,-2.514206647872925
1759306296289572900,11.73957275390625,0.39388149976730347,0.13159915804862976,-2.5137736797332764
1759306296299613000,11.749613037109375,0.406954824924469,0.1539153903722763,-2.515272617340088
1759306296309650700,11.759650634765626,0.3996604084968567,0.08182063698768616,-2.4848625659942627
1759306296319690000,11.76968994140625,0.3716818392276764,0.06028713658452034,-2.446791648864746
1759306296329732400,11.779732421875,0.3208041787147522,-0.018402565270662308,-2.412667751312256
1759306296339771600,11.789771728515625,0.2460947483778,-0.010591883212327957,-2.402409076690674
1759306296349809400,11.799809326171875,0.19936388731002808,0.08103790134191513,-2.398895025253296
1759306296359850200,11.809850341796874,0.20565907657146454,0.18061159551143646,-2.3956475257873535
1759306296369888500,11.819888427734375,0.25427180528640747,0.23973296582698822,-2.391350746154785
1759306296379930000,11.82993017578125,0.2895781099796295,0.3041336238384247,-2.379976272583008
1759306296389970200,11.83997021484375,0.2870633602142334,0.3846052885055542,-2.341372489929199
1759306296400010800,11.8500107421875,0.24814318120479584,0.4160478413105011,-2.270876407623291
1759306296410049800,11.8600498046875,0.1780635565519333,0.3815576136112213,-2.1768152713775635
1759306296420089900,11.87008984375,0.09367821365594864,0.27315735816955566,-2.0274131298065186
1759306296430128000,11.880128173828124,0.0316590741276741,0.19669927656650543,-1.8622230291366577
1759306296440169000,11.8901689453125,0.060187213122844696,0.18274329602718353,-1.732905387878418
1759306296450210000,11.9002099609375,0.1354462057352066,0.1388436108827591,-1.6501355171203613
1759306296460248800,11.910248779296875,0.1928522139787674,0.11581125110387802,-1.563535213470459
1759306296470288000,11.920287841796876,0.18046171963214874,0.07439298927783966,-1.4908076524734497
1759306296480327700,11.93032763671875,0.11134801059961319,0.013439700938761234,-1.423109531402588
1759306296490368000,11.940367919921876,0.025247320532798767,-0.01202411949634552,-1.3352267742156982
1759306296500409000,11.9504091796875,-0.04543185234069824,-0.03502316027879715,-1.2444463968276978
1759306296510445600,11.960445556640625,-0.10105589777231216,-0.06040371209383011,-1.1559975147247314
1759306296520487700,11.97048779296875,-0.13144926726818085,-0.047946590930223465,-1.055790901184082
1759306296530525400,11.980525390625,-0.13471344113349915,-0.053542304784059525,-0.9615132212638855
1759306296540566800,11.99056689453125,-0.13174903392791748,-0.04871267080307007,-0.847866952419281
1759306296550605300,12.000605224609375,-0.11636083573102951,-0.024281393736600876,-0.7420313954353333
1759306296560646000,12.01064599609375,-0.09411121904850006,-0.0045964778400957584,-0.65386563539505
1759306296570685200,12.020685302734375,-0.06065352261066437,-0.016270864754915237,-0.5780071020126343
1759306296580727000,12.03072705078125,-0.01433901209384203,-0.05482465401291847,-0.5037140250205994
1759306296590764800,12.040764892578125,0.02989375963807106,-0.07710757851600647,-0.4331847131252289
1759306296600804900,12.050804931640625,0.07391002774238586,-0.09349501878023148,-0.383905827999115
1759306296610845400,12.060845458984375,0.11817611008882523,-0.042933765798807144,-0.3549613356590271
1759306296620884200,12.07088427734375,0.16740505397319794,-0.10550248622894287,-0.2750392258167267
1759306296630924500,12.080924560546874,0.2113880068063736,-0.12563705444335938,-0.20559245347976685
1759306296640962800,12.090962890625,0.2460281401872635,-0.10816711187362671,-0.14602144062519073
1759306296651004400,12.10100439453125,0.269093781709671,-0.08729977160692215,-0.09417783468961716
1759306296661044500,12.11104443359375,0.2812345027923584,-0.0716450959444046,-0.04684743285179138
1759306296671081700,12.121081787109375,0.2846485376358032,-0.03302469477057457,-0.017986217513680458
1759306296681121800,12.131121826171874,0.29145997762680054,-0.0950438380241394,0.02551378309726715
1759306296691163000,12.141162841796875,0.28231698274612427,-0.1205909252166748,0.051410604268312454
1759306296701207800,12.151207763671875,0.26496362686157227,-0.1303834170103073,0.07500918954610825
1759306296711242500,12.161242431640625,0.2419312745332718,-0.14583824574947357,0.09740868955850601
1759306296721281000,12.171281005859376,0.22016462683677673,-0.1739666908979416,0.11769314855337143
1759306296731322000,12.181322021484375,0.1954335719347,-0.18768951296806335,0.13556279242038727
1759306296741363200,12.19136328125,0.17371688783168793,-0.19809819757938385,0.15220004320144653
1759306296751401000,12.20140087890625,0.1474536806344986,-0.20069620013237,0.16046036779880524
1759306296761440000,12.21143994140625,0.1013556644320488,-0.14763686060905457,0.1458549052476883
1759306296771482000,12.221482177734375,0.08764950186014175,-0.1619592308998108,0.13799425959587097
1759306296781520400,12.231520263671875,0.08343606442213058,-0.21100497245788574,0.12735241651535034
1759306296791562500,12.2415625,0.0547746941447258,-0.2051427960395813,0.0992073118686676
1759306296801601000,12.25160107421875,-0.009142993949353695,-0.15431508421897888,0.057006314396858215
1759306296811640600,12.261640625,-0.022349540144205093,-0.16722185909748077,0.04613131657242775
1759306296821679000,12.27167919921875,-0.030909648165106773,-0.1878560483455658,0.0404023714363575
1759306296831720700,12.281720703125,-0.04474904388189316,-0.17013628780841827,0.02704594098031521
1759306296841758500,12.291758544921874,-0.06559973210096359,-0.14219103753566742,0.005162710323929787
1759306296851800800,12.30180078125,-0.07286083698272705,-0.1323985457420349,-0.016937021166086197
1759306296861839000,12.311839111328124,-0.0696299746632576,-0.11637748777866364,-0.04195118695497513
1759306296871879200,12.321879150390625,-0.06599942594766617,-0.10235489904880524,-0.06551646441221237
1759306296881919500,12.33191943359375,-0.06436733901500702,-0.05267630144953728,-0.09727545827627182
1759306296891958300,12.341958251953125,-0.054008614271879196,-0.03440696746110916,-0.12092400342226028
1759306296901999400,12.351999267578124,-0.06811447441577911,-0.037887632846832275,-0.09479402750730515
1759306296912037000,12.362037109375,-0.14125841856002808,-0.012373851612210274,0.014871937222778797
1759306296922076200,12.372076171875,-0.18728981912136078,-0.06211906671524048,0.028777947649359703
1759306296932118300,12.3821181640625,-0.18704000115394592,-0.1985478550195694,-0.1698864847421646
1759306296942158600,12.39215869140625,-0.11819276213645935,-0.19621630012989044,-0.38693681359291077
1759306296952198000,12.402197998046875,-0.060936637222766876,-0.05152717977762222,-0.4170970320701599
1759306296962235400,12.4122353515625,-0.055624041706323624,0.13469678163528442,-0.298188179731369
1759306296972275000,12.42227490234375,-0.03577258810400963,0.1929188370704651,-0.18773946166038513
1759306296982315300,12.432315185546875,0.02003464661538601,0.09382809698581696,-0.1458549052476883
1759306296992355600,12.44235546875,0.08516807109117508,-0.008110451512038708,-0.13306470215320587
1759306297002396700,12.452396728515625,0.12728579342365265,-0.03389069810509682,-0.12450459599494934
1759306297012435000,12.46243505859375,0.14387308061122894,-0.009609303437173367,-0.11471209675073624
