time,seconds_elapsed,z,y,x
1759306284688517000,0.13851708984375,0.05732274055480957,-0.04146822169423103,-0.09496056288480759
1759306284698564400,0.148564453125,0.0535256490111351,-0.03552277758717537,-0.07732407748699188
1759306284708590800,0.1585908203125,0.056639932096004486,-0.03169238194823265,-0.056140314787626266
1759306284718652700,0.168652587890625,0.06468376517295837,-0.027495596557855606,-0.03535623848438263
1759306284728690400,0.1786904296875,0.07276090979576111,-0.021650075912475586,-0.0164873655885458
1759306284738706200,0.1887060546875,0.07700765877962112,-0.010125573724508286,0.0011657733703032136
1759306284748771800,0.198771728515625,0.0766412690281868,0.004962863866239786,0.015588055364787579
1759306284758811000,0.208810791015625,0.07259437441825867,0.003180895932018757,0.03097626380622387
1759306284768852200,0.218852294921875,0.06525000184774399,0.0011491194600239396,0.041018567979335785
1759306284778891000,0.22889111328125,0.04305034503340721,0.032591693103313446,0.042267609387636185
1759306284788890400,0.238890380859375,0.019018759950995445,0.034207120537757874,0.04291711375117302
1759306284798970600,0.248970703125,0.058255359530448914,-0.0025813551619648933,0.03733805567026138
1759306284809012200,0.25901220703125,0.05504115670919418,0.014622128568589687,0.03887021541595459
1759306284819050500,0.269050537109375,0.04418281093239784,0.009592649526894093,0.04296707361936569
1759306284829090800,0.2790908203125,0.034340351819992065,0.0005995405954308808,0.05657331645488739
1759306284839110000,0.28910986328125,0.032924771308898926,-0.009992342442274094,0.07617495954036713
1759306284849169200,0.299169189453125,0.036888398230075836,-0.019601646810770035,0.09564337879419327
1759306284859209000,0.309208984375,0.04086868092417717,-0.02133365161716938,0.11236389726400375
1759306284869250300,0.319250244140625,0.040302447974681854,-0.006145291030406952,0.1303834170103073
1759306284879283500,0.329283447265625,0.02776205912232399,0.05242649093270302,0.15496458113193512
1759306284889310500,0.339310546875,0.0000666156192892231,0.1533491611480713,0.19378483295440674
1759306284899369500,0.349369384765625,0.008560107089579105,0.22572702169418335,0.24571171402931213
1759306284909410000,0.35941015625,0.009609303437173367,0.30458325147628784,0.3024848699569702
1759306284919449900,0.369449951171875,-0.0160377100110054,0.3804917633533478,0.3448357582092285
1759306284929489700,0.37948974609375,-0.019601646810770035,0.38455531001091003,0.38159093260765076
1759306284939504400,0.38950439453125,0.0005329249543137848,0.35034820437431335,0.40512287616729736
1759306284949548300,0.39954833984375,0.03272492438554764,0.2825334966182709,0.4027080833911896
1759306284959607800,0.40960791015625,0.05639012157917023,0.22607675194740295,0.3621724545955658
1759306284969623000,0.419623046875,0.046864088624715805,0.2399994283914566,0.3018020689487457
1759306284979688200,0.429688232421875,0.018102794885635376,0.32798200845718384,0.26209914684295654
1759306284989721600,0.4397216796875,-0.024814318865537643,0.42066097259521484,0.2923926115036011
1759306284999761400,0.449761474609375,-0.07509245723485947,0.45251989364624023,0.4059056341648102
1759306285009808600,0.45980859375,-0.14330685138702393,0.40553924441337585,0.5661328434944153
1759306285019822600,0.469822509765625,-0.19453425705432892,0.43726491928100586,0.7249278426170349
1759306285029887700,0.4798876953125,-0.20332752168178558,0.5742433071136475,0.8676517605781555
1759306285039903200,0.4899033203125,-0.15726281702518463,0.7715088129043579,0.9817310571670532
1759306285049940200,0.499940185546875,-0.07179498672485352,0.9747030735015869,1.0439000129699707
1759306285060006100,0.510006103515625,0.07772377133369446,1.091530203819275,1.0072780847549438
1759306285070015500,0.520015380859375,0.2348533719778061,1.122639775276184,0.9065386652946472
1759306285080088300,0.53008837890625,0.3319956064224243,1.0476971864700317,0.7713255882263184
1759306285090127600,0.540127685546875,0.3376745879650116,0.893698513507843,0.6113315224647522
1759306285100153600,0.550153564453125,0.25044143199920654,0.7338043451309204,0.44789010286331177
1759306285110207200,0.560207275390625,0.09162978082895279,0.6506014466285706,0.3062320053577423
1759306285120261400,0.570261474609375,-0.12390505522489548,0.6633583307266235,0.20519275963306427
1759306285130286600,0.58028662109375,-0.3605903387069702,0.8404726386070251,0.16212576627731323
1759306285140327200,0.5903271484375,-0.5679814219474792,1.1814945936203003,0.1664058119058609
1759306285150357500,0.600357421875,-0.7079741358757019,1.6331318616867065,0.18594084680080414
1759306285160405800,0.61040576171875,-0.7727411985397339,2.1394104957580566,0.19206948578357697
1759306285170404600,0.620404541015625,-0.8168740272521973,2.6393609046936035,0.16545654833316803
1759306285180486100,0.630486083984375,-0.9072714447975159,3.177931308746338,0.13726148009300232
1759306285190526700,0.640526611328125,-1.0591050386428833,3.655148983001709,0.13521304726600647
1759306285200560000,0.65056005859375,-1.2537392377853394,3.916682004928589,0.2386837601661682
1759306285210605000,0.66060498046875,-1.3791098594665527,3.7332892417907715,0.5294276475906372
1759306285220645600,0.670645751953125,-1.3208378553390503,3.0117087364196777,0.8174735903739929
1759306285230667800,0.680667724609375,-1.114662528038025,1.9961869716644287,0.8789264559745789
1759306285240728300,0.690728271484375,-0.7522069215774536,1.3884860277175903,0.5854513645172119
1759306285250740700,0.70074072265625,-0.37186503410339355,1.2904610633850098,0.08182063698768616
1759306285260807400,0.710807373046875,-0.06401760876178741,1.4222934246063232,-0.4395132064819336
1759306285270822700,0.72082275390625,0.19651608169078827,1.603254795074463,-0.8711657524108887
1759306285280884200,0.73088427734375,0.4125005602836609,1.695117712020874,-1.0763086080551147
1759306285290911000,0.740910888671875,0.6114147901535034,1.6765319108963013,-1.0178866386413574
1759306285300967400,0.750967529296875,0.8047999739646912,1.5765252113342285,-0.7358361482620239
1759306285311006500,0.76100634765625,0.9910738468170166,1.4354166984558105,-0.30937957763671875
1759306285321020700,0.771020751953125,1.1756490468978882,1.2628655433654785,0.14695405960083008
1759306285331086800,0.7810869140625,1.3404061794281006,1.0952939987182617,0.5092597603797913
1759306285341126100,0.791126220703125,1.4557344913482666,0.9938883781433105,0.6875564455986023
1759306285351165700,0.801165771484375,1.50844407081604,1.0198684930801392,0.6518338322639465
1759306285361206800,0.811206787109375,1.4953041076660156,1.106035828590393,0.44774022698402405
1759306285371213300,0.82121337890625,1.4477072954177856,1.2561874389648438,0.19020424783229828
1759306285381285400,0.831285400390625,1.340922474861145,1.498618245124817,-0.08083805441856384
1759306285391325000,0.841324951171875,1.264614224433899,1.5862843990325928,-0.379475861787796
1759306285401365200,0.851365234375,1.1774144172668457,1.6537994146347046,-0.6123973727226257
1759306285411403500,0.861403564453125,1.120841145515442,1.8911341428756714,-0.7773376703262329
1759306285421419000,0.8714189453125,1.090314507484436,2.0000839233398438,-0.8561939001083374
1759306285431485000,0.88148486328125,1.0058625936508179,1.9308204650878906,-0.8261169195175171
1759306285441522700,0.891522705078125,0.8138597011566162,1.8202718496322632,-0.6966161727905273
1759306285451565600,0.901565673828125,0.5620193481445312,1.6729013919830322,-0.5439831614494324
1759306285461603600,0.911603515625,0.31091174483299255,1.4668092727661133,-0.4073711633682251
1759306285471638300,0.92163818359375,0.11521171033382416,1.2479103803634644,-0.3549446761608124
1759306285481683700,0.93168359375,-0.0009825803572311997,0.9734041094779968,-0.4686242341995239
1759306285491722800,0.94172265625,-0.11118146777153015,0.7687609195709229,-0.708124041557312
1759306285501765000,0.95176513671875,-0.2313893586397171,0.7181996703147888,-0.9391136765480042
1759306285511804200,0.96180419921875,-0.33034685254096985,0.7103723287582397,-1.0708293914794922
1759306285521818600,0.971818603515625,-0.4727710485458374,0.6587119102478027,-1.127502679824829
1759306285531881700,0.9818818359375,-0.6747496128082275,0.5636014342308044,-1.1976488828659058
1759306285541923300,0.99192333984375,-0.9100526571273804,0.5093596577644348,-1.264081358909607
1759306285551958300,1.001958251953125,-1.1297842264175415,0.48399579524993896,-1.2441632747650146
1759306285562002700,1.012002685546875,-1.2694438695907593,0.5319756865501404,-1.0526933670043945
1759306285572042500,1.02204248046875,-1.3094298839569092,0.6905208826065063,-0.7021952271461487
1759306285582082300,1.032082275390625,-1.3323956727981567,0.8353931903839111,-0.29404133558273315
1759306285592097800,1.042097900390625,-1.4250080585479736,0.9779173135757446,0.07845654338598251
1759306285602161700,1.05216162109375,-1.626153826713562,1.255371332168579,0.326549768447876
1759306285612202200,1.0622021484375,-1.9797829389572144,1.6017558574676514,0.4783834218978882
1759306285622242300,1.0722421875,-2.443027973175049,1.9563508033752441,0.5864173173904419
1759306285632283000,1.082282958984375,-2.9313371181488037,2.268361806869507,0.6901044845581055
1759306285642295300,1.09229541015625,-3.3365931510925293,2.5736610889434814,0.7896782159805298
1759306285652361200,1.102361328125,-3.6135976314544678,2.760417938232422,0.8873034119606018
1759306285662400300,1.112400146484375,-3.818190813064575,2.765597343444824,0.9923728704452515
1759306285672441300,1.12244140625,-4.031960487365723,2.706176280975342,1.11239755153656
1759306285682482400,1.132482421875,-4.263882637023926,2.6945018768310547,1.2368521690368652
1759306285692522000,1.14252197265625,-4.44632625579834,2.5637686252593994,1.3654370307922363
1759306285702560300,1.152560302734375,-4.411319732666016,2.159062147140503,1.4768682718276978
1759306285712600800,1.162600830078125,-4.170121192932129,1.6536494493484497,1.5507782697677612
1759306285722641400,1.172641357421875,-3.8888533115386963,1.1741169691085815,1.552427053451538
1759306285732683000,1.18268310546875,-3.701796770095825,0.704626739025116,1.4778509140014648
1759306285742696400,1.192696533203125,-3.6570310592651367,0.24164815247058868,1.361756443977356
1759306285752760600,1.202760498046875,-3.7096738815307617,-0.19395136833190918,1.2425144910812378
1759306285762802400,1.212802490234375,-3.7110061645507812,-0.6176100373268127,1.168304681777954
1759306285772843000,1.222843017578125,-3.565434455871582,-0.8667525053024292,1.1228063106536865
1759306285782881800,1.2328818359375,-3.3045010566711426,-0.819738507270813,1.0383542776107788
1759306285792896300,1.242896240234375,-3.0169713497161865,-0.5128570199012756,0.9039573073387146
1759306285802940000,1.25293994140625,-2.755871534347534,-0.11672721803188324,0.8142094016075134
1759306285813000200,1.263000244140625,-2.563668727874756,0.24962538480758667,0.8586087226867676
1759306285823040300,1.273040283203125,-2.427523136138916,0.5889986753463745,1.0111417770385742
1759306285833079600,1.28307958984375,-2.269827365875244,0.9389804601669312,1.2201817035675049
1759306285843118600,1.29311865234375,-2.04353404045105,1.2811349630355835,1.4452258348464966
1759306285853160200,1.30316015625,-1.8079978227615356,1.5310267210006714,1.6534162759780884
1759306285863181600,1.313181640625,-1.6258541345596313,1.6688544750213623,1.8029351234436035
1759306285873239000,1.323239013671875,-1.4942049980163574,1.7295080423355103,1.8652873039245605
1759306285883280100,1.333280029296875,-1.3571100234985352,1.90044367313385,1.748626708984375
1759306285893320400,1.343320556640625,-0.9952040314674377,2.5831871032714844,0.9659098386764526
1759306285903361300,1.353361328125,-0.5731607675552368,3.3976798057556152,-0.43093645572662354
1759306285913380600,1.363380615234375,-0.5625189542770386,3.7732253074645996,-1.4100861549377441
1759306285923438600,1.3734384765625,-0.9417117238044739,3.450822353363037,-1.398678183555603
1759306285933477600,1.3834775390625,-1.4329686164855957,2.59867525100708,-0.7190822958946228
1759306285943520000,1.39352001953125,-1.8262006044387817,1.6540324687957764,-0.04466577246785164
1759306285953559800,1.403559814453125,-2.0925965309143066,1.1192090511322021,0.2377678006887436
1759306285963574500,1.413574462890625,-2.2898452281951904,1.0801056623458862,0.13866041600704193
1759306285973640200,1.42364013671875,-2.5086443424224854,1.2341876029968262,-0.040802065283060074
1759306285983677200,1.43367724609375,-2.4972198009490967,1.6334149837493896,-0.2794192135334015
1759306285993718300,1.44371826171875,-2.3665032386779785,2.292409896850586,-0.6008562445640564
1759306286003735000,1.453735107421875,-2.289278984069824,3.0182037353515625,-0.557606041431427
1759306286013774600,1.463774658203125,-2.321354389190674,3.3157925605773926,-0.062968410551548
1759306286023839200,1.473839111328125,-2.1987318992614746,3.479567050933838,0.28493165969848633
1759306286033878000,1.4838779296875,-1.9378150701522827,3.6376125812530518,0.4299372136592865
1759306286043917300,1.493917236328125,-1.8217873573303223,4.1306681632995605,1.2574198246002197
1759306286053959000,1.503958984375,-1.5231661796569824,3.970574140548706,1.7959903478622437
1759306286063983600,1.513983642578125,-1.2437468767166138,4.01767110824585,1.5715789794921875
1759306286074038800,1.524038818359375,-1.231139898300171,3.640810012817383,0.6916199922561646
1759306286084077300,1.534077392578125,-1.4585822820663452,2.812195062637329,-0.1937681883573532
1759306286094117400,1.544117431640625,-1.760833978652954,1.7466448545455933,-0.6135464906692505
1759306286104155600,1.55415576171875,-2.1133971214294434,0.7325553297996521,-0.5391868352890015
1759306286114192400,1.5641923828125,-2.529461622238159,0.132864847779274,0.018935490399599075
1759306286124212200,1.574212158203125,-2.894098997116089,0.06446726620197296,0.721630334854126
1759306286134276900,1.58427685546875,-3.090481758117676,0.53653883934021,1.2733409404754639
1759306286184450600,1.634450439453125,-1.4343675374984741,1.5483301877975464,2.2649476528167725
1759306286194509600,1.644509521484375,-1.3571267127990723,1.2408158779144287,2.2781875133514404
1759306286234651400,1.6846513671875,-1.0095930099487305,-0.48166424036026,0.23793433606624603
1759306286254742300,1.7047421875,-0.45774921774864197,-0.4962364137172699,-0.5372216701507568
1759306286284858600,1.734858642578125,0.04148487746715546,-0.37992551922798157,-0.22168013453483582
1759306286294873000,1.744873046875,0.10235489904880524,0.07875631749629974,-0.027145864441990852
1759306286304918500,1.75491845703125,0.2692936360836029,0.10513610392808914,0.03800421208143234
1759306286314980400,1.76498046875,0.6058024168014526,-0.11902546137571335,-0.12009130418300629
1759306286324998400,1.774998291015625,0.9488229155540466,-0.16981986165046692,-0.30889663100242615
1759306286335061000,1.78506103515625,1.0955771207809448,0.028078483417630196,-0.40339088439941406
1759306286345114600,1.795114501953125,0.9941548705101013,0.5455152988433838,-0.3055824935436249
1759306286355153700,1.805153564453125,0.4271393418312073,1.2289249897003174,-0.18752296268939972
1759306286365194800,1.81519482421875,-0.20164547860622406,1.3612068891525269,-0.013656201772391796
1759306286375234000,1.825234130859375,-0.5484297275543213,0.46494370698928833,0.1693868637084961
1759306286385248800,1.835248779296875,-0.9961699843406677,-0.09522702544927597,0.15068453550338745
1759306286395314400,1.845314453125,-1.4157150983810425,0.0921960175037384,0.2784699499607086
1759306286405352400,1.8553525390625,-1.8311800956726074,0.5586552619934082,0.6116979122161865
1759306286415393500,1.8653935546875,-2.2315566539764404,0.8005032539367676,1.4465581178665161
1759306286425408300,1.875408203125,-2.6357967853546143,0.9532695412635803,2.464927911758423
1759306286435475700,1.885475830078125,-3.0787906646728516,1.5823041200637817,3.0684986114501953
1759306286445512700,1.8955126953125,-3.176016330718994,4.124655723571777,2.5480639934539795
1759306286455554000,1.905553955078125,-3.3839735984802246,5.3344621658325195,2.302285671234131
1759306286465594400,1.915594482421875,-3.7564380168914795,3.0868844985961914,1.9713892936706543
1759306286475633700,1.925633544921875,-3.9858455657958984,0.1618259996175766,1.0659664869308472
1759306286485679600,1.9356796875,-4.283467769622803,-1.7577530145645142,0.41693049669265747
1759306286495715000,1.945715087890625,-4.589749336242676,-1.7423648834228516,0.42232638597488403
1759306286505751300,1.955751220703125,-4.559422969818115,-0.03272492438554764,0.9263068437576294
1759306286515792400,1.96579248046875,-4.164975166320801,0.9407291412353516,0.9276058673858643
1759306286525833500,1.97583349609375,-3.471306562423706,0.9658432006835938,0.627718985080719
1759306286535873800,1.985873779296875,-2.617394208908081,2.947491407394409,1.1045036315917969
1759306286545916400,1.99591650390625,-2.6661570072174072,4.063702583312988,0.9839127063751221
1759306286555952000,2.0059521484375,-3.1859419345855713,2.7237794399261475,0.5581889152526855
1759306286565991400,2.015991455078125,-2.9059898853302,0.9993008971214294,0.3950972259044647
1759306286576032000,2.026031982421875,-2.1458890438079834,0.31812289357185364,0.41141805052757263
1759306286586071800,2.03607177734375,-1.5362727642059326,0.21633422374725342,0.3551611602306366
1759306286596112100,2.046112060546875,-1.206325650215149,0.3295641243457794,0.18763954937458038
1759306286606151700,2.056151611328125,-1.16838800907135,0.6836594343185425,-0.04335011541843414
1759306286616191500,2.06619140625,-1.2678284645080566,1.0647507905960083,-0.13584589958190918
1759306286626232000,2.076232177734375,-1.1323156356811523,0.9164476990699768,-0.18402564525604248
1759306286636271900,2.08627197265625,-0.8187059760093689,0.5516772270202637,-0.21297013759613037
1759306286646311700,2.096311767578125,-0.46296191215515137,0.46456068754196167,-0.20217840373516083
1759306286656349200,2.10634912109375,-0.16928693652153015,0.31630760431289673,-0.18780608475208282
1759306286666390300,2.116390380859375,0.008843223564326763,0.132864847779274,-0.19426779448986053
1759306286676429800,2.126429931640625,0.08530130237340927,0.008193721063435078,-0.2325051724910736
1759306286686472700,2.13647265625,0.1671718955039978,-0.11178100854158401,-0.23172242939472198
1759306286696509200,2.14650927734375,0.21575133502483368,-0.1987643539905548,-0.27215811610221863
1759306286706549200,2.15654931640625,0.1797289401292801,-0.011824272572994232,-0.33416059613227844
1759306286716591000,2.166591064453125,0.10715122520923615,0.05499119311571121,-0.34277066588401794
1759306286726629400,2.17662939453125,0.021700037643313408,0.07041271030902863,-0.2908104956150055
1759306286736669400,2.18666943359375,0.003480666084215045,-0.03903675451874733,-0.24840964376926422
1759306286746710000,2.1967099609375,0.043483346700668335,-0.114412322640419,-0.2465943694114685
1759306286756750000,2.20675,0.08057159185409546,-0.10653503239154816,-0.3142924904823303
1759306286766791000,2.216791015625,0.1252373605966568,-0.24417954683303833,-0.30236828327178955
1759306286776830500,2.22683056640625,0.1685541719198227,-0.4069714844226837,-0.26085010170936584
1759306286786871300,2.236871337890625,0.16610604524612427,-0.41901224851608276,-0.2400660365819931
1759306286796911000,2.2469111328125,0.19859781861305237,-0.2419479340314865,-0.17611505091190338
1759306286806948600,2.256948486328125,0.20184533298015594,-0.30175209045410156,-0.0782400444149971
1759306286816990000,2.266989990234375,0.01665390469133854,-0.554241955280304,-0.02662959322333336
1759306286827028200,2.2770283203125,0.002931087277829647,-0.5132733583450317,-0.07887289673089981
1759306286837068000,2.287068115234375,0.03219199925661087,-0.2743397653102875,-0.07925593107938766
1759306286847108400,2.2971083984375,-0.01177431084215641,-0.07725746184587479,0.0020151224453002214
1759306286857148000,2.30714794921875,-0.026496361941099167,0.010791730135679245,0.06186925619840622
1759306286867187700,2.317187744140625,-0.01039203628897667,0.0044465926475822926,0.08670023083686829
1759306286877226800,2.327226806640625,-0.008560107089579105,-0.03590581938624382,0.07326053082942963
1759306286887267800,2.337267822265625,-0.010974923148751259,-0.08671688288450241,0.039969369769096375
1759306286897308000,2.347307861328125,-0.01900210604071617,-0.07597511261701584,0.030326761305332184
1759306286907347200,2.35734716796875,-0.0038137442898005247,-0.06977985799312592,0.0456816591322422
1759306286917387300,2.36738720703125,0.026779478415846825,-0.11134801059961319,0.05672319978475571
1759306286927426600,2.377426513671875,0.05259303003549576,-0.19235260784626007,0.04333345964550972
1759306286937467400,2.38746728515625,0.061935871839523315,-0.26912710070610046,0.004113514441996813
1759306286947508200,2.39750830078125,0.10000669956207275,-0.2408987283706665,-0.033008038997650146
1759306286957547000,2.407547119140625,0.1131632849574089,-0.22995711863040924,-0.021150458604097366
1759306286967588600,2.417588623046875,-0.5688807368278503,-0.0679645836353302,0.21060527861118317
1759306286977627600,2.427627685546875,-1.5833033323287964,0.5821705460548401,0.01433901209384203
1759306286987667200,2.437667236328125,-1.5608705282211304,1.5022488832473755,-0.40039318799972534
1759306286997685200,2.447685302734375,-1.3890855312347412,1.7288419008255005,-0.47959914803504944
1759306287007747300,2.457747314453125,-1.1665561199188232,1.4371154308319092,-0.540519118309021
1759306287017787100,2.467787109375,-0.824068546295166,1.1339644193649292,-0.5348734855651855
1759306287027826400,2.477826416015625,-0.3377578556537628,0.6676051020622253,-0.41046878695487976
1759306287037865500,2.487865478515625,-0.12480436265468597,0.2015955150127411,-0.283466100692749
1759306287047907800,2.497907958984375,-0.06318491697311401,0.17148526012897491,-0.22197990119457245
1759306287057945300,2.5079453125,-0.012740237638354301,0.21012231707572937,-0.1360623985528946
1759306287067985700,2.517985595703125,0.06490026414394379,0.05290945619344711,-0.0362388975918293
1759306287078026500,2.528026611328125,0.22954076528549194,-0.259900838136673,0.12144027650356293
1759306287088067000,2.538067138671875,0.40339088439941406,-0.681844174861908,0.24869276583194733
1759306287098080800,2.548080810546875,0.6208242774009705,-0.9767348766326904,0.3351931571960449
1759306287108145700,2.558145751953125,0.8603906631469727,-1.182860255241394,0.39761197566986084
1759306287118185000,2.56818505859375,1.0476804971694946,-1.2591184377670288,0.4142492413520813
1759306287128226300,2.578226318359375,1.1694538593292236,-1.1374117136001587,0.37664470076560974
1759306287138264000,2.58826416015625,1.140476107597351,-0.8189224600791931,0.3092130422592163
1759306287148306700,2.598306640625,0.6350134015083313,-0.48877546191215515,0.2113213986158371
1759306287158343400,2.608343505859375,0.14139164984226227,-0.09832465648651123,0.04095195233821869
1759306287168383700,2.6183837890625,0.0474136658012867,0.3197050094604492,-0.09162978082895279
1759306287178425000,2.628425048828125,0.04954536631703377,0.6678049564361572,-0.020317763090133667
1759306287188466000,2.6384658203125,0.019318530336022377,0.6098327040672302,0.04529862105846405
1759306287198504200,2.648504150390625,-0.09006431698799133,0.6668556332588196,0.11184762418270111
1759306287208543000,2.65854296875,-0.0944109857082367,0.6367453932762146,0.0939280241727829
1759306287218584300,2.668584228515625,-0.05815543606877327,0.43463361263275146,0.03097626380622387
1759306287228624000,2.678623779296875,-0.04563169926404953,0.37053272128105164,0.024414625018835068
1759306287238663200,2.6886630859375,-0.05499119311571121,0.404107004404068,0.0317256897687912
1759306287248704800,2.698704833984375,-0.05552411824464798,0.40004345774650574,0.0006328483577817678
1759306287258741800,2.70874169921875,-0.05139394849538803,0.3595578074455261,-0.05339241772890091
1759306287268783400,2.718783447265625,-0.0539419986307621,0.366202712059021,-0.03767113387584686
1759306287278822000,2.72882177734375,-0.11634417623281479,0.5110583901405334,0.11304670572280884
1759306287288863000,2.738863037109375,-0.1185091882944107,0.4845620095729828,0.19843128323554993
1759306287298902000,2.748902099609375,-0.1201745793223381,0.5637679696083069,0.2417980432510376
1759306287308942300,2.7589423828125,-0.12985049188137054,0.4717218577861786,0.08363591134548187
1759306287318982400,2.768982421875,-0.09785834699869156,0.44907253980636597,0.014222434721887112
1759306287329022700,2.779022705078125,-0.10625191032886505,0.3814743459224701,0.02629651501774788
1759306287339064300,2.789064208984375,-0.10225497931241989,0.34631794691085815,0.02374846860766411
1759306287349101000,2.79910107421875,-0.08966462314128876,0.36798468232154846,0.012307235971093178
1759306287359143200,2.80914306640625,-0.07853981852531433,0.3698998689651489,-0.002814509905874729
1759306287369183000,2.819182861328125,-0.06771478056907654,0.2477767914533615,-0.03970291092991829
1759306287379224000,2.82922412109375,-0.05357561260461807,0.20316098630428314,-0.08611734211444855
1759306287389260000,2.839260009765625,-0.05017821490764618,0.21571803092956543,-0.178829625248909
1759306287399299800,2.8492998046875,-0.037054937332868576,0.21170443296432495,-0.22724252939224243
1759306287409341400,2.859341552734375,-0.008893185295164585,0.13116616010665894,-0.1997302770614624
1759306287419380500,2.86938037109375,0.031542494893074036,0.006311830133199692,-0.13298143446445465
1759306287429423000,2.879423095703125,0.03502316027879715,-0.07194487005472183,-0.07174502313137054
1759306287439460900,2.8894609375,0.03703828528523445,-0.19315199553966522,-0.08145424723625183
1759306287449499600,2.899499755859375,0.014938552863895893,-0.21140466630458832,-0.08370252698659897
1759306287459539500,2.90953955078125,0.0020817380864173174,-0.2151518017053604,-0.11184762418270111
1759306287469580800,2.919580810546875,0.01350631657987833,-0.20932292938232422,-0.1294674575328827
1759306287479622100,2.9296220703125,0.017669793218374252,-0.20071285963058472,-0.1195417270064354
1759306287489660200,2.93966015625,0.013806086964905262,-0.21398602426052094,-0.10658498853445053
1759306287499700500,2.949700439453125,0.008726646192371845,-0.22649310529232025,-0.08600076287984848
1759306287509740500,2.959740478515625,0.025114089250564575,-0.23373755812644958,-0.06363456696271896
1759306287519781600,2.96978173828125,0.034506890922784805,-0.22720922529697418,-0.03572262451052666
1759306287529820200,2.979820068359375,0.009609303437173367,-0.21110489964485168,-0.009642611257731915
1759306287539861200,2.989861328125,-0.023182235658168793,-0.16817113757133484,-0.003097626380622387
1759306287549900500,2.999900634765625,-0.04964528977870941,-0.11417917162179947,-0.02429804764688015
1759306287559939000,3.00993896484375,-0.04634781554341316,-0.07196152210235596,-0.033374425023794174
1759306287569978600,3.019978515625,-0.031742341816425323,-0.055757272988557816,-0.035755932331085205
1759306287580020500,3.0300205078125,-0.0044465926475822926,-0.05649004504084587,-0.0333244651556015
1759306287590057700,3.0400576171875,0.006228560581803322,-0.03715486079454422,-0.058305319398641586
1759306287600098600,3.0500986328125,0.0354062020778656,0.002847817726433277,-0.026329822838306427
1759306287610139400,3.060139404296875,0.028544792905449867,0.03875363618135452,0.01135796308517456
1759306287630218000,3.080218017578125,0.02321554347872734,0.04773009195923805,0.014189126901328564
1759306287640259600,3.090259521484375,0.0009659265051595867,0.06834762543439865,-0.00920960959047079
1759306287650297600,3.100297607421875,-0.006511676590889692,0.09567668288946152,-0.03160911053419113
1759306287660337000,3.1103369140625,-0.009259571321308613,0.12064088881015778,-0.03487327694892883
1759306287670378800,3.120378662109375,-0.0038303982000797987,0.12074080854654312,-0.04056891053915024
1759306287680418300,3.130418212890625,0.003996937070041895,0.10292112827301025,-0.054791346192359924
1759306287690457600,3.14045751953125,0.01350631657987833,0.08718319237232208,-0.06774808466434479
1759306287700497400,3.150497314453125,0.030992917716503143,0.07677450031042099,-0.06798124313354492
1759306287710537700,3.160537841796875,0.03640543669462204,0.06966328620910645,-0.06774808466434479
1759306287720578000,3.170578125,0.03395731374621391,0.05732274055480957,-0.06536657363176346
1759306287730616800,3.180616943359375,0.029327526688575745,0.05011159926652908,-0.05842189863324165
1759306287740656000,3.19065625,0.02476435713469982,0.05134398862719536,-0.04659762606024742
1759306287750697000,3.200697021484375,0.01861906610429287,0.053675536066293716,-0.03868702054023743
1759306287760737300,3.2107373046875,0.005012825131416321,0.04791328310966492,-0.030676493421196938
1759306287770775800,3.22077587890625,-0.013189892284572124,0.037388015538454056,-0.018635720014572144
1759306287780817400,3.2308173828125,-0.023282159119844437,0.030659839510917664,-0.007893950678408146
1759306287790856700,3.240856689453125,-0.02166672982275486,0.02341539040207863,0.0019651607144623995
1759306287800895200,3.250895263671875,-0.012074081227183342,0.008093797601759434,0.0014821975491940975
1759306287810935300,3.260935302734375,-0.00039969373028725386,-0.018885528668761253,-0.0003330780891701579
1759306287820951300,3.270951416015625,-0.0017486599972471595,-0.04814643785357475,0.013323123566806316
1759306287831016200,3.28101611328125,-0.0045631700195372105,-0.06764816492795944,0.0324917696416378
1759306287841056300,3.29105615234375,-0.007627488579601049,-0.0873330757021904,0.03941979259252548
1759306287851097900,3.301097900390625,-0.004213437903672457,-0.12751895189285278,0.02872798591852188
1759306287861136600,3.31113671875,0.007727412041276693,-0.14450593292713165,0.028111791238188744
1759306287871175000,3.3211748046875,0.026896055787801743,-0.16902047395706177,0.02696267142891884
1759306287881195500,3.331195556640625,0.046031393110752106,-0.18226033449172974,0.008227028883993626
1759306287891230200,3.341230224609375,0.03507312387228012,-0.1965993493795395,-0.02451454848051071
1759306287901270300,3.351270263671875,-0.004796324763447046,-0.21360298991203308,-0.04809647798538208
1759306287911310600,3.361310546875,-0.002781202085316181,-0.1813277155160904,-0.06638246774673462
1759306287921350100,3.37135009765625,0.04846286401152611,-0.1325983852148056,-0.0567898154258728
1759306287931415600,3.38141552734375,0.05374215170741081,-0.0867834985256195,-0.020184531807899475
1759306287941455400,3.391455322265625,0.0329747311770916,-0.07687442749738693,0.0075608729384839535
1759306287951495700,3.40149560546875,0.017253445461392403,-0.1255204826593399,0.016021056100726128
1759306287961533400,3.411533447265625,0.003130934201180935,-0.18863877654075623,0.027445634827017784
1759306287971574500,3.421574462890625,-0.009892419911921024,-0.20730780065059662,0.03355761989951134
1759306287981613800,3.43161376953125,-0.006994639988988638,-0.17025287449359894,0.021316997706890106
1759306287991654700,3.441654541015625,-0.0044465926475822926,-0.12443798035383224,0.00008326952229253948
1759306288001695000,3.451695068359375,-0.004629785660654306,-0.09131336212158203,-0.01637078821659088
1759306288011735600,3.461735595703125,0.0053125955164432526,-0.05723946914076805,-0.0075608729384839535
1759306288021775000,3.471775146484375,0.0017653139075264335,-0.038637060672044754,0.011208077892661095
1759306288031814100,3.481814208984375,0.030126914381980896,-0.031042879447340965,0.010441998019814491
1759306288041852700,3.491852783203125,0.02671286277472973,-0.04549846798181534,-0.00008326952229253948
1759306288051893000,3.50189306640625,0.03360757976770401,-0.05455819144845009,-0.01953503116965294
1759306288061932500,3.5119326171875,0.031709033995866776,-0.047696784138679504,-0.027329057455062866
1759306288071975000,3.521974853515625,0.02956068143248558,-0.01911868341267109,-0.03750459477305412
1759306288082014200,3.53201416015625,0.04280053451657295,-0.014039241708815098,-0.04434935003519058
1759306288092052500,3.542052490234375,0.03907006233930588,-0.014705398119986057,-0.0415848009288311
1759306288102092500,3.552092529296875,0.04446592554450035,-0.024414625018835068,-0.04946209862828255
1759306288112131000,3.562131103515625,0.053875382989645004,-0.04245080426335335,-0.054508231580257416
1759306288122173200,3.572173095703125,0.059387825429439545,-0.06283517926931381,-0.05765581876039505
1759306288132214300,3.58221435546875,0.07144524902105331,-0.07184494286775589,-0.05967094004154205
1759306288142252300,3.592252197265625,0.08506814390420914,-0.07517572492361069,-0.05695635452866554
1759306288152292900,3.60229296875,0.08353598415851593,-0.07311064004898071,-0.048029862344264984
1759306288162331100,3.6123310546875,0.0645671859383583,-0.05743931606411934,-0.033124618232250214
1759306288172373200,3.622373291015625,0.027445634827017784,-0.02612997591495514,-0.02011791616678238
1759306288182411000,3.632410888671875,-0.012740237638354301,0.008143759332597256,-0.017603177577257156
1759306288192450600,3.642450439453125,-0.036721859127283096,0.03715486079454422,-0.0238816998898983
1759306288202490000,3.652489990234375,-0.04301703721284866,0.0642840713262558,-0.03690505400300026
1759306288212531500,3.662531494140625,-0.009675919078290462,0.08596745878458023,-0.05027813836932182
1759306288222570800,3.67257080078125,0.03247511386871338,0.08098793774843216,-0.044282734394073486
1759306288232610600,3.682610595703125,0.06365122646093369,0.06455053389072418,-0.021233728155493736
1759306288242649900,3.69264990234375,0.0778236985206604,0.04538189247250557,-0.003297473071143031
1759306288252689700,3.702689697265625,0.06233556568622589,0.034506890922784805,0.00729441037401557
1759306288262728700,3.712728759765625,0.029577335342764854,0.04972856119275093,0.023115620017051697
1759306288272769800,3.722769775390625,-0.016270864754915237,0.08655034005641937,0.04105187579989433
1759306288282809300,3.732809326171875,-0.07810681313276291,0.13271497189998627,0.045115429908037186
1759306288292850200,3.74285009765625,-0.12775211036205292,0.19693242013454437,0.02997702918946743
1759306288302890500,3.752890380859375,-0.1464211344718933,0.2627653181552887,0.007177833002060652
1759306288312940800,3.76294091796875,-0.1309330016374588,0.30228501558303833,-0.013040007092058659
1759306288322970400,3.772970458984375,-0.100040003657341,0.3523966372013092,-0.026829440146684647
1759306288333008400,3.78300830078125,-0.06871400773525238,0.4060721695423126,-0.038936831057071686
1759306288343049700,3.7930498046875,-0.04233422502875328,0.48148104548454285,-0.03510643169283867
1759306288353088800,3.8030888671875,-0.04153483733534813,0.5463313460350037,-0.01400593388825655
1759306288363128600,3.813128662109375,-0.02513074316084385,0.5570564866065979,-0.0013156584464013577
1759306288373169700,3.823169677734375,0.04330015182495117,0.40742114186286926,-0.03712155297398567
1759306288383210000,3.8332099609375,0.12422147393226624,0.1325983852148056,-0.10112251341342926
1759306288393248800,3.843248779296875,0.13771113753318787,-0.029410796239972115,-0.12582024931907654
1759306288403289300,3.853289306640625,0.06943012773990631,0.02847817726433277,-0.12608671188354492
1759306288413329000,3.863328857421875,-0.029327526688575745,0.17436638474464417,-0.10578560084104538
1759306288423367200,3.8733671875,-0.08147089928388596,0.20830704271793365,-0.051077526062726974
1759306288433407500,3.883407470703125,-0.06350133568048477,0.07720750570297241,0.023531967774033546
1759306288443448000,3.893447998046875,-0.0678979679942131,-0.026246553286910057,0.0814375951886177
1759306288453487900,3.90348779296875,-0.05027813836932182,-0.13131603598594666,0.07654134929180145
1759306288463528400,3.913528564453125,-0.028544792905449867,-0.18359264731407166,0.04914567247033119
1759306288473567200,3.923567138671875,0.0012157351011410356,-0.14277392625808716,0.02909437194466591
1759306288483606500,3.9336064453125,0.046447739005088806,-0.056340161710977554,0.011624425649642944
1759306288493647000,3.943647216796875,0.0773407369852066,0.0025313934311270714,0.010458651930093765
1759306288503687400,3.9536875,0.07679115235805511,0.03668855130672455,0.022532733157277107
1759306288513726000,3.963725830078125,0.06458384543657303,0.0345735065639019,0.02934418059885502
1759306288523767800,3.973767822265625,0.04608135297894478,0.014605474658310413,0.035173047333955765
1759306288533805800,3.983805908203125,0.03578924015164375,-0.017519908025860786,0.041518185287714005
1759306288543847400,3.993847412109375,0.03753790259361267,-0.06368453055620193,0.04173468425869942
1759306288553887000,4.003886962890625,0.03678847476840019,-0.0991406962275505,0.03635547310113907
1759306288563927600,4.013927490234375,0.029277564957737923,-0.12553712725639343,0.026995979249477386
1759306288573966300,4.02396630859375,0.016437403857707977,-0.13338112831115723,0.012207312509417534
1759306288584007000,4.0340068359375,0.002997702918946743,-0.11061523854732513,0.0009159647743217647
1759306288594046000,4.0440458984375,-0.003697166917845607,-0.06829766184091568,-0.0005662327748723328
1759306288604087000,4.054087158203125,-0.0009326186846010387,-0.027412327006459236,0.0044465926475822926
1759306288614127000,4.064127197265625,0.009692572988569736,-0.002448124112561345,0.016021056100726128
1759306288624165600,4.07416552734375,0.02224961668252945,0.0011824272805824876,0.023182235658168793
1759306288634205700,4.084205810546875,0.028494831174612045,0.0045798239298164845,0.022033115848898888
1759306288644244500,4.094244384765625,0.02906106412410736,0.014688744209706783,0.018635720014572144
1759306288654286000,4.1042861328125,0.02551378309726715,0.027379019185900688,0.014572166837751865
1759306288664326400,4.114326416015625,0.0197515320032835,0.041684724390506744,0.008027181960642338
1759306288674365200,4.124365234375,0.014555512927472591,0.05117744952440262,0.005012825131416321
1759306288684405500,4.134405517578125,0.009093032218515873,0.0621357187628746,0.00646171486005187
1759306288694443500,4.144443603515625,0.005545750260353088,0.06669888645410538,0.005012825131416321
1759306288704485600,4.154485595703125,0.005895482376217842,0.06771478056907654,0.004929556045681238
1759306288714523100,4.164523193359375,0.007061255630105734,0.04354996234178543,0.004862940404564142
1759306288724564500,4.174564453125,0.006045367568731308,0.012806852348148823,-0.0012656967155635357
1759306288734605600,4.18460546875,-0.002314892830327153,0.011208077892661095,-0.00920960959047079
1759306288744643300,4.194643310546875,-0.013073314912617207,0.025447167456150055,-0.013056661002337933
1759306288754684200,4.20468408203125,-0.024264739826321602,0.017436638474464417,-0.014522205106914043
1759306288764723500,4.214723388671875,-0.027828674763441086,-0.017969563603401184,-0.013822740875184536
1759306288774763300,4.22476318359375,-0.026479708030819893,-0.04173468425869942,-0.008759954012930393
1759306288784802800,4.234802734375,-0.015687977895140648,-0.055507466197013855,-0.00920960959047079
1759306288794843100,4.244843017578125,-0.00729441037401557,-0.04559839144349098,-0.008343606255948544
1759306288804882700,4.254882568359375,-0.003613897366449237,-0.03369085118174553,-0.0026479708030819893
1759306288814923300,4.26492333984375,0.005096094682812691,-0.04138495400547981,0.003963629249483347
1759306288824962600,4.274962646484375,0.01703694462776184,-0.06501684337854385,0.008443529717624187
1759306288835004000,4.28500390625,0.024714395403862,-0.0601205974817276,0.013040007092058659
1759306288845043200,4.295043212890625,0.02070080302655697,-0.027995213866233826,0.013955972157418728
1759306288855082800,4.305082763671875,0.01995137706398964,-0.008610068820416927,0.005262633785605431
1759306288865121800,4.315121826171875,0.01886887475848198,-0.013539624400436878,0.005146056413650513
1759306288875161900,4.325161865234375,0.018685681745409966,-0.0407521054148674,0.006195252761244774
1759306288885203500,4.335203369140625,0.021516844630241394,-0.06948009133338928,-0.0037804364692419767
1759306288895242200,4.3452421875,0.01933518424630165,-0.08473506569862366,-0.013689509592950344
1759306288905283000,4.355282958984375,0.01841921918094158,-0.08749961853027344,-0.01811944879591465
1759306288915321000,4.365321044921875,0.015371554531157017,-0.09126339852809906,-0.018635720014572144
1759306288925361700,4.375361572265625,0.009809150360524654,-0.09644276648759842,-0.017136868089437485
1759306288935402800,4.38540283203125,0.006661561783403158,-0.09815811365842819,-0.01645405776798725
1759306288945440500,4.3954404296875,0.008709992282092571,-0.08963131904602051,-0.01911868341267109
1759306288955482000,4.405482177734375,0.015404862351715565,-0.07402660697698593,-0.017270099371671677
1759306288965521700,4.415521728515625,0.020234493538737297,-0.05464146286249161,-0.010974923148751259
1759306288975563300,4.425563232421875,0.01903541386127472,-0.03347434848546982,-0.007161179091781378
1759306288985600300,4.435600341796875,0.013639547862112522,-0.006578292232006788,-0.00662825396284461
1759306288995643000,4.445642822265625,0.010608537122607231,0.026612939313054085,-0.004130168352276087
1759306289005686800,4.455686767578125,0.012057427316904068,0.04561504349112511,-0.004280053544789553
1759306289015726300,4.465726318359375,0.014039241708815098,0.046197932213544846,-0.0075608729384839535
1759306289025760800,4.4757607421875,0.012174004688858986,0.04230091720819473,-0.008993108756840229
1759306289035799300,4.48579931640625,-0.0010991577291861176,0.04255072772502899,-0.008443529717624187
1759306289045842400,4.495842529296875,-0.017603177577257156,0.05285949259996414,-0.013239854015409946
1759306289055882000,4.505882080078125,-0.0444326177239418,0.07012959569692612,-0.01325650792568922
1759306289065930000,4.515929931640625,-0.06654900312423706,0.09152986109256744,-0.016504019498825073
1759306289075959000,4.525958984375,-0.06784801185131073,0.10723449289798737,-0.02612997591495514
1759306289085999400,4.535999267578125,-0.034590158611536026,0.10840026289224625,-0.03182561323046684
1759306289096039200,4.5460390625,0.01903541386127472,0.08515141904354095,-0.02687940187752247
1759306289106078500,4.556078369140625,0.06458384543657303,0.045065466314554214,-0.023515313863754272
1759306289116118300,4.5661181640625,0.10432005673646927,-0.005878828465938568,-0.036422088742256165
1759306289126159400,4.576159423828125,0.13959303498268127,-0.06913036108016968,-0.04992840811610222
1759306289136199200,4.58619921875,0.13637882471084595,-0.08903177827596664,-0.048912517726421356
1759306289146238500,4.596238525390625,0.1149619072675705,-0.0815708264708519,-0.046481046825647354
1759306289156279300,4.606279296875,0.08753292262554169,-0.08350268006324768,-0.04191787913441658
1759306289166317800,4.61631787109375,0.0671985074877739,-0.10929957777261734,-0.04090198874473572
1759306289176358100,4.626358154296875,0.04321688413619995,-0.14713725447654724,-0.044399309903383255
1759306289186398500,4.6363984375,0.021466882899403572,-0.16663897037506104,-0.05179364234209061
1759306289196440000,4.646440185546875,0.01820271834731102,-0.17624826729297638,-0.05294276401400566
1759306289206478000,4.65647802734375,0.020883996039628983,-0.1852913498878479,-0.04140160605311394
1759306289216518100,4.66651806640625,0.01662059687077999,-0.16430743038654327,-0.03114280290901661
1759306289226559000,4.67655908203125,0.010525267571210861,-0.12518739700317383,-0.028278330340981483
1759306289236596700,4.6865966796875,0.004030244890600443,-0.09272894263267517,-0.029627297073602676
1759306289246637300,4.69663720703125,0.00567898154258728,-0.08097128570079803,-0.03314127027988434
1759306289256678100,4.70667822265625,0.00997568853199482,-0.08235356211662292,-0.039103370159864426
1759306289266716700,4.716716552734375,0.01707025244832039,-0.08153751492500305,-0.052626337856054306
1759306289276750800,4.726750732421875,0.026479708030819893,-0.07579191774129868,-0.07316060364246368
1759306289286771700,4.736771728515625,0.03898679092526436,-0.0630350261926651,-0.09249578416347504
1759306289296838000,4.746837890625,0.04358327016234398,-0.039719562977552414,-0.10187193751335144
1759306289306877700,4.756877685546875,0.04361657798290253,0.003580589545890689,-0.09757522493600845
1759306289316916500,4.76691650390625,0.03474004566669464,0.05713954567909241,-0.08949808776378632
1759306289326958600,4.77695849609375,0.019052067771553993,0.10182197391986847,-0.0837191790342331
1759306289336997000,4.7869970703125,0.007394333835691214,0.16402430832386017,-0.07565868645906448
1759306289347036200,4.7970361328125,0.0003663859097287059,0.1505013406276703,-0.06953005492687225
1759306289357077500,4.807077392578125,0.0013323123566806316,0.12253943085670471,-0.0647004172205925
1759306289367115300,4.817115234375,0.011241385713219643,0.09899081289768219,-0.06551646441221237
1759306289377158000,4.827157958984375,0.016553981229662895,0.08924827724695206,-0.07382676005363464
1759306289387194600,4.837194580078125,0.015721285715699196,0.09707561135292053,-0.08523468673229218
1759306289397235500,4.8472353515625,0.00987576600164175,0.10528598725795746,-0.08936485648155212
1759306289407275300,4.857275146484375,0.008426875807344913,0.11529498547315598,-0.08420214056968689
1759306289417315000,4.867315185546875,0.0008326952229253948,0.07960566133260727,-0.0811544805765152
1759306289427356200,4.877356201171875,-0.0019318530103191733,0.07575861364603043,-0.07757388800382614
1759306289437394400,4.88739453125,0.0008660030434839427,0.07184494286775589,-0.07604172825813293
1759306289447434800,4.897434814453125,0.006977986078709364,0.06953005492687225,-0.07575861364603043
1759306289457474300,4.907474365234375,0.014222434721887112,0.06651569902896881,-0.07371018081903458
1759306289467513900,4.917513916015625,0.017986217513680458,0.07362691313028336,-0.06455053389072418
1759306289477556500,4.927556396484375,0.021133804693818092,0.1115645095705986,-0.052543070167303085
1759306289487594200,4.93759423828125,0.019235260784626007,0.0955934152007103,-0.04588150605559349
1759306289497610200,4.9476103515625,0.018852220848202705,0.06593281030654907,-0.03718816861510277
1759306289507673600,4.957673583984375,0.024064892902970314,0.050661180168390274,-0.03427373617887497
1759306289517714400,4.96771435546875,0.025530437007546425,0.039436448365449905,-0.03602239489555359
1759306289527753500,4.97775341796875,0.024497894570231438,0.04031910374760628,-0.035972435027360916
1759306289537792800,4.987792724609375,0.0226659644395113,0.04839624837040901,-0.041135143488645554
1759306289547834600,4.997834716796875,0.020517610013484955,0.05522434785962105,-0.05544085055589676
1759306289557874000,5.0078740234375,0.021899884566664696,0.045981429517269135,-0.063801109790802
1759306289567912200,5.017912109375,0.025780243799090385,0.036422088742256165,-0.07067917287349701
1759306289577953800,5.027953857421875,0.028278330340981483,0.03274157643318176,-0.07742400467395782
1759306289587994400,5.037994384765625,0.026912709698081017,0.027828674763441086,-0.08168740570545197
1759306289598014000,5.048013916015625,0.024897588416934013,0.032758232206106186,-0.08311963826417923
1759306289608071700,5.05807177734375,0.021383613348007202,0.048362940549850464,-0.08376914262771606
1759306289618112800,5.06811279296875,0.020151223987340927,0.05945444107055664,-0.09048066288232803
1759306289628151600,5.078151611328125,0.01858575828373432,0.0465143546462059,-0.1034374013543129
1759306289638192600,5.088192626953125,0.021983154118061066,0.021516844630241394,-0.10543587058782578
1759306289648230700,5.098230712890625,0.026696208864450455,0.018652373924851418,-0.10342074930667877
1759306289658272500,5.1082724609375,0.023698506876826286,0.046580970287323,-0.11526167392730713
1759306289668312600,5.1183125,0.019968030974268913,0.07555876672267914,-0.13244850933551788
1759306289678352600,5.1283525390625,0.022815849632024765,0.06510011106729507,-0.14518874883651733
1759306289688392000,5.138391845703125,0.0292276032269001,0.04280053451657295,-0.15812882781028748
1759306289698407200,5.1484072265625,0.03155915066599846,0.04098526015877724,-0.16650573909282684
1759306289708472800,5.158472900390625,0.028111791238188744,0.05244314670562744,-0.17045271396636963
1759306289718509300,5.16850927734375,0.025613704696297646,0.07700765877962112,-0.17366692423820496
1759306289728552700,5.178552734375,0.026662901043891907,0.07928924262523651,-0.18773946166038513
1759306289738592500,5.188592529296875,0.03527297079563141,0.07187825441360474,-0.20599214732646942
1759306289748629800,5.198629638671875,0.04809647798538208,0.0831696018576622,-0.21834935247898102
1759306289758672400,5.20867236328125,0.05164375901222229,0.07237786799669266,-0.24098199605941772
1759306289768711700,5.218711669921875,0.05146056413650513,0.07384341210126877,-0.2664458155632019
1759306289778750200,5.228750244140625,0.048496171832084656,0.09056393802165985,-0.2901276648044586
1759306289788789500,5.23878955078125,0.041268374770879745,0.09524368494749069,-0.3244014084339142
1759306289798830000,5.248830078125,0.0374879390001297,0.0947607159614563,-0.36268875002861023
1759306289808869000,5.258869140625,0.04041902720928192,0.08670023083686829,-0.39927735924720764
1759306289818911000,5.268910888671875,0.04931221157312393,0.07224463671445847,-0.44460928440093994
1759306289828949500,5.278949462890625,0.06631585210561752,0.05640677735209465,-0.490207701921463
1759306289838990600,5.288990478515625,0.08696669340133667,0.031009571626782417,-0.5450823307037354
1759306289849029400,5.299029296875,0.10393702238798141,0.053292494267225266,-0.6115147471427917
1759306289859069400,5.3090693359375,0.11041539162397385,0.12213973701000214,-0.6887888312339783
1759306289869110800,5.31911083984375,0.10313763469457626,0.19676588475704193,-0.7819341421127319
1759306289879149000,5.329149169921875,0.08796592801809311,0.2990208566188812,-0.8901512026786804
1759306289889188400,5.339188232421875,0.0659494623541832,0.3951638638973236,-1.0179033279418945
1759306289899229000,5.34922900390625,0.04353330656886101,0.4174467921257019,-1.1660563945770264
1759306289909269500,5.35926953125,0.02926091104745865,0.3432203233242035,-1.338724136352539
1759306289919307800,5.369307861328125,0.02354862168431282,0.17458288371562958,-1.539603590965271
1759306289929349400,5.379349365234375,0.014622128568589687,-0.007094563450664282,-1.7577697038650513
1759306289939389700,5.3893896484375,-0.04223430156707764,-0.211038276553154,-1.9616800546646118
1759306289949428200,5.39942822265625,-0.1690371334552765,-0.49468758702278137,-2.139127492904663
1759306289959469800,5.4094697265625,-0.31472548842430115,-0.699330747127533,-2.2765555381774902
1759306289969508400,5.41950830078125,-0.3920828700065613,-0.49938398599624634,-2.3511149883270264
1759306289979547400,5.42954736328125,-0.40872013568878174,-0.1318989247083664,-2.422760009765625
1759306289989587000,5.4395869140625,-0.41011905670166016,0.005295941606163979,-2.525498151779175
1759306289999627000,5.449626953125,-0.36951684951782227,-0.023615237325429916,-2.577108383178711
1759306290009667600,5.45966748046875,-0.262132465839386,-0.2548713684082031,-2.5192196369171143
1759306290019708200,5.469708251953125,-0.13438035547733307,-0.5734772086143494,-2.440946102142334
1759306290029746200,5.47974609375,-0.006811446975916624,-0.8112450242042542,-2.3799595832824707
1759306290039785700,5.48978564453125,0.14672090113162994,-0.8419714570045471,-2.367669105529785
1759306290049825800,5.49982568359375,0.2655298709869385,-0.5773742198944092,-2.384056329727173
1759306290059865600,5.509865478515625,0.3054659366607666,-0.3136429786682129,-2.442345142364502
1759306290069906200,5.51990625,0.27423983812332153,-0.1371782124042511,-2.511625289916992
1759306290079947000,5.529947021484375,0.20725785195827484,-0.11992476880550385,-2.57517671585083
1759306290089988600,5.539988525390625,0.14941883087158203,-0.26716193556785583,-2.589498996734619
1759306290100027100,5.550027099609375,0.09590984135866165,-0.35109761357307434,-2.5494630336761475
1759306290110065200,5.560065185546875,0.07659130543470383,-0.3154749274253845,-2.5334420204162598
1759306290120106000,5.57010595703125,0.10571898519992828,-0.22461120784282684,-2.5365896224975586
1759306290130145500,5.5801455078125,0.2024448662996292,-0.19886428117752075,-2.475536346435547
1759306290140185300,5.590185302734375,0.3143590986728668,-0.2286081463098526,-2.364854574203491
1759306290150226000,5.600225830078125,0.3750126361846924,-0.26209914684295654,-2.3027353286743164
1759306290160265700,5.610265625,0.4072379469871521,-0.26751166582107544,-2.3204052448272705
1759306290170304300,5.62030419921875,0.4242249131202698,-0.1832096129655838,-2.35845947265625
1759306290180344600,5.630344482421875,0.42747244238853455,-0.0037637825589627028,-2.400360584259033
1759306290190386700,5.64038671875,0.4654932916164398,0.1577957421541214,-2.4402966499328613
1759306290200425200,5.65042529296875,0.5315593481063843,0.23009034991264343,-2.4646947383880615
1759306290210465300,5.66046533203125,0.5906307101249695,0.3129601776599884,-2.5171544551849365
1759306290220503000,5.6705029296875,0.5750426650047302,0.3817574679851532,-2.630617380142212
1759306290230546700,5.680546630859375,0.49035757780075073,0.38443875312805176,-2.7370526790618896
1759306290240583700,5.690583740234375,0.37859320640563965,0.23232197761535645,-2.689772129058838
1759306290250622700,5.700622802734375,0.2904607653617859,0.07727412134408951,-2.602555751800537
1759306290260663800,5.710663818359375,0.2492922991514206,0.0799720510840416,-2.5641183853149414
1759306290270703400,5.720703369140625,0.25850191712379456,0.07112883031368256,-2.542818069458008
1759306290280745000,5.730744873046875,0.3070646822452545,0.0020484302658587694,-2.517387628555298
1759306290290783000,5.740782958984375,0.3530294597148895,-0.03152584284543991,-2.494954824447632
1759306290300824000,5.750823974609375,0.34978196024894714,0.008043835870921612,-2.488293170928955
1759306290310862800,5.76086279296875,0.3306632936000824,0.09118013083934784,-2.506645917892456
1759306290320904400,5.770904541015625,0.2661793529987335,0.1848083883523941,-2.5226168632507324
1759306290330944500,5.780944580078125,0.1896546632051468,0.2490258365869522,-2.5268471240997314
1759306290340982800,5.790982666015625,0.14638783037662506,0.15679651498794556,-2.522900104522705
1759306290351023600,5.801023681640625,0.12495424598455429,0.07790696620941162,-2.490391731262207
1759306290361062400,5.8110625,0.10400363802909851,-0.005662327632308006,-2.4368159770965576
1759306290371103500,5.821103515625,0.0937947928905487,-0.04864605516195297,-2.3864545822143555
1759306290381142500,5.831142578125,0.09614299237728119,-0.051443912088871,-2.3453195095062256
1759306290391181800,5.841181884765625,0.08433537185192108,-0.05369218811392784,-2.316458225250244
1759306290401222000,5.851221923828125,0.0803217813372612,0.0005162710440345109,-2.2829172611236572
1759306290411262700,5.8612626953125,0.07422645390033722,0.03941979259252548,-2.2450296878814697
1759306290421301800,5.8713017578125,0.08207044005393982,0.1352463662624359,-2.2102062702178955
1759306290431346200,5.88134619140625,0.0837191790342331,0.21984820067882538,-2.161343812942505
1759306290441382000,5.8913818359375,0.06065352261066437,0.25885164737701416,-2.0747601985931396
1759306290451421200,5.901421142578125,0.011058192700147629,0.23566940426826477,-1.9381980895996094
1759306290461462300,5.911462158203125,-0.007161179091781378,0.22586025297641754,-1.8014695644378662
1759306290471500000,5.9215,0.041767992079257965,0.26045042276382446,-1.6811950206756592
1759306290481540600,5.93154052734375,0.1041368693113327,0.2847151458263397,-1.5322091579437256
1759306290491580700,5.94158056640625,0.10493625700473785,0.2434634417295456,-1.400543451309204
1759306290501620000,5.951619873046875,0.06315160542726517,0.0976085364818573,-1.2940583229064941
1759306290511662600,5.96166259765625,0.02951071970164776,-0.03327450156211853,-1.174833059310913
1759306290521699800,5.971699951171875,0.029044410213828087,-0.05184360593557358,-1.0720452070236206
1759306290531740200,5.981740234375,0.03573928028345108,-0.03135930374264717,-0.9683746099472046
1759306290541779200,5.991779296875,0.025330590084195137,-0.03898679092526436,-0.8482499718666077
1759306290551818800,6.00181884765625,0.000016653904822305776,-0.05604039132595062,-0.7285084128379822
1759306290561859800,6.01185986328125,-0.023815084248781204,-0.055290963500738144,-0.6301171183586121
1759306290571899100,6.021899169921875,-0.04186791554093361,-0.06936351209878922,-0.505329430103302
1759306290581941200,6.031941162109375,-0.052876148372888565,-0.05868836119771004,-0.3936150372028351
1759306290591979000,6.04197900390625,-0.05952105671167374,-0.0501948706805706,-0.28176742792129517
1759306290602019300,6.052019287109375,-0.05327584221959114,-0.057389356195926666,-0.17859648168087006
1759306290612060200,6.06206005859375,-0.0386703684926033,-0.06574961543083191,-0.10290447622537613
1759306290622098700,6.0720986328125,-0.017386676743626595,-0.06714854389429092,-0.05372549593448639
1759306290632139500,6.082139404296875,0.019301876425743103,-0.08475172519683838,-0.01458882074803114
1759306290642179000,6.092178955078125,0.06704862415790558,-0.10813380032777786,0.0094594182446599
1759306290652220400,6.102220458984375,0.11867572367191315,-0.11266366392374039,0.029044410213828087
1759306290662259000,6.112259033203125,0.17351703345775604,-0.09197951853275299,0.04643108695745468
1759306290672299800,6.1222998046875,0.22471113502979279,-0.03792094066739082,0.05504115670919418
1759306290682337300,6.132337158203125,0.26842764019966125,0.0007827335502952337,0.06283517926931381
1759306290692380400,6.14238037109375,0.2957400381565094,0.002314892830327153,0.07097893953323364
1759306290702419500,6.15241943359375,0.3023849427700043,0.007061255630105734,0.07547549903392792
1759306290712457200,6.162457275390625,0.3011525571346283,0.009842458181083202,0.08223698288202286
1759306290722496800,6.172496826171875,0.2929588258266449,-0.00009992343257181346,0.08946477621793747
1759306290732537000,6.182537109375,0.28175076842308044,-0.016853751614689827,0.09570999443531036
1759306290742578200,6.192578125,0.2701263427734375,-0.023865045979619026,0.09001435339450836
1759306290752617000,6.202616943359375,0.25885164737701416,-0.03060987778007984,0.07482599467039108
1759306290762658000,6.212657958984375,0.23108957707881927,-0.00551244243979454,0.04807982221245766
1759306290772695800,6.22269580078125,0.1821604073047638,0.05757254734635353,0.0018652373692020774
1759306290782736100,6.232736083984375,0.1315491944551468,0.11874233931303024,-0.004713055212050676
1759306290792776200,6.242776123046875,0.06388437747955322,0.1330813467502594,0.0844186469912529
1759306290802818600,6.252818603515625,-0.08773276954889297,-0.016004402190446854,0.1574460119009018
1759306290812856000,6.26285595703125,-0.133914053440094,-0.22482772171497345,0.013906010426580906
1759306290822896400,6.272896484375,-0.11359628289937973,-0.20787404477596283,-0.2317390888929367
1759306290832936400,6.2829365234375,-0.11456221342086792,-0.06868070363998413,-0.3642042577266693
1759306290842975500,6.2929755859375,-0.14408957958221436,0.07512576133012772,-0.30709800124168396
1759306290853017300,6.303017333984375,-0.18502488732337952,0.1386270970106125,-0.17726416885852814
1759306290863055600,6.3130556640625,-0.19176971912384033,0.05698966234922409,-0.11096496880054474
1759306290873096400,6.323096435546875,-0.10608537495136261,-0.13812749087810516,-0.08826569467782974
1759306290883136300,6.33313623046875,-0.02120042033493519,-0.2762216627597809,-0.12069084495306015
1759306290893173800,6.343173828125,0.010741768404841423,-0.2724911868572235,-0.1853579580783844
1759306290903214800,6.35321484375,0.02538055181503296,-0.1469707041978836,-0.21871572732925415
1759306290913255000,6.3632548828125,0.04566500708460808,-0.021516844630241394,-0.20081278681755066
1759306290923293400,6.37329345703125,0.07960566133260727,0.011741003021597862,-0.15674655139446259
1759306290933334500,6.38333447265625,0.12465447932481766,-0.07141194492578506,-0.11201416701078415
1759306290943373300,6.393373291015625,0.1592612862586975,-0.19978024065494537,-0.09341175109148026
1759306290953412900,6.403412841796875,0.16475708782672882,-0.2783034145832062,-0.1067681834101677
1759306290963454200,6.4134541015625,0.1484862118959427,-0.26994314789772034,-0.13383078575134277
1759306290973493500,6.423493408203125,0.1169104129076004,-0.2043101042509079,-0.15026818215847015
1759306290983535400,6.433535400390625,0.08155417442321777,-0.13879364728927612,-0.14513878524303436
1759306290993574400,6.443574462890625,0.048279669135808945,-0.11213073879480362,-0.13033345341682434
1759306291003613400,6.453613525390625,0.022316232323646545,-0.11332982033491135,-0.1091330349445343
1759306291013652700,6.46365283203125,-0.0027312403544783592,-0.13198219239711761,-0.08763284981250763
1759306291023693800,6.47369384765625,-0.03194218873977661,-0.15006834268569946,-0.07739069312810898
1759306291033732900,6.48373291015625,-0.05993740260601044,-0.16352468729019165,-0.0712287500500679
1759306291043772400,6.4937724609375,-0.08063820749521255,-0.13657867908477783,-0.060353752225637436
1759306291053813200,6.503813232421875,-0.09929057955741882,-0.09582656621932983,-0.050910986959934235
1759306291063853600,6.513853515625,-0.11111485213041306,-0.06305168569087982,-0.04393300041556358
1759306291073892400,6.523892333984375,-0.1173267588019371,-0.05206010490655899,-0.033590927720069885
1759306291083933000,6.533932861328125,-0.11324655264616013,-0.06734839081764221,-0.01333977747708559
1759306291093971500,6.543971435546875,-0.10516940802335739,-0.09679249674081802,0.01014222763478756
1759306291103992600,6.55399267578125,-0.09817476570606232,-0.1262032836675644,0.030126914381980896
1759306291114026800,6.56402685546875,-0.09402794390916824,-0.14365658164024353,0.038770291954278946
1759306291124066800,6.57406689453125,-0.09272894263267517,-0.14250746369361877,0.03530627861618996
1759306291134106600,6.584106689453125,-0.08943147212266922,-0.13701167702674866,0.03717151656746864
1759306291144147700,6.594147705078125,-0.08686676621437073,-0.14084208011627197,0.03352431207895279
1759306291154217700,6.6042177734375,-0.08986447006464005,-0.1423076093196869,0.02659628540277481
1759306291164250000,6.61425,-0.09859111905097961,-0.13091634213924408,0.02588016726076603
1759306291174290400,6.62429052734375,-0.10846687853336334,-0.1100323498249054,0.023698506876826286
1759306291184332000,6.63433203125,-0.10968261957168579,-0.07522568851709366,0.021683383733034134
1759306291194370600,6.64437060546875,-0.10498621314764023,-0.03948640823364258,0.024181470274925232
1759306291204409900,6.654409912109375,-0.0954601839184761,-0.012357197701931,0.03330780938267708
1759306291214450700,6.66445068359375,-0.08083805441856384,0.008526799269020557,0.04141826182603836
1759306291224489200,6.6744892578125,-0.0642174556851387,0.021866576746106148,0.03875363618135452
1759306291234531300,6.68453125,-0.04764682054519653,0.030276799574494362,0.033041346818208694
1759306291244569900,6.69456982421875,-0.027995213866233826,0.03122607246041298,0.023865045979619026
1759306291254611000,6.70461083984375,-0.00807714369148016,0.0354728177189827,0.014738705940544605
1759306291264648700,6.714648681640625,0.010358728468418121,0.044066231697797775,0.01055857539176941
1759306291274690800,6.72469091796875,0.025147397071123123,0.050910986959934235,0.010858345776796341
1759306291284728600,6.734728515625,0.039602987468242645,0.05357561260461807,0.0115245021879673
1759306291294769400,6.744769287109375,0.0522766076028347,0.04856278747320175,0.011141462251543999
1759306291304808000,6.754807861328125,0.06383441388607025,0.037471286952495575,0.012007465586066246
1759306291314849000,6.76484912109375,0.07117878645658493,0.02526397444307804,0.014821975491940975
1759306291324887300,6.77488720703125,0.07427641749382019,0.011241385713219643,0.018968798220157623
1759306291334903600,6.784903564453125,0.0703294426202774,0.002864471636712551,0.018968798220157623
1759306291344968000,6.794968017578125,0.062102410942316055,0.004130168352276087,0.016837097704410553
1759306291355008300,6.80500830078125,0.0531759187579155,0.00592879019677639,0.013572932220995426
1759306291365049600,6.815049560546875,0.0431835763156414,0.0074942572973668575,0.008526799269020557
1759306291375087400,6.82508740234375,0.03069314733147621,0.011074846610426903,0.003380742622539401
1759306291385128200,6.835128173828125,0.01637078821659088,0.012357197701931,-0.003097626380622387
1759306291395166500,6.84516650390625,-0.0001332312385784462,0.009526033885776997,-0.009842458181083202
1759306291405206800,6.855206787109375,-0.011324655264616013,0.005712289363145828,-0.013456354849040508
1759306291415247000,6.8652470703125,-0.019435107707977295,0.0011324655497446656,-0.016137633472681046
1759306291425286100,6.8752861328125,-0.026363130658864975,-0.0008326952229253948,-0.01698698289692402
1759306291435326200,6.885326171875,-0.03362423554062843,0.003097626380622387,-0.0177031010389328
1759306291445367000,6.895366943359375,-0.037721093744039536,0.008027181960642338,-0.018385911360383034
1759306291455406600,6.905406494140625,-0.039303217083215714,0.011291347444057465,-0.01665390469133854
1759306291465446100,6.915446044921875,-0.03925325348973274,0.01047530584037304,-0.01400593388825655
1759306291475485400,6.9254853515625,-0.03560604900121689,0.0053958650678396225,-0.015171707607805729
1759306291485528000,6.935528076171875,-0.03039337694644928,-0.004862940404564142,-0.019301876425743103
1759306291495564500,6.945564453125,-0.02258269488811493,-0.010441998019814491,-0.020800726488232613
1759306291505604900,6.95560498046875,-0.014888591133058071,-0.009526033885776997,-0.021516844630241394
1759306291515646700,6.965646728515625,-0.002931087277829647,-0.010691806674003601,-0.01966826245188713
1759306291525690000,6.975690185546875,0.009126340039074421,-0.010758422315120697,-0.016187595203518867
1759306291535728600,6.985728759765625,0.018652373924851418,-0.007261102553457022,-0.01244046725332737
1759306291545765400,6.995765380859375,0.024364663287997246,-0.004879594314843416,-0.010741768404841423
1759306291555804700,7.0058046875,0.028278330340981483,-0.004979517310857773,-0.00954268779605627
1759306291565846500,7.015846435546875,0.029410796239972115,-0.005895482376217842,-0.007027947809547186
1759306291575887400,7.025887451171875,0.030493300408124924,-0.006328484043478966,-0.004946209955960512
1759306291585928700,7.0359287109375,0.030493300408124924,-0.007361026015132666,-0.004629785660654306
1759306291595964200,7.045964111328125,0.03077641688287258,-0.008676684461534023,-0.0045132082886993885
1759306291606004000,7.05600390625,0.02834494598209858,-0.0075109112076461315,-0.004829632584005594
1759306291616043500,7.06604345703125,0.026529669761657715,-0.006594946142286062,-0.006028713658452034
1759306291626082800,7.076082763671875,0.02421477809548378,-0.00654498441144824,-0.008693338371813297
1759306291636125700,7.086125732421875,0.021133804693818092,-0.007327718194574118,-0.010791730135679245
1759306291646163500,7.09616357421875,0.016387442126870155,-0.00807714369148016,-0.009559341706335545
1759306291656202500,7.106202392578125,0.012507082894444466,-0.006911370437592268,-0.00874330010265112
1759306291666244400,7.116244384765625,0.008510145358741283,-0.0007827335502952337,-0.01292342972010374
1759306291676282400,7.126282470703125,0.0054624807089567184,0.005146056413650513,-0.01950172334909439
1759306291686323000,7.136322998046875,0.0015488131903111935,0.012373851612210274,-0.023365428671240807
1759306291696362000,7.146362060546875,0.0009159647743217647,0.020134570077061653,-0.028128445148468018
1759306291706403800,7.15640380859375,0.0013489662669599056,0.016504019498825073,-0.02662959322333336
1759306291716441900,7.16644189453125,0.003697166917845607,0.013822740875184536,-0.022899119183421135
1759306291726482200,7.176482177734375,0.005096094682812691,0.010791730135679245,-0.020967265591025352
1759306291736522200,7.186522216796875,0.006062021479010582,0.004429938737303019,-0.02116711251437664
1759306291746563300,7.196563232421875,0.004363323096185923,-0.0007161179091781378,-0.02204976975917816
1759306291756601300,7.206601318359375,0.00023315467115025967,-0.0014155819080770016,-0.023781776428222656
1759306291766640600,7.216640625,-0.006361791864037514,0.0018985451897606254,-0.02421477809548378
1759306291776683300,7.226683349609375,-0.012290582060813904,0.002964395098388195,-0.024947550147771835
1759306291786721800,7.2367216796875,-0.013622893951833248,-0.0012323890114203095,-0.024481240659952164
1759306291796761000,7.246760986328125,-0.011990811675786972,-0.011141462251543999,-0.02329881303012371
1759306291806799600,7.256799560546875,-0.01119142398238182,-0.014888591133058071,-0.021533498540520668
1759306291816839700,7.266839599609375,-0.010541921481490135,-0.0020484302658587694,-0.02629651501774788
1759306291826882000,7.276882080078125,-0.011374616995453835,-0.0016653904458507895,-0.02814509905874729
1759306291836920300,7.28692041015625,-0.009359494782984257,-0.011674387380480766,-0.02451454848051071
1759306291846959900,7.2969599609375,-0.006078675389289856,-0.01014222763478756,-0.018352603539824486
1759306291857000000,7.307,-0.0037970903795212507,-0.011507848277688026,-0.015671323984861374
1759306291867039700,7.317039794921875,-0.0014988514594733715,-0.007144525181502104,-0.014988514594733715
1759306291877080800,7.327080810546875,0.0002165007608709857,-0.0044465926475822926,-0.01325650792568922
1759306291887119000,7.337119140625,0.0024980856105685234,-0.002481431933119893,-0.010725114494562149
1759306291897159400,7.347159423828125,0.004862940404564142,-0.0006161945057101548,-0.008893185295164585
1759306291907200500,7.357200439453125,0.005862174555659294,-0.00018319295486435294,-0.008959800936281681
1759306291917238800,7.36723876953125,0.006661561783403158,0.002997702918946743,-0.014055895619094372
1759306291927278300,7.3772783203125,0.009026416577398777,0.005062786862254143,-0.01795290969312191
1759306291937320400,7.387320556640625,0.00987576600164175,0.00729441037401557,-0.01828598789870739
1759306291947359200,7.397359130859375,0.010575229302048683,0.006861408706754446,-0.016254210844635963
1759306291957397500,7.4073974609375,0.012473775073885918,0.006911370437592268,-0.014688744209706783
1759306291967439000,7.417439208984375,0.014605474658310413,0.0075109112076461315,-0.013972626067698002
1759306291977479000,7.42747900390625,0.015671323984861374,0.008809915743768215,-0.015454824082553387
1759306291987517700,7.437517578125,0.015687977895140648,0.010591883212327957,-0.017553215846419334
1759306291997557500,7.4475576171875,0.01640409603714943,0.016670558601617813,-0.017852986231446266
1759306292007598800,7.457598876953125,0.015971094369888306,0.013306469656527042,-0.015621363185346127
1759306292017638400,7.467638427734375,0.012457121163606644,0.011174770072102547,-0.012973391450941563
1759306292027676200,7.47767626953125,0.008460183627903461,0.011990811675786972,-0.013706163503229618
1759306292037718300,7.48771826171875,0.00551244243979454,0.017386676743626595,-0.01350631657987833
1759306292047757000,7.497757080078125,0.004046898800879717,0.01590447872877121,-0.010825037956237793
1759306292057799000,7.507798828125,0.005545750260353088,0.00857676099985838,-0.007860642857849598
1759306292067836000,7.5178359375,0.008510145358741283,-0.0022982389200478792,-0.002981049008667469
1759306292077877200,7.527877197265625,0.008943147026002407,-0.010608537122607231,0.0025813551619648933
1759306292087917000,7.5379169921875,0.007860642857849598,-0.013206546194851398,0.0045298621989786625
1759306292097946000,7.547946044921875,0.00584552064538002,-0.006861408706754446,0.002897779457271099
1759306292107995100,7.5579951171875,0.00039969373028725386,0.007177833002060652,-0.004030244890600443
1759306292118036200,7.5680361328125,-0.0017486599972471595,0.014772013761103153,-0.008027181960642338
1759306292128077600,7.57807763671875,-0.003280819160863757,0.012656968086957932,-0.006445060949772596
1759306292138114300,7.5881142578125,-0.0008660030434839427,0.0013323123566806316,-0.0038470521103590727
1759306292148155600,7.59815576171875,0.002314892830327153,-0.007810681592673063,-0.0015155053697526455
1759306292158194700,7.608194580078125,0.005795558914542198,-0.00866003055125475,0.0013323123566806316
1759306292168233700,7.618233642578125,0.006811446975916624,-0.0038137442898005247,0.0020484302658587694
1759306292178274600,7.628274658203125,0.005495788529515266,0,0.0002664624771568924
1759306292188313900,7.63831396484375,0.0054458267986774445,0.003996937070041895,-0.0009659265051595867
1759306292198354700,7.648354736328125,0.005229325965046883,0.00816041324287653,-0.0016154287150129676
1759306292208393700,7.658393798828125,0.004413284827023745,0.007111217360943556,-0.0011657733703032136
1759306292218432800,7.668432861328125,0.005545750260353088,0.0010658499086275697,-0.002914433367550373
1759306292228473900,7.678473876953125,0.006928024347871542,-0.005046132951974869,-0.0026479708030819893
1759306292238513700,7.688513671875,0.007061255630105734,-0.005828866735100746,-0.0014821975491940975
1759306292248553500,7.698553466796875,0.0054125189781188965,-0.002364854561164975,-0.003447358263656497
1759306292258595000,7.708594970703125,0.003180895932018757,0.0038803599309176207,-0.004379977006465197
1759306292268633900,7.7186337890625,-0.000016653904822305776,0.010941615328192711,-0.0053958650678396225
1759306292278672600,7.728672607421875,-0.0005329249543137848,0.01284016016870737,-0.004379977006465197
1759306292288713200,7.738713134765625,-0.00008326952229253948,0.010874999687075615,-0.004379977006465197
1759306292298754800,7.7487548828125,0.0003497319994494319,0.005795558914542198,-0.004946209955960512
1759306292308793300,7.75879345703125,0.0019485069205984473,0.0007660796400159597,-0.005828866735100746
1759306292318834400,7.76883447265625,0.0004996171337552369,-0.0015987749211490154,-0.006211906671524048
1759306292328873000,7.778873046875,-0.00018319295486435294,0.0010491959983482957,-0.005179364234209061
1759306292338911500,7.788911376953125,-0.0014488897286355495,0.004713055212050676,-0.005129402503371239
1759306292348951800,7.798951904296875,-0.003031010739505291,0.005529096350073814,-0.004929556045681238
1759306292358991600,7.80899169921875,-0.003047664649784565,0.005279287695884705,-0.0044465926475822926
1759306292369031000,7.819031005859375,-0.0012157351011410356,0.003364088712260127,-0.004946209955960512
1759306292379073000,7.829072998046875,0.0012823506258428097,0.00008326952229253948,-0.006045367568731308
1759306292389110500,7.839110595703125,0.003563935635611415,0.0005329249543137848,-0.007810681592673063
1759306292399151600,7.849151611328125,0.006644907873123884,0.0013989279977977276,-0.008177067153155804
1759306292409191200,7.859191162109375,0.008676684461534023,0.003264165250584483,-0.0082436827942729
1759306292419229400,7.8692294921875,0.00970922689884901,0.005978751927614212,-0.008976454846560955
1759306292429271600,7.879271484375,0.011407924816012383,0.008893185295164585,-0.010108919814229012
1759306292439311400,7.889311279296875,0.012656968086957932,0.008676684461534023,-0.012040773406624794
1759306292449349600,7.899349609375,0.01408920343965292,0.00626186840236187,-0.013572932220995426
1759306292459389200,7.90938916015625,0.015621363185346127,0.005079440772533417,-0.011840926483273506
1759306292469404700,7.91940478515625,0.01547147799283266,0.002897779457271099,-0.010924961417913437
1759306292479444500,7.929444580078125,0.01640409603714943,0.003663859097287059,-0.010375382378697395
1759306292489510100,7.93951025390625,0.015071784146130085,0.0053292494267225266,-0.011707695201039314
1759306292499549700,7.9495498046875,0.014405627734959126,0.007027947809547186,-0.012290582060813904
1759306292509590300,7.95959033203125,0.015354900620877743,0.004763016942888498,-0.009992342442274094
1759306292519628500,7.969628662109375,0.015687977895140648,0.0025980090722441673,-0.00737767992541194
1759306292529667600,7.97966748046875,0.015621363185346127,0.0010158881777897477,-0.005695635452866554
1759306292539710000,7.9897099609375,0.015854516997933388,-0.0010325420880690217,-0.005945444107055664
1759306292549748700,7.999748779296875,0.01408920343965292,-0.0021150459069758654,-0.00464643957093358
1759306292559788500,8.00978857421875,0.012040773406624794,-0.0008660030434839427,-0.003480666084215045
1759306292569829600,8.01982958984375,0.009959034621715546,-0.0018485834589228034,-0.003064318560063839
1759306292579868700,8.02986865234375,0.00849349144846201,-0.002481431933119893,-0.002381508471444249
1759306292589909000,8.039908935546874,0.00634513795375824,-0.0012990045361220837,-0.0026979325339198112
1759306292599946000,8.049946044921874,0.005995405837893486,-0.0013156584464013577,-0.003930321428924799
1759306292609987000,8.059987060546876,0.005629019811749458,-0.003014356829226017,-0.004862940404564142
1759306292620025600,8.070025634765624,0.004946209955960512,-0.002981049008667469,-0.006161944940686226
1759306292630067000,8.08006689453125,0.004196783993393183,-0.003230857430025935,-0.006161944940686226
1759306292640106800,8.090106689453124,0.0026479708030819893,-0.0012823506258428097,-0.006278522312641144
1759306292650147300,8.100147216796875,0.0008826569537632167,-0.0015821210108697414,-0.005112748593091965
1759306292660185300,8.110185302734376,-0.0001332312385784462,-0.0019651607144623995,-0.005295941606163979
1759306292670225700,8.1202255859375,-0.00011657733557512984,-0.003597243456169963,-0.003247511340305209
1759306292680267000,8.13026708984375,-0.00003330780964461155,-0.003230857430025935,0.0005662327748723328
1759306292690307600,8.1403076171875,0.00018319295486435294,-0.003014356829226017,0.0020151224453002214
1759306292700345900,8.150345947265626,-0.0009492725948803127,-0.0021816615480929613,0.0010325420880690217
1759306292710384400,8.16038427734375,-0.0016653904458507895,-0.0022482771892100573,0.00003330780964461155
1759306292720426200,8.17042626953125,-0.003930321428924799,-0.0010991577291861176,-0.0009659265051595867
1759306292730466300,8.18046630859375,-0.010108919814229012,0.0017819678178057075,-0.003913667518645525
1759306292740503800,8.19050390625,-0.017603177577257156,0.013156584464013577,-0.007810681592673063
1759306292750545700,8.200545654296874,-0.024581164121627808,0.029610643163323402,-0.012423813343048096
1759306292760584700,8.210584716796875,-0.02751225046813488,0.034673430025577545,-0.016354134306311607
1759306292770625000,8.220625,-0.027462288737297058,0.03205876797437668,-0.013306469656527042
1759306292780665900,8.230665771484375,-0.022099731490015984,0.020151223987340927,-0.00559571199119091
1759306292790702800,8.240702880859375,-0.016670558601617813,0.010025650262832642,0.003130934201180935
1759306292800743200,8.2507431640625,-0.012290582060813904,0.006245214492082596,0.0053125955164432526
1759306292810784300,8.2607841796875,-0.009159647859632969,0.00737767992541194,0.0021816615480929613
1759306292820798200,8.270798095703125,-0.006778139155358076,0.00882656965404749,-0.004246745724231005
1759306292830861000,8.280861083984375,-0.004030244890600443,0.0074609494768083096,-0.008893185295164585
1759306292840903200,8.290903076171874,0.0004996171337552369,0.0009659265051595867,-0.009392802603542805
1759306292850942700,8.300942626953125,0.006478368770331144,-0.008793261833488941,-0.008093797601759434
1759306292860981800,8.310981689453126,0.012507082894444466,-0.0160377100110054,-0.008510145358741283
1759306292871023900,8.32102392578125,0.01753656193614006,-0.013373085297644138,-0.011008230969309807
1759306292881061000,8.33106103515625,0.020684149116277695,-0.004080206621438265,-0.016104325652122498
1759306292891102200,8.341102294921875,0.022232962772250175,0.005878828465938568,-0.020067954435944557
1759306292901143300,8.351143310546876,0.02208307757973671,0.009142993949353695,-0.022599348798394203
1759306292911183600,8.36118359375,0.022616002708673477,0.0014821975491940975,-0.020267801359295845
1759306292921225500,8.3712255859375,0.01991806924343109,-0.010408690199255943,-0.004796324763447046
1759306292931260400,8.381260498046874,0.015721285715699196,-0.015055130235850811,0.016837097704410553
1759306292941300200,8.39130029296875,0.014322358183562756,-0.0074776033870875835,0.02020118571817875
1759306292951342000,8.401342041015624,0.022432809695601463,-0.012573698535561562,0.005495788529515266
1759306292961380600,8.411380615234375,0.024181470274925232,-0.02792859822511673,-0.00712787127122283
1759306292971420200,8.421420166015626,0.013889356516301632,-0.02020118571817875,-0.01903541386127472
1759306292981460200,8.431460205078125,0.004946209955960512,0.023898353800177574,-0.06298507004976273
1759306292991501000,8.4415009765625,0.016603942960500717,0.0826866403222084,-0.11414586007595062
1759306293001540000,8.4515400390625,0.042650651186704636,0.14312365651130676,-0.1692536324262619
1759306293011581200,8.461581298828126,0.0737934559583664,0.19631622731685638,-0.21924865245819092
1759306293021620500,8.471620361328124,0.11194755136966705,0.22349540889263153,-0.26426416635513306
1759306293031633700,8.481633544921875,0.14427277445793152,0.24058230221271515,-0.314542293548584
1759306293041700000,8.4917001953125,0.1631416529417038,0.255687415599823,-0.34708401560783386
1759306293051741000,8.501740966796875,0.18532465398311615,0.26841098070144653,-0.3520469069480896
1759306293061779200,8.511779296875,0.20837365090847015,0.2841322720050812,-0.3534125089645386
1759306293071819500,8.521819580078125,0.22904115915298462,0.3033675253391266,-0.354195237159729
1759306293081858000,8.531858154296875,0.2413816899061203,0.32167017459869385,-0.3584253489971161
1759306293091899600,8.541899658203125,0.23681852221488953,0.32591691613197327,-0.3635047674179077
1759306293101938000,8.55193798828125,0.21148793399333954,0.32460126280784607,-0.370149701833725
1759306293111980000,8.56197998046875,0.16868740320205688,0.3095461428165436,-0.3698832392692566
1759306293122018000,8.57201806640625,0.12117381393909454,0.2898945212364197,-0.36395442485809326
1759306293132060000,8.582059814453125,0.08090467005968094,0.2623489499092102,-0.35069793462753296
1759306293142098400,8.592098388671875,0.05169371888041496,0.2334044724702835,-0.332378625869751
1759306293152136400,8.602136474609376,0.03652201220393181,0.21238724887371063,-0.3206709325313568
1759306293162177800,8.612177734375,0.020983919501304626,0.2134031355381012,-0.31737345457077026
1759306293172216800,8.622216796875,0.004746363032609224,0.23030684888362885,-0.316157728433609
1759306293182256600,8.632256591796875,-0.016354134306311607,0.25613704323768616,-0.31717362999916077
1759306293192296700,8.642296630859375,-0.04403292387723923,0.2698265612125397,-0.3157413899898529
1759306293202335700,8.652335693359374,-0.07525899261236191,0.2635480463504791,-0.3077641725540161
1759306293212376000,8.6623759765625,-0.1067015677690506,0.2288912683725357,-0.2949739694595337
1759306293222417200,8.672417236328124,-0.13747797906398773,0.2105553150177002,-0.2855978012084961
1759306293232455700,8.68245556640625,-0.1625254601240158,0.19884762167930603,-0.2732572555541992
1759306293242495500,8.69249560546875,-0.18782274425029755,0.24146497249603271,-0.2664624750614166
1759306293252537300,8.702537353515625,-0.2077741175889969,0.23751799762248993,-0.25815218687057495
1759306293262576000,8.712576171875,-0.21461887657642365,0.1773807406425476,-0.25398871302604675
1759306293272615700,8.72261572265625,-0.21405263245105743,0.07424310594797134,-0.20804058015346527
1759306293282654500,8.732654541015625,-0.23821745812892914,-0.03936983272433281,-0.09715887904167175
1759306293292695600,8.742695556640625,-0.2842654883861542,-0.08896516263484955,0.10398697853088379
1759306293302733800,8.75273388671875,-0.30453330278396606,-0.14740371704101562,0.29527372121810913
1759306293312773600,8.762773681640626,-0.23405398428440094,-0.27044275403022766,0.46461063623428345
1759306293322813400,8.7728134765625,-0.0010825038189068437,-0.25607043504714966,0.6669389009475708
1759306293332853500,8.782853515625,0.2563202381134033,-0.14135834574699402,0.8310465216636658
1759306293342895000,8.79289501953125,0.4129835367202759,-0.1291343718767166,0.9423611760139465
1759306293352933000,8.80293310546875,0.500116765499115,-0.14618797600269318,1.0658332109451294
1759306293362973200,8.81297314453125,0.5486129522323608,-0.09667591750621796,1.2176169157028198
1759306293373012200,8.82301220703125,0.5687142014503479,-0.08266998082399368,1.3929492235183716
1759306293383053000,8.833052978515624,0.5665658712387085,-0.1119142398238182,1.5532764196395874
1759306293393091800,8.843091796875,0.5478135347366333,-0.1432235836982727,1.7014461755752563
1759306293403133200,8.85313330078125,0.4970191419124603,-0.1555807739496231,1.8321460485458374
1759306293413172000,8.863171875,0.4174967408180237,-0.13556279242038727,1.9469246864318848
1759306293423212500,8.873212646484374,0.3740467131137848,-0.1747327744960785,2.071829080581665
1759306293433251000,8.8832509765625,0.3343271315097809,-0.2008294314146042,2.1817781925201416
1759306293443293200,8.893293212890624,0.28493165969848633,-0.23650209605693817,2.2898619174957275
1759306293453333800,8.903333740234375,0.22634321451187134,-0.28404900431632996,2.4117019176483154
1759306293463372800,8.913372802734376,0.15957771241664886,-0.3510643243789673,2.512291431427002
1759306293473410600,8.92341064453125,0.08653368800878525,-0.4393799602985382,2.5867676734924316
1759306293483450400,8.933450439453125,0.01995137706398964,-0.5275790691375732,2.670870065689087
1759306293493493000,8.943492919921875,-0.03817075118422508,-0.5831697583198547,2.760251522064209
1759306293503529700,8.95352978515625,-0.06689873337745667,-0.6256871819496155,2.8472514152526855
1759306293513572600,8.963572509765624,-0.0877494215965271,-0.7056093215942383,2.9323697090148926
1759306293523609300,8.973609375,-0.1219732016324997,-0.9193788170814514,3.055042266845703
1759306293533649700,8.983649658203126,-0.13243184983730316,-0.9071881771087646,3.0931296348571777
1759306293543691800,8.99369189453125,-0.12330551445484161,-0.6672053933143616,3.04195237159729
1759306293553729300,9.003729248046875,-0.1423076093196869,-0.45928138494491577,3.019519567489624
1759306293563770600,9.0137705078125,-0.17589853703975677,-0.37153196334838867,3.0418524742126465
1759306293573809700,9.0238095703125,-0.22977392375469208,-0.353579044342041,3.091397762298584
1759306293583849700,9.033849609375,-0.3074144423007965,-0.32020461559295654,3.131999969482422
1759306293593888800,9.043888671875,-0.38790273666381836,-0.26556316018104553,3.1559150218963623
1759306293603930400,9.053930419921874,-0.46462729573249817,-0.233954057097435,3.172485589981079
1759306293613967400,9.06396728515625,-0.5138229131698608,-0.19696573913097382,3.1786141395568848
1759306293624007700,9.074007568359375,-0.5490626096725464,-0.11834264546632767,3.1965670585632324
1759306293634050000,9.084050048828125,-0.5887155532836914,-0.0667155459523201,3.2329893112182617
1759306293644087000,9.094087158203125,-0.6406923532485962,-0.06116979196667671,3.2880804538726807
1759306293654126800,9.104126953125,-0.7137364149093628,-0.10240486264228821,3.3225207328796387
1759306293664166700,9.114166748046875,-0.8073480129241943,-0.16162614524364471,3.3309640884399414
1759306293674208800,9.124208740234375,-0.913250207901001,-0.17678119242191315,3.3266007900238037
1759306293684248800,9.134248779296875,-1.010941982269287,-0.15989413857460022,3.3064663410186768
1759306293694286800,9.144286865234376,-1.0653170347213745,-0.18559111654758453,3.2649314403533936
1759306293704326400,9.154326416015625,-1.0607538223266602,-0.20439337193965912,3.206342935562134
1759306293714365200,9.164365234375,-1.022033452987671,-0.18933823704719543,3.139627456665039
1759306293724406800,9.17440673828125,-0.9765849709510803,-0.128784641623497,3.082005023956299
1759306293734447400,9.184447265625,-0.9499053955078125,-0.07833997160196304,3.0077617168426514
1759306293744486000,9.19448583984375,-0.9420781135559082,-0.014921898953616619,2.9057233333587646
1759306293754525700,9.204525634765625,-0.946591317653656,0.08320290595293045,2.77492356300354
1759306293764566300,9.214566162109374,-0.9646275043487549,0.2091730386018753,2.639810562133789
1759306293774606000,9.224606201171875,-0.9602974653244019,0.30403369665145874,2.534524440765381
1759306293784646400,9.234646484375,-0.9199783802032471,0.3682344853878021,2.4525539875030518
1759306293794686700,9.244686767578125,-0.8472174406051636,0.42220979928970337,2.3566107749938965
1759306293804724000,9.254723876953125,-0.742697536945343,0.4670254588127136,2.233921527862549
1759306293814763800,9.264763671875,-0.6004399061203003,0.522549569606781,2.1009232997894287
1759306293824806100,9.27480615234375,-0.4304368197917938,0.6211240291595459,1.9707398414611816
1759306293834844400,9.284844482421875,-0.25114089250564575,0.6857578158378601,1.871549129486084
1759306293844886000,9.294885986328126,-0.08416883647441864,0.6095495820045471,1.780585527420044
1759306293854923300,9.30492333984375,0.05569065734744072,0.41724693775177,1.6805955171585083
1759306293864962300,9.31496240234375,0.14915236830711365,0.20670826733112335,1.5818045139312744
1759306293875005400,9.32500537109375,0.20560911297798157,0.05319257080554962,1.4800325632095337
1759306293885045200,9.335045166015625,0.2279919534921646,-0.03602239489555359,1.3810917139053345
1759306293895081700,9.345081787109375,0.21593452990055084,-0.10558575391769409,1.2669957876205444
1759306293905123600,9.35512353515625,0.15656335651874542,-0.18645711243152618,1.0937285423278809
1759306293915162000,9.365162109375,0.04404957965016365,-0.28444868326187134,0.8694503903388977
1759306293925203000,9.375202880859375,-0.08030512928962708,-0.2935084104537964,0.6260202527046204
1759306293935243000,9.385242919921875,-0.19113686680793762,-0.09660930186510086,0.4222264587879181
1759306293945284400,9.395284423828125,-0.26906049251556396,0.2433302104473114,0.30140236020088196
1759306293955323000,9.405322998046875,-0.31161120533943176,0.5354729890823364,0.30696478486061096
1759306293965362200,9.415362060546874,-0.32751569151878357,0.6209408640861511,0.40087613463401794
1759306293975401200,9.425401123046875,-0.31444236636161804,0.5126904845237732,0.47523581981658936
1759306293985442800,9.43544287109375,-0.25820213556289673,0.34993183612823486,0.47412002086639404
1759306293995482400,9.445482421875,-0.17759723961353302,0.21223735809326172,0.4136829972267151
1759306294005520100,9.45552001953125,-0.09222932159900665,0.1612764149904251,0.350115031003952
1759306294015559700,9.4655595703125,0.0020817380864173174,0.21463552117347717,0.30952948331832886
1759306294025599500,9.475599609375,0.08759953826665878,0.2440130114555359,0.32659971714019775
1759306294035642400,9.485642333984375,0.14457254111766815,0.17756393551826477,0.3908338248729706
1759306294045686000,9.49568603515625,0.1889718621969223,0.046780817210674286,0.4543851315975189
1759306294055724000,9.50572412109375,0.216733917593956,-0.07227794826030731,0.48641058802604675
1759306294065760800,9.5157607421875,0.20849023759365082,-0.11562806367874146,0.5035807490348816
1759306294075800000,9.525800048828126,0.1762649267911911,-0.10888323187828064,0.5171536803245544
1759306294085839400,9.53583935546875,0.12640313804149628,-0.10648506879806519,0.5254639983177185
1759306294095884300,9.54588427734375,0.06471707671880722,-0.10944946110248566,0.523298978805542
1759306294105923600,9.555923583984375,0.013822740875184536,-0.07439298927783966,0.4953870475292206
1759306294115959600,9.56595947265625,-0.028994448482990265,-0.015854516997933388,0.44219449162483215
1759306294125998600,9.57599853515625,-0.06999636441469193,0.0193684920668602,0.3917497992515564
1759306294136038000,9.586037841796875,-0.09524368494749069,0.0008160413126461208,0.35651013255119324
1759306294146077200,9.5960771484375,-0.0955267995595932,-0.03733805567026138,0.3269661068916321
1759306294156118000,9.606117919921875,-0.08675018697977066,-0.07594180852174759,0.30298447608947754
1759306294166158300,9.616158447265626,-0.06503349542617798,-0.10630187392234802,0.2792026996612549
1759306294176197400,9.626197265625,-0.032958079129457474,-0.118092842400074,0.27300745248794556
1759306294186237700,9.63623779296875,-0.0045465161092579365,-0.09093032032251358,0.28939491510391235
1759306294196278500,9.646278564453125,0.03105953335762024,-0.08443529903888702,0.3083137273788452
1759306294206316800,9.65631689453125,0.058721669018268585,-0.1016387790441513,0.32438474893569946
1759306294216356600,9.666356689453124,0.0783066600561142,-0.10893318802118301,0.3247511386871338
1759306294226395600,9.676395751953125,0.07770711928606033,-0.1399594098329544,0.3129768371582031
1759306294236438800,9.686438720703125,0.07194487005472183,-0.15256641805171967,0.27737078070640564
1759306294246474500,9.696474609375,0.052459798753261566,-0.10568568110466003,0.24885930120944977
1759306294256516400,9.706516357421876,0.04914567247033119,-0.03662193566560745,0.22116385400295258
1759306294266556000,9.716555908203125,0.03767113387584686,0.003197549842298031,0.20765754580497742
1759306294276595700,9.726595703125,0.02274923399090767,0.008809915743768215,0.2132032960653305
1759306294286634800,9.736634765625,0.03405723720788956,0.015854516997933388,0.2153516411781311
1759306294296674300,9.74667431640625,0.044565849006175995,0.020301109179854393,0.20587557554244995
1759306294306714400,9.75671435546875,0.03887021541595459,0.025580398738384247,0.20192860066890717
1759306294316756200,9.766756103515625,0.029993683099746704,0.05347568914294243,0.1914699375629425
1759306294326780000,9.77677978515625,0.006311830133199692,0.10068950802087784,0.15601378679275513
1759306294336810000,9.78681005859375,-0.02199980802834034,0.16878733038902283,0.11336313188076019
1759306294346849500,9.796849609375,-0.029743874445557594,0.19471745193004608,0.10571898519992828
1759306294356889900,9.806889892578125,-0.015021822415292263,0.16185930371284485,0.1287013739347458
1759306294366934500,9.8169345703125,-0.0020317763555794954,0.11059857904911041,0.13817745447158813
1759306294376995000,9.8269951171875,0.006594946142286062,0.06984647363424301,0.1253872513771057
1759306294387032000,9.837031982421875,0.009476072154939175,0.062185682356357574,0.11426243931055069
1759306294397073200,9.8470732421875,0.00472970912232995,0.06181929633021355,0.12004134804010391
1759306294407112200,9.8571123046875,0.003547281725332141,0.02493089623749256,0.1257869452238083
1759306294417151700,9.86715185546875,0.0021650076378136873,-0.01637078821659088,0.1343303918838501
1759306294427193300,9.877193359375,-0.0011324655497446656,-0.04763016849756241,0.15116749703884125
1759306294437230600,9.887230712890625,-0.003230857430025935,-0.07397664338350296,0.16965332627296448
1759306294447273000,9.89727294921875,-0.013106622733175755,-0.08270329236984253,0.18131105601787567
1759306294457310200,9.907310302734375,-0.01895214430987835,-0.07534226775169373,0.18274329602718353
1759306294467353600,9.917353515625,-0.008393567986786366,-0.09810815006494522,0.18227699398994446
1759306294477391600,9.9273916015625,-0.004213437903672457,-0.13129939138889313,0.17756393551826477
1759306294487431200,9.93743115234375,-0.0009492725948803127,-0.15186695754528046,0.1645239293575287
1759306294497471000,9.947470947265625,-0.0008660030434839427,-0.14477239549160004,0.15811216831207275
1759306294507510000,9.957510009765626,-0.00039969373028725386,-0.1332312375307083,0.15379880368709564
1759306294517550600,9.967550537109375,-0.0008326952229253948,-0.13198219239711761,0.1444726288318634
1759306294527591000,9.9775908203125,-0.0003164241788908839,-0.1377277970314026,0.13256508111953735
1759306294537629000,9.98762890625,0.0007327718194574118,-0.1380775272846222,0.12195654213428497
1759306294547670000,9.997669921875,-0.003047664649784565,-0.12137366086244583,0.1094827726483345
1759306294557710800,10.0077109375,-0.01169104129076004,-0.09492725878953934,0.09287882596254349
1759306294567749000,10.0177490234375,0.015621363185346127,-0.11994142085313797,0.07381010800600052
1759306294577789000,10.027788818359374,0.02484762668609619,-0.14727048575878143,0.061436254531145096
1759306294587828700,10.037828857421875,0.015138399787247181,-0.13118280470371246,0.04286715015769005
1759306294597866500,10.047866455078125,0.0022649310994893312,-0.07582522928714752,0.015338246710598469
1759306294607908600,10.05790869140625,-0.007011293899267912,-0.03424042835831642,-0.0018485834589228034
1759306294617948400,10.067948486328126,-0.0024980856105685234,-0.031292688101530075,-0.006944678258150816
1759306294627988200,10.07798828125,0.009192955680191517,-0.0544249601662159,-0.003047664649784565
1759306294638028300,10.0880283203125,0.025896821171045303,-0.0703294426202774,0.0014655436389148235
1759306294648068400,10.098068359375,0.030959609895944595,-0.07927259057760239,0.005795558914542198
1759306294658108700,10.108108642578125,0.029943721368908882,-0.0662325769662857,0.014405627734959126
1759306294668148500,10.1181484375,0.025330590084195137,-0.04296707361936569,0.02538055181503296
1759306294678186800,10.128186767578125,0.01941845379769802,-0.02538055181503296,0.028111791238188744
1759306294688226800,10.138226806640626,0.015837863087654114,-0.0320754200220108,0.029943721368908882
1759306294698267600,10.148267578125,0.024314701557159424,-0.04316692054271698,0.024997511878609657
1759306294708306700,10.158306640625,0.030360069125890732,-0.06598277390003204,0.018469180911779404
1759306294718345500,10.168345458984374,0.030110260471701622,-0.07882293313741684,0.016637250781059265
1759306294728386300,10.17838623046875,0.02354862168431282,-0.06346803158521652,0.020067954435944557
1759306294738427000,10.188427001953125,-0.0007327718194574118,-0.03437365964055061,0.016354134306311607
1759306294748465700,10.198465576171875,0.008643376640975475,-0.05297607183456421,0.017303407192230225
1759306294758506800,10.2085068359375,0.01039203628897667,-0.0655331164598465,0.029943721368908882
1759306294768545300,10.218545166015625,0.009942381642758846,-0.06223564222455025,0.022232962772250175
1759306294778585000,10.228585205078126,0.004629785660654306,-0.05530761927366257,0.01300669927150011
1759306294788624400,10.238624267578125,0.0012323890114203095,-0.052160028368234634,0.013206546194851398
1759306294798665200,10.248665283203126,-0.0022482771892100573,-0.05505780875682831,0.018019525334239006
1759306294808704500,10.25870458984375,-0.004796324763447046,-0.05274291709065437,0.014622128568589687
1759306294818743800,10.268743896484375,-0.008976454846560955,-0.04929555952548981,0.008676684461534023
1759306294828785000,10.278784912109375,-0.010042304173111916,-0.049911752343177795,0.0074609494768083096
1759306294838822700,10.28882275390625,-0.0075608729384839535,-0.05660662427544594,0.00712787127122283
1759306294848862500,10.298862548828126,-0.006994639988988638,-0.066432423889637,-0.0006328483577817678
1759306294858903800,10.30890380859375,-0.008510145358741283,-0.06626588851213455,-0.01102488487958908
1759306294868944000,10.31894384765625,-0.008643376640975475,-0.04797989875078201,-0.0164873655885458
1759306294878982700,10.328982666015625,-0.008260336704552174,-0.035256315022706985,-0.015671323984861374
1759306294889023000,10.33902294921875,-0.008193721063435078,-0.03538954630494118,-0.017836332321166992
1759306294899061800,10.349061767578124,-0.010192189365625381,-0.028245022520422935,-0.015488131903111935
1759306294909103000,10.35910302734375,-0.012806852348148823,-0.020217839628458023,-0.011840926483273506
1759306294919141000,10.36914111328125,-0.015221669338643551,-0.01450555119663477,-0.014705398119986057
1759306294929181700,10.379181640625,-0.01645405776798725,-0.00929287914186716,-0.015671323984861374
1759306294939222000,10.389221923828124,-0.014039241708815098,-0.012973391450941563,-0.014372319914400578
1759306294949262000,10.399261962890625,-0.009575995616614819,-0.0013989279977977276,-0.004779670853167772
1759306294959302100,10.40930224609375,-0.005962098017334938,0.01900210604071617,0.005479134619235992
1759306294969341400,10.419341552734375,-0.00008326952229253948,0.0292276032269001,0.007843988947570324
1759306294979381500,10.429381591796876,0.003713820828124881,0.029910413548350334,0.005062786862254143
1759306294989422300,10.43942236328125,0.006111983209848404,0.028361599892377853,0.0020983919966965914
1759306294999459800,10.4494599609375,0.0075608729384839535,0.01995137706398964,0.004629785660654306
1759306295009500200,10.459500244140624,0.006478368770331144,0.015638016164302826,0.00489624822512269
1759306295019540200,10.469540283203125,0.0003330780891701579,0.023981623351573944,-0.003147588111460209
1759306295029579000,10.4795791015625,-0.0022316232789307833,0.03808747977018356,-0.004679747391492128
1759306295039621600,10.48962158203125,0.0011657733703032136,0.040185872465372086,-0.0007827335502952337
1759306295049661400,10.499661376953124,0.00551244243979454,0.02972722053527832,-0.0014988514594733715
1759306295059699500,10.509699462890625,0.008260336704552174,0.01645405776798725,-0.004663093481212854
1759306295069739800,10.51973974609375,0.009359494782984257,0.006944678258150816,-0.007927258498966694
1759306295079779000,10.529779052734375,0.007727412041276693,0.005895482376217842,-0.005545750260353088
1759306295089819000,10.53981884765625,0.004246745724231005,0.009509379975497723,-0.0006328483577817678
1759306295099857700,10.549857666015624,0.0019818146247416735,0.009592649526894093,0.003197549842298031
1759306295109899500,10.5598994140625,0.0006994639988988638,0.011091500520706177,0.002348200650885701
1759306295119937800,10.569937744140624,-0.0004163476114626974,0.009276225231587887,0.0014488897286355495
1759306295129980000,10.57997998046875,0.0008993108640424907,-0.0005495788645930588,-0.0017653139075264335
1759306295140017700,10.590017578125,0.0045798239298164845,-0.018602412194013596,-0.0020151224453002214
1759306295150057500,10.600057373046875,0.006977986078709364,-0.02446458674967289,-0.004929556045681238
1759306295160096800,10.6100966796875,0.0045132082886993885,-0.018652373924851418,-0.00997568853199482
1759306295170139000,10.620138916015625,0.004912902135401964,-0.022149693220853806,-0.008759954012930393
1759306295180176400,10.63017626953125,0.005945444107055664,-0.025280628353357315,-0.005046132951974869
1759306295190215700,10.640215576171874,0.006045367568731308,-0.027945252135396004,-0.0009326186846010387
1759306295200255700,10.650255859375,0.003996937070041895,-0.026080014184117317,0.0017486599972471595
1759306295210295300,10.66029541015625,-0.0008160413126461208,-0.01547147799283266,0.004429938737303019
1759306295220335900,10.6703359375,-0.002431470202282071,-0.00882656965404749,0.006478368770331144
1759306295230375200,10.680375244140626,-0.0007161179091781378,-0.015921132639050484,0.008460183627903461
1759306295240415200,10.690415283203125,0.0021816615480929613,-0.021350305527448654,0.009942381642758846
1759306295250456800,10.700456787109376,0.003197549842298031,-0.01698698289692402,0.01055857539176941
1759306295260494800,10.710494873046875,0.003547281725332141,-0.005096094682812691,0.013040007092058659
1759306295270534100,10.7205341796875,0.002398162381723523,0.005645673722028732,0.014272396452724934
1759306295280576300,10.730576171875,0.003047664649784565,0.00671152351424098,0.009992342442274094
1759306295290615000,10.740614990234375,0.003464012173935771,0.0005828866851516068,0.006428407039493322
1759306295300653300,10.7506533203125,0.004096860531717539,0.0004996171337552369,0.00584552064538002
1759306295310694400,10.7606943359375,0.003130934201180935,0.0054624807089567184,0.0026646247133612633
1759306295320734700,10.770734619140624,0.0008493491332046688,0.00729441037401557,-0.003214203519746661
1759306295330772700,10.780772705078125,0.00039969373028725386,0.004213437903672457,-0.005778905004262924
1759306295340812300,10.790812255859375,0.0012323890114203095,0.0015654671005904675,-0.00567898154258728
1759306295350854700,10.800854736328125,-0.0005995405954308808,0.0006828100886195898,-0.012656968086957932
1759306295360893000,10.810892822265625,0.0020151224453002214,0,-0.0177031010389328
1759306295370932200,10.82093212890625,0.004413284827023745,-0.0012823506258428097,-0.016337480396032333
1759306295380973600,10.8309736328125,0.007760719861835241,-0.0038970138411968946,-0.011374616995453835
1759306295391011600,10.841011474609376,0.007627488579601049,-0.006811446975916624,-0.00807714369148016
1759306295401052400,10.851052490234375,0.008177067153155804,-0.004879594314843416,-0.004330015275627375
1759306295411091500,10.861091552734376,0.006411753129214048,-0.0002664624771568924,-0.004346669185906649
1759306295421131800,10.8711318359375,0.004629785660654306,0.0018485834589228034,-0.013806086964905262
1759306295431172000,10.881172119140626,0.005562404170632362,-0.0008160413126461208,-0.01836925745010376
1759306295441211400,10.89121142578125,0.007927258498966694,-0.00679479306563735,-0.014772013761103153
1759306295451249200,10.901249267578125,0.007410987745970488,-0.00929287914186716,-0.01607101783156395
1759306295461291300,10.911291259765624,0.004779670853167772,-0.008809915743768215,-0.017769716680049896
1759306295471330300,10.921330322265625,0.003697166917845607,0.0012157351011410356,-0.01555474754422903
1759306295481370600,10.93137060546875,0.0038970138411968946,0.0018652373692020774,-0.01607101783156395
1759306295491409400,10.941409423828125,0.008610068820416927,-0.008310298435389996,-0.022099731490015984
1759306295501448400,10.951448486328125,0.012140696868300438,-0.01870233565568924,-0.03189222887158394
1759306295511492000,10.9614921875,0.015488131903111935,-0.02726244181394577,-0.03782101720571518
1759306295521528300,10.9715283203125,0.015488131903111935,-0.02150019071996212,-0.0428338423371315
1759306295531570700,10.98157080078125,0.012157350778579712,-0.002981049008667469,-0.049745213240385056
1759306295541608700,10.991608642578125,0.010158881545066833,0.004862940404564142,-0.051493871957063675
1759306295551649300,11.001649169921874,0.011407924816012383,0.003414050443097949,-0.054791346192359924
1759306295561686800,11.011686767578125,0.01665390469133854,-0.006145291030406952,-0.06273525953292847
1759306295571729400,11.0217294921875,0.021133804693818092,-0.018852220848202705,-0.07272760570049286
1759306295581769000,11.03176904296875,0.025030819699168205,-0.023615237325429916,-0.07895616441965103
1759306295591806500,11.041806396484375,0.025696974247694016,-0.02103388123214245,-0.08401895314455032
1759306295601846800,11.0518466796875,0.025746935978531837,-0.012940083630383015,-0.09187959134578705
1759306295611888600,11.061888671875,0.02429804764688015,-0.002431470202282071,-0.10007331520318985
1759306295621928000,11.071927978515625,0.02692936360836029,-0.007744065951555967,-0.10841692239046097
1759306295631969000,11.081968994140626,0.03277488425374031,-0.028328292071819305,-0.11805953085422516
1759306295642005800,11.092005859375,0.04136829823255539,-0.04846286401152611,-0.13096630573272705
1759306295652047600,11.102047607421875,0.04313361272215843,-0.049995023757219315,-0.14915236830711365
1759306295662082300,11.112082275390625,0.036505360156297684,-0.037054937332868576,-0.16928693652153015
1759306295672106000,11.12210595703125,0.02504747360944748,-0.020983919501304626,-0.19510050117969513
1759306295682166500,11.13216650390625,0.01861906610429287,-0.022532733157277107,-0.22026453912258148
1759306295692204800,11.142204833984374,0.017686447128653526,-0.04000267758965492,-0.24969199299812317
1759306295702245600,11.15224560546875,0.023931661620736122,-0.053375765681266785,-0.29049405455589294
1759306295712286500,11.162286376953125,0.02584685944020748,-0.06693204492330551,-0.33744141459465027
1759306295722324700,11.17232470703125,0.026529669761657715,-0.07967227697372437,-0.37403005361557007
1759306295732365300,11.182365234375,0.01941845379769802,-0.06125306338071823,-0.4092364013195038
1759306295742406100,11.19240625,0.0022316232789307833,0.003397396532818675,-0.45974770188331604
1759306295752445400,11.202445556640624,-0.01753656193614006,0.07257771492004395,-0.5128070116043091
1759306295762482400,11.212482421875,-0.03562270104885101,0.10112251341342926,-0.562951922416687
1759306295772523300,11.222523193359375,-0.05219333618879318,0.11083173751831055,-0.6253207921981812
1759306295782564600,11.232564697265625,-0.06996305286884308,0.14763686060905457,-0.703311026096344
1759306295792603000,11.242602783203125,-0.08395233750343323,0.19286887347698212,-0.7811014652252197
1759306295802643500,11.2526435546875,-0.09244582802057266,0.23102296888828278,-0.8189224600791931
1759306295812684800,11.262684814453126,-0.09109685570001602,0.23959973454475403,-0.8071314692497253
1759306295822721500,11.272721435546876,-0.08142094314098358,0.2261766791343689,-0.8086303472518921
1759306295832763000,11.282762939453125,-0.07957235723733902,0.2601173520088196,-0.8523967862129211
1759306295842802400,11.292802490234376,-0.07326053082942963,0.3630218207836151,-0.915515124797821
1759306295852841500,11.302841552734375,-0.045531775802373886,0.4808315336704254,-0.9892252683639526
1759306295862882300,11.31288232421875,-0.006195252761244774,0.5186691880226135,-1.0704963207244873
1759306295872923600,11.322923583984375,0.03177564963698387,0.4426441490650177,-1.134913682937622
1759306295882961000,11.3329609375,0.04541520029306412,0.3018686771392822,-1.1959168910980225
1759306295893001000,11.3430009765625,0.06120309978723526,0.2352031022310257,-1.2532063722610474
1759306295903042600,11.35304248046875,0.06328483670949936,0.24737709760665894,-1.316907525062561
1759306295913079800,11.363079833984376,0.060969945043325424,0.19370156526565552,-1.4065555334091187
1759306295923121000,11.373120849609375,0.049112364649772644,0.07495922595262527,-1.516737699508667
1759306295933162000,11.383161865234374,0.04499885067343712,-0.06733173877000809,-1.6545987129211426
1759306295943199200,11.39319921875,0.051543835550546646,-0.16122645139694214,-1.7963734865188599
1759306295953240000,11.403239990234376,0.06771478056907654,-0.24627794325351715,-1.9113686084747314
1759306295963278800,11.41327880859375,0.09491060674190521,-0.3761284351348877,-1.989708662033081
1759306295973319200,11.423319091796875,0.11238054931163788,-0.5199015736579895,-2.00065016746521
1759306295983358200,11.433358154296876,0.1252373605966568,-0.5506446957588196,-1.9596983194351196
1759306295993399000,11.44339892578125,0.15556412935256958,-0.47523581981658936,-1.9065890312194824
1759306296003437300,11.453437255859376,0.17653138935565948,-0.4195285141468048,-1.8749631643295288
1759306296013477400,11.463477294921875,0.19963034987449646,-0.41101837158203125,-1.8971794843673706
1759306296023518000,11.47351806640625,0.2642974555492401,-0.4677748680114746,-1.958282709121704
1759306296033557200,11.48355712890625,0.3563435971736908,-0.5427674055099487,-2.0219504833221436
1759306296043599400,11.493599365234376,0.43143606185913086,-0.5013657808303833,-2.103654623031616
1759306296053636600,11.50363671875,0.47696784138679504,-0.42184340953826904,-2.2036447525024414
1759306296063676700,11.5136767578125,0.49273908138275146,-0.3826567828655243,-2.3041176795959473
1759306296073716500,11.523716552734374,0.4822970926761627,-0.3317790925502777,-2.396230459213257
1759306296083756000,11.533756103515625,0.47974902391433716,-0.28341615200042725,-2.4266738891601562
1759306296093795600,11.543795654296876,0.5093263983726501,-0.25532102584838867,-2.3470346927642822
1759306296103835600,11.553835693359375,0.566932201385498,-0.30751433968544006,-2.1890392303466797
1759306296113876000,11.5638759765625,0.6252042651176453,-0.41379958391189575,-2.056474208831787
1759306296123916300,11.573916259765625,0.6255539655685425,-0.3965294659137726,-2.0595052242279053
1759306296133956600,11.58395654296875,0.5626188516616821,-0.2388169914484024,-2.19000506401062
1759306296143996000,11.593995849609374,0.45988091826438904,-0.03289146348834038,-2.387803554534912
1759306296154035000,11.604034912109375,0.3357926905155182,0.0860840305685997,-2.572511911392212
1759306296164076800,11.614076904296875,0.24612805247306824,0.10373717546463013,-2.654649019241333
1759306296174116400,11.624116455078125,0.2061087191104889,0.057505931705236435,-2.6434409618377686
1759306296184154600,11.634154541015626,0.23039011657238007,0.011308001354336739,-2.5879335403442383
1759306296194194200,11.644194091796875,0.2806849181652069,0.002931087277829647,-2.5334253311157227
1759306296204233700,11.654233642578125,0.35775917768478394,-0.013906010426580906,-2.5320262908935547
1759306296214274800,11.66427490234375,0.4342339038848877,-0.08396898955106735,-2.553459882736206
1759306296224313300,11.674313232421875,0.474836140871048,-0.12213973701000214,-2.5274133682250977
1759306296234353200,11.684353271484374,0.5217502117156982,-0.15233327448368073,-2.4839799404144287
1759306296244393000,11.69439306640625,0.5797390937805176,-0.15789566934108734,-2.473288059234619
1759306296254432500,11.7044326171875,0.5702796578407288,-0.063801109790802,-2.4654440879821777
1759306296264472600,11.71447265625,0.49940064549446106,0.023115620017051697,-2.4620633125305176
1759306296274512100,11.72451220703125,0.42287594079971313,0.08403560519218445,-2.4991848468780518
1759306296284553200,11.73455322265625,0.39276570081710815,0.1096160039305687,-2.5221006870269775
1759306296294592500,11.744592529296876,0.3986278772354126,0.15986083447933197,-2.5120582580566406
1759306296304631000,11.754631103515624,0.40547260642051697,0.11629422008991241,-2.510692834854126
1759306296314672000,11.764672119140625,0.387503057718277,0.07572530210018158,-2.4640450477600098
1759306296324711400,11.77471142578125,0.3491324484348297,0.02208307757973671,-2.431203603744507
1759306296334750200,11.784750244140625,0.2808014750480652,-0.029244257137179375,-2.4060728549957275
1759306296344793000,11.79479296875,0.21558479964733124,0.032791540026664734,-2.4039244651794434
1759306296354830600,11.80483056640625,0.19553349912166595,0.1330147385597229,-2.397496223449707
1759306296364869600,11.81486962890625,0.2258269488811493,0.2099391222000122,-2.3965134620666504
1759306296374911200,11.8249111328125,0.2731240391731262,0.2681778371334076,-2.3901517391204834
1759306296384951000,11.834950927734376,0.2926923632621765,0.34715065360069275,-2.3673691749572754
1759306296394991000,11.8449912109375,0.27119219303131104,0.4119676351547241,-2.3112456798553467
1759306296405030700,11.85503076171875,0.21400268375873566,0.4079873561859131,-2.230407476425171
1759306296415069200,11.865069091796874,0.13607905805110931,0.3368585407733917,-2.1102495193481445
1759306296425111000,11.875111083984375,0.049278903752565384,0.21954843401908875,-1.9461920261383057
1759306296435148000,11.88514794921875,0.03548946976661682,0.19338513910770416,-1.7924931049346924
1759306296445189000,11.895189208984375,0.0943443700671196,0.16170941293239594,-1.691487193107605
1759306296455229700,11.905229736328126,0.1703527867794037,0.12580358982086182,-1.6089670658111572
1759306296465268000,11.91526806640625,0.19558346271514893,0.09967362135648727,-1.5274461507797241
1759306296475308800,11.925308837890626,0.14831967651844025,0.04404957965016365,-1.4598313570022583
1759306296485348900,11.935348876953125,0.06768146902322769,-0.004146822262555361,-1.3839561939239502
1759306296495387000,11.945386962890625,-0.013639547862112522,-0.016937021166086197,-1.2899281978607178
1759306296505428700,11.9554287109375,-0.0757419615983963,-0.05169371888041496,-1.2050431966781616
1759306296515467000,11.965467041015625,-0.12067419290542603,-0.054291728883981705,-1.1059025526046753
1759306296525506600,11.975506591796876,-0.13684514164924622,-0.04884590208530426,-1.0100926160812378
1759306296535547000,11.985546875,-0.13529632985591888,-0.05405857414007187,-0.9074879288673401
1759306296545586200,11.995586181640626,-0.1268361359834671,-0.03612231835722923,-0.7950574159622192
1759306296555629300,12.00562939453125,-0.1079506129026413,-0.01260700635612011,-0.6983481645584106
1759306296565668600,12.015668701171874,-0.08028847724199295,-0.0025480473414063454,-0.6171437501907349
1759306296575706400,12.025706298828124,-0.039969369769096375,-0.0337408110499382,-0.5433502793312073
1759306296585745000,12.035744873046875,0.006411753129214048,-0.06979651749134064,-0.4692404270172119
1759306296595784000,12.045783935546876,0.05021152272820473,-0.083652563393116,-0.4079207479953766
1759306296605825800,12.05582568359375,0.09296209365129471,-0.06901378184556961,-0.37359705567359924
1759306296615866400,12.065866455078124,0.14279058575630188,-0.06526665389537811,-0.31883901357650757
1759306296625907200,12.0759072265625,0.18970462679862976,-0.12432140111923218,-0.2415315806865692
1759306296635944000,12.08594384765625,0.22989049553871155,-0.11734341084957123,-0.17663131654262543
1759306296645985000,12.095985107421875,0.2579023838043213,-0.0954601839184761,-0.12213973701000214
1759306296656024600,12.106024658203125,0.2745063006877899,-0.07717419415712357,-0.07207810133695602
1759306296666062800,12.116062744140624,0.28160086274147034,-0.04253407195210457,-0.03557274118065834
1759306296676102400,12.126102294921875,0.2903108596801758,-0.06308498978614807,0.004763016942888498
1759306296686142200,12.13614208984375,0.2874297499656677,-0.10810049623250961,0.03662193566560745
1759306296696181800,12.146181640625,0.27195826172828674,-0.12102392315864563,0.06033709645271301
1759306296706222800,12.156222900390626,0.2536056637763977,-0.13701167702674866,0.08498487621545792
1759306296716258800,12.1662587890625,0.23148927092552185,-0.16257542371749878,0.1053859069943428
1759306296726302200,12.17630224609375,0.20462653040885925,-0.17753063142299652,0.12513743340969086
1759306296736341800,12.186341796875,0.18297645449638367,-0.19315199553966522,0.14145827293395996
1759306296746380800,12.196380859375,0.1605103313922882,-0.2015289068222046,0.1558472365140915
1759306296756421600,12.206421630859374,0.1260700523853302,-0.18269333243370056,0.1548813134431839
1759306296766465000,12.216465087890626,0.08746630698442459,-0.13809417188167572,0.13737806677818298
1759306296776500500,12.22650048828125,0.08769946545362473,-0.19363495707511902,0.13283154368400574
1759306296786540300,12.236540283203125,0.07207810133695602,-0.2128535509109497,0.112397201359272
1759306296796581400,12.246581298828126,0.016970328986644745,-0.17338380217552185,0.07267764210700989
1759306296806621000,12.256620849609375,-0.0201678778976202,-0.1554975062608719,0.04771343618631363
1759306296816661000,12.266660888671876,-0.026896055787801743,-0.1780635565519333,0.041684724390506744
1759306296826698500,12.276698486328126,-0.038104135543107986,-0.18629057705402374,0.03285815566778183
1759306296836739300,12.2867392578125,-0.05520769581198692,-0.14878597855567932,0.014938552863895893
1759306296846779400,12.296779296875,-0.07424310594797134,-0.14034245908260345,-0.007760719861835241
1759306296856819200,12.306819091796875,-0.07154517620801926,-0.11920864880084991,-0.032042112201452255
1759306296866858200,12.316858154296876,-0.06991308927536011,-0.11387939751148224,-0.054591499269008636
1759306296876897000,12.32689697265625,-0.06578292697668076,-0.0749758780002594,-0.08252009749412537
1759306296886939000,12.33693896484375,-0.06166940927505493,-0.03961963951587677,-0.11269697546958923
1759306296896979200,12.346979248046875,-0.05342572554945946,-0.03820405900478363,-0.12323889881372452
1759306296907018800,12.357018798828125,-0.10661830008029938,-0.020767418667674065,-0.046031393110752106
1759306296917059300,12.367059326171875,-0.1698698252439499,-0.018102794885635376,0.045648351311683655
1759306296927095600,12.377095458984375,-0.19476741552352905,-0.13642878830432892,-0.050461333245038986
1759306296937137200,12.38713720703125,-0.16084341704845428,-0.21610106527805328,-0.2983880043029785
1759306296947176000,12.397176025390625,-0.0815708264708519,-0.13677851855754852,-0.42988723516464233
1759306296957218000,12.407218017578124,-0.058222051709890366,0.04721381887793541,-0.3689006567001343
1759306296967256300,12.41725634765625,-0.05071114003658295,0.18940486013889313,-0.23661868274211884
1759306296977296400,12.42729638671875,-0.013023353181779385,0.15576396882534027,-0.16265869140625
1759306296987335700,12.437335693359374,0.052493106573820114,0.0349898524582386,-0.13977622985839844
