time,seconds_elapsed,z,y,x
1759306284693528300,0.1435283203125,9.846603393554688,1.7069162130355835,-0.17993922531604767
1759306284703577000,0.1535771484375,9.906159400939941,1.7070658206939697,-0.2314893752336502
1759306284713619000,0.163618896484375,9.93361759185791,1.7179145812988281,-0.2554313838481903
1759306284723672000,0.173672119140625,9.940650939941406,1.7072902917861938,-0.2817676067352295
1759306284733696000,0.183696044921875,9.922768592834473,1.6772130727767944,-0.2437596619129181
1759306284743751200,0.193751220703125,9.895236015319824,1.6377836465835571,-0.22595278918743134
1759306284753790700,0.203790771484375,9.967735290527344,1.6008979082107544,-0.26830023527145386
1759306284763807000,0.213806884765625,9.930251121520996,1.5462801456451416,-0.298302561044693
1759306284773871000,0.22387109375,9.816825866699219,1.5478514432907104,-0.3395277261734009
1759306284783899400,0.2338994140625,9.842787742614746,1.4858266115188599,-0.365115761756897
1759306284793950500,0.243950439453125,10.032303810119629,1.507598876953125,-0.47801733016967773
1759306284803990300,0.253990234375,9.845630645751953,1.5906476974487305,-0.31790509819984436
1759306284814005200,0.264005126953125,9.880571365356445,1.3747955560684204,-0.3767874836921692
1759306284824068000,0.274068115234375,9.924714088439941,1.4167689085006714,-0.43522098660469055
1759306284834102300,0.284102294921875,9.902268409729004,1.489791989326477,-0.46327802538871765
1759306284844150000,0.29414990234375,9.81151294708252,1.5319149494171143,-0.4935796558856964
1759306284854190600,0.304190673828125,9.681628227233887,1.5882534980773926,-0.5068973898887634
1759306284864212700,0.314212646484375,9.526603698730469,1.5896003246307373,-0.47988781332969666
1759306284874269000,0.32426904296875,9.36940860748291,1.6445173025131226,-0.4453963339328766
1759306284884287500,0.33428759765625,9.149890899658203,1.6736217737197876,-0.4620809257030487
1759306284894349000,0.34434912109375,9.240646362304688,1.6914286613464355,-0.47554832696914673
1759306284904390000,0.354389892578125,9.25531005859375,1.780911922454834,-0.4654477834701538
1759306284914403600,0.364403564453125,9.274688720703125,1.681851863861084,-0.7203554511070251
1759306284924448800,0.37444873046875,9.532962799072266,1.7636288404464722,-0.7067384123802185
1759306284934484700,0.384484619140625,9.630526542663574,1.8712183237075806,-1.0095300674438477
1759306284944523500,0.3945234375,9.632022857666016,1.9789572954177856,-1.0565911531448364
1759306284954590200,0.404590087890625,9.43143367767334,1.8966566324234009,-1.0143933296203613
1759306284964626000,0.4146259765625,9.096545219421387,1.6329203844070435,-0.9513959288597107
1759306284974644000,0.42464404296875,8.985589027404785,1.3263877630233765,-0.9839420914649963
1759306284984690700,0.434690673828125,9.468843460083008,1.0020482540130615,-0.9668834209442139
1759306284994731000,0.44473095703125,10.242843627929688,0.6227917075157166,-1.0399065017700195
1759306285004787200,0.454787109375,11.022156715393066,0.11933599412441254,-1.096993327140808
1759306285014803700,0.4648037109375,10.622099876403809,0.23500585556030273,-1.4380173683166504
1759306285024851500,0.4748515625,9.83912181854248,1.2038345336914062,-1.5555577278137207
1759306285034908200,0.484908203125,9.168819427490234,2.2842929363250732,-1.5809961557388306
1759306285044948700,0.49494873046875,8.582015991210938,2.728566884994507,-1.675492286682129
1759306285054989300,0.5049892578125,8.372149467468262,3.374776840209961,-2.1558289527893066
1759306285065027800,0.51502783203125,8.30630874633789,3.4944870471954346,-2.4494926929473877
1759306285075043000,0.52504296875,8.613964080810547,3.1432876586914062,-2.512939214706421
1759306285085108700,0.535108642578125,8.927603721618652,2.613720178604126,-2.5144355297088623
1759306285095110000,0.54510986328125,9.091906547546387,2.11138653755188,-2.3932290077209473
1759306285105186300,0.555186279296875,9.130288124084473,1.8161516189575195,-2.3440730571746826
1759306285115229000,0.56522900390625,9.29922866821289,1.6341174840927124,-2.276885747909546
1759306285125242400,0.575242431640625,9.100211143493652,1.3188310861587524,-2.204087018966675
1759306285135307000,0.58530712890625,8.649502754211426,1.1025298833847046,-2.276287317276001
1759306285145330200,0.595330078125,8.43155574798584,1.264512538909912,-2.3755717277526855
1759306285155386600,0.60538671875,8.272340774536133,1.591770052909851,-2.60893177986145
1759306285165441300,0.615441162109375,8.322993278503418,1.8595465421676636,-3.1419408321380615
1759306285175461400,0.62546142578125,7.806593894958496,1.8000656366348267,-3.54207181930542
1759306285185507000,0.635507080078125,7.504775047302246,1.673098087310791,-3.866111993789673
1759306285195561500,0.6455615234375,7.6414690017700195,1.4842554330825806,-4.363208293914795
1759306285205586000,0.6555859375,9.24027156829834,1.8271499872207642,-4.875492572784424
1759306285215628000,0.6656279296875,11.117999076843262,3.145681858062744,-5.498284339904785
1759306285225620500,0.675620361328125,11.942277908325195,4.199429988861084,-5.6274213790893555
1759306285235708200,0.685708251953125,9.937209129333496,4.808529853820801,-5.304952621459961
1759306285245725200,0.69572509765625,7.2159743309021,4.165985584259033,-5.197587490081787
1759306285255786200,0.7057861328125,6.145841121673584,3.0091373920440674,-4.9188127517700195
1759306285265814000,0.71581396484375,6.22268009185791,2.3790135383605957,-4.767079830169678
1759306285275870200,0.7258701171875,7.233107566833496,2.0386626720428467,-4.794313907623291
1759306285285910000,0.735909912109375,8.26351261138916,2.0406079292297363,-5.0115132331848145
1759306285295949300,0.74594921875,8.695516586303711,1.9557634592056274,-5.370867729187012
1759306285305985800,0.75598583984375,8.742352485656738,1.5848119258880615,-5.718475818634033
1759306285316000300,0.766000244140625,8.48482608795166,1.253289818763733,-6.221857070922852
1759306285326066700,0.776066650390625,7.999027729034424,1.0202292203903198,-6.5493388175964355
1759306285336105700,0.786105712890625,7.3963623046875,0.9998036623001099,-6.587271690368652
1759306285346150000,0.79614990234375,6.514622688293457,1.199569821357727,-6.406435012817383
1759306285356186400,0.806186279296875,5.859584331512451,1.342324137687683,-6.093317985534668
1759306285366199800,0.81619970703125,5.5131731033325195,1.633219599723816,-5.661389350891113
1759306285376263700,0.826263671875,4.419621467590332,1.0886883735656738,-5.070470333099365
1759306285386305000,0.836304931640625,4.678045749664307,1.2205191850662231,-5.505167484283447
1759306285396332000,0.84633203125,5.203348636627197,1.9599533081054688,-5.475165367126465
1759306285406360000,0.856360107421875,4.448052883148193,2.6984896659851074,-5.626598358154297
1759306285416400100,0.866400146484375,4.996250152587891,2.6255414485931396,-5.775188446044922
1759306285426463500,0.87646337890625,6.312312602996826,2.039186477661133,-5.8878655433654785
1759306285436504300,0.88650439453125,6.92881965637207,1.1139023303985596,-5.598690986633301
1759306285446500900,0.8965009765625,7.277998924255371,0.44442370533943176,-5.771821975708008
1759306285456584200,0.906584228515625,7.512780666351318,0.8571990132331848,-6.013561248779297
1759306285466610700,0.916610595703125,7.256525993347168,2.279878616333008,-6.067281246185303
1759306285476662300,0.926662353515625,6.919018268585205,3.0148236751556396,-6.0977325439453125
1759306285486704400,0.936704345703125,6.814571380615234,2.5451860427856445,-6.247220516204834
1759306285496737500,0.946737548828125,6.596774101257324,2.1152024269104004,-6.4041900634765625
1759306285506782000,0.956781982421875,6.996156692504883,2.313621759414673,-6.322413444519043
1759306285516800800,0.96680078125,7.127687931060791,2.0550479888916016,-5.722142219543457
1759306285526862600,0.976862548828125,7.404667377471924,2.011802911758423,-5.007771968841553
1759306285536904200,0.986904296875,7.235950946807861,1.2731915712356567,-4.5632734298706055
1759306285546945500,0.996945556640625,7.745616436004639,0.8643068075180054,-4.344054698944092
1759306285556983000,1.006983154296875,8.450933456420898,0.6619219779968262,-4.440570831298828
1759306285566993200,1.0169931640625,8.560243606567383,0.8456020951271057,-4.42545747756958
1759306285577062100,1.027062255859375,8.577900886535645,1.1343278884887695,-3.8866124153137207
1759306285587078100,1.037078125,8.35793399810791,1.0314520597457886,-2.792088031768799
1759306285597141500,1.0471416015625,6.743568420410156,0.6425438523292542,-1.6344915628433228
1759306285607183000,1.05718310546875,5.769726753234863,-0.33010056614875793,-0.7068880796432495
1759306285617205000,1.067205078125,5.125462055206299,-1.1974749565124512,-0.40544310212135315
1759306285627263500,1.077263427734375,4.799252033233643,-1.6457892656326294,-0.4438999593257904
1759306285637281500,1.087281494140625,4.160299777984619,-1.9725977182388306,-1.3238439559936523
1759306285647341800,1.097341796875,4.076353073120117,-2.039635419845581,-2.48136568069458
1759306285657382100,1.107382080078125,4.930783748626709,-2.0539257526397705,-3.491344690322876
1759306285667398000,1.11739794921875,5.382988452911377,-2.3355438709259033,-4.662408351898193
1759306285677461500,1.12746142578125,5.36398458480835,-2.279654026031494,-5.846865177154541
1759306285687495700,1.13749560546875,5.969119071960449,-2.2875101566314697,-6.870012283325195
1759306285697540400,1.147540283203125,7.399504661560059,-2.0727052688598633,-9.514781951904297
1759306285707581400,1.15758154296875,8.534356117248535,-1.581370234489441,-12.45703125
1759306285717602300,1.167602294921875,8.772804260253906,-1.2391489744186401,-13.671789169311523
1759306285727660800,1.177660888671875,8.741379737854004,-0.8034043312072754,-13.678298950195312
1759306285737699800,1.187699951171875,8.592789649963379,-0.32950201630592346,-13.110050201416016
1759306285747740200,1.197740234375,7.968277454376221,-0.28707975149154663,-12.319290161132812
1759306285757781200,1.20778125,7.517045021057129,-0.2149544209241867,-12.529082298278809
1759306285767796200,1.217796142578125,7.167117595672607,0.15233108401298523,-13.323283195495605
1759306285777860400,1.2278603515625,6.408230304718018,0.20694881677627563,-14.028225898742676
1759306285787875600,1.23787548828125,5.504269599914551,-0.1446995586156845,-14.382044792175293
1759306285797917700,1.247917724609375,5.209408760070801,-0.42429742217063904,-14.008997917175293
1759306285807980500,1.25798046875,5.344531536102295,-0.4589385390281677,-13.019369125366211
1759306285818001700,1.268001708984375,5.312958240509033,-0.6083517074584961,-12.476110458374023
1759306285828045000,1.278045166015625,5.100846767425537,-0.765920102596283,-12.664728164672852
1759306285838089500,1.28808935546875,5.0243072509765625,-0.5632359385490417,-13.083040237426758
1759306285848139300,1.29813916015625,4.963554382324219,-0.5260509848594666,-13.101595878601074
1759306285858192600,1.308192626953125,4.584597110748291,-0.745644211769104,-12.507084846496582
1759306285868220200,1.31822021484375,3.9798367023468018,-0.7080851793289185,-11.951480865478516
1759306285878259000,1.328259033203125,2.3663690090179443,-0.3406500220298767,-11.656320571899414
1759306285888297700,1.338297607421875,-3.6430022716522217,0.7294833064079285,-12.92794132232666
1759306285898315000,1.34831494140625,-8.385242462158203,1.257030725479126,-13.718551635742188
1759306285908354600,1.3583544921875,-5.995455265045166,0.02685995027422905,-11.6198091506958
1759306285918420000,1.368419921875,-0.9931448101997375,-0.7075614333152771,-9.34614086151123
1759306285928422000,1.378421875,1.672798752784729,-1.9186533689498901,-7.5814642906188965
1759306285938498000,1.388498046875,1.7969231605529785,-3.1266028881073,-7.201159954071045
1759306285948538600,1.39853857421875,0.10549451410770416,-3.63110613822937,-7.314809799194336
1759306285958554000,1.40855419921875,-1.390432596206665,-3.4547581672668457,-7.546523571014404
1759306285968617700,1.41861767578125,-0.9944915175437927,-2.612971782684326,-6.648922443389893
1759306285978658300,1.428658203125,-0.6103717684745789,-3.7089924812316895,-8.769062995910645
1759306285988673800,1.438673828125,-0.1157446876168251,-3.177180528640747,-8.764200210571289
1759306285998740200,1.448740234375,1.3058125972747803,-3.367220163345337,-8.147917747497559
1759306286008777500,1.458777587890625,5.562254428863525,-4.135459899902344,-7.072696208953857
1759306286018819300,1.4688193359375,5.0079216957092285,-5.451896667480469,-8.024017333984375
1759306286028857300,1.478857421875,4.204143524169922,-6.211082935333252,-8.820164680480957
1759306286038872600,1.48887255859375,7.05256986618042,-11.312004089355469,-6.175543785095215
1759306286048938500,1.4989384765625,7.968202590942383,-5.162572383880615,-9.2864351272583
1759306286058934800,1.508934814453125,1.0539724826812744,-4.1605987548828125,-10.017265319824219
1759306286069016600,1.5190166015625,-2.6378116607666016,-4.794239044189453,-9.738340377807617
1759306286079057000,1.529056884765625,-3.722011089324951,-5.077578067779541,-9.096769332885742
1759306286089074400,1.539074462890625,-2.139219284057617,-6.398055076599121,-9.342100143432617
1759306286099137300,1.54913720703125,-0.44442370533943176,-8.847023963928223,-8.841412544250488
1759306286109189000,1.559189208984375,1.8403929471969604,-9.618705749511719,-6.958672523498535
1759306286119216400,1.56921630859375,1.5835399627685547,-9.638980865478516,-5.403937816619873
1759306286139297800,1.5892978515625,-3.4112884998321533,-7.91515588760376,-2.3464672565460205
1759306286179456000,1.6294560546875,0.8663269281387329,-7.82761812210083,-3.9349453449249268
1759306286199510500,1.649510498046875,0.9341875910758972,-9.318233489990234,-6.593257427215576
1759306286229631200,1.67963134765625,1.787645697593689,-13.248689651489258,-6.380173206329346
1759306286249711600,1.699711669921875,1.501164436340332,-12.04807186126709,-5.678597450256348
1759306286279836400,1.72983642578125,-1.2604724168777466,-9.028759002685547,-3.2923266887664795
1759306286289849000,1.73984912109375,-1.1041010618209839,-8.386215209960938,-3.8914008140563965
1759306286299899000,1.74989892578125,0.4166659116744995,-7.764620780944824,-3.9909098148345947
1759306286309939700,1.759939697265625,1.6723499298095703,-5.530605792999268,-4.12251615524292
1759306286320001500,1.77000146484375,1.02561616897583,-4.229581832885742,-4.075006008148193
1759306286330041600,1.78004150390625,0.431255578994751,-3.411512851715088,-4.436680316925049
1759306286340094500,1.790094482421875,0.005087678786367178,-2.7211599349975586,-4.600683212280273
1759306286350136000,1.800135986328125,-0.628627598285675,0.524330198764801,-3.9554457664489746
1759306286370214400,1.82021435546875,3.1181483268737793,-3.806032419204712,-4.583025932312012
1759306286380255200,1.830255126953125,0.7382371425628662,-4.5447187423706055,-3.2201263904571533
1759306286390275000,1.840275146484375,-0.5940613150596619,-4.016423225402832,-1.6985365152359009
1759306286400333300,1.850333251953125,0.08334814757108688,-3.14508318901062,-1.5836148262023926
1759306286410373600,1.86037353515625,1.9907039403915405,-4.461145877838135,-2.3507320880889893
1759306286420415200,1.870415283203125,2.2531683444976807,-8.308478355407715,-2.6402807235717773
1759306286430453200,1.880453369140625,-0.8467243909835815,-12.151845932006836,-2.5038113594055176
1759306286450534000,1.900533935546875,-1.2522423267364502,-12.647893905639648,-2.5935938358306885
1759306286460575000,1.910574951171875,7.752948760986328,-13.295226097106934,-3.2304513454437256
1759306286470612200,1.9206123046875,5.7649383544921875,-17.25508689880371,-1.7907880544662476
1759306286480653000,1.930653076171875,3.4350810050964355,-16.80385398864746,-1.3402292728424072
1759306286490692900,1.94069287109375,-0.22004209458827972,-12.222025871276855,-2.0657472610473633
1759306286500734700,1.950734619140625,-3.8091001510620117,-9.168371200561523,-2.854262590408325
1759306286510772700,1.960772705078125,-0.6940940618515015,-7.99296760559082,-2.6412534713745117
1759306286520812300,1.970812255859375,2.7963528633117676,-7.969549179077148,-2.3279869556427
1759306286530854100,1.980854248046875,-4.059443950653076,-7.356035232543945,-1.7323545217514038
1759306286540892400,1.990892333984375,-2.6419267654418945,-16.740182876586914,-1.0895862579345703
1759306286550931500,2.000931396484375,6.485069274902344,-25.24798011779785,-1.9648165702819824
1759306286560973000,2.01097314453125,7.035511493682861,-19.02664566040039,-5.454141139984131
1759306286571014000,2.021013916015625,1.9141643047332764,-9.946486473083496,-5.847837448120117
1759306286581051100,2.031051025390625,0.5484218001365662,-7.9451584815979,-1.7577180862426758
1759306286591093500,2.041093505859375,0.8275707960128784,-7.34391450881958,2.26169753074646
1759306286601131800,2.0511318359375,1.067365050315857,-8.5433349609375,4.297816276550293
1759306286611171600,2.061171630859375,1.9672856330871582,-10.477849960327148,4.324751377105713
1759306286621211600,2.071211669921875,2.7836334705352783,-11.380912780761719,3.1646108627319336
1759306286631251500,2.08125146484375,2.4869022369384766,-11.3176908493042,1.5363292694091797
1759306286641292800,2.091292724609375,0.8423848748207092,-11.32726764678955,0.7754220962524414
1759306286651330300,2.101330322265625,1.3223475217819214,-10.816479682922363,1.183558702468872
1759306286661371100,2.11137109375,1.5714941024780273,-11.003302574157715,1.9794811010360718
1759306286671411200,2.1214111328125,1.4837316274642944,-11.219603538513184,2.034472942352295
1759306286681450800,2.13145068359375,1.827224850654602,-10.206931114196777,1.409661054611206
1759306286691489500,2.141489501953125,1.6188544034957886,-8.922815322875977,1.1089643239974976
1759306286701530400,2.1515302734375,1.0648212432861328,-9.499817848205566,1.328407883644104
1759306286711569200,2.161569091796875,1.638681411743164,-10.382230758666992,1.6695067882537842
1759306286721609700,2.171609619140625,1.3130699396133423,-11.181446075439453,1.361328125
1759306286731650800,2.18165087890625,1.1279683113098145,-11.083133697509766,0.5800701975822449
1759306286741691600,2.191691650390625,0.8303390741348267,-10.614618301391602,0.07743746042251587
1759306286751731000,2.20173095703125,0.6174795627593994,-10.911724090576172,0.34850597381591797
1759306286761771800,2.211771728515625,1.6953940391540527,-10.32050609588623,0.7364414930343628
1759306286771808500,2.22180859375,1.8832640647888184,-9.793631553649902,0.8990975618362427
1759306286781851600,2.2318515625,1.3224223852157593,-9.845256805419922,0.37985506653785706
1759306286791888100,2.24188818359375,0.3935469090938568,-9.169867515563965,-0.5050269365310669
1759306286801930800,2.2519306640625,1.114500880241394,-7.699827671051025,-0.0032920273952186108
1759306286811967700,2.2619677734375,1.6663644313812256,-7.878195285797119,1.159990668296814
1759306286822008300,2.27200830078125,0.6625205278396606,-7.907225131988525,1.5462801456451416
1759306286832050200,2.28205029296875,0.37880760431289673,-8.162581443786621,2.08168363571167
1759306286842089700,2.29208984375,0.3621230125427246,-8.964789390563965,2.306663751602173
1759306286852128800,2.302128662109375,0.5987000465393066,-9.443554878234863,1.6340426206588745
1759306286862169000,2.312169189453125,0.9946411848068237,-9.793407440185547,1.0140941143035889
1759306286872208100,2.3222080078125,1.1817630529403687,-9.97716236114502,0.6838438510894775
1759306286882247400,2.332247314453125,1.266008973121643,-10.017040252685547,0.5208885073661804
1759306286892288000,2.3422880859375,1.100509762763977,-9.935787200927734,0.5579986572265625
1759306286902327000,2.3523271484375,1.1559505462646484,-9.843236923217773,0.6609492897987366
1759306286912367600,2.36236767578125,1.3262381553649902,-9.812934875488281,1.0028712749481201
1759306286922409000,2.372408935546875,1.513733983039856,-9.68274974822998,1.4431798458099365
1759306286932447000,2.382447021484375,1.6240917444229126,-8.82891845703125,1.6823755502700806
1759306286942488600,2.392488525390625,1.6137667894363403,-8.582165718078613,2.01464581489563
1759306286952528600,2.402528564453125,1.5804723501205444,-9.907132148742676,3.1907975673675537
1759306286962566100,2.412566162109375,1.363722324371338,-6.422071933746338,2.5768344402313232
1759306286972607700,2.422607666015625,-0.5122843384742737,-4.030638694763184,-0.5642085671424866
1759306286982647000,2.43264697265625,-0.9764602184295654,-6.923731803894043,-1.923965573310852
1759306286992687900,2.44268798828125,1.9951930046081543,-12.7830171585083,0.483404278755188
1759306287002725600,2.4527255859375,3.0668976306915283,-14.664634704589844,2.112583637237549
1759306287012767200,2.462767333984375,1.8346319198608398,-13.962984085083008,2.349759340286255
1759306287022807600,2.4728076171875,1.653944492340088,-11.080964088439941,1.7435026168823242
1759306287032845300,2.48284521484375,1.5581015348434448,-8.879345893859863,1.8017115592956543
1759306287042887000,2.492886962890625,-0.08940847218036652,-9.304316520690918,2.011728048324585
1759306287052926500,2.502926513671875,-0.23567922413349152,-10.032752990722656,2.3178117275238037
1759306287062964200,2.512964111328125,0.2865560054779053,-10.40684700012207,2.242469072341919
1759306287073006300,2.52300634765625,0.5701192617416382,-10.9091796875,2.341529369354248
1759306287083044600,2.533044677734375,0.8298901915550232,-11.320159912109375,2.3172879219055176
1759306287093085700,2.543085693359375,0.47824180126190186,-11.573122024536133,1.6131682395935059
1759306287103125000,2.553125,0.8046762347221375,-11.27639102935791,0.8940846920013428
1759306287113165600,2.56316552734375,0.9585785269737244,-11.706897735595703,0.48714521527290344
1759306287123204400,2.573204345703125,0.8012345433235168,-10.996045112609863,-0.05506663769483566
1759306287133246200,2.58324609375,0.40297406911849976,-9.6594820022583,-0.5239560604095459
1759306287143286300,2.593286376953125,0.4415057599544525,-8.23006820678711,-1.0741735696792603
1759306287153324000,2.603323974609375,0.37559038400650024,-4.831648826599121,-1.838597297668457
1759306287163364000,2.613364013671875,0.4519803822040558,-5.068899154663086,-1.4407856464385986
1759306287173406500,2.623406494140625,0.1264437735080719,-8.237849235534668,0.16475100815296173
1759306287183443200,2.633443115234375,1.2486510276794434,-9.956287384033203,1.1264718770980835
1759306287193485000,2.643485107421875,0.9791536927223206,-10.954370498657227,1.1842319965362549
1759306287203524600,2.653524658203125,1.1471219062805176,-10.24306869506836,0.45916298031806946
1759306287213564200,2.663564208984375,1.941473126411438,-9.738415718078613,0.06389525532722473
1759306287223604000,2.67360400390625,1.3964180946350098,-10.11318302154541,0.19871874153614044
1759306287233642800,2.683642822265625,0.9674819707870483,-10.148796081542969,0.5214870572090149
1759306287243682600,2.6936826171875,1.124751091003418,-10.241272926330566,0.592939019203186
1759306287253722400,2.703722412109375,1.4287399053573608,-10.233865737915039,0.44599488377571106
1759306287263762400,2.713762451171875,1.49854576587677,-10.390311241149902,0.4421791136264801
1759306287273803800,2.7238037109375,1.212663173675537,-10.307038307189941,1.0788871049880981
1759306287283843300,2.73384326171875,1.5712696313858032,-8.41112995147705,1.0100538730621338
1759306287293885000,2.743885009765625,0.6141875386238098,-8.930222511291504,1.2305448055267334
1759306287303925000,2.753925048828125,1.8073978424072266,-10.804807662963867,1.6205004453659058
1759306287313961200,2.763961181640625,2.107346296310425,-8.861165046691895,0.8303390741348267
1759306287324004600,2.774004638671875,2.1682488918304443,-8.785822868347168,1.291148066520691
1759306287334044000,2.7840439453125,1.9572598934173584,-9.13649845123291,1.7181390523910522
1759306287344082700,2.794082763671875,1.9188029766082764,-10.08011245727539,2.0532524585723877
1759306287354122500,2.80412255859375,1.9861398935317993,-10.266411781311035,2.032602310180664
1759306287364162600,2.81416259765625,2.3248445987701416,-10.0719575881958,2.2160580158233643
1759306287374201300,2.824201416015625,1.6779613494873047,-9.347711563110352,2.0234744548797607
1759306287384242400,2.834242431640625,1.27191960811615,-10.635642051696777,2.3114521503448486
1759306287394281700,2.84428173828125,1.3643957376480103,-10.47702693939209,2.325218677520752
1759306287404321800,2.85432177734375,1.3398550748825073,-9.222390174865723,2.141613483428955
1759306287414362000,2.864362060546875,1.296609878540039,-8.715717315673828,1.8481740951538086
1759306287424402000,2.87440185546875,1.0785878896713257,-8.030227661132812,1.389534831047058
1759306287434441200,2.884441162109375,1.7151461839675903,-9.129240989685059,1.2969090938568115
1759306287444481000,2.89448095703125,1.6276830434799194,-9.50961971282959,1.2219406366348267
1759306287454520600,2.9045205078125,1.7001076936721802,-10.836905479431152,1.5933412313461304
1759306287464561000,2.914560791015625,1.615936517715454,-10.255638122558594,1.4294131994247437
1759306287474599400,2.924599365234375,1.2889034748077393,-9.534384727478027,1.2591255903244019
1759306287484639000,2.934638916015625,1.0814310312271118,-9.516353607177734,1.2924200296401978
1759306287494679600,2.944679443359375,1.0133458375930786,-9.566107749938965,1.213635802268982
1759306287504720400,2.954720458984375,0.9153332114219666,-9.14345645904541,0.9986065626144409
1759306287514761500,2.964761474609375,0.8077437877655029,-8.465747833251953,0.8842834234237671
1759306287524800800,2.97480078125,0.8362497687339783,-8.910470962524414,0.9849895238876343
1759306287534840600,2.984840576171875,0.7729530334472656,-9.5717191696167,0.9570072889328003
1759306287544880600,2.994880615234375,0.6906523704528809,-10.536133766174316,0.903137743473053
1759306287554919000,3.0049189453125,0.6760627031326294,-10.748169898986816,0.5652560591697693
1759306287564959500,3.01495947265625,0.6719476580619812,-10.754230499267578,0.3229927718639374
1759306287574999000,3.0249990234375,0.6974608898162842,-10.694600105285645,0.1396118849515915
1759306287585040000,3.035039794921875,0.6531681418418884,-11.30063247680664,0.5282955765724182
1759306287595080200,3.045080078125,0.4999392330646515,-8.86251163482666,0.10504560172557831
1759306287605118500,3.055118408203125,0.23276129364967346,-8.032696723937988,0.4388870894908905
1759306287625197300,3.075197265625,0.7795370817184448,-8.472182273864746,0.7817816734313965
1759306287635239700,3.08523974609375,0.8031798601150513,-9.816526412963867,1.2559832334518433
1759306287645279700,3.09527978515625,0.942791759967804,-10.160767555236816,1.2792519330978394
1759306287655318000,3.105318115234375,0.8923638463020325,-10.021380424499512,1.3352911472320557
1759306287665358800,3.11535888671875,0.8125321865081787,-9.940800666809082,1.2395230531692505
1759306287675398400,3.1253984375,0.7776666283607483,-9.913716316223145,1.0835258960723877
1759306287685438000,3.13543798828125,0.7843255400657654,-10.02684211730957,1.0147674083709717
1759306287695478300,3.145478271484375,0.8025065064430237,-9.528399467468262,0.8951321840286255
1759306287705519000,3.15551904296875,0.921318769454956,-9.748889923095703,1.0267384052276611
1759306287715557000,3.16555712890625,1.138442873954773,-9.780313491821289,1.0482114553451538
1759306287725596700,3.1755966796875,1.1568483114242554,-9.705719947814941,1.163133144378662
1759306287735637000,3.185636962890625,1.052101969718933,-9.635390281677246,1.238101601600647
1759306287745684200,3.195684326171875,1.0105026960372925,-9.604340553283691,1.2504466772079468
1759306287755719000,3.205718994140625,1.0545710325241089,-9.613917350769043,1.2370541095733643
1759306287765755600,3.215755615234375,1.081056833267212,-9.529147148132324,1.2315175533294678
1759306287775795000,3.225794921875,1.0515782833099365,-9.445574760437012,1.2501473426818848
1759306287785837800,3.235837890625,1.0758196115493774,-9.410334587097168,1.3528735637664795
1759306287795877400,3.24587744140625,1.0755202770233154,-9.593791007995605,1.5174750089645386
1759306287805919000,3.2559189453125,1.128791332244873,-9.792808532714844,1.6662895679473877
1759306287815955700,3.265955810546875,1.178321361541748,-9.708413124084473,1.7310078144073486
1759306287825996300,3.275996337890625,1.101631999015808,-9.402105331420898,1.6201263666152954
1759306287836034300,3.286034423828125,1.094150185585022,-9.37980842590332,1.4448258876800537
1759306287846074400,3.296074462890625,1.1957541704177856,-9.566706657409668,1.3010989427566528
1759306287856117800,3.30611767578125,1.208622932434082,-9.557653427124023,1.159092903137207
1759306287866157300,3.3161572265625,1.2865092754364014,-9.766472816467285,1.097666621208191
1759306287876196000,3.326196044921875,1.2648118734359741,-10.123059272766113,1.0214263200759888
1759306287886210300,3.336210205078125,1.3331962823867798,-10.669909477233887,0.9959130883216858
1759306287896249900,3.346249755859375,1.3911808729171753,-10.63160228729248,0.7130979895591736
1759306287906289200,3.3562890625,1.1027543544769287,-10.02796459197998,0.4129997789859772
1759306287916330800,3.366330810546875,0.8684966564178467,-9.704597473144531,0.7731027007102966
1759306287926396200,3.376396240234375,0.6944681406021118,-10.028488159179688,1.3934253454208374
1759306287936435000,3.38643505859375,0.709805965423584,-10.078691482543945,1.395445466041565
1759306287946475500,3.3964755859375,0.8661024570465088,-9.83223819732666,1.003769040107727
1759306287956516000,3.40651611328125,0.9424924850463867,-9.56281566619873,0.5732616782188416
1759306287966554000,3.41655419921875,0.8366986513137817,-9.331101417541504,0.3413982093334198
1759306287976595000,3.426594970703125,0.6785317063331604,-9.193734169006348,0.3693056106567383
1759306287986635800,3.4366357421875,0.6491279602050781,-9.223512649536133,0.6138882637023926
1759306287996673300,3.44667333984375,0.5773767232894897,-9.439739227294922,0.9038859605789185
1759306288006713900,3.4567138671875,0.48789340257644653,-9.509469985961914,1.0232219696044922
1759306288016753700,3.466753662109375,0.41689038276672363,-9.584887504577637,0.8500164151191711
1759306288026809300,3.476809326171875,0.3760392963886261,-9.05367374420166,0.3800047039985657
1759306288036834000,3.486833984375,0.6488286852836609,-9.565658569335938,0.4994155168533325
1759306288046874600,3.49687451171875,0.8618378043174744,-9.766921043395996,0.568622887134552
1759306288056913200,3.5069130859375,0.9560346603393555,-9.990854263305664,0.9306710958480835
1759306288066953200,3.516953125,0.8252514004707336,-9.949554443359375,1.069983720779419
1759306288076993800,3.526993896484375,0.8699930310249329,-9.930475234985352,1.3144915103912354
1759306288087032000,3.537031982421875,0.833331823348999,-9.9046630859375,1.417517066001892
1759306288097073400,3.547073486328125,0.8383446931838989,-9.739163398742676,1.263465166091919
1759306288107112000,3.55711181640625,0.9944915175437927,-9.723377227783203,1.1662006378173828
1759306288117152300,3.56715234375,1.1306617259979248,-9.69150447845459,1.194407343864441
1759306288127193300,3.577193359375,1.2109423875808716,-9.610475540161133,1.2172271013259888
1759306288137233000,3.58723291015625,1.3086557388305664,-9.39828872680664,1.2324901819229126
1759306288147272000,3.59727197265625,1.2984055280685425,-9.251344680786133,1.2192472219467163
1759306288157312300,3.607312255859375,1.2312930822372437,-9.286659240722656,1.1309610605239868
1759306288167351600,3.6173515625,1.1338040828704834,-9.428890228271484,0.946682333946228
1759306288177392600,3.627392578125,1.0883142948150635,-9.631649017333984,0.6639420390129089
1759306288187431200,3.63743115234375,1.0338462591171265,-9.774178504943848,0.5271732807159424
1759306288197469000,3.647468994140625,1.0373626947402954,-10.196306228637695,0.6484545469284058
1759306288207512600,3.6575126953125,1.063474416732788,-10.33329963684082,0.8335562944412231
1759306288217553000,3.667552978515625,1.1544541120529175,-9.993098258972168,1.0896610021591187
1759306288227592400,3.677592529296875,1.1493664979934692,-9.533262252807617,1.3075333833694458
1759306288237630700,3.687630615234375,1.1590180397033691,-9.209895133972168,1.3562403917312622
1759306288247670500,3.69767041015625,1.196128249168396,-9.151311874389648,1.3290064334869385
1759306288257711400,3.70771142578125,1.1915642023086548,-9.001300811767578,1.1712883710861206
1759306288267750700,3.717750732421875,1.1447277069091797,-9.02823543548584,1.0806827545166016
1759306288277792000,3.7277919921875,1.0467150211334229,-9.39095687866211,1.0488100051879883
1759306288287831800,3.737831787109375,0.8612392544746399,-9.874136924743652,1.0237456560134888
1759306288297825500,3.747825439453125,0.6323685050010681,-10.152612686157227,0.8761281967163086
1759306288307909000,3.7579091796875,0.46492403745651245,-10.138321876525879,0.6813748478889465
1759306288317949400,3.767949462890625,0.13819032907485962,-10.300454139709473,0.4777180552482605
1759306288327989000,3.777989013671875,-0.12270283699035645,-10.348637580871582,0.14926351606845856
1759306288338029600,3.788029541015625,-0.4364180862903595,-10.064400672912598,-0.2733879089355469
1759306288348070400,3.7980703125,-0.6327426433563232,-10.052878379821777,-0.6256348490715027
1759306288358109200,3.808109130859375,-0.42541971802711487,-10.28825855255127,-0.9026140570640564
1759306288368149500,3.8181494140625,0.5068225860595703,-10.573168754577637,-0.7763947248458862
1759306288378188300,3.828188232421875,1.7806875705718994,-10.898406028747559,0.18562544882297516
1759306288388229000,3.83822900390625,2.064175844192505,-10.501716613769531,1.5414170026779175
1759306288398267600,3.848267578125,1.1744307279586792,-9.799392700195312,2.749516248703003
1759306288408309800,3.858309814453125,0.4404582977294922,-9.282320022583008,3.4460792541503906
1759306288418348500,3.8683486328125,0.47143328189849854,-8.94189453125,3.4112884998321533
1759306288428388400,3.878388427734375,1.1533318758010864,-8.329277992248535,2.6878654956817627
1759306288438429000,3.888428955078125,0.9409961104393005,-8.784400939941406,1.7967735528945923
1759306288448468700,3.89846875,1.2219406366348267,-9.500940322875977,1.0054899454116821
1759306288458509600,3.908509521484375,1.5347580909729004,-10.010007858276367,0.5472247004508972
1759306288468546800,3.918546875,1.3857190608978271,-9.741707801818848,0.16071078181266785
1759306288478587100,3.928587158203125,1.0562918186187744,-9.482460021972656,0.2272247076034546
1759306288488627500,3.93862744140625,0.8644564747810364,-9.443255424499512,0.834528923034668
1759306288498666200,3.948666259765625,0.7445219159126282,-9.618929862976074,1.4007576704025269
1759306288508707000,3.95870703125,0.7983914613723755,-9.744625091552734,1.6956185102462769
1759306288518746400,3.968746337890625,0.8827870488166809,-9.800589561462402,1.6423475742340088
1759306288528788700,3.978788818359375,0.9205705523490906,-9.717840194702148,1.2942904233932495
1759306288538826200,3.988826171875,0.9808745384216309,-9.709012031555176,0.9181015491485596
1759306288548866600,3.998866455078125,0.966958224773407,-9.820192337036133,0.7038204669952393
1759306288558908700,4.00890869140625,0.9735422730445862,-9.948955535888672,0.6635679602622986
1759306288568947000,4.018947021484375,0.9225906729698181,-9.883488655090332,0.7143699526786804
1759306288578986800,4.02898681640625,0.7632266283035278,-9.77013874053955,0.7838765978813171
1759306288589026300,4.0390263671875,0.6263830065727234,-9.67923355102539,0.7815572023391724
1759306288599068400,4.049068359375,0.5857564210891724,-9.636960983276367,0.6997054219245911
1759306288609108000,4.05910791015625,0.6680570840835571,-9.589975357055664,0.5874772667884827
1759306288619147300,4.069147216796875,0.8060978055000305,-9.592369079589844,0.5677250623703003
1759306288629186600,4.0791865234375,0.816871702671051,-9.626187324523926,0.6533926129341125
1759306288639225300,4.089225341796875,0.8396914005279541,-9.6710786819458,0.792555570602417
1759306288649264000,4.09926416015625,0.879120945930481,-9.697713851928711,0.8542810678482056
1759306288659305700,4.1093056640625,0.8922142386436462,-9.703774452209473,0.8649053573608398
1759306288669345000,4.119344970703125,0.9650129079818726,-9.71589469909668,0.8835352659225464
1759306288679385600,4.129385498046875,1.0270377397537231,-9.749638557434082,0.9319429993629456
1759306288689424600,4.139424560546875,1.0758196115493774,-9.79640007019043,0.9540894031524658
1759306288699464400,4.14946435546875,1.1225064992904663,-9.789067268371582,0.8787468671798706
1759306288709506000,4.159506103515625,1.2562077045440674,-9.753229141235352,0.8413374423980713
1759306288719543300,4.169543212890625,1.2623428106307983,-9.718737602233887,0.870217502117157
1759306288729583000,4.1795830078125,1.1312602758407593,-9.721356391906738,0.9555109143257141
1759306288739626000,4.1896259765625,0.9513210654258728,-9.702427864074707,1.0352678298950195
1759306288749664000,4.1996640625,0.963142454624176,-9.761085510253906,1.0705822706222534
1759306288759704800,4.209704833984375,1.0450690984725952,-9.834931373596191,1.0136451721191406
1759306288769745400,4.219745361328125,1.0092308521270752,-9.793856620788574,0.9210194945335388
1759306288779782700,4.22978271484375,0.8604162335395813,-9.683722496032715,0.8985738158226013
1759306288789823000,4.239822998046875,0.7460930943489075,-9.667187690734863,0.9707739949226379
1759306288799862800,4.24986279296875,0.6897545456886292,-9.754351615905762,0.9931448101997375
1759306288809903400,4.2599033203125,0.7804349064826965,-9.732728958129883,0.942791759967804
1759306288819944200,4.269944091796875,0.8201637268066406,-9.613243103027344,0.9135375618934631
1759306288829984000,4.27998388671875,0.7476642727851868,-9.557129859924316,0.9381529688835144
1759306288840021500,4.290021484375,0.6423194408416748,-9.662249565124512,0.9665841460227966
1759306288850061600,4.3000615234375,0.613364577293396,-9.71926212310791,0.9161562323570251
1759306288860104400,4.3101044921875,0.6860884428024292,-9.765873908996582,0.8928127884864807
1759306288870141200,4.32014111328125,0.8123825788497925,-9.78368091583252,0.839616596698761
1759306288880182500,4.3301826171875,0.8459762334823608,-9.734748840332031,0.8266729712486267
1759306288890223400,4.340223388671875,0.7948749661445618,-9.71477222442627,0.9129390120506287
1759306288900262100,4.35026220703125,0.775945782661438,-9.741482734680176,1.0107271671295166
1759306288910302200,4.36030224609375,0.7903110384941101,-9.786149978637695,1.105821967124939
1759306288920340700,4.3703408203125,0.7939023375511169,-9.770587921142578,1.0987889766693115
1759306288930382600,4.380382568359375,0.8067711591720581,-9.765275001525879,0.9805752038955688
1759306288940422000,4.390421875,0.786270797252655,-9.699883460998535,0.8153005242347717
1759306288950462700,4.400462646484375,0.8341548442840576,-9.617283821105957,0.75948566198349
1759306288960500700,4.410500732421875,0.9572317600250244,-9.59985065460205,0.807968258857727
1759306288970541600,4.42054150390625,1.0121487379074097,-9.638607025146484,0.9208698272705078
1759306288980582000,4.430581787109375,0.9883564114570618,-9.66995620727539,0.9875333905220032
1759306288990622200,4.440622314453125,0.9453355669975281,-9.677063941955566,0.9817723631858826
1759306289000662500,4.45066259765625,0.9964368343353271,-9.698312759399414,0.9192986488342285
1759306289010699800,4.46069970703125,1.0761936902999878,-9.714847564697266,0.8615385293960571
1759306289020740600,4.47074072265625,1.1453262567520142,-9.755698204040527,0.8860042691230774
1759306289030780400,4.480780517578125,1.1513866186141968,-9.731905937194824,0.9028384685516357
1759306289040820700,4.49082080078125,1.0479121208190918,-9.636213302612305,0.9051578640937805
1759306289050860000,4.500860107421875,0.9504232406616211,-9.57905101776123,0.9549123644828796
1759306289060901400,4.5109013671875,0.8463503122329712,-9.668534278869629,0.9763105511665344
1759306289070942000,4.52094189453125,0.7720552086830139,-9.77717113494873,1.0021978616714478
1759306289080981200,4.530981201171875,0.7187842130661011,-9.738340377807617,1.1339538097381592
1759306289091020800,4.541020751953125,0.7633762359619141,-9.781585693359375,1.4150480031967163
1759306289101060000,4.55106005859375,0.8984242081642151,-9.911845207214355,1.625962257385254
1759306289111099000,4.561098876953125,1.1121066808700562,-9.907505989074707,1.6548422574996948
1759306289121138700,4.571138671875,1.3501052856445312,-9.836952209472656,1.8164509534835815
1759306289131179000,4.581178955078125,1.156249761581421,-9.705644607543945,1.877877116203308
1759306289141219000,4.591218994140625,0.9489268660545349,-9.463979721069336,1.594089388847351
1759306289151259100,4.601259033203125,1.0055646896362305,-9.357961654663086,1.1351509094238281
1759306289161297700,4.611297607421875,1.2211177349090576,-9.547327995300293,0.7104045152664185
1759306289171338800,4.6213388671875,1.367762565612793,-9.734748840332031,0.4101566672325134
1759306289181378000,4.6313779296875,1.2805237770080566,-9.831639289855957,0.28707975149154663
1759306289191419000,4.6414189453125,1.144802451133728,-9.871742248535156,0.4676175117492676
1759306289201460000,4.6514599609375,1.1596165895462036,-9.91745662689209,0.7906103134155273
1759306289211499000,4.6614990234375,1.0146178007125854,-9.884760856628418,0.9896283149719238
1759306289221537800,4.671537841796875,0.8622866868972778,-9.756596565246582,0.9505729079246521
1759306289231577300,4.681577392578125,0.7417536377906799,-9.61676025390625,0.7110779285430908
1759306289241619500,4.691619384765625,0.6316951513290405,-9.548524856567383,0.4531026780605316
1759306289251658000,4.701657958984375,0.5380968451499939,-9.61571216583252,0.3015197813510895
1759306289261696500,4.711696533203125,0.4654477834701538,-9.717241287231445,0.276081383228302
1759306289271735800,4.72173583984375,0.48549920320510864,-9.835904121398926,0.3634697496891022
1759306289281765000,4.73176513671875,0.5452794432640076,-9.906084060668945,0.5440823435783386
1759306289291817200,4.741817138671875,0.6327426433563232,-9.860071182250977,0.6358850002288818
1759306289301858300,4.7518583984375,0.6774094700813293,-9.723002433776855,0.6676082015037537
1759306289311896300,4.761896240234375,0.6552630662918091,-9.638607025146484,0.7613561153411865
1759306289321935400,4.771935302734375,0.6471826434135437,-9.593491554260254,0.8082675337791443
1759306289331975700,4.7819755859375,0.5502174496650696,-9.632396697998047,0.7380874752998352
1759306289342016500,4.7920166015625,0.8302642703056335,-9.706393241882324,0.6407482028007507
1759306289352057600,4.8020576171875,0.9071779847145081,-9.807398796081543,0.5156511664390564
1759306289362096600,4.8120966796875,0.9093477129936218,-9.867103576660156,0.514005184173584
1759306289372137700,4.8221376953125,0.8667758107185364,-9.874959945678711,0.6764367818832397
1759306289382175000,4.832175048828125,0.7634510397911072,-9.827898979187012,0.8527098894119263
1759306289392215600,4.842215576171875,0.7389104962348938,-9.780838012695312,0.998681366443634
1759306289402253800,4.85225390625,0.5888239741325378,-9.730709075927734,1.0414776802062988
1759306289412294100,4.862294189453125,0.7775918245315552,-9.695320129394531,1.0886136293411255
1759306289422334200,4.872334228515625,0.5124340057373047,-9.662099838256836,0.9742904305458069
1759306289432375600,4.88237548828125,0.5740846991539001,-9.703400611877441,0.8472481369972229
1759306289442413000,4.8924130859375,0.6165817379951477,-9.760188102722168,0.7309048771858215
1759306289452454400,4.902454345703125,0.6545149087905884,-9.795801162719727,0.6708253622055054
1759306289462493400,4.912493408203125,0.6414964199066162,-9.781585693359375,0.6948422193527222
1759306289472535300,4.922535400390625,0.5211129784584045,-9.761159896850586,0.7122750282287598
1759306289482575600,4.93257568359375,0.5258265733718872,-9.77672290802002,0.7109282612800598
1759306289492614100,4.9426142578125,0.6566846370697021,-9.830218315124512,0.6312462687492371
1759306289502653200,4.952653076171875,0.5582230687141418,-9.849895477294922,0.5588216185569763
1759306289512695000,4.962695068359375,0.5511152744293213,-9.839271545410156,0.5923404693603516
1759306289522734000,4.972734130859375,0.47644615173339844,-9.751209259033203,0.6696282625198364
1759306289532773600,4.982773681640625,0.41950902342796326,-9.68925952911377,0.725218653678894
1759306289542813400,4.9928134765625,0.3133411407470703,-9.69038200378418,0.7364414930343628
1759306289552854300,5.002854248046875,0.34416648745536804,-9.727267265319824,0.6930465698242188
1759306289562893600,5.0128935546875,0.35830724239349365,-9.778593063354492,0.6854898929595947
1759306289572934700,5.0229345703125,0.30353987216949463,-9.78712272644043,0.7477391362190247
1759306289582972400,5.032972412109375,0.41621699929237366,-9.787720680236816,0.8044517636299133
1759306289593014000,5.043013916015625,0.4579658806324005,-9.80223560333252,0.8292167782783508
1759306289603052300,5.05305224609375,0.4816834628582001,-9.826027870178223,0.8074445128440857
1759306289613092600,5.063092529296875,0.5268740057945251,-9.834183692932129,0.7416039705276489
1759306289623133700,5.0731337890625,0.6459855437278748,-9.839944839477539,0.6694038510322571
1759306289633173000,5.083173095703125,0.7737012505531311,-9.805303573608398,0.629675030708313
1759306289643213300,5.09321337890625,0.7738508582115173,-9.782857894897461,0.669179379940033
1759306289653253400,5.10325341796875,0.5617395639419556,-9.772308349609375,0.7847744226455688
1759306289663291400,5.11329150390625,0.5184943079948425,-9.790189743041992,0.8123077750205994
1759306289673333500,5.12333349609375,0.7139958143234253,-9.80560302734375,0.7301567196846008
1759306289683370200,5.133370361328125,0.8008604645729065,-9.829395294189453,0.67950439453125
1759306289693411800,5.143411865234375,0.7426514625549316,-9.79984188079834,0.7623288035392761
1759306289703451400,5.153451416015625,0.6918494701385498,-9.745523452758789,0.9001449942588806
1759306289713491000,5.163490966796875,0.6884077787399292,-9.724124908447266,0.933738648891449
1759306289723529500,5.173529541015625,0.7835773229598999,-9.787346839904785,0.8839093446731567
1759306289733570600,5.183570556640625,0.8656535744667053,-9.797821998596191,0.8011597394943237
1759306289743610400,5.1936103515625,0.8833855986595154,-9.809418678283691,0.7317278981208801
1759306289753649700,5.203649658203125,0.9607482552528381,-9.882665634155273,0.7905354499816895
1759306289763689200,5.213689208984375,0.9514707326889038,-9.885659217834473,0.9218424558639526
1759306289773732000,5.223732177734375,0.9698013067245483,-9.863737106323242,1.0770167112350464
1759306289783769000,5.23376904296875,0.9512462615966797,-9.824007987976074,1.2659341096878052
1759306289793810200,5.24381005859375,0.9765350222587585,-9.801712036132812,1.3304280042648315
1759306289803851800,5.253851806640625,1.0421510934829712,-9.7860746383667,1.2908488512039185
1759306289813891000,5.26389111328125,1.075445532798767,-9.761758804321289,1.1941828727722168
1759306289823929600,5.2739296875,1.1378443241119385,-9.709012031555176,1.090409278869629
1759306289833968400,5.283968505859375,1.2335375547409058,-9.644742012023926,1.1058967113494873
1759306289844009500,5.294009521484375,1.1720365285873413,-9.527950286865234,1.1714379787445068
1759306289854048800,5.304048828125,1.072602391242981,-9.394698143005371,1.3064111471176147
1759306289864090400,5.31409033203125,1.1426327228546143,-9.287182807922363,1.5120880603790283
1759306289874129700,5.324129638671875,0.9965116381645203,-9.20780086517334,1.6815526485443115
1759306289884169700,5.334169677734375,0.9013420939445496,-9.179444313049316,1.7740286588668823
1759306289894209500,5.34420947265625,0.9553613066673279,-9.085097312927246,1.754126787185669
1759306289904246800,5.354246826171875,1.0779893398284912,-8.984017372131348,1.5836148262023926
1759306289914289000,5.364288818359375,1.2250831127166748,-8.849119186401367,1.5528643131256104
1759306289924327000,5.374326904296875,1.1283423900604248,-8.655263900756836,1.7323545217514038
1759306289934368300,5.3843681640625,1.0811316967010498,-8.419584274291992,2.1470751762390137
1759306289944408600,5.39440869140625,1.2206687927246094,-8.118064880371094,2.7236289978027344
1759306289954448400,5.404448486328125,0.91712886095047,-7.757138729095459,2.995969295501709
1759306289964489500,5.414489501953125,-0.6437410116195679,-7.716960906982422,2.7934348583221436
1759306289974528000,5.424528076171875,-1.7203835248947144,-8.102726936340332,2.632349967956543
1759306289984568000,5.434568115234375,-1.5983541011810303,-8.573336601257324,2.3792378902435303
1759306289994609000,5.44460888671875,-1.2300959825515747,-8.933514595031738,1.6901568174362183
1759306290004648700,5.454648681640625,-0.5624129176139832,-9.168819427490234,0.7558943629264832
1759306290014686200,5.464686279296875,-0.40880993008613586,-9.255834579467773,0.1794154942035675
1759306290024729000,5.47472900390625,-0.9608978629112244,-9.175105094909668,0.19804537296295166
1759306290034767600,5.484767578125,-1.8137574195861816,-8.573038101196289,0.39698857069015503
1759306290044805400,5.494805419921875,-2.964545488357544,-8.197372436523438,0.5707178115844727
1759306290054846700,5.5048466796875,-3.5073559284210205,-8.039355278015137,0.8976759910583496
1759306290064887300,5.51488720703125,-3.9532759189605713,-8.00224494934082,1.0193313360214233
1759306290074926600,5.524926513671875,-3.6029741764068604,-7.840412139892578,0.5474491715431213
1759306290084967200,5.53496728515625,-2.9328222274780273,-7.643189430236816,0.05521627515554428
1759306290095008000,5.545008056640625,-3.069516181945801,-7.5982985496521,0.1934066116809845
1759306290105047600,5.555047607421875,-3.6482396125793457,-7.471256256103516,0.5155015587806702
1759306290115084800,5.565084716796875,-4.309338569641113,-7.531335353851318,0.54325932264328
1759306290125123800,5.575123779296875,-4.2206034660339355,-7.5586442947387695,0.23119010031223297
1759306290135167200,5.585167236328125,-4.343680381774902,-7.750329971313477,-0.09883563965559006
1759306290145206000,5.5952060546875,-4.765434265136719,-8.100032806396484,-0.5324854254722595
1759306290155246300,5.605246337890625,-5.370194435119629,-8.3167085647583,-1.2387001514434814
1759306290165286100,5.6152861328125,-5.742717266082764,-8.172233581542969,-1.6274585723876953
1759306290175325200,5.6253251953125,-6.343213081359863,-7.7726263999938965,-1.3570634126663208
1759306290185365200,5.635365234375,-6.9211883544921875,-7.307851791381836,-1.2533645629882812
1759306290195404500,5.645404541015625,-6.345831394195557,-6.844947814941406,-1.3447932004928589
1759306290205444000,5.655444091796875,-6.097433090209961,-6.227917194366455,-1.1186907291412354
1759306290215486500,5.665486572265625,-6.3756842613220215,-5.557241439819336,-0.7095815539360046
1759306290225523700,5.675523681640625,-6.53646993637085,-5.011213779449463,-0.7015010714530945
1759306290235563800,5.685563720703125,-6.202179431915283,-4.1834187507629395,-0.8610147833824158
1759306290245606000,5.69560595703125,-7.0015435218811035,-3.4007389545440674,-0.5012111663818359
1759306290255646000,5.70564599609375,-7.563357830047607,-3.41256046295166,0.1289876103401184
1759306290265689300,5.715689453125,-7.44409704208374,-3.886537551879883,0.3329436779022217
1759306290275727600,5.7257275390625,-7.655459880828857,-4.7503204345703125,0.004713584668934345
1759306290285765000,5.73576513671875,-8.278326034545898,-5.494617938995361,-0.46754270792007446
1759306290295802600,5.745802734375,-8.868572235107422,-5.974281311035156,-0.6148609519004822
1759306290305844000,5.755843994140625,-9.151387214660645,-5.432518482208252,-0.4547486901283264
1759306290315887900,5.765887939453125,-9.039084434509277,-4.285995006561279,-0.05259761959314346
1759306290325924900,5.7759248046875,-8.953790664672852,-2.9911060333251953,0.2994248569011688
1759306290335964200,5.785964111328125,-8.930821418762207,-2.10442852973938,0.6512976884841919
1759306290346003700,5.796003662109375,-9.247454643249512,-2.3243210315704346,0.7873182892799377
1759306290356043500,5.80604345703125,-8.812607765197754,-3.092111587524414,0.6607996821403503
1759306290366082000,5.81608203125,-8.835577011108398,-3.7166988849639893,0.44434887170791626
1759306290376121600,5.82612158203125,-9.312472343444824,-4.116979598999023,0.1371428668498993
1759306290386162200,5.836162109375,-9.796923637390137,-4.05817174911499,0.44764089584350586
1759306290396201700,5.84620166015625,-10.004022598266602,-3.657367467880249,0.5885246992111206
1759306290406242800,5.856242919921875,-10.097246170043945,-3.1505448818206787,0.7535001635551453
1759306290416282000,5.8662822265625,-11.1195707321167,-2.8942906856536865,0.40200144052505493
1759306290426321700,5.87632177734375,-11.438971519470215,-3.0661494731903076,-0.2635866403579712
1759306290436363500,5.886363525390625,-11.468899726867676,-3.184662342071533,-0.6830956935882568
1759306290446400500,5.896400390625,-11.471592903137207,-3.2083799839019775,-0.2213888317346573
1759306290456442000,5.906442138671875,-12.076652526855469,-2.911573648452759,0.3107973039150238
1759306290466481000,5.91648095703125,-12.318990707397461,-2.296712875366211,0.41038113832473755
1759306290476521500,5.926521484375,-11.609333992004395,-1.7562217712402344,0.5336077213287354
1759306290486560500,5.936560546875,-11.049165725708008,-1.307682991027832,1.1939584016799927
1759306290496601000,5.94660107421875,-10.734328269958496,-1.0577882528305054,1.27768075466156
1759306290506640600,5.956640625,-11.152191162109375,-0.7699602842330933,0.634762704372406
1759306290516681700,5.966681640625,-11.839028358459473,-0.6575076580047607,0.05521627515554428
1759306290526720800,5.976720703125,-11.853917121887207,-0.6309469938278198,-0.2560299336910248
1759306290536761000,5.986760986328125,-11.535787582397461,-0.39968204498291016,-0.26066872477531433
1759306290546800400,5.99680029296875,-11.339911460876465,-0.25086745619773865,-0.20208558440208435
1759306290556839400,6.00683935546875,-11.453112602233887,-0.21719898283481598,-0.20852001011371613
1759306290566879700,6.016879638671875,-11.303475379943848,-0.013916297815740108,-0.3271826207637787
1759306290576918300,6.026918212890625,-11.491943359375,0.09457096457481384,-0.48071080446243286
1759306290586960600,6.036960693359375,-11.39288330078125,0.1833808869123459,-0.6058826446533203
1759306290597000400,6.04700048828125,-11.264793395996094,0.3761141300201416,-0.7387608885765076
1759306290607038700,6.057038818359375,-11.299060821533203,0.5258265733718872,-0.8343044519424438
1759306290617079800,6.067079833984375,-11.113510131835938,0.41127896308898926,-0.89438396692276
1759306290627117300,6.077117431640625,-10.783035278320312,0.33608606457710266,-1.0480618476867676
1759306290637157400,6.087157470703125,-10.662652015686035,0.4180874824523926,-1.250895619392395
1759306290647198500,6.097198486328125,-10.62696361541748,0.4783914387226105,-1.3914800882339478
1759306290657239600,6.107239501953125,-10.598906517028809,0.36646249890327454,-1.4698902368545532
1759306290667277600,6.117277587890625,-10.570549964904785,0.2611176371574402,-1.4230536222457886
1759306290677319700,6.127319580078125,-10.360010147094727,0.3208978474140167,-1.250596284866333
1759306290687357700,6.137357666015625,-10.020407676696777,0.3535936772823334,-0.944063663482666
1759306290697396700,6.147396728515625,-9.901819229125977,0.2825157940387726,-0.6025906205177307
1759306290707437800,6.157437744140625,-9.795127868652344,0.14582185447216034,-0.29141923785209656
1759306290717477400,6.167477294921875,-9.69614315032959,-0.02760813757777214,-0.006658873520791531
1759306290727518000,6.17751806640625,-9.64107608795166,-0.13759177923202515,0.25251346826553345
1759306290737557200,6.18755712890625,-9.679009437561035,-0.2091185599565506,0.48968905210494995
1759306290747597300,6.197597412109375,-9.595062255859375,-0.21517887711524963,0.7267150282859802
1759306290757636600,6.20763671875,-9.651551246643066,-0.42601826786994934,0.8937854170799255
1759306290767677000,6.217677001953125,-9.730484962463379,-0.9487023949623108,1.109039068222046
1759306290777716500,6.227716552734375,-9.120935440063477,-2.426523447036743,1.8325369358062744
1759306290787755800,6.237755859375,-8.244209289550781,-2.7376201152801514,2.4910919666290283
1759306290797777200,6.247777099609375,-7.376161575317383,-0.9715969562530518,3.220874547958374
1759306290807836000,6.2578359375,-8.226476669311523,1.5548095703125,2.5007436275482178
1759306290817876500,6.26787646484375,-10.567931175231934,0.8542062640190125,1.1441291570663452
1759306290827916500,6.27791650390625,-10.810344696044922,-1.3478606939315796,0.7844003438949585
1759306290837955300,6.287955322265625,-10.12702465057373,-1.5659575462341309,0.9945663213729858
1759306290847995400,6.297995361328125,-9.260248184204102,-0.7567921876907349,1.0723779201507568
1759306290858035700,6.30803564453125,-8.914734840393066,-0.40132805705070496,0.792705237865448
1759306290868075000,6.318074951171875,-8.786271095275879,-0.14425064623355865,0.18644845485687256
1759306290878116400,6.328116455078125,-9.28650951385498,-0.44696754217147827,-0.03875613957643509
1759306290888154000,6.338154052734375,-10.201693534851074,-0.9122656583786011,0.15689502656459808
1759306290898197500,6.348197509765625,-10.72953987121582,-1.1004348993301392,0.21532851457595825
1759306290908235500,6.358235595703125,-10.651803016662598,-0.9867103695869446,0.12741641700267792
1759306290918275300,6.368275390625,-10.214337348937988,-0.6641665101051331,-0.03232172131538391
1759306290928313000,6.37831298828125,-9.620500564575195,-0.31678280234336853,-0.20343232154846191
1759306290938356500,6.3883564453125,-9.299078941345215,-0.14013561606407166,-0.2836380898952484
1759306290948394800,6.398394775390625,-9.456498146057129,-0.15330372750759125,-0.22213701903820038
1759306290958433300,6.408433349609375,-9.902642250061035,-0.23575404286384583,-0.07384616136550903
1759306290968473000,6.41847314453125,-10.224737167358398,-0.2775777578353882,0.02281973510980606
1759306290978513700,6.428513671875,-10.286612510681152,-0.2116623967885971,-0.009876081719994545
1759306290988552700,6.438552734375,-10.069414138793945,-0.11103110015392303,-0.13789105415344238
1759306290998593300,6.44859326171875,-9.812860488891602,0.0015711948508396745,-0.2994248569011688
1759306291008635400,6.458635498046875,-9.71357536315918,0.09000702202320099,-0.33511340618133545
1759306291018674700,6.4686748046875,-9.745523452758789,0.14006079733371735,-0.3059340715408325
1759306291028714000,6.4787138671875,-9.840842247009277,0.11342530697584152,-0.20066402852535248
1759306291038752800,6.488752685546875,-10.069937705993652,0.07175122946500778,-0.1569698452949524
1759306291048791800,6.498791748046875,-10.185906410217285,0.007407061289995909,-0.15921440720558167
1759306291058832000,6.508831787109375,-10.119542121887207,-0.0471358448266983,-0.25894787907600403
1759306291068872000,6.518871826171875,-9.956212997436523,-0.05431845039129257,-0.30630818009376526
1759306291078910700,6.52891064453125,-9.809343338012695,-0.012569558806717396,-0.33174657821655273
1759306291088954400,6.538954345703125,-9.712602615356445,0.0363619364798069,-0.35576340556144714
1759306291098990300,6.548990234375,-9.759140014648438,0.020874446257948875,-0.3437175750732422
1759306291109006600,6.559006591796875,-9.964218139648438,0.010025719180703163,-0.27241525053977966
1759306291119046000,6.5690458984375,-10.183812141418457,-0.019602525979280472,-0.2537105679512024
1759306291129085700,6.579085693359375,-10.302175521850586,-0.08387187868356705,-0.2547580301761627
1759306291139130400,6.58913037109375,-10.308384895324707,-0.1495627909898758,-0.2587234079837799
1759306291149191200,6.599191162109375,-10.281076431274414,-0.17574936151504517,-0.2769792079925537
1759306291159230500,6.60923046875,-10.201319694519043,-0.2404676377773285,-0.2586486041545868
1759306291169271600,6.619271484375,-10.0487642288208,-0.24039281904697418,-0.3190273642539978
1759306291179309300,6.629309326171875,-9.933318138122559,-0.23261165618896484,-0.46986207365989685
1759306291189350000,6.639349853515625,-9.850643157958984,-0.31289222836494446,-0.6748656034469604
1759306291199389200,6.64938916015625,-9.75854206085205,-0.4396352767944336,-0.9100211262702942
1759306291209430000,6.659429931640625,-9.694646835327148,-0.5384709239006042,-0.9897031188011169
1759306291219470600,6.669470703125,-9.637484550476074,-0.5936871767044067,-0.9521440863609314
1759306291229509400,6.67950927734375,-9.643245697021484,-0.5846341252326965,-0.8411129713058472
1759306291239550500,6.689550537109375,-9.670180320739746,-0.5422866940498352,-0.6939443945884705
1759306291249590500,6.699590576171875,-9.718588829040527,-0.47966334223747253,-0.557250440120697
1759306291259630300,6.70963037109375,-9.801637649536133,-0.43364977836608887,-0.4157680869102478
1759306291269670100,6.719670166015625,-9.830816268920898,-0.4222024977207184,-0.3272574543952942
1759306291279709000,6.729708984375,-9.803208351135254,-0.40948331356048584,-0.26164135336875916
1759306291289748500,6.73974853515625,-9.774253845214844,-0.364442378282547,-0.19707272946834564
1759306291299789800,6.749789794921875,-9.710732460021973,-0.32785600423812866,-0.12794014811515808
1759306291309828600,6.75982861328125,-9.636736869812012,-0.3473837077617645,-0.06157587468624115
1759306291319868000,6.769867919921875,-9.563788414001465,-0.3718494474887848,0.040551792830228806
1759306291329909000,6.779908935546875,-9.5362548828125,-0.3853916525840759,0.11312603205442429
1759306291339947500,6.789947509765625,-9.569474220275879,-0.3713257312774658,0.17664720118045807
1759306291349987300,6.7999873046875,-9.61451530456543,-0.3569605052471161,0.16736966371536255
1759306291360029000,6.81002880859375,-9.632546424865723,-0.3734954595565796,0.133925661444664
1759306291370068500,6.820068359375,-9.626710891723633,-0.39968204498291016,0.10624270141124725
1759306291380109000,6.830109130859375,-9.611298561096191,-0.41389763355255127,0.08222586661577225
1759306291390146300,6.840146240234375,-9.601945877075195,-0.4278887212276459,0.01885433867573738
1759306291400187600,6.850187744140625,-9.620126724243164,-0.4488379955291748,-0.09217676520347595
1759306291410227700,6.860227783203125,-9.65259838104248,-0.45676878094673157,-0.1767968386411667
1759306291420267500,6.870267578125,-9.684920310974121,-0.48647186160087585,-0.19954174757003784
1759306291430308000,6.88030810546875,-9.755773544311523,-0.5006126165390015,-0.17896658182144165
1759306291440347000,6.890346923828125,-9.832088470458984,-0.5161749124526978,-0.15008652210235596
1759306291450385200,6.90038525390625,-9.866654396057129,-0.5041291117668152,-0.16056114435195923
1759306291460428300,6.91042822265625,-9.867776870727539,-0.4850502908229828,-0.14731822907924652
1759306291470466600,6.920466552734375,-9.868974685668945,-0.4803367257118225,-0.1437269151210785
1759306291480505600,6.930505615234375,-9.854683876037598,-0.46821606159210205,-0.17709611356258392
1759306291490547000,6.940546875,-9.841590881347656,-0.4537012279033661,-0.2224363088607788
1759306291500585200,6.950585205078125,-9.84031867980957,-0.4322282373905182,-0.22468087077140808
1759306291510601700,6.960601806640625,-9.835829734802246,-0.4091840386390686,-0.27578210830688477
1759306291520664000,6.9706640625,-9.820342063903809,-0.39706337451934814,-0.31042322516441345
1759306291530706200,6.9807060546875,-9.846603393554688,-0.39713820815086365,-0.29478609561920166
1759306291540743700,6.99074365234375,-9.872790336608887,-0.392424613237381,-0.2695721387863159
1759306291550784500,7.000784423828125,-9.83448314666748,-0.36750996112823486,-0.24570494890213013
1759306291560823600,7.010823486328125,-9.781959533691406,-0.36406829953193665,-0.23994390666484833
1759306291570865200,7.020865234375,-9.769989013671875,-0.35568860173225403,-0.2447323054075241
1759306291580904400,7.030904541015625,-9.752107620239258,-0.359354704618454,-0.23530513048171997
1759306291590945000,7.040945068359375,-9.782782554626465,-0.36908116936683655,-0.2149544209241867
1759306291600984300,7.050984375,-9.780463218688965,-0.37738603353500366,-0.21502923965454102
1759306291611024400,7.0610244140625,-9.78637409210205,-0.37499183416366577,-0.21615152060985565
1759306291621064200,7.071064208984375,-9.753005027770996,-0.3858405649662018,-0.20807109773159027
1759306291631103500,7.081103515625,-9.723227500915527,-0.3834463655948639,-0.21772271394729614
1759306291641143600,7.0911435546875,-9.67302417755127,-0.34521394968032837,-0.24271219968795776
1759306291651183600,7.10118359375,-9.672948837280273,-0.3248632550239563,-0.24735096096992493
1759306291661223000,7.111222900390625,-9.71125602722168,-0.35823243856430054,-0.25341129302978516
1759306291671263000,7.121262939453125,-9.741183280944824,-0.39294835925102234,-0.2224363088607788
1759306291681303000,7.131302978515625,-9.761459350585938,-0.4060416519641876,-0.22123919427394867
1759306291691342600,7.141342529296875,-9.787646293640137,-0.40372225642204285,-0.20560206472873688
1759306291701384200,7.15138427734375,-9.735048294067383,-0.3787327706813812,-0.19969138503074646
1759306291711422000,7.161421875,-9.732654571533203,-0.36923080682754517,-0.18652327358722687
1759306291721462800,7.171462890625,-9.730185508728027,-0.36578911542892456,-0.16145898401737213
1759306291731503400,7.18150341796875,-9.726519584655762,-0.3610755503177643,-0.1471685916185379
1759306291741542100,7.191542236328125,-9.747992515563965,-0.35157355666160583,-0.1338508427143097
1759306291751583200,7.201583251953125,-9.756746292114258,-0.344839870929718,-0.10639233887195587
1759306291761622000,7.2116220703125,-9.766098022460938,-0.3042880594730377,-0.09531915187835693
1759306291771661800,7.221661865234375,-9.7744779586792,-0.31019875407218933,-0.10130465775728226
1759306291781701000,7.231701171875,-9.761384963989258,-0.3016694188117981,-0.13826514780521393
1759306291791740000,7.241739990234375,-9.730335235595703,-0.27892449498176575,-0.16572365164756775
1759306291801780000,7.251780029296875,-9.720832824707031,-0.2825157940387726,-0.16340427100658417
1759306291811821300,7.2618212890625,-9.831864356994629,-0.2942623496055603,-0.17133505642414093
1759306291821859600,7.271859619140625,-9.813982009887695,-0.30855274200439453,-0.1810615062713623
1759306291831901400,7.2819013671875,-9.821688652038574,-0.2974047362804413,-0.22744916379451752
1759306291841942000,7.29194189453125,-9.902867317199707,-0.31274259090423584,-0.23792380094528198
1759306291851981600,7.301981689453125,-9.833584785461426,-0.29628247022628784,-0.21428105235099792
1759306291862018800,7.312018798828125,-9.838298797607422,-0.28072014451026917,-0.21173721551895142
1759306291872060400,7.322060302734375,-9.809642791748047,-0.27226561307907104,-0.24166473746299744
1759306291882098200,7.33209814453125,-9.796699523925781,-0.2985270321369171,-0.25737667083740234
1759306291892137500,7.342137451171875,-9.796773910522461,-0.32598552107810974,-0.2587982416152954
1759306291902180400,7.352180419921875,-9.814655303955078,-0.31281742453575134,-0.25977087020874023
1759306291912219600,7.3622197265625,-9.835530281066895,-0.32194530963897705,-0.2859574556350708
1759306291922258700,7.3722587890625,-9.821239471435547,-0.3098994791507721,-0.31461307406425476
1759306291932299000,7.382299072265625,-9.786747932434082,-0.3314473032951355,-0.31610944867134094
1759306291942338800,7.3923388671875,-9.736544609069824,-0.3232172429561615,-0.29957449436187744
1759306291952379400,7.40237939453125,-9.723227500915527,-0.267177939414978,-0.2849099934101105
1759306291962418400,7.41241845703125,-9.739836692810059,-0.26493337750434875,-0.24779987335205078
1759306291972458200,7.422458251953125,-9.742231369018555,-0.2770540416240692,-0.22281040251255035
1759306291982496000,7.43249609375,-9.75278091430664,-0.25326165556907654,-0.19639936089515686
1759306291992538000,7.4425380859375,-9.781959533691406,-0.22602760791778564,-0.18061259388923645
1759306292002577200,7.4525771484375,-9.714997291564941,-0.20111294090747833,-0.16998831927776337
1759306292012618000,7.462617919921875,-9.716119766235352,-0.200065478682518,-0.1437269151210785
1759306292022657000,7.472656982421875,-9.773430824279785,-0.2215384691953659,-0.12330138683319092
1759306292032699100,7.48269921875,-9.806949615478516,-0.2621650993824005,-0.10916063189506531
1759306292042736600,7.492736572265625,-9.77717113494873,-0.2537853717803955,-0.12951134145259857
1759306292052778800,7.50277880859375,-9.754426956176758,-0.23942017555236816,-0.13908815383911133
1759306292062817800,7.51281787109375,-9.698387145996094,-0.23956981301307678,-0.13213001191616058
1759306292072854300,7.522854248046875,-9.692625999450684,-0.22632688283920288,-0.12015900015830994
1759306292082895600,7.5328955078125,-9.736769676208496,-0.2059013396501541,-0.14365209639072418
1759306292092937500,7.5429375,-9.819069862365723,-0.22131401300430298,-0.13624504208564758
1759306292102976800,7.552976806640625,-9.89082145690918,-0.26066872477531433,-0.12779051065444946
1759306292113016600,7.5630166015625,-9.857526779174805,-0.2809446156024933,-0.1471685916185379
1759306292123056400,7.573056396484375,-9.796699523925781,-0.2760065793991089,-0.19041384756565094
1759306292133095400,7.583095458984375,-9.738340377807617,-0.2663549482822418,-0.22520460188388824
1759306292143135500,7.593135498046875,-9.743128776550293,-0.27465981245040894,-0.23837271332740784
1759306292153176000,7.603176025390625,-9.760786056518555,-0.2819172441959381,-0.23956981301307678
1759306292163215000,7.613215087890625,-9.785700798034668,-0.26889878511428833,-0.2082955539226532
1759306292173254700,7.623254638671875,-9.812037467956543,-0.27720367908477783,-0.20941783487796783
1759306292183288300,7.633288330078125,-9.798869132995605,-0.26889878511428833,-0.20709845423698425
1759306292193335000,7.6433349609375,-9.79415512084961,-0.295160174369812,-0.20844519138336182
1759306292203374000,7.6533740234375,-9.785776138305664,-0.29403790831565857,-0.2025344967842102
1759306292213412900,7.663412841796875,-9.772757530212402,-0.292691171169281,-0.22999300062656403
1759306292223454200,7.6734541015625,-9.751209259033203,-0.28318917751312256,-0.22767361998558044
1759306292233494300,7.683494384765625,-9.750611305236816,-0.30211833119392395,-0.218171626329422
1759306292243532000,7.693531982421875,-9.78525161743164,-0.31049802899360657,-0.1966238170862198
1759306292253574000,7.703573974609375,-9.801936149597168,-0.3140893280506134,-0.19774609804153442
1759306292263613200,7.71361328125,-9.800664901733398,-0.29141923785209656,-0.18809446692466736
1759306292273652500,7.723652587890625,-9.770812034606934,-0.27825114130973816,-0.2024596780538559
1759306292283692300,7.7336923828125,-9.746944427490234,-0.26156654953956604,-0.2131587713956833
1759306292293734100,7.743734130859375,-9.756521224975586,-0.2817676067352295,-0.21802198886871338
1759306292303773000,7.75377294921875,-9.768417358398438,-0.28072014451026917,-0.19647417962551117
1759306292313810700,7.763810791015625,-9.769315719604492,-0.2833388149738312,-0.1702875941991806
1759306292323852500,7.7738525390625,-9.794304847717285,-0.28206688165664673,-0.17133505642414093
1759306292333892900,7.783892822265625,-9.815777778625488,-0.2677764892578125,-0.16759411990642548
1759306292343932000,7.793931884765625,-9.801487922668457,-0.2808697819709778,-0.17013795673847198
1759306292353972700,7.80397265625,-9.789591789245605,-0.2832639813423157,-0.1809118688106537
1759306292364011000,7.814010986328125,-9.771859169006348,-0.3033154308795929,-0.23006781935691833
1759306292374050000,7.824050048828125,-9.770736694335938,-0.31049802899360657,-0.23485621809959412
1759306292384091100,7.834091064453125,-9.794529914855957,-0.3093009293079376,-0.22879590094089508
1759306292394131700,7.844131591796875,-9.785401344299316,-0.3042880594730377,-0.2347813993692398
1759306292404171300,7.854171142578125,-9.771111488342285,-0.29957449436187744,-0.22999300062656403
1759306292414212900,7.864212890625,-9.786523818969727,-0.2876783013343811,-0.21675007045269012
1759306292424251000,7.8742509765625,-9.794903755187988,-0.2876783013343811,-0.21188685297966003
1759306292434291000,7.884291015625,-9.800889015197754,-0.3031657934188843,-0.21435587108135223
1759306292444328700,7.89432861328125,-9.790115356445312,-0.28408700227737427,-0.21787235140800476
1759306292454369800,7.904369873046875,-9.767295837402344,-0.2602946162223816,-0.1999158412218094
1759306292464408600,7.91440869140625,-9.764826774597168,-0.25079262256622314,-0.19033902883529663
1759306292474426600,7.924426513671875,-9.770512580871582,-0.24256256222724915,-0.19146130979061127
1759306292484490500,7.934490478515625,-9.789591789245605,-0.24742577970027924,-0.171110600233078
1759306292494529800,7.94452978515625,-9.78480339050293,-0.24981997907161713,-0.16879121959209442
1759306292504570000,7.954570068359375,-9.746570587158203,-0.23321020603179932,-0.16407763957977295
1759306292514609200,7.964609130859375,-9.740585327148438,-0.2248305082321167,-0.16879121959209442
1759306292524648700,7.974648681640625,-9.759663581848145,-0.233135387301445,-0.16879121959209442
1759306292534689000,7.98468896484375,-9.778817176818848,-0.2438344806432724,-0.17230769991874695
1759306292544730000,7.994730224609375,-9.776423454284668,-0.24271219968795776,-0.16639702022075653
1759306292554769000,8.004768798828126,-9.77485179901123,-0.2272995263338089,-0.1579424887895584
1759306292564808000,8.014807861328125,-9.747468948364258,-0.2380734384059906,-0.17006313800811768
1759306292574847500,8.024847412109375,-9.745148658752441,-0.2571522295475006,-0.16071078181266785
1759306292584888800,8.034888916015625,-9.755847930908203,-0.2488473355770111,-0.16175825893878937
1759306292594928600,8.0449287109375,-9.761834144592285,-0.2572270333766937,-0.15345336496829987
1759306292604967400,8.054967529296874,-9.76781940460205,-0.2643348276615143,-0.16063596308231354
1759306292615008300,8.06500830078125,-9.791686058044434,-0.26066872477531433,-0.16168344020843506
1759306292625046500,8.075046630859376,-9.815553665161133,-0.2570773959159851,-0.16512510180473328
1759306292635087600,8.085087646484375,-9.810765266418457,-0.2546831965446472,-0.1687164008617401
1759306292645125400,8.09512548828125,-9.77133560180664,-0.24286183714866638,-0.1521066278219223
1759306292655166500,8.10516650390625,-9.754576683044434,-0.22610242664813995,-0.16759411990642548
1759306292665205800,8.115205810546875,-9.748740196228027,-0.24158991873264313,-0.18323124945163727
1759306292675247600,8.12524755859375,-9.758316993713379,-0.2511667311191559,-0.17133505642414093
1759306292685284000,8.1352841796875,-9.786897659301758,-0.24510639905929565,-0.17949031293392181
1759306292695326500,8.145326416015624,-9.791686058044434,-0.2462286800146103,-0.190189391374588
1759306292705364500,8.155364501953125,-9.800065994262695,-0.2438344806432724,-0.190189391374588
1759306292715404800,8.16540478515625,-9.818022727966309,-0.25094226002693176,-0.19490298628807068
1759306292725447000,8.175447021484375,-9.815628051757812,-0.24368484318256378,-0.21278467774391174
1759306292735484200,8.185484130859376,-9.843087196350098,-0.2124105840921402,-0.2637362778186798
1759306292745525000,8.19552490234375,-9.817947387695312,-0.18480244278907776,-0.2875286638736725
1759306292755563500,8.2055634765625,-9.76557445526123,-0.2364274114370346,-0.2511667311191559
1759306292765603300,8.215603271484374,-9.740509986877441,-0.26897358894348145,-0.20133739709854126
1759306292775646700,8.225646728515626,-9.747543334960938,-0.24271219968795776,-0.1975964605808258
1759306292785688600,8.2356884765625,-9.785700798034668,-0.24510639905929565,-0.17709611356258392
1759306292795727000,8.24572705078125,-9.824906349182129,-0.2834136188030243,-0.1760486364364624
1759306292805762600,8.255762451171876,-9.829769134521484,-0.30608370900154114,-0.16662147641181946
1759306292815804000,8.265803955078125,-9.803507804870605,-0.3134159743785858,-0.14769232273101807
1759306292825845500,8.275845458984374,-9.764153480529785,-0.3229927718639374,-0.15270517766475677
1759306292835888000,8.28588818359375,-9.69502067565918,-0.32546180486679077,-0.14829087257385254
1759306292845927400,8.295927490234375,-9.671003341674805,-0.3076549172401428,-0.13871406018733978
1759306292855962600,8.305962646484375,-9.718812942504883,-0.32194530963897705,-0.13617022335529327
1759306292866004500,8.31600439453125,-9.791536331176758,-0.31117141246795654,-0.11671733111143112
1759306292876042500,8.32604248046875,-9.835530281066895,-0.2777273952960968,-0.10788871347904205
1759306292886083000,8.3360830078125,-9.848548889160156,-0.24779987335205078,-0.11724106222391129
1759306292896122400,8.346122314453124,-9.824681282043457,-0.23822307586669922,-0.12921206653118134
1759306292906163700,8.356163818359375,-9.824531555175781,-0.22692543268203735,-0.16841712594032288
1759306292916202800,8.36620263671875,-9.861567497253418,-0.19789573550224304,-0.23006781935691833
1759306292926240800,8.37624072265625,-9.967809677124023,-0.18555063009262085,-0.2867804765701294
1759306292936282400,8.386282470703126,-10.024073600769043,-0.2619406282901764,-0.2679261267185211
1759306292946322000,8.396322021484375,-9.99676513671875,-0.3147627115249634,-0.21951836347579956
1759306292956362500,8.406362548828126,-10.019584655761719,-0.41187751293182373,-0.13774141669273376
1759306292966400800,8.41640087890625,-10.17640495300293,-0.5778256058692932,-0.09157821536064148
1759306292976440300,8.4264404296875,-10.25818157196045,-0.7603086829185486,-0.11267711967229843
1759306292986479600,8.436479736328126,-10.02691650390625,-0.6839935183525085,-0.23268647491931915
1759306292996520200,8.446520263671875,-9.682076454162598,-0.5811176300048828,-0.3743932843208313
1759306293006561500,8.4565615234375,-9.435922622680664,-0.7143699526786804,-0.5577741861343384
1759306293016599300,8.466599365234375,-9.427468299865723,-0.924984872341156,-0.704867959022522
1759306293026636000,8.476635986328125,-9.467122077941895,-1.0506056547164917,-0.6351368427276611
1759306293036681700,8.486681640625,-9.499967575073242,-1.0458920001983643,-0.3783586919307709
1759306293046720000,8.496719970703126,-9.535282135009766,-0.694617748260498,-0.1586906760931015
1759306293056758300,8.50675830078125,-9.734001159667969,-0.3166331648826599,0.009501988068223
1759306293066798600,8.516798583984375,-9.890447616577148,-0.1140986755490303,0.14402619004249573
1759306293076840000,8.52683984375,-9.928155899047852,-0.06703764945268631,0.3092261254787445
1759306293086878200,8.536878173828125,-9.807249069213867,-0.08491934090852737,0.5077952146530151
1759306293096920300,8.54692041015625,-9.696966171264648,-0.04900631681084633,0.7068132162094116
1759306293106957600,8.55695751953125,-9.513884544372559,-0.009501988068223,0.8804676532745361
1759306293116997400,8.566997314453126,-9.428964614868164,0.0677858367562294,0.9294739961624146
1759306293127038000,8.577037841796875,-9.342848777770996,0.15390227735042572,0.8783727288246155
1759306293137077000,8.587076904296875,-9.31277084350586,0.276081383228302,0.7919570207595825
1759306293147117600,8.59711767578125,-9.402105331420898,0.40215107798576355,0.6726958751678467
1759306293157157400,8.607157470703125,-9.494057655334473,0.3868880271911621,0.6419453024864197
1759306293167198000,8.617197998046874,-9.60411548614502,0.26740241050720215,0.6929717659950256
1759306293177236500,8.627236572265625,-9.648483276367188,0.21009120345115662,0.7095066905021667
1759306293187277000,8.637277099609374,-9.57553482055664,0.2530371844768524,0.6987327933311462
1759306293197318000,8.64731787109375,-9.47490406036377,0.41539400815963745,0.6862380504608154
1759306293207355100,8.657355224609375,-9.387964248657227,0.6908020377159119,0.7330746054649353
1759306293217395500,8.6673955078125,-9.520543098449707,0.9522937536239624,0.7783399820327759
1759306293227437000,8.67743701171875,-9.70429801940918,1.2461072206497192,0.8134300112724304
1759306293237476600,8.6874765625,-10.403779029846191,1.5231611728668213,0.7588871121406555
1759306293247515400,8.697515380859375,-10.928258895874023,1.766097903251648,0.56600421667099
1759306293257555700,8.7075556640625,-11.692757606506348,2.0614075660705566,0.20283377170562744
1759306293267596000,8.717595947265625,-11.782464981079102,2.4396915435791016,0.035164836794137955
1759306293277634600,8.727634521484376,-11.073930740356445,3.053056001663208,0.34259530901908875
1759306293287673600,8.737673583984375,-10.665719985961914,3.9094321727752686,0.6650643348693848
1759306293297688600,8.7476884765625,-11.170671463012695,4.728697776794434,0.29231706261634827
1759306293307754800,8.757754638671875,-11.789498329162598,5.481450080871582,-1.3751696348190308
1759306293317795000,8.767795166015626,-12.429348945617676,5.9584197998046875,-4.0312371253967285
1759306293327835100,8.777835205078125,-12.578910827636719,5.427206516265869,-5.01981782913208
1759306293337875200,8.787875244140626,-11.696049690246582,4.2177605628967285,-3.554716110229492
1759306293347914800,8.797914794921875,-11.846360206604004,3.3669209480285645,-2.12178635597229
1759306293357951700,8.80795166015625,-12.646472930908203,2.749441385269165,-1.5266777276992798
1759306293367993900,8.817993896484374,-12.482245445251465,2.1499183177948,-1.2880805730819702
1759306293378034000,8.828033935546875,-12.307917594909668,1.64885675907135,-0.9425672888755798
1759306293388073500,8.838073486328126,-11.948039054870605,1.0103530883789062,-0.6156091094017029
1759306293398088000,8.848087890625,-11.67502498626709,0.27645549178123474,-0.03950432687997818
1759306293408151300,8.8581513671875,-11.705925941467285,-0.4180126488208771,0.6278045773506165
1759306293418192600,8.868192626953125,-11.305121421813965,-0.8742577433586121,0.7863456010818481
1759306293428232200,8.878232177734375,-11.30534553527832,-1.1864017248153687,0.641047477722168
1759306293438271500,8.888271484375,-11.421463966369629,-1.5540614128112793,0.8622118830680847
1759306293448313000,8.89831298828125,-11.05215835571289,-1.778517723083496,1.0021978616714478
1759306293458351900,8.908351806640624,-10.982128143310547,-1.9438673257827759,1.108141303062439
1759306293468390100,8.91839013671875,-10.696096420288086,-2.090437412261963,1.1988965272903442
1759306293478432300,8.928432373046874,-10.30434513092041,-2.2300491333007812,1.0636988878250122
1759306293488471300,8.93847119140625,-10.340781211853027,-2.5773582458496094,0.8001871109008789
1759306293498510800,8.9485107421875,-10.418144226074219,-2.8972084522247314,0.3008463978767395
1759306293508552200,8.95855224609375,-10.16174030303955,-3.3372926712036133,-0.12936170399188995
1759306293518591000,8.968591064453125,-9.06990909576416,-3.7676503658294678,0.1586906760931015
1759306293528629500,8.97862939453125,-10.002001762390137,-3.7933881282806396,0.07451952993869781
1759306293538669300,8.98866943359375,-10.98160457611084,-3.8167316913604736,-0.48789340257644653
1759306293548710100,8.998710205078124,-10.5623197555542,-4.403685092926025,-0.9651625752449036
1759306293558748000,9.008747802734375,-9.88737964630127,-4.9835309982299805,-1.2574048042297363
1759306293568791300,9.018791259765624,-9.334393501281738,-5.243002414703369,-1.1041759252548218
1759306293578830000,9.028830078125,-9.056816101074219,-5.287295341491699,-0.6654384136199951
1759306293588869000,9.038869140625,-8.554707527160645,-5.2037224769592285,-0.3164087235927582
1759306293598909200,9.0489091796875,-7.863306522369385,-5.228412628173828,-0.12173019349575043
1759306293608949000,9.058948974609375,-7.703568458557129,-5.292083740234375,-0.09068039059638977
1759306293618988800,9.06898876953125,-7.705812931060791,-5.625551223754883,-0.02843114547431469
1759306293629028400,9.0790283203125,-7.242684364318848,-6.21235466003418,-0.04287117347121239
1759306293639068700,9.089068603515624,-6.438681602478027,-6.885350227355957,-0.12038345634937286
1759306293649108700,9.099108642578125,-5.883152008056641,-7.380875110626221,-0.04272153601050377
1759306293659146500,9.109146484375,-5.261782169342041,-7.647304534912109,0.30698156356811523
1759306293669187000,9.11918701171875,-4.957269668579102,-7.74823522567749,0.6020669341087341
1759306293679225600,9.1292255859375,-4.761319160461426,-7.717335224151611,0.8340800404548645
1759306293689267000,9.139266845703125,-4.257040023803711,-7.488688945770264,0.8236802220344543
1759306293699306000,9.149305908203125,-3.992480993270874,-7.167192459106445,0.6754641532897949
1759306293709344500,9.159344482421876,-3.7544076442718506,-6.888716697692871,0.5485714673995972
1759306293719385000,9.169385009765625,-3.452363967895508,-6.745064735412598,0.38224926590919495
1759306293729426700,9.1794267578125,-3.084480047225952,-6.581660270690918,0.30885201692581177
1759306293739465500,9.189465576171875,-2.92885684967041,-6.363937854766846,0.17589899897575378
1759306293749507000,9.199507080078124,-2.980855941772461,-6.129156112670898,0.038157589733600616
1759306293759545300,9.20954541015625,-2.972700595855713,-6.02927303314209,0.07332243025302887
1759306293769587000,9.2195869140625,-2.6105775833129883,-5.919139862060547,0.15472528338432312
1759306293779625200,9.229625244140625,-2.3190836906433105,-5.843423366546631,0.22191256284713745
1759306293789664500,9.23966455078125,-2.4110360145568848,-5.906869888305664,0.2803460657596588
1759306293799704800,9.249704833984374,-2.641627550125122,-6.051494598388672,0.37237319350242615
1759306293809744400,9.259744384765625,-2.7194390296936035,-6.144718647003174,0.41030630469322205
1759306293819785200,9.26978515625,-3.049015760421753,-6.2457990646362305,0.42781391739845276
1759306293829825300,9.2798251953125,-3.0620343685150146,-6.467187881469727,0.2927659749984741
1759306293839865900,9.289865966796874,-2.716296672821045,-6.798635005950928,-0.12270283699035645
1759306293849904000,9.299904052734375,-2.408417224884033,-7.075389862060547,-0.758438229560852
1759306293859944400,9.3099443359375,-2.179471731185913,-7.5383687019348145,-1.1445032358169556
1759306293869985300,9.3199853515625,-2.1262006759643555,-7.9777045249938965,-1.1644049882888794
1759306293880022800,9.330022705078125,-2.049661159515381,-8.465373039245605,-0.8303390741348267
1759306293890062300,9.340062255859374,-1.791162133216858,-8.911442756652832,-0.26411038637161255
1759306293900103000,9.35010302734375,-1.6953940391540527,-9.303568840026855,0.5550059080123901
1759306293910144000,9.36014404296875,-1.3232454061508179,-9.571495056152344,1.521589994430542
1759306293920183800,9.370183837890625,-1.2288988828659058,-9.57209300994873,2.611849546432495
1759306293930222800,9.380222900390624,-1.6231191158294678,-9.384821891784668,3.760467767715454
1759306293940262000,9.390261962890625,-1.8294693231582642,-9.215506553649902,4.614599227905273
1759306293950304000,9.400303955078124,-1.2936171293258667,-9.266084671020508,4.795511245727539
1759306293960342500,9.410342529296875,-0.24510639905929565,-9.572168350219727,4.076203346252441
1759306293970382600,9.420382568359376,0.35681086778640747,-10.057068824768066,2.9210009574890137
1759306293980419600,9.430419677734376,0.4801122546195984,-10.486678123474121,1.5977555513381958
1759306293990461400,9.44046142578125,0.6186766624450684,-10.825757026672363,0.5578489899635315
1759306294000500000,9.4505,0.862660825252533,-10.965593338012695,0.02356792241334915
1759306294010541800,9.460541748046875,0.7626280784606934,-10.891298294067383,-0.0017208324279636145
1759306294020582100,9.47058203125,0.8133552074432373,-10.658312797546387,0.45669397711753845
1759306294030622700,9.480622802734375,0.8706663846969604,-10.44118881225586,1.2155810594558716
1759306294040659500,9.490659423828125,0.5604676604270935,-10.15246295928955,1.8573768138885498
1759306294050700300,9.5007001953125,0.12614449858665466,-9.80448055267334,2.3772177696228027
1759306294060741400,9.510741455078126,-0.30518588423728943,-9.592443466186523,2.850820779800415
1759306294070781400,9.520781494140625,-0.45661914348602295,-9.340004920959473,3.047744035720825
1759306294080819700,9.53081982421875,-0.34162265062332153,-9.182287216186523,2.9838485717773438
1759306294090858000,9.54085791015625,-0.06756138056516647,-9.120487213134766,2.718092203140259
1759306294100899800,9.55089990234375,-0.08162731677293777,-9.117195129394531,2.286163330078125
1759306294110938000,9.560938232421876,-0.16385318338871002,-9.196428298950195,1.8970307111740112
1759306294120979200,9.570979248046875,-0.06150105595588684,-9.385794639587402,1.5146318674087524
1759306294131019000,9.58101904296875,0.05050269141793251,-9.51889705657959,1.1146504878997803
1759306294141057800,9.591057861328125,-0.19393034279346466,-9.60531234741211,0.7858219146728516
1759306294151096800,9.601096923828125,-0.5336077213287354,-9.753304481506348,0.6145616769790649
1759306294161137700,9.6111376953125,-0.8536825180053711,-9.850568771362305,0.5605424642562866
1759306294171178000,9.621177978515625,-1.0951228141784668,-9.969605445861816,0.5680243372917175
1759306294181216800,9.631216796875,-1.3351415395736694,-10.043301582336426,0.5578489899635315
1759306294191259100,9.641259033203125,-1.3267618417739868,-10.03611946105957,0.5614402890205383
1759306294201297200,9.651297119140626,-1.2620435953140259,-9.951574325561523,0.5808183550834656
1759306294211338000,9.661337890625,-1.2915221452713013,-9.848698616027832,0.5565770864486694
1759306294221376800,9.671376708984376,-0.9989806413650513,-9.811214447021484,0.6187515258789062
1759306294231416800,9.681416748046875,-0.9747393727302551,-9.66763687133789,0.5491700172424316
1759306294241455600,9.69145556640625,-0.9672574996948242,-9.64908218383789,0.6554875373840332
1759306294251495400,9.701495361328124,-0.9605985879898071,-9.477372169494629,0.7090578079223633
1759306294261535200,9.71153515625,-0.8782231211662292,-9.517400741577148,0.8122329115867615
1759306294271576600,9.72157666015625,-0.7222259044647217,-9.572242736816406,0.7455693483352661
1759306294281616400,9.731616455078125,-0.7962965369224548,-9.585111618041992,0.7183353304862976
1759306294291655200,9.7416552734375,-0.9139117002487183,-9.519869804382324,0.8446294665336609
1759306294301696300,9.7516962890625,-0.7193079590797424,-9.630077362060547,1.106719732284546
1759306294311733500,9.7617333984375,-0.3490297198295593,-9.541267395019531,1.1545289754867554
1759306294321777000,9.77177685546875,-0.16415245831012726,-9.560196876525879,1.0425251722335815
1759306294331808300,9.781808349609374,-0.26485857367515564,-9.630002975463867,0.9279776215553284
1759306294341828600,9.79182861328125,-0.19946692883968353,-9.654767990112305,0.8523358106613159
1759306294351868700,9.80186865234375,-0.008604162372648716,-9.590049743652344,0.7432500123977661
1759306294361914000,9.8119140625,0.041299980133771896,-9.673771858215332,0.7627776861190796
1759306294371973000,9.82197314453125,0.1413327157497406,-9.812037467956543,0.9272294044494629
1759306294382015500,9.832015380859374,0.19886837899684906,-9.88737964630127,1.179443597793579
1759306294392055000,9.842054931640625,0.2579004168510437,-9.869422912597656,1.3952958583831787
1759306294402094000,9.852093994140626,0.3505260944366455,-9.784130096435547,1.4968249797821045
1759306294412134400,9.862134521484375,0.30301615595817566,-9.771261215209961,1.568725824356079
1759306294422172200,9.872172119140625,0.2935141623020172,-9.794304847717285,1.6354641914367676
1759306294432213200,9.882213134765625,0.33174657821655273,-9.805228233337402,1.662623405456543
1759306294442250500,9.89225048828125,0.2827402651309967,-9.818246841430664,1.6472855806350708
1759306294452292400,9.902292236328124,0.13332711160182953,-9.851092338562012,1.573738694190979
1759306294462332700,9.912332763671875,0.19445407390594482,-9.698986053466797,1.4563480615615845
1759306294472370700,9.92237060546875,0.18944120407104492,-9.708113670349121,1.371578335762024
1759306294482411300,9.932411376953125,0.16415245831012726,-9.684844970703125,1.2704232931137085
1759306294492451300,9.942451416015626,0.16894085705280304,-9.671602249145508,1.2478280067443848
1759306294502492000,9.952491943359375,0.19984102249145508,-9.664270401000977,1.1988216638565063
1759306294512532500,9.962532470703126,0.15689502656459808,-9.676166534423828,1.20368492603302
1759306294522570800,9.97257080078125,0.05065232887864113,-9.699958801269531,1.215955138206482
1759306294532609000,9.982609130859375,-0.05933130905032158,-9.7366943359375,1.1959785223007202
1759306294542648600,9.992648681640626,-0.21592706441879272,-9.797073364257812,1.141360878944397
1759306294552689700,10.002689697265625,-0.29890111088752747,-9.943568229675293,1.078737497329712
1759306294562730200,10.012730224609374,-0.09374795854091644,-9.761309623718262,0.888099193572998
1759306294572768300,10.022768310546875,0.01885433867573738,-9.649380683898926,0.9205705523490906
1759306294582809000,10.03280908203125,-0.07549217343330383,-9.764527320861816,1.057414174079895
1759306294592850000,10.042849853515625,-0.2727893590927124,-9.645565032958984,1.1976245641708374
1759306294602889000,10.052888916015625,-0.284984827041626,-9.700407028198242,1.1925369501113892
1759306294612929300,10.06292919921875,-0.1578676700592041,-9.739013671875,0.993593692779541
1759306294622968800,10.07296875,0.021697452291846275,-9.806500434875488,0.81806880235672
1759306294633008400,10.08300830078125,0.04174889251589775,-9.844508171081543,0.7628524899482727
1759306294643047700,10.093047607421875,0.07661445438861847,-9.824756622314453,0.8642320036888123
1759306294653089300,10.10308935546875,0.09382277727127075,-9.774104118347168,1.0088567733764648
1759306294663129900,10.1131298828125,0.10100538283586502,-9.78757095336914,1.0732009410858154
1759306294673167600,10.123167724609376,0.10706570744514465,-9.779191970825195,1.0720038414001465
1759306294683207400,10.13320751953125,0.22011691331863403,-9.805228233337402,0.9901520609855652
1759306294693247000,10.1432470703125,0.21517887711524963,-9.79647445678711,0.8995464444160461
1759306294703287000,10.153287109375,0.23537994921207428,-9.821614265441895,0.91480952501297
1759306294713326800,10.163326904296875,0.19041384756565094,-9.7814359664917,1.0191068649291992
1759306294723366000,10.173365966796876,0.04900631681084633,-9.716418266296387,1.1884218454360962
1759306294733406200,10.18340625,-0.04189852997660637,-9.863811492919922,1.3263128995895386
1759306294743447800,10.19344775390625,0.17971476912498474,-9.549497604370117,1.1985224485397339
1759306294753487400,10.2034873046875,0.30443769693374634,-9.676091194152832,1.1684452295303345
1759306294763526700,10.213526611328126,0.21113866567611694,-9.733028411865234,1.1278934478759766
1759306294773567200,10.223567138671875,0.17051205039024353,-9.747393608093262,1.1471219062805176
1759306294783607000,10.23360693359375,0.16228199005126953,-9.718812942504883,1.1581202745437622
1759306294793644800,10.243644775390624,0.18375498056411743,-9.725920677185059,1.1412111520767212
1759306294803684400,10.253684326171875,0.1314566433429718,-9.718588829040527,1.0973674058914185
1759306294813725200,10.26372509765625,0.0991349145770073,-9.729063034057617,1.0580127239227295
1759306294823762700,10.2737626953125,0.08723872154951096,-9.711031913757324,1.036764144897461
1759306294833805000,10.28380517578125,0.0967407152056694,-9.6965913772583,1.0021978616714478
1759306294843844600,10.2938447265625,0.06097732484340668,-9.679757118225098,0.9869348406791687
1759306294853883600,10.303883544921876,0.018031330779194832,-9.704971313476562,1.0263643264770508
1759306294863923500,10.31392333984375,-0.059480950236320496,-9.702502250671387,1.0410288572311401
1759306294873964800,10.32396484375,-0.07743746042251587,-9.702427864074707,1.0220248699188232
1759306294884003600,10.334003662109374,-0.05514145642518997,-9.721356391906738,1.0063128471374512
1759306294894042400,10.34404248046875,-0.07556699216365814,-9.76789379119873,1.0156652927398682
1759306294904083500,10.35408349609375,-0.09464578330516815,-9.761982917785645,1.0324994325637817
1759306294914122500,10.36412255859375,-0.09352350234985352,-9.761834144592285,0.9919477105140686
1759306294924161000,10.3741611328125,-0.09965864568948746,-9.796250343322754,0.9582792520523071
1759306294934202000,10.3842021484375,-0.08297405391931534,-9.795053482055664,0.943913996219635
1759306294944242200,10.3942421875,-0.08649053424596786,-9.757943153381348,0.9227402806282043
1759306294954280700,10.40428076171875,-0.10564415156841278,-9.766173362731934,0.9131634831428528
1759306294964321500,10.414321533203125,-0.06411971151828766,-9.773205757141113,0.8747814297676086
1759306294974361900,10.42436181640625,-0.027308862656354904,-9.801712036132812,0.8445546627044678
1759306294984400100,10.434400146484375,-0.032022446393966675,-9.804330825805664,0.880392849445343
1759306294994439400,10.444439453125,0.019602525979280472,-9.771410942077637,0.974664568901062
1759306295004481300,10.454481201171875,0.009202713146805763,-9.730035781860352,1.0716297626495361
1759306295014520300,10.464520263671876,-0.08245032280683517,-9.723077774047852,1.143680214881897
1759306295024559900,10.474559814453125,-0.0561889223754406,-9.71237850189209,1.1353005170822144
1759306295034598400,10.484598388671875,0.006808510981500149,-9.715520858764648,1.0371382236480713
1759306295044640300,10.49464013671875,0.03808277100324631,-9.732205390930176,0.978330671787262
1759306295054680000,10.50468017578125,0.050053779035806656,-9.7466459274292,1.0032453536987305
1759306295064721000,10.514720947265625,0.03935468941926956,-9.760112762451172,1.0664671659469604
1759306295074758100,10.524758056640625,0.05626374110579491,-9.747243881225586,1.1237784624099731
1759306295084799200,10.53479931640625,0.06935703009366989,-9.768941879272461,1.162908673286438
1759306295094840600,10.544840576171875,0.09329904615879059,-9.746196746826172,1.143904685974121
1759306295104878000,10.554878173828126,0.11357494443655014,-9.732954025268555,1.1164461374282837
1759306295114918700,10.564918701171875,0.1099088191986084,-9.735273361206055,1.1008838415145874
1759306295124957200,10.574957275390625,0.12083236873149872,-9.760412216186523,1.0851719379425049
1759306295134999000,10.5849990234375,0.13025954365730286,-9.774627685546875,1.063549280166626
1759306295145038000,10.5950380859375,0.07182604819536209,-9.78061294555664,1.0745476484298706
1759306295155076000,10.605076171875,-0.023493103682994843,-9.766247749328613,1.1013327836990356
1759306295165118000,10.615117919921875,0.05992986261844635,-9.766247749328613,1.0818051099777222
1759306295175158000,10.625157958984374,0.1231517493724823,-9.755474090576172,1.0494085550308228
1759306295185198300,10.6351982421875,0.13751696050167084,-9.750685691833496,1.0505307912826538
1759306295195236600,10.645236572265626,0.13766659796237946,-9.73430061340332,1.106719732284546
1759306295205276700,10.655276611328125,0.05147533491253853,-9.711405754089355,1.1323826313018799
1759306295215317000,10.66531689453125,0.02985270321369171,-9.71469783782959,1.0835258960723877
1759306295225355000,10.67535498046875,0.041524436324834824,-9.739388465881348,1.0010007619857788
1759306295235394600,10.68539453125,0.036661215126514435,-9.754800796508789,0.9770587682723999
1759306295245435400,10.695435302734374,-0.005087678786367178,-9.767969131469727,0.9879074692726135
1759306295255475700,10.705475830078125,0.005686229094862938,-9.770512580871582,1.0200047492980957
1759306295265515800,10.715515869140624,0.022370822727680206,-9.786149978637695,1.0389338731765747
1759306295275554600,10.725554443359375,0.02835632674396038,-9.774178504943848,1.03062903881073
1759306295285595100,10.73559521484375,0.05970540642738342,-9.750386238098145,1.015141487121582
1759306295295637500,10.745637451171875,0.04189852997660637,-9.724050521850586,1.0046669244766235
1759306295305679600,10.7556796875,0.012120646424591541,-9.721731185913086,1.026289463043213
1759306295315718100,10.76571826171875,0.00022445640934165567,-9.728913307189941,1.0441712141036987
1759306295325753900,10.77575390625,0.02760813757777214,-9.738639831542969,1.059509038925171
1759306295335775500,10.785775390625,0.03239654004573822,-9.74821662902832,1.0689362287521362
1759306295345834200,10.795834228515625,0.00022445640934165567,-9.74589729309082,1.092953085899353
1759306295355873500,10.80587353515625,0.01818096823990345,-9.741108894348145,1.0905588865280151
1759306295365917200,10.815917236328126,0.03075052797794342,-9.763628959655762,1.086817979812622
1759306295375954200,10.8259541015625,0.05342062562704086,-9.75637149810791,1.053299069404602
1759306295385991000,10.835990966796874,0.06890811771154404,-9.738340377807617,1.0330979824066162
1759306295396034000,10.846033935546876,0.11544541269540787,-9.717989921569824,1.0091559886932373
1759306295406073600,10.856073486328125,0.1165676936507225,-9.735871315002441,1.0030208826065063
1759306295416111000,10.866111083984375,0.04975450411438942,-9.755024909973145,1.0295066833496094
1759306295426151000,10.87615087890625,0.03419219329953194,-9.772981643676758,1.0342203378677368
1759306295436192300,10.886192138671875,0.08910919725894928,-9.78023910522461,1.0482114553451538
1759306295446231000,10.89623095703125,0.05596446618437767,-9.761235237121582,1.06878662109375
1759306295456272100,10.906272216796875,0.043020810931921005,-9.730484962463379,1.1251251697540283
1759306295466311000,10.916310791015626,0.02992752194404602,-9.726818084716797,1.1180921792984009
1759306295476349000,10.926348876953124,0.03576338663697243,-9.737367630004883,1.070208191871643
1759306295486390500,10.936390625,0.05581482872366905,-9.759888648986816,1.0234464406967163
1759306295496429600,10.9464296875,0.03299509361386299,-9.791911125183105,0.9995043873786926
1759306295506467600,10.956467529296875,0.0545429065823555,-9.78487777709961,1.0173112154006958
1759306295516510500,10.966510498046874,0.04040215536952019,-9.763628959655762,1.0640729665756226
1759306295526551000,10.976551025390625,-0.05117605999112129,-9.739836692810059,1.1004348993301392
1759306295536588800,10.9865888671875,0.010923544876277447,-9.724349021911621,1.0871171951293945
1759306295546628000,10.996628173828125,0.06673837453126907,-9.745597839355469,1.0223240852355957
1759306295556669200,11.006669189453126,0.09045593440532684,-9.774104118347168,0.9897779226303101
1759306295566709200,11.016709228515625,0.10467150807380676,-9.799093246459961,0.9656863212585449
1759306295576747500,11.02674755859375,0.10474632680416107,-9.808895111083984,1.021650791168213
1759306295586786600,11.03678662109375,0.07399579882621765,-9.77941608428955,1.0948235988616943
1759306295596827000,11.046826904296875,0.04661211371421814,-9.765125274658203,1.1153239011764526
1759306295606866400,11.056866455078126,0.0322469025850296,-9.780688285827637,1.1272200345993042
1759306295616906500,11.066906494140625,0.06082768738269806,-9.784204483032227,1.1103858947753906
1759306295626946300,11.0769462890625,0.13833996653556824,-9.778069496154785,1.0575637817382812
1759306295636984800,11.08698486328125,0.2124105840921402,-9.736320495605469,1.0372130870819092
1759306295647028200,11.0970283203125,0.14350245893001556,-9.67077922821045,1.0916811227798462
1759306295657065000,11.10706494140625,0.07122749835252762,-9.599552154541016,1.1890952587127686
1759306295667101400,11.117101318359374,-0.03000234067440033,-9.585335731506348,1.252915620803833
1759306295677145000,11.12714501953125,-0.021772271022200584,-9.59483814239502,1.2253823280334473
1759306295687185000,11.137184814453125,-0.01818096823990345,-9.60404109954834,1.1537059545516968
1759306295697225500,11.1472255859375,-0.08387187868356705,-9.566556930541992,1.0731260776519775
1759306295707265300,11.157265380859375,-0.043095629662275314,-9.478046417236328,1.03294837474823
1759306295717304600,11.1673046875,0.1793406754732132,-9.35317325592041,1.0697592496871948
1759306295727345000,11.177344970703125,0.175225630402565,-9.257105827331543,1.2052561044692993
1759306295737384200,11.18738427734375,-0.09367313981056213,-9.151237487792969,1.3634978532791138
1759306295747423500,11.197423583984374,-0.17545008659362793,-9.02239990234375,1.41489839553833
1759306295757463600,11.207463623046875,-0.013317747041583061,-9.019930839538574,1.3509283065795898
1759306295767505000,11.2175048828125,-0.08551789075136185,-9.108964920043945,1.2767080068588257
1759306295777543200,11.227543212890625,-0.39960724115371704,-9.199345588684082,1.2894272804260254
1759306295787582000,11.23758203125,-0.497395396232605,-9.189619064331055,1.2840403318405151
1759306295797611300,11.247611328125,-0.275407999753952,-9.172111511230469,1.2962357997894287
1759306295807664000,11.2576640625,0.05140051618218422,-9.231293678283691,1.3444191217422485
1759306295817703200,11.267703125,0.04900631681084633,-9.227777481079102,1.356390118598938
1759306295827742700,11.27774267578125,-0.4200327694416046,-9.304915428161621,1.3914800882339478
1759306295837781200,11.28778125,-0.7892635464668274,-9.439064979553223,1.3528735637664795
1759306295847822800,11.29782275390625,-0.9888052940368652,-9.689558982849121,1.123030185699463
1759306295857862400,11.3078623046875,-0.750582218170166,-9.972823143005371,0.8598924875259399
1759306295867900200,11.317900146484375,-0.32785600423812866,-10.12934398651123,0.7566425800323486
1759306295877940000,11.32793994140625,-0.23927053809165955,-10.235960006713867,1.0526257753372192
1759306295887982600,11.337982666015625,-0.5125836133956909,-10.184036254882812,1.4969745874404907
1759306295898003500,11.34800341796875,-0.7980921864509583,-9.81375789642334,1.817049503326416
1759306295908059600,11.3580595703125,-0.7018752098083496,-9.429713249206543,2.1174468994140625
1759306295918101800,11.368101806640626,-0.7291092276573181,-9.172860145568848,2.3436989784240723
1759306295928140300,11.378140380859374,-1.087715744972229,-8.911518096923828,2.432957887649536
1759306295938179800,11.388179931640625,-1.5503952503204346,-8.829442024230957,2.3879168033599854
1759306295948219100,11.39821923828125,-1.5135843753814697,-8.80505084991455,2.273369312286377
1759306295958260000,11.408260009765625,-1.390731930732727,-8.688333511352539,2.0492122173309326
1759306295968297000,11.418296875,-1.2950387001037598,-8.548273086547852,1.9434932470321655
1759306295978337500,11.428337646484374,-1.589226245880127,-8.327407836914062,1.788842797279358
1759306295988377600,11.438377685546875,-2.1103391647338867,-8.073397636413574,1.509020447731018
1759306295998418200,11.448418212890624,-2.2123920917510986,-8.082600593566895,1.2265794277191162
1759306296008458000,11.4584580078125,-2.250474691390991,-7.91979455947876,0.6956652402877808
1759306296018499300,11.468499267578125,-2.2230911254882812,-7.7462897300720215,0.35905542969703674
1759306296028536600,11.47853662109375,-2.076446294784546,-7.677755832672119,0.21921908855438232
1759306296038577200,11.4885771484375,-2.3220014572143555,-7.650073051452637,0.2527379095554352
1759306296048619300,11.498619384765625,-2.5026888847351074,-7.576675891876221,0.4354454278945923
1759306296058657800,11.50865771484375,-2.6652703285217285,-7.496694564819336,0.7410054206848145
1759306296068697300,11.518697265625,-3.37709641456604,-7.585653781890869,1.0707318782806396
1759306296078739000,11.528739013671874,-3.936441659927368,-7.568445682525635,1.1354501247406006
1759306296088778500,11.538778564453125,-4.1885809898376465,-7.617900848388672,0.7675660848617554
1759306296098816800,11.548816650390625,-4.2369890213012695,-7.677381992340088,-0.009501988068223
1759306296108856300,11.558856201171874,-4.185214042663574,-7.935431957244873,-0.48639702796936035
1759306296118893800,11.568893798828125,-4.96160888671875,-8.233285903930664,-0.39646482467651367
1759306296128935700,11.578935791015626,-5.201029300689697,-8.444424629211426,0.13183073699474335
1759306296138975500,11.5889755859375,-4.886939525604248,-8.293066024780273,0.5824643969535828
1759306296149016000,11.59901611328125,-4.555043697357178,-7.933262348175049,0.6597521901130676
1759306296159055000,11.60905517578125,-4.798653602600098,-7.25645112991333,0.5269488096237183
1759306296169093400,11.61909326171875,-5.348048210144043,-6.641889572143555,0.5468506217002869
1759306296179134500,11.629134521484374,-5.837737083435059,-6.091746807098389,0.5027075409889221
1759306296189175000,11.639175048828125,-5.8896613121032715,-6.0481276512146,0.13444939255714417
1759306296199213600,11.649213623046874,-6.047229766845703,-6.36954927444458,-0.5065233111381531
1759306296209256000,11.659255859375,-6.090325355529785,-6.714164733886719,-1.0934020280838013
1759306296219294200,11.669294189453124,-6.500856399536133,-6.968099594116211,-1.292494773864746
1759306296229335000,11.6793349609375,-7.181931495666504,-6.664559841156006,-1.1536310911178589
1759306296239372500,11.68937255859375,-8.047659873962402,-6.055758953094482,-0.8710405230522156
1759306296249412900,11.699412841796875,-8.432602882385254,-5.6833109855651855,-0.7307552695274353
1759306296259452200,11.7094521484375,-7.871461868286133,-5.087080001831055,-0.9894786477088928
1759306296269491700,11.71949169921875,-8.232612609863281,-4.299238204956055,-1.5743372440338135
1759306296279531800,11.72953173828125,-8.72529411315918,-3.3523313999176025,-1.4368202686309814
1759306296289572900,11.73957275390625,-9.226205825805664,-3.038391590118408,-0.776095449924469
1759306296299613000,11.749613037109375,-9.414599418640137,-3.0568718910217285,-0.10347440838813782
1759306296309650700,11.759650634765626,-8.995314598083496,-3.252448081970215,0.4552724063396454
1759306296319690000,11.76968994140625,-8.743549346923828,-3.593247890472412,0.48879122734069824
1759306296329732400,11.779732421875,-8.628029823303223,-3.7923407554626465,0.6301239728927612
1759306296339771600,11.789771728515625,-9.301697731018066,-3.6298341751098633,0.5568015575408936
1759306296349809400,11.799809326171875,-9.724723815917969,-3.118896722793579,-0.04638765752315521
1759306296359850200,11.809850341796874,-10.334346771240234,-2.743680238723755,-0.6723217368125916
1759306296369888500,11.819888427734375,-10.692878723144531,-2.5662848949432373,-0.7004536390304565
1759306296379930000,11.82993017578125,-10.995072364807129,-2.529324531555176,-0.35516485571861267
1759306296389970200,11.83997021484375,-10.908432006835938,-2.503511905670166,-0.02843114547431469
1759306296400010800,11.8500107421875,-10.752135276794434,-2.5807249546051025,0.08723872154951096
1759306296410049800,11.8600498046875,-10.739640235900879,-2.553715467453003,-0.041449617594480515
1759306296420089900,11.87008984375,-10.802338600158691,-2.486079216003418,0.07384616136550903
1759306296430128000,11.880128173828124,-11.527931213378906,-2.1419126987457275,-0.0314238965511322
1759306296440169000,11.8901689453125,-11.55965518951416,-1.7974469661712646,-0.3917512595653534
1759306296450210000,11.9002099609375,-10.711284637451172,-1.3562403917312622,-0.5251531600952148
1759306296460248800,11.910248779296875,-10.639906883239746,-1.2069768905639648,-0.29897594451904297
1759306296470288000,11.920287841796876,-10.812514305114746,-1.083974838256836,0.256329208612442
1759306296480327700,11.93032763671875,-10.696246147155762,-0.7305307984352112,0.45983636379241943
1759306296490368000,11.940367919921876,-10.670133590698242,-0.3719242811203003,0.37147536873817444
1759306296500409000,11.9504091796875,-10.92189884185791,-0.1884685605764389,0.04571428894996643
1759306296510445600,11.960445556640625,-10.980781555175781,-0.10310030728578568,-0.31618425250053406
1759306296520487700,11.97048779296875,-11.067496299743652,-0.11088146269321442,-0.666710376739502
1759306296530525400,11.980525390625,-11.197681427001953,-0.08985738456249237,-0.7781155705451965
1759306296540566800,11.99056689453125,-11.451167106628418,0.10534487664699554,-0.8114098906517029
1759306296550605300,12.000605224609375,-11.56204891204834,0.14859014749526978,-0.8356512188911438
1759306296560646000,12.01064599609375,-11.341033935546875,0.25101709365844727,-0.8551040887832642
1759306296570685200,12.020685302734375,-10.979509353637695,0.4679167866706848,-0.9210194945335388
1759306296580727000,12.03072705078125,-10.942025184631348,0.684592068195343,-1.0473884344100952
1759306296590764800,12.040764892578125,-11.116203308105469,0.6981342434883118,-1.0715548992156982
1759306296600804900,12.050804931640625,-11.087922096252441,0.6483049392700195,-1.1531822681427002
1759306296610845400,12.060845458984375,-11.049914360046387,0.6162076592445374,-1.19059157371521
1759306296620884200,12.07088427734375,-10.42547607421875,0.7273883819580078,-1.1581202745437622
1759306296630924500,12.080924560546874,-10.747496604919434,0.7082347869873047,-1.0529249906539917
1759306296640962800,12.090962890625,-10.773458480834961,0.6572083830833435,-0.8658031821250916
1759306296651004400,12.10100439453125,-10.658536911010742,0.5902455449104309,-0.6388777494430542
1759306296661044500,12.11104443359375,-10.524685859680176,0.5485714673995972,-0.4620061218738556
1759306296671081700,12.121081787109375,-10.39188289642334,0.5439326763153076,-0.27406126260757446
1759306296681121800,12.131121826171874,-10.117971420288086,0.6394014954566956,-0.09928455203771591
1759306296691163000,12.141162841796875,-10.178574562072754,0.6123918890953064,0.0702548548579216
1759306296701207800,12.151207763671875,-10.023176193237305,0.6188263297080994,0.18652327358722687
1759306296711242500,12.161242431640625,-9.961225509643555,0.5972036719322205,0.1884685605764389
1759306296721281000,12.171281005859376,-9.901968955993652,0.5281459093093872,0.13759177923202515
1759306296731322000,12.181322021484375,-9.83799934387207,0.4554968774318695,0.08791209012269974
1759306296741363200,12.19136328125,-9.833660125732422,0.3818003535270691,0.016983868554234505
1759306296751401000,12.20140087890625,-9.841141700744629,0.33683425188064575,-0.06322188675403595
1759306296761440000,12.21143994140625,-10.020407676696777,0.30286651849746704,-0.15569792687892914
1759306296771482000,12.221482177734375,-9.498920440673828,0.3655646741390228,-0.1827823370695114
1759306296781520400,12.231520263671875,-9.582043647766113,0.15322890877723694,-0.20769700407981873
1759306296791562500,12.2415625,-9.685443878173828,-0.054168812930583954,-0.24435821175575256
1759306296801601000,12.25160107421875,-9.515006065368652,-0.06247369945049286,-0.30967503786087036
1759306296811640600,12.261640625,-9.288604736328125,-0.1379658728837967,-0.31715691089630127
1759306296821679000,12.27167919921875,-9.372925758361816,-0.36825814843177795,-0.32433950901031494
1759306296831720700,12.281720703125,-9.659780502319336,-0.460659384727478,-0.38801032304763794
1759306296841758500,12.291758544921874,-9.593266487121582,-0.5106383562088013,-0.4412064850330353
1759306296851800800,12.30180078125,-9.712528228759766,-0.47554832696914673,-0.5119850635528564
1759306296861839000,12.311839111328124,-9.651849746704102,-0.5438578724861145,-0.4721814692020416
1759306296871879200,12.321879150390625,-9.763105392456055,-0.5972036719322205,-0.5161749124526978
1759306296881919500,12.33191943359375,-9.737966537475586,-0.985887348651886,-0.39481881260871887
1759306296891958300,12.341958251953125,-9.408539772033691,-2.2293009757995605,0.08574234694242477
1759306296901999400,12.351999267578124,-8.9796781539917,-2.099116325378418,0.6944681406021118
1759306296912037000,12.362037109375,-8.49522590637207,0.2716670632362366,0.6711246371269226
1759306296922076200,12.372076171875,-9.028684616088867,1.2291233539581299,0.11200375109910965
1759306296932118300,12.3821181640625,-10.606613159179688,0.5430348515510559,-0.7563433051109314
1759306296942158600,12.39215869140625,-11.15077018737793,-0.11110592633485794,-1.3870657682418823
1759306296952198000,12.402197998046875,-10.683526992797852,-0.20260931551456451,-0.8708160519599915
1759306296962235400,12.4122353515625,-9.988834381103516,-0.06374561786651611,-0.4040963649749756
1759306296972275000,12.42227490234375,-9.50034236907959,0.03284545615315437,-0.7350947260856628
1759306296982315300,12.432315185546875,-9.319729804992676,0.3710264563560486,-1.0940005779266357
1759306296992355600,12.44235546875,-9.585784912109375,0.6442646980285645,-0.9751882553100586
1759306297002396700,12.452396728515625,-10.089614868164062,0.6816741228103638,-0.6659621596336365
1759306297012435000,12.46243505859375,-10.429292678833008,0.646434485912323,-0.441430926322937
1759306297022473200,12.47247314453125,-10.487576484680176,0.6052092909812927,-0.28393736481666565
1759306297032515600,12.482515625,-10.385822296142578,0.6872855424880981,-0.25760114192962646
1759306297042553600,12.4925537109375,-10.203264236450195,0.7808090448379517,-0.3866635859012604
1759306297052596000,12.502595947265625,-10.006715774536133,0.7861211895942688,-0.5582230687141418
1759306297062633200,12.51263330078125,-9.936759948730469,0.7268646955490112,-0.6770353317260742
1759306297072674000,12.522674072265625,-9.95793342590332,0.4821323752403259,-0.6786065697669983
1759306297082714000,12.532714111328126,-9.879598617553711,0.37820905447006226,-0.684442400932312
1759306297092753700,12.542753662109375,-9.808296203613281,0.33174657821655273,-0.732850193977356
1759306297102792200,12.552792236328125,-9.808445930480957,0.3272574543952942,-0.8008604645729065
1759306297112833800,12.562833740234375,-9.720309257507324,0.2890998423099518,-0.8242039084434509
1759306297122873000,12.572873046875,-9.77672290802002,0.1322048306465149,-0.7128735780715942
1759306297132912400,12.582912353515624,-9.892916679382324,0.048557404428720474,-0.6495768427848816
1759306297142951000,12.592950927734375,-9.758990287780762,0.11028291285037994,-0.6116437315940857
1759306297152990500,12.602990478515625,-9.775674819946289,0.07070376724004745,-0.5568763613700867
1759306297163031000,12.613031005859375,-9.74589729309082,0.03696049004793167,-0.5095160603523254
1759306297173070000,12.623070068359375,-9.713650703430176,0.029628245159983635,-0.47988781332969666
1759306297183110700,12.633110595703124,-9.638607025146484,0.012868833728134632,-0.491110622882843
1759306297193152000,12.643152099609376,-9.618330955505371,0.01885433867573738,-0.5042787194252014
1759306297203190800,12.653190673828124,-9.613767623901367,-0.035987842828035355,-0.5238064527511597
1759306297213231600,12.663231689453125,-9.592967987060547,-0.023867197334766388,-0.6300491690635681
1759306297223270100,12.673270263671874,-9.602544784545898,-0.008005611598491669,-0.6943184733390808
1759306297233310000,12.68331005859375,-9.666963577270508,0.007706336677074432,-0.7094318866729736
1759306297243348500,12.693348388671875,-9.699060440063477,0.05925649031996727,-0.7447463870048523
1759306297253390000,12.70339013671875,-9.835230827331543,0.03090016543865204,-0.7777414321899414
1759306297263428900,12.713428955078125,-9.84847354888916,0.014215572737157345,-0.7777414321899414
1759306297273467400,12.72346728515625,-9.859248161315918,-0.016834231093525887,-0.7659949064254761
1759306297283510800,12.7335107421875,-9.858050346374512,-0.03853168338537216,-0.7220014333724976
1759306297293549300,12.74354931640625,-9.846229553222656,-0.04586392641067505,-0.6910264492034912
1759306297303587000,12.753587158203125,-9.819968223571777,-0.060378775000572205,-0.6530933380126953
1759306297313628700,12.763628662109374,-9.774702072143555,-0.1107318252325058,-0.6190508008003235
1759306297323667000,12.7736669921875,-9.688810348510742,-0.12180501222610474,-0.5825392007827759
1759306297333708000,12.7837080078125,-9.645790100097656,-0.13160628080368042,-0.5481973886489868
1759306297343747600,12.79374755859375,-9.644442558288574,-0.11619359999895096,-0.5158756375312805
1759306297353787100,12.803787109375,-9.690979957580566,-0.11746551841497421,-0.4869955778121948
1759306297363827500,12.813827392578125,-9.781585693359375,-0.128164604306221,-0.46754270792007446
1759306297373868500,12.82386865234375,-9.884461402893066,-0.16639702022075653,-0.4315548539161682
1759306297383905500,12.833905517578126,-9.961898803710938,-0.16879121959209442,-0.40372225642204285
1759306297393947100,12.843947021484375,-9.957185745239258,-0.1662473827600479,-0.43836337327957153
1759306297403987000,12.853987060546874,-9.858050346374512,-0.12928688526153564,-0.4480898082256317
1759306297414027300,12.86402734375,-9.720758438110352,-0.08529343456029892,-0.45923781394958496
1759306297424065300,12.874065185546876,-9.653870582580566,-0.08798690885305405,-0.4189853072166443
1759306297434107400,12.884107421875,-9.6942720413208,-0.0702548548579216,-0.36736032366752625
1759306297444143600,12.8941435546875,-9.801487922668457,-0.062024787068367004,-0.3107225000858307
1759306297454185000,12.90418505859375,-9.894487380981445,-0.04638765752315521,-0.2994248569011688
1759306297464225300,12.914225341796875,-9.938779830932617,-0.06763619929552078,-0.33279404044151306
