time,seconds_elapsed,z,y,x
1758273962798960400,0.04296044921875,11.47899985961914,-2.0222025772094727,1.1745055519104004
1758273962808917200,0.052917236328125,12.581080811309814,-1.6065093139648436,2.127697087860107
1758273962818875400,0.06287548828125,12.446556605529784,-1.863586717224121,2.747795317840576
1758273962828833300,0.072833251953125,10.682628532409668,-2.5381530349731443,2.3157915557861326
1758273962838791400,0.08279150390625,9.094375006103515,-2.5788544631958006,1.5825672973632812
1758273962848748500,0.09274853515625,8.019677735900878,-1.6998831787109374,1.1870751106262207
1758273962858706400,0.10270654296875,7.357680976867675,-1.1752537399291991,0.8192658805847167
1758273962868664600,0.11266455078125,7.350648009490967,-1.216852993774414,0.8450035484313965
1758273962878622200,0.122622314453125,7.527519657135009,-1.3497311859130858,1.3717279136657714
1758273962888580400,0.132580322265625,7.8912886718749995,-1.228375089263916,1.657386099243164
1758273962898537500,0.142537353515625,8.004115425109863,-1.1942577156066894,1.720533168029785
1758273962908495400,0.152495361328125,7.433547241973876,-0.6193500419616699,1.46839380569458
1758273962918453500,0.16245361328125,6.6814686454772945,-0.5214870491027832,0.788440534210205
1758273962928411400,0.172411376953125,6.516119093322754,-1.5828665725708007,0.9062053283691406
1758273962938368300,0.1823681640625,6.8387377670288085,-2.524984925842285,1.7470190238952636
1758273962948326400,0.192326416015625,8.179191421508788,-2.799569928741455,3.842693664550781
1758273962958284300,0.2022841796875,9.074922117614745,-3.011456775665283,7.110330017852783
1758273962968242400,0.212242431640625,9.344120166778564,-1.978508396911621,9.90900212097168
1758273962978199600,0.222199462890625,9.016713089752196,-0.009726444244384765,6.800131265258789
1758273962988157400,0.232157470703125,8.678681742858886,-1.3431471313476562,2.9454665924072265
1758273962998115300,0.242115234375,9.104849638366698,-3.668964406585693,3.3921348396301267
1758273963008073200,0.2520732421875,9.924115518951416,-3.4096424392700193,3.7989994842529295
1758273963018030300,0.2620302734375,9.872789820861815,-2.6116250984191893,4.687547575378417
1758273963027988500,0.271988525390625,9.083451461029052,-1.6820763038635254,6.021267537689209
1758273963037946400,0.2819462890625,8.321496782684326,-0.7838017684936524,7.229591188049316
1758273963047904500,0.291904541015625,8.17141026611328,-0.4499602745056152,7.398232767486572
1758273963057862400,0.3018623046875,8.075492562103271,-0.7791630027770996,6.347028601074219
1758273963067819300,0.3118193359375,8.275558038330077,-1.9415479087829588,4.957344174957275
1758273963077777400,0.32177734375,8.966434854888915,-3.163338943481445,3.844040402984619
1758273963087735300,0.3317353515625,9.234585440826416,-3.2812533752441406,3.7574002304077148
1758273963097693400,0.341693359375,8.624662567901611,-2.999785042572021,3.8235400512695312
1758273963107650600,0.351650634765625,7.745242370605468,-2.413953823852539,4.373907157897949
1758273963117608200,0.361608154296875,7.063942360687255,-1.477372061920166,6.447136157989502
1758273963127566300,0.37156640625,6.803872205352783,-0.29358897857666016,9.259126007843017
1758273963137524500,0.3815244140625,6.4667386840820305,0.3098994773864746,11.097423970031738
1758273963147481300,0.3914814453125,5.881805290985107,0.21772271347045896,11.902025365447997
1758273963157439500,0.401439453125,6.035483110046386,-0.6117185241699218,11.401637218475342
1758273963167397400,0.4113974609375,6.865672535705566,-1.44924019241333,9.526678043365479
1758273963177355300,0.421355224609375,7.652317418670654,-2.15148946685791,7.606079399108887
1758273963187313400,0.4313134765625,8.067561769104003,-2.984671644592285,6.615328824615478
1758273963197270300,0.441270263671875,7.668478279876709,-3.227832750701904,6.291961962890625
1758273963207228400,0.451228515625,6.711695441436767,-3.0659248634338376,6.067355919647216
1758273963217186600,0.4611865234375,5.973682779693603,-2.612074011230469,6.387730029296875
1758273963227144400,0.47114453125,5.68832386932373,-2.0890905860900877,6.912958018493652
1758273963237101300,0.481101318359375,5.783194110107422,-2.028188081359863,6.657227353668213
1758273963247059500,0.4910595703125,5.40760372467041,-2.5034371109008786,5.846790091705322
1758273963257017300,0.501017333984375,4.591031320953369,-2.8432641090393065,5.238213957214355
1758273963266975500,0.5109755859375,4.195539134216308,-3.116053460693359,4.480299494171143
1758273963276933400,0.520933349609375,4.115183740997314,-3.6810850524902343,3.788524851989746
1758273963286890500,0.530890380859375,4.69847112045288,-4.06041637802124,4.110694612884521
1758273963296848400,0.540848388671875,5.333084197998047,-3.786429925537109,4.662857370758056
1758273963306806300,0.55080615234375,5.5264159820556635,-3.646668403625488,5.444115299987793
1758273963316764400,0.560764404296875,5.709722046661376,-3.567061198425293,6.178387021636962
1758273963326721500,0.570721435546875,5.833023432159424,-3.623025662231445,6.613233898162841
1758273963336679400,0.580679443359375,5.884349130249023,-3.5851673484802244,7.531709510040283
1758273963346637600,0.590637451171875,5.815665470123291,-3.090764705657959,9.164555042266846
1758273963356595500,0.600595458984375,7.4108023262023925,-2.6536732650756836,11.412111850738524
1758273963366552300,0.61055224609375,7.584681221771239,-2.4438813446044922,11.061510945129394
1758273963376510500,0.620510498046875,6.601711802673339,-2.5706243949890135,10.237007748413085
1758273963386468400,0.63046826171875,6.458957528686523,-3.35173268661499,9.100360510253905
1758273963396426800,0.6404267578125,5.459228697967529,-3.513341298675537,9.003844255828858
1758273963406383900,0.6503837890625,4.716277995300293,-3.3810616569519043,8.832359561920166
1758273963416341500,0.660341552734375,3.653252458190918,-3.496432249450683,9.02135185546875
1758273963426299600,0.670299560546875,3.0412346588134764,-3.140444390106201,8.190114966583252
1758273963436257500,0.680257568359375,2.115127529144287,-2.339434297180176,8.540266959381103
1758273963446215700,0.690215576171875,2.2685060729980466,-2.51555775680542,8.566004627227782
1758273963456172800,0.7001728515625,3.3367689262390137,-4.138227931976318,7.721150716400146
1758273963466130700,0.710130615234375,4.366275640106201,-5.77750788116455,7.271190441894531
1758273963476088800,0.7200888671875,3.803338974761963,-8.934412407684325,6.140229432678222
1758273963486046500,0.73004638671875,2.94292275314331,-13.20327396774292,3.037643356323242
1758273963496003600,0.740003662109375,4.994903213500976,-6.1818286865234375,0.5364508094787598
1758273963505961700,0.749961669921875,5.507412006378173,-3.4287960525512693,1.477970612335205
1758273963515919600,0.759919677734375,6.364685838317871,-2.1820155380249022,10.811017596435546
1758273963525877800,0.769877685546875,5.615001443481445,-5.970540390014648,11.49112050552368
1758273963535834600,0.779834716796875,1.8507178833007811,-7.1118263938903805,7.355286775207519
1758273963545792500,0.78979248046875,-1.1809399688720703,-6.176292095184325,6.4356140625
1758273963555750700,0.799750732421875,-0.23687632675170897,-5.935225915527344,6.673986765289306
1758273963565708500,0.80970849609375,2.3611317497253417,-5.972784954071044,8.520215520477294
1758273963575666700,0.819666748046875,2.270152086639404,-4.910507604980468,7.355436412811279
1758273963585623800,0.829623779296875,4.1286511253356935,-5.577741680145263,5.753266589355468
1758273963595581400,0.83958154296875,4.249857584381103,-6.877793181610107,5.924003095245361
1758273963605539600,0.84953955078125,2.1061492729187012,-6.253804373931884,5.533000036621093
1758273963615497500,0.85949755859375,1.1001356628417969,-5.182099855804443,4.783315641784668
1758273963625454600,0.86945458984375,0.9434650917053222,-4.508730638885498,5.166687182617188
1758273963635412700,0.879412841796875,0.7164648468017578,-4.241328240966797,5.847239004516601
1758273963645370600,0.88937060546875,0.5110124168395995,-3.984250837707519,6.5297361152648925
1758273963655328800,0.899328857421875,0.621145693206787,-4.20107572555542,6.67817661819458
1758273963665286700,0.90928662109375,0.31588498153686523,-5.03111551361084,7.020697093200683
1758273963675243500,0.919243408203125,0.38456864166259763,-5.993285305786133,7.127987255096435
1758273963685201700,0.92920166015625,1.3712790008544922,-7.604583023071289,6.793547210693359
1758273963695159600,0.93915966796875,-0.737414111328125,-9.37210239868164,6.884077960968018
1758273963705117700,0.94911767578125,-2.7994202911376953,-9.80679963760376,6.45446840057373
1758273963715074600,0.959074462890625,0.20425532913208005,-9.38497123260498,4.8707040023803705
1758273963725032400,0.969032470703125,3.515735500335693,-10.328585961914062,3.4639608894348144
1758273963734990600,0.978990478515625,2.647538123321533,-10.38709426498413,2.395548398590088
1758273963744948700,0.98894873046875,1.0838251640319823,-8.897751194763183,2.1959318351745605
1758273963754905600,0.998905517578125,-0.4734533782958984,-7.576750428771972,2.4766519798278805
1758273963764863700,1.00886376953125,1.1153986984252928,-7.437587457275391,3.26883345413208
1758273963774821600,1.018821533203125,1.0886135673522948,-6.488136861419678,4.146458000183105
1758273963784779500,1.028779541015625,-0.11013327636718749,-6.7292030410766595,3.858854525756836
1758273963794737700,1.038737548828125,-1.6205752487182616,-8.767416841888426,3.867084593963623
1758273963804694500,1.048694580078125,-1.1671733093261718,-7.942764007568359,3.0192379310607906
1758273963814652700,1.058652587890625,6.041169338989257,-5.975179155731201,1.9541174674987791
1758273963824610800,1.06861083984375,6.228814894104003,-8.34469061126709,1.9641431869506836
1758273963834568700,1.078568603515625,2.5668834548950192,-9.435548742675781,1.8816928672790527
1758273963844525600,1.088525634765625,-1.723226644897461,-10.2019925491333,2.1740847450256346
1758273963854483700,1.098483642578125,-1.1367968757629394,-10.855310327148437,2.658461668395996
1758273963864441600,1.108441650390625,1.797895809173584,-11.04505080871582,2.9876643966674803
1758273963874399700,1.118399658203125,2.297535768127441,-10.781090075683593,2.9026702377319333
1758273963884356900,1.12835693359375,0.5027823486328125,-10.570699604797362,2.3000796073913574
1758273963894314800,1.138314697265625,0.13033435287475587,-9.931747036743163,1.1131541343688964
1758273963904272600,1.148272705078125,0.639700756072998,-9.622296472167967,-0.17118541870117188
1758273963914230500,1.15823046875,0.7923311119079589,-9.541641803741454,-0.5738602104187012
1758273963924188700,1.168188720703125,0.6699275520324707,-8.997709114074706,-0.005536591339111328
1758273963934145800,1.178145751953125,0.5198410354614258,-8.913612780761719,1.9020435813903807
1758273963944103700,1.188103759765625,0.14694412689208983,-9.648931965637207,2.9459155052185055
1758273963954061800,1.198061767578125,-0.2919429649353027,-10.353874716949463,3.866336405944824
1758273963964019500,1.20801953125,0.620547142791748,-11.930606147766113,4.412663297271728
1758273963973976600,1.2179765625,1.7437269966125488,-17.73609626083374,3.028515462493896
1758273963983934700,1.227934814453125,2.246210070037842,-26.248829901123045,0.7977180656433105
1758273963993892600,1.237892578125,1.4743793098449707,-21.435886013793944,4.959289463806152
1758273964003850800,1.247850830078125,1.6989853530883787,-10.933271518707274,6.866869636535644
1758273964013807600,1.2578076171875,1.9301754508972166,-9.792584065246581,1.7908628417968748
1758273964023765500,1.267765625,0.448164623260498,-9.204209007263183,-1.483058290863037
1758273964033723600,1.2777236328125,-0.0896329246520996,-8.476820615386963,-2.8802245971679685
1758273964043681500,1.287681640625,0.3033154228210449,-8.846575134277343,-3.205387110137939
1758273964053639700,1.2976396484375,1.1903671379089356,-9.169044170379639,-2.4287679466247556
1758273964063596800,1.3075966796875,1.8854338073730468,-8.818293627166748,-2.1134815155029294
1758273964073554700,1.3175546875,2.450914311981201,-7.9189716285705565,-1.8587983139038085
1758273964083512600,1.3275126953125,2.848651062774658,-8.1586910697937,-2.009333743286133
1758273964093470500,1.337470458984375,0.7707832969665527,-10.154707066345214,-2.8311434631347656
1758273964103427600,1.347427490234375,-0.32576106338500976,-10.777947686004637,-2.8755858314514158
1758273964113385700,1.3573857421875,-0.6286275733947754,-10.34235262145996,-1.4489409172058105
1758273964123343600,1.367343505859375,-0.0665887336730957,-9.469815753936768,-0.3630208267211914
1758273964133301800,1.3773017578125,0.6596025573730468,-9.325116191101074,-0.22086510314941404
1758273964143258600,1.387258544921875,0.6781576202392577,-9.453954167938232,-0.3576338729858398
1758273964153216500,1.397216552734375,0.44861353607177734,-9.44228243484497,-0.8156745780944824
1758273964163174700,1.407174560546875,0.5476736297607422,-9.473257418823241,-1.287182667541504
1758273964173132500,1.417132568359375,0.6859387756347656,-9.505579141235351,-1.5230115310668944
1758273964183090700,1.427090576171875,0.9097966308593749,-9.528473694610595,-1.560869844818115
1758273964193047800,1.4370478515625,1.2551602203369139,-9.478644372558593,-1.3097779457092285
1758273964203005400,1.44700537109375,1.413476805114746,-9.599850831604003,-1.0524012672424317
1758273964212963600,1.456963623046875,1.3281833709716797,-9.601646482849121,-0.812083275604248
1758273964222921700,1.466921630859375,1.273116732788086,-9.62065045852661,-0.6833949363708496
1758273964232878600,1.476878662109375,1.2093711135864258,-9.64578957595825,-0.6670844375610351
1758273964242836700,1.486836669921875,1.0497077903747558,-9.62080009613037,-0.7240963645935058
1758273964252794600,1.496794677734375,0.9150339469909667,-9.590423662567138,-0.8158242156982422
1758273964262752500,1.50675244140625,0.9504980590820312,-9.618854807281494,-0.9166799606323242
1758273964272709600,1.516709716796875,1.0398317085266113,-9.667337390899657,-0.9057564155578612
1758273964282667500,1.52666748046875,1.1516109985351561,-9.696815998840332,-0.8670002761840819
1758273964292625700,1.536625732421875,1.252017830657959,-9.707290631103515,-0.8592191207885742
1758273964302583800,1.546583740234375,1.3724761016845701,-9.686640641784667,-0.8542810798645019
1758273964312541700,1.556541748046875,1.5885528015136718,-9.675268183898925,-0.891241567993164
1758273964322498600,1.56649853515625,1.8124106567382812,-9.707739543914794,-0.946757118988037
1758273964332456700,1.576456787109375,1.965041012573242,-9.65910732269287,-0.9769839149475097
1758273964342414600,1.58641455078125,2.0055928031921386,-9.482534950256348,-1.0483610519409179
1758273964352372700,1.596372802734375,1.9192519058227537,-9.37195276107788,-1.1706149742126464
1758273964362329600,1.60632958984375,1.901893943786621,-9.345317267608642,-1.2689268798828124
1758273964372287700,1.616287841796875,1.9137153144836425,-9.360879578399658,-1.280000062561035
1758273964382245600,1.62624560546875,1.8535609977722167,-9.508272618103026,-1.3127706977844238
1758273964392203500,1.63620361328125,1.8276736923217773,-9.773131176757811,-1.2651859397888183
1758273964402161400,1.646161376953125,1.8628385292053222,-10.099191515350341,-1.1513117233276366
1758273964412118500,1.656118408203125,1.8863316329956055,-10.300603730010986,-1.0434230110168456
1758273964422076400,1.666076416015625,1.897404815673828,-10.295216776275634,-0.8922890312194823
1758273964432034300,1.676034423828125,1.9003975677490232,-10.415525409698486,-0.9585784896850585
1758273964441992200,1.6859921875,1.8596961395263671,-10.318709880065917,-0.896329246520996
1758273964451949300,1.69594921875,1.795950520324707,-10.130316136932372,-0.8770259956359863
1758273964461907500,1.705907470703125,1.5873557006835937,-9.875483297729492,-0.9775824653625488
1758273964471865300,1.715865234375,1.3198036651611327,-9.6779616607666,-1.0657190139770507
1758273964481823500,1.725823486328125,1.0090063621520995,-9.704297879028319,-1.134402674102783
1758273964491780400,1.7357802734375,0.8949825080871582,-9.969455712890625,-1.2930185340881346
1758273964501738200,1.74573828125,0.9030629386901855,-9.888801044464111,-1.0287585258483887
1758273964511696400,1.7556962890625,1.0154407791137694,-9.987262587738037,-1.0998363876342774
1758273964521654300,1.765654296875,0.8918401184082031,-10.153659603118896,-1.2361562446594239
1758273964531612400,1.7756123046875,0.8016086433410644,-10.148571924591064,-1.189918225097656
1758273964541569500,1.785569580078125,0.8798691101074219,-10.181641835021972,-0.841412245941162
1758273964551527200,1.795527099609375,0.9730933372497558,-10.068066893768309,-0.4950011932373047
1758273964561485300,1.8054853515625,1.0170867927551268,-10.027664740753174,-0.37394437179565426
1758273964571443200,1.815443115234375,0.9715969612121581,-10.066570517730712,-0.32606033859252925
1758273964581400300,1.825400390625,1.069310316467285,-10.036343721771239,-0.047584757995605464
1758273964591358500,1.8353583984375,1.0800842239379882,-10.282497579956054,-0.06404489440917968
1758273964601316400,1.84531640625,0.8327332649230956,-10.499771380615234,-0.08035539321899414
1758273964611274200,1.855274169921875,0.762253953552246,-10.491690950012206,-0.026036943054199218
1758273964621231400,1.8652314453125,0.653766690826416,-10.301800830841064,-0.22535423126220702
1758273964631189200,1.875189208984375,0.5006874221801757,-9.88895068206787,-0.5168482833862305
1758273964641147400,1.8851474609375,0.5349544334411621,-9.593566052246093,-0.9229647399902343
1758273964651105300,1.895105224609375,0.6741174049377441,-9.131634769439696,-1.293467446899414
1758273964661063400,1.9050634765625,0.0032920272827148436,-8.826822970581054,-1.5280992095947266
1758273964671020300,1.915020263671875,-0.19722236175537108,-8.916306257629394,-1.5459060844421386
1758273964680978200,1.924978271484375,-0.1623568000793457,-9.077914869689941,-1.488145969390869
1758273964690936300,1.934936279296875,-0.26919804916381834,-9.179069889831542,-1.623568000793457
1758273964700894500,1.94489453125,-0.11162965240478515,-9.300425986480713,-1.4341267944335936
1758273964710851300,1.954851318359375,-0.1619078872680664,-9.469366841125488,-0.9917980377197265
1758273964720809500,1.9648095703125,-0.39743747558593745,-9.524134204101562,-0.8670002761840819
1758273964730767400,1.974767333984375,-0.508169302368164,-9.525929855346678,-0.7297825935363769
1758273964740725200,1.984725341796875,-0.5113116920471191,-9.484480239105224,-0.49844285812377925
1758273964750682400,1.994682373046875,-0.2337339370727539,-9.346215093231201,-0.4294599227905273
1758273964760640300,2.00464013671875,-0.19737199935913086,-9.216928203582762,-0.3205237472534179
1758273964770598400,2.014598388671875,-0.5172971961975097,-9.237428555297852,-0.25962124252319335
1758273964780556500,2.024556640625,-0.72140288772583,-9.277681070709228,-0.2570774032592773
1758273964790514400,2.034514404296875,-0.7799111907958984,-9.220818781280517,0.012120645904541014
1758273964800471300,2.04447119140625,-0.7794622779846191,-9.246855724334717,0.09711480484008789
1758273964810429400,2.054429443359375,-0.8728361427307129,-9.27004955291748,-0.021996727752685546
1758273964820387300,2.06438720703125,-0.9823708686828613,-9.401581006622314,-0.01571194839477539
1758273964830345500,2.074345458984375,-1.0063128852844239,-9.490465743255614,0.2765302917480469
1758273964840302600,2.084302490234375,-1.0111012886047364,-9.69696563644409,0.4333505004882812
1758273964850260200,2.09426025390625,-0.830638338470459,-10.030208580017089,0.4074631950378418
1758273964860218400,2.10421826171875,-0.6209960556030273,-10.432434458923339,0.1970727241516113
1758273964870176300,2.11417626953125,-0.6488286499023437,-11.131690981292724,-0.5641337661743163
1758273964880133400,2.12413330078125,-0.7728782234191894,-11.99554886779785,-1.5086463211059569
1758273964890091500,2.134091552734375,-0.982520506286621,-12.667720983886719,-2.1262007118225097
1758273964900049400,2.14404931640625,-1.3166612754821776,-12.951733155822753,-2.299630694580078
1758273964910007600,2.154007568359375,-1.5237597190856933,-13.303830437469482,-2.3933038345336914
1758273964919965200,2.163965087890625,-1.3657424095153807,-13.731644346618651,-2.4877251625061034
1758273964929922300,2.17392236328125,-1.1665747589111328,-13.702315376281737,-2.2897546127319335
1758273964939880400,2.18388037109375,-1.3786112434387205,-14.075212284851073,-2.1115362266540525
1758273964949838300,2.19383837890625,-1.9361609550476073,-14.911237577056884,-1.6986860778808592
1758273964959796500,2.20379638671875,-2.62374574432373,-15.443797808837889,-0.8979752601623535
1758273964969753300,2.21375341796875,-3.2906805442810056,-15.518766248321532,-0.015412673187255858
1758273964979711200,2.223711181640625,-3.5366847648620605,-15.146018977355956,0.316034619140625
1758273964989669400,2.23366943359375,-2.9556419494628905,-14.034061943817138,0.1227028350830078
1758273964999627300,2.243627197265625,-1.9589058708190916,-13.039570429229736,-0.8397662322998046
1758273965009585400,2.25358544921875,-1.5343839889526367,-12.371887441253662,-1.5919944664001464
1758273965019542500,2.26354248046875,-1.3175591011047363,-11.799822882080077,-2.091484787750244
1758273965029500200,2.273500244140625,-0.9296984321594238,-11.3266687789917,-2.76440509185791
1758273965039458300,2.283458251953125,-0.43140521163940426,-11.088296076202392,-3.2576106338500974
1758273965049416200,2.293416259765625,-0.37828386230468747,-11.079317819976806,-3.592349953460693
1758273965059373300,2.303373291015625,-0.44412440795898434,-11.371560060119629,-3.730315824127197
1758273965069331500,2.31333154296875,-0.6947673942565917,-11.751789211273193,-3.586065174102783
1758273965079289300,2.323289306640625,-0.9745897132873534,-11.851896768188476,-3.343502618408203
1758273965089247500,2.33324755859375,-1.3829507339477538,-11.556362500762939,-3.049913639831543
1758273965099204400,2.343204345703125,-1.6187795974731445,-11.18526124343872,-2.8981811096191405
1758273965109162200,2.353162353515625,-1.2152069801330565,-10.819846215057373,-2.943670941162109
1758273965119120400,2.363120361328125,-0.741903239440918,-10.369586665344238,-3.139546564483642
1758273965129078300,2.373078369140625,-0.013766659545898436,-10.288483084106444,-3.6323031936645505
1758273965139036400,2.383036376953125,0.1005564697265625,-10.223241088867187,-4.070741372680664
1758273965148993300,2.3929931640625,0.04444236831665039,-10.308833798217773,-4.5416509117126465
1758273965158951200,2.402951171875,-0.6622960342407226,-10.10652375793457,-4.436156401062012
1758273965168909300,2.412909423828125,-0.5035305366516113,-9.802909059906005,-3.4567782844543453
1758273965178867500,2.422867431640625,-0.06838438491821289,-10.511592751312255,-2.6779145568847653
1758273965188824300,2.43282421875,-1.0763432838439941,-11.203367393493652,-2.9640216552734375
1758273965198782500,2.442782470703125,-1.8522142593383788,-10.51533369140625,-2.7250504020690918
1758273965208740400,2.452740234375,-2.205658279418945,-9.67182651901245,-3.261650849151611
1758273965218698200,2.4626982421875,-2.8049568824768065,-9.031826487731934,-3.752761464691162
1758273965228655400,2.4726552734375,-2.2158336364746094,-9.06534531097412,-3.2433950614929197
1758273965238613200,2.48261328125,-1.6398784996032714,-8.841487455749512,-3.427748589324951
1758273965248571400,2.4925712890625,-2.15148946685791,-7.798064444732666,-3.3857004226684566
1758273965258529500,2.502529541015625,-2.2845172966003418,-7.288548403930664,-2.830095999908447
1758273965268487400,2.5124873046875,-1.3575123413085937,-7.737311577606201,-2.8357822288513184
1758273965278444300,2.5224443359375,-0.7477391059875488,-8.290072885894775,-2.1410148345947264
1758273965288402400,2.53240234375,-0.9367313995361327,-8.946832328796386,0.11237784042358398
1758273965298360300,2.5423603515625,-1.038185694885254,-9.639205521392821,0.38756139373779297
1758273965308318500,2.552318359375,-0.8405144203186035,-9.82460651245117,-0.0896329246520996
1758273965318275300,2.562275390625,-1.53857384185791,-9.475950895690918,-0.5505167442321777
1758273965328233200,2.572233154296875,-2.146401788330078,-9.26466259918213,-0.4821323593139648
1758273965338191400,2.58219140625,-2.1532851181030273,-9.144952516174316,-1.3274351829528808
1758273965348149200,2.592149169921875,-2.5857377929687497,-8.046762142181397,-1.8736124366760252
1758273965358107400,2.602107421875,-1.9943699829101562,-5.736956090545654,-2.0561703132629394
1758273965368064500,2.612064453125,-1.9741689064025878,-3.9636008483886718,-2.195632559967041
1758273965378022400,2.6220224609375,-2.4239795433044433,-2.7730840728759762,-2.395398760986328
1758273965387980500,2.63198046875,-2.1039047088623044,-2.1028572456359864,-3.2441432495117186
1758273965397938400,2.6419384765625,-2.075473564147949,-2.0477906074523924,-3.9885903282165525
1758273965407895600,2.6518955078125,-2.524386375427246,-2.280626718902588,-4.312256465148925
1758273965417853700,2.661853759765625,-2.946514055633545,-2.583343591308594,-4.4571056655883785
1758273965427811600,2.6718115234375,-3.047220162963867,-3.347243558502197,-4.917390934753418
1758273965437769700,2.681769775390625,-3.540276067352295,-3.5914521278381346,-4.80710802078247
1758273965447726800,2.691726806640625,-3.9734769302368163,-3.5844191604614255,-4.432415460968017
1758273965457684500,2.7016845703125,-4.1757869705200195,-3.7988498466491696,-4.040065663909912
1758273965467642600,2.711642578125,-4.126256923675537,-4.012382707214355,-3.6891654830932614
1758273965477600500,2.7216005859375,-4.246715194702148,-3.935319341278076,-3.264942876434326
1758273965487558700,2.73155859375,-4.166359801483154,-4.062361666870117,-3.3354221878051757
1758273965497515800,2.741515869140625,-4.612728773498535,-3.949834188842773,-3.19850378036499
1758273965507473700,2.7514736328125,-5.168931746673584,-3.610905016326904,-3.1196447631835937
1758273965517431600,2.761431640625,-5.929838961791992,-3.4472014778137203,-3.061435735321045
1758273965527389400,2.771389404296875,-6.9430351768493646,-3.529202884674072,-3.1477766326904293
1758273965537346600,2.7813466796875,-7.9761331932067865,-3.9960722084045406,-3.748870886993408
1758273965547304700,2.7913046875,-9.300425986480713,-4.685303011322021,-4.307916974639892
1758273965557262600,2.8012626953125,-10.286088882446288,-5.513696785736084,-4.908263040924072
1758273965567220700,2.811220703125,-10.57967786102295,-5.954080253601074,-5.089025266265869
1758273965577177600,2.821177490234375,-10.420313813018797,-6.114641402435303,-4.997596690368652
1758273965587135500,2.831135498046875,-10.015843370056151,-6.131700089263916,-5.197512528991699
1758273965597093600,2.84109375,-8.450783672332763,-6.0598740394592285,-4.656871866607665
1758273965607051500,2.851051513671875,-5.690867708587646,-6.376656846618652,-2.6473884857177734
1758273965617009700,2.861009765625,-2.71337866897583,-7.4299559394836425,-1.2964601989746094
1758273965626966800,2.870966796875,-0.8547299926757812,-8.881291058349609,-2.6316765373229978
1758273965636924400,2.88092431640625,-3.8865374824523924,-10.040234299468993,-4.569184230804443
1758273965646882600,2.890882568359375,-6.656778440856933,-10.975918235778808,-7.230189738464355
1758273965656840400,2.90084033203125,-8.482656481933594,-10.686668747711181,-10.178499445343016
1758273965666797600,2.910797607421875,-9.840019185638427,-9.956137966156005,-9.574711714172363
1758273965676755700,2.920755615234375,-6.45416912536621,-9.667636666107176,-6.718429133605957
1758273965686713600,2.930713623046875,-3.2513258544921873,-8.607304605865478,-4.6164697135925294
1758273965696671700,2.940671630859375,-2.454056701660156,-8.07010560836792,-3.7391444427490232
1758273965706629600,2.950629638671875,-2.549824768066406,-8.870068238067626,-3.45393516998291
1758273965716586500,2.96058642578125,-2.614917125701904,-10.111312161254883,-3.091363256072998
1758273965726544600,2.970544677734375,-2.1805191619873048,-10.952574769592285,-2.0528782859802246
1758273965736502500,2.98050244140625,-1.584512586212158,-11.142165613555907,-1.1777975791931152
1758273965746460700,2.990460693359375,-1.8359037605285644,-10.87147118835449,-0.8155249404907227
1758273965756417500,3.00041748046875,-2.7693431327819824,-10.410737006378174,-0.9982324546813964
1758273965766375400,3.01037548828125,-3.2281320259094235,-9.86381156463623,-1.4649521408081054
1758273965776333600,3.02033349609375,-3.5740941658020016,-9.228899211883544,-1.7832313240051267
1758273965786291700,3.030291748046875,-3.4810195762634275,-8.785822267150879,-1.8637363548278807
1758273965796249600,3.04024951171875,-3.222146521759033,-8.519317694854736,-1.7146973014831541
1758273965806206700,3.050206787109375,-2.771587696838379,-8.425195642089843,-1.396867031097412
1758273965816164600,3.06016455078125,-2.071134073638916,-8.305036646270752,-0.7562684494018554
1758273965826122500,3.07012255859375,-1.4140753555297851,-8.188468952941895,0.2587234169006348
1758273965836080600,3.08008056640625,-1.0654197387695312,-8.696787892913818,0.34835634155273437
1758273965846037500,3.09003759765625,-1.016937155151367,-9.132083682250975,0.42018239135742186
1758273965855995600,3.09999560546875,-1.1954548164367675,-9.412205276489257,0.35030163040161133
1758273965865953800,3.109953857421875,-1.442207225036621,-9.67182651901245,0.039354689788818356
1758273965875911700,3.11991162109375,-1.5982792457580566,-9.720608377838134,-0.46312838363647457
1758273965885868500,3.12986865234375,-1.7642273483276367,-9.532962822723388,-0.6165069274902344
1758273965895826700,3.13982666015625,-1.5604209320068358,-9.106196376800536,-0.6738181297302246
1758273965905784600,3.14978466796875,-1.744774459838867,-8.68945565032959,-0.7257423782348632
1758273965915742700,3.15974267578125,-2.0875942100524902,-8.591143744659423,-0.5732616600036621
1758273965925700600,3.16970068359375,-1.7755998062133789,-8.750358155059814,-0.4929062667846679
1758273965935657500,3.179657470703125,-1.8523638969421385,-8.875305554199219,-0.5354033462524413
1758273965945615600,3.18961572265625,-1.7893664657592772,-9.046191697692871,-0.07885901718139648
1758273965955573500,3.199573486328125,-1.7435773590087889,-9.720309102630615,0.2829647087097168
1758273965965531600,3.20953173828125,-2.5227403617858886,-9.77447791519165,-0.3829226280212402
1758273965975488800,3.21948876953125,-2.971653173065185,-9.547028757476806,-0.3389291725158691
1758273965985446700,3.22944677734375,-2.4042273796081544,-9.321674526214599,-0.0282815071105957
1758273965995404800,3.23940478515625,-1.952920366668701,-9.077316319274901,-0.0073322425842285155
1758273966005362400,3.249362548828125,-2.35589443359375,-9.151985483551025,-1.0341454795837401
1758273966015319600,3.259319580078125,-3.071760729980469,-9.124003251647949,-1.3079822944641113
1758273966025277700,3.269277587890625,-2.609829447174072,-8.819041815185546,-0.9003694618225098
1758273966035235600,3.279235595703125,-1.862988166809082,-8.685265797424316,-0.9458592933654785
1758273966045193700,3.28919384765625,-1.8146552207946776,-8.548197752380371,-0.519092847442627
1758273966055151600,3.299151611328125,-1.8972551780700682,-8.958055149078369,-0.12973580245971678
1758273966065108500,3.3091083984375,-1.9295769004821777,-9.153781134796143,0.30570962448120115
1758273966075066600,3.319066650390625,-1.7884686401367187,-8.868871137237548,0.2690484115600586
1758273966085024500,3.3290244140625,-1.4654010536193847,-8.667608560180664,-0.06479308242797852
1758273966094982700,3.338982666015625,-1.219995383453369,-8.996960926055907,0.45235447616577146
1758273966104939800,3.348939697265625,-0.1092354507446289,-9.089436965179443,-0.13213000411987305
1758273966114897400,3.3588974609375,0.07347206344604491,-9.0910829788208,-0.7504325828552245
1758273966124855600,3.36885546875,-0.31543606872558594,-9.407267235565184,-0.7841010437011718
1758273966134813400,3.3788134765625,-0.6528688652038573,-9.20585502090454,-0.9570821136474609
1758273966144771600,3.388771484375,-1.3976152191162108,-8.960449350738525,-1.0963947227478026
1758273966154728700,3.398728759765625,-2.10046304397583,-8.799888201904297,-0.8430582595825195
1758273966164686600,3.4086865234375,-2.128594913482666,-8.898798657989502,-0.2570774032592773
1758273966174644700,3.418644775390625,-2.26641114654541,-9.32691184234619,0.5915174476623535
1758273966184602600,3.4286025390625,-2.5526678825378415,-9.863063376617431,0.9873089096069335
1758273966194559500,3.4385595703125,-2.552967157745361,-10.05519805984497,1.0529998176574706
1758273966204517600,3.448517578125,-2.466326985168457,-10.348038850402832,0.6150105514526367
1758273966214475500,3.4584755859375,-2.601000828552246,-10.707318737030029,-0.08978256225585937
1758273966224433700,3.46843359375,-2.640056243133545,-11.050437762451171,-0.9288006065368651
1758273966234391800,3.478391845703125,-2.5897780082702635,-11.136329747009277,-1.6651672546386718
1758273966244348400,3.488348388671875,-2.236633263397217,-10.945541802215576,-2.318185757446289
1758273966254306600,3.498306640625,-1.637633935546875,-10.89795704421997,-2.917035447692871
1758273966264264700,3.5082646484375,-1.1979986557006834,-11.233893464660644,-3.463511976623535
1758273966274222600,3.51822265625,-1.133804123687744,-11.716175461578368,-3.451989881134033
1758273966284179700,3.5281796875,-1.004217958831787,-12.382062798309326,-3.1687258972167966
1758273966294137600,3.5381376953125,-0.5858312187194824,-13.566145156860351,-2.818723542022705
1758273966304095500,3.548095458984375,-0.11192892761230468,-14.953884294128416,-2.182165175628662
1758273966314053600,3.5580537109375,-0.0900818374633789,-15.814599790954588,-1.465251416015625
1758273966324010500,3.568010498046875,-0.6821978355407714,-16.371550952148436,-1.5511434005737303
1758273966333968600,3.57796875,-1.7758990814208984,-16.175076778411864,-2.2885575119018555
1758273966343926800,3.5879267578125,-2.8399720817565917,-15.153201582336425,-2.724302214050293
1758273966353884700,3.597884765625,-3.480869938659668,-13.77728381576538,-2.581248664855957
1758273966363842800,3.6078427734375,-3.564816634368896,-12.750171303558348,-1.9960159965515136
1758273966373799700,3.617799560546875,-3.464110527038574,-12.317868266296387,-1.518821678161621
1758273966383757600,3.627757568359375,-3.1055788284301755,-12.104036130523681,-1.2853870162963867
1758273966393715700,3.6377158203125,-2.5029881980895996,-11.76705224685669,-0.9835679695129393
1758273966403673300,3.64767333984375,-2.3910592704772946,-11.494711808013916,-0.81073653717041
1758273966413630500,3.65763037109375,-2.235735437774658,-11.544391492462157,-0.8040028450012207
1758273966423588600,3.667588623046875,-2.2354361625671384,-11.702857714843748,-1.0473135887145995
1758273966433546500,3.67754638671875,-2.302174533843994,-11.844414888000488,-1.4130278923034667
1758273966443504600,3.687504638671875,-1.9406500831604003,-12.106579969787598,-2.1538836685180662
1758273966453462500,3.697462646484375,-1.3377601776123047,-11.881824288940429,-2.6951228813171384
1758273966463419400,3.70741943359375,-0.5563526107788086,-11.136479384613036,-2.733729383087158
1758273966473377500,3.71737744140625,0.08888473663330078,-10.5850648147583,-2.9715035354614256
1758273966483335400,3.72733544921875,0.043544542694091797,-10.331429076385497,-3.272424756622314
1758273966493293600,3.73729345703125,-0.5557540603637695,-10.325293934631347,-3.4727895080566404
1758273966503250700,3.747250732421875,-0.917428148651123,-9.78121160736084,-3.1563059761047363
1758273966513208300,3.757208251953125,-0.806995597076416,-9.412654189300536,-3.1209915016174317
1758273966523166500,3.76716650390625,-0.3500023551940918,-9.51889688796997,-3.8694787956237793
1758273966533124400,3.777124267578125,-0.7721300354003906,-9.982773459625244,-4.223072453308105
1758273966543082500,3.78708251953125,-1.9119196632385254,-9.893739085388184,-3.528005783843994
1758273966553039600,3.79703955078125,-2.1353286056518552,-9.50527986602783,-3.3167174873352048
1758273966562997500,3.80699755859375,-2.612074011230469,-9.374945513153076,-3.7223850311279296
1758273966572955400,3.816955322265625,-2.741360900878906,-9.855282221221923,-3.9151182647705074
1758273966582913300,3.826913330078125,-2.6235961067199707,-10.2402997756958,-3.1769559654235837
1758273966592870400,3.836870361328125,-2.707991715240478,-10.109067597198486,-2.495506317901611
1758273966602828500,3.84682861328125,-1.8360533981323242,-10.038588285827636,-2.046743144226074
1758273966612786400,3.856786376953125,-0.23448212509155272,-10.072107109069824,-0.8559270935058593
1758273966622744600,3.86674462890625,-0.30137013397216794,-10.06881508178711,0.27608137893676754
1758273966632701400,3.876701416015625,-1.2931681716918944,-10.00491982498169,0.5746083984375
1758273966642659300,3.886659423828125,-1.450586930847168,-9.718513451385498,-0.1304839904785156
1758273966652617500,3.896617431640625,-1.213560966491699,-9.006088819885253,0.45235447616577146
1758273966662575400,3.906575439453125,-0.8692448402404784,-8.246079430389404,0.0522235237121582
1758273966672533500,3.916533447265625,-0.4836287353515625,-7.331344758605956,-1.370081900024414
1758273966682490600,3.92649072265625,-0.4782417816162109,-6.003161387634277,-2.717718159484863
1758273966692448300,3.9364482421875,-0.7502829452514648,-4.88372247390747,-3.0099603996276856
1758273966702406400,3.946406494140625,-0.9490016830444336,-4.080467816925049,-2.7795184898376464
1758273966712364500,3.956364501953125,-0.9947907897949219,-3.6002807464599607,-2.634070738983154
1758273966722322400,3.966322509765625,-0.8330325401306152,-2.3822306518554686,-4.005948290252685
1758273966732279600,3.976279541015625,-1.33431851272583,-1.2527660186767577,-4.652981288909912
1758273966742237400,3.986237548828125,-2.0896891365051267,-0.8496423141479492,-4.5404538108825685
1758273966752195600,3.996195556640625,-2.465578797149658,-1.4329296936035156,-4.725555526733398
1758273966762153500,4.006153564453125,-2.5004443588256833,-2.3529016815185546,-4.318990157318115
1758273966772110300,4.0161103515625,-2.849249613189697,-2.980032878875732,-3.9695863525390624
1758273966782068500,4.026068359375,-3.3737294143676757,-3.446303652191162,-3.871274446868896
1758273966792026600,4.036026611328125,-3.6924575103759762,-3.8781577766418454,-3.9495349136352536
1758273966801984500,4.045984619140625,-3.951180927276611,-4.251353960418701,-3.972429467010498
1758273966811942700,4.055942626953125,-4.199579349517822,-4.490025938415527,-3.6764462867736816
1758273966821899500,4.0658994140625,-4.73737689743042,-4.674828379058837,-3.13460852355957
1758273966831857400,4.075857421875,-5.599738407897949,-4.945073891448974,-2.9191303741455075
1758273966841815600,4.085815673828125,-6.9515645202636716,-5.10099627456665,-2.9314006576538083
1758273966851773400,4.0957734375,-8.706215061950683,-4.942380414581298,-3.393930490875244
1758273966861730600,4.10573046875,-10.532392378234862,-4.300884007263184,-4.186860153198242
1758273966871688400,4.1156884765625,-11.994351766967773,-3.6948517120361326,-4.758176524353027
1758273966881646300,4.125646240234375,-12.28375089263916,-3.5419220809936522,-4.901529348754883
1758273966891604500,4.1356044921875,-11.729493208312988,-3.954024041748047,-4.819079029083252
1758273966901561600,4.1455615234375,-10.807575931549072,-4.290858287811279,-4.217835137176514
1758273966911519500,4.15551953125,-8.840290354919434,-5.071218391418457,-2.837877155303955
1758273966921477600,4.1654775390625,-5.377975479125976,-7.3174284614562985,-2.335842994689941
1758273966931435500,4.175435546875,-0.4055179061889648,-9.913790524291992,-3.9408559326171875
1758273966941393400,4.185393310546875,-2.506429862976074,-10.205733489227294,-5.277419009399414
1758273966951350500,4.1953505859375,-3.5922003158569336,-10.054449871826172,-6.884526873779296
1758273966961308400,4.205308349609375,-6.091447573852538,-9.62723451309204,-6.8692638381958
1758273966971266600,4.2152666015625,-9.241468770599365,-10.19645595779419,-5.923703820037842
1758273966981224400,4.225224365234375,-5.583427909088134,-10.651803186035156,-4.793341361236572
1758273966991181300,4.235181396484375,-4.038718925476074,-9.983072734832763,-4.178031534576416
1758273967001139500,4.245139404296875,-3.8085762908935545,-9.633369654846192,-3.821744400024414
1758273967011097300,4.255097412109375,-4.374206433105469,-10.074202035522461,-3.5139398490905758
1758273967021055500,4.265055419921875,-3.9463925239562987,-10.857255615997314,-3.383006945800781
1758273967031013400,4.275013427734375,-2.254290500640869,-11.368118395233154,-2.889651766204834
1758273967040970500,4.284970458984375,-1.7681179260253905,-11.053430514526367,-1.9907786804199217
1758273967050928600,4.2949287109375,-2.516904495239258,-10.391284117889404,-1.3908815269470214
1758273967060886300,4.30488623046875,-3.3411084167480465,-9.926360083007811,-1.4526818572998046
1758273967070844400,4.314844482421875,-4.076427601623535,-9.310451705932616,-1.4960767623901365
1758273967080801500,4.324801513671875,-4.274547789001464,-8.477568803405761,-1.866729106903076
1758273967090759400,4.334759521484375,-3.6719571586608883,-7.445368612670898,-0.7393594001770019
1758273967100717600,4.344717529296875,-2.4899697265625,-7.334487148284912,-0.7725789482116698
1758273967110675500,4.354675537109375,-1.9442413856506346,-7.405116097259521,-0.9259574920654297
1758273967120633600,4.364633544921875,-1.7069161460876463,-7.755268090057372,-0.850989052581787
1758273967130590500,4.374590576171875,-1.7043723068237304,-8.380304360961913,-1.349581548309326
1758273967140548400,4.38454833984375,-1.599925259399414,-8.93141965560913,-1.0296563514709471
1758273967150506500,4.394506591796875,-1.7069161460876463,-9.383624494171142,-0.7094318794250488
1758273967160464600,4.404464599609375,-2.037166337585449,-9.800963771057129,-0.34491467666625975
1758273967170421500,4.41442138671875,-2.2617723808288575,-9.937732540893554,0.07975684280395508
1758273967180379400,4.42437939453125,-2.3184850326538085,-9.842862300109863,0.42242695541381836
1758273967190337500,4.434337646484375,-2.3561937088012694,-9.909600671386718,0.5360018966674804
1758273967200295400,4.44429541015625,-2.180219886779785,-10.10652375793457,0.34970307998657224
1758273967210253600,4.454253662109375,-1.8876783714294432,-10.103082093048094,0.2498947982788086
1758273967220210400,4.46421044921875,-1.2927192588806151,-9.929801747894286,0.5758054992675781
1758273967230168600,4.47416845703125,-1.2009914077758788,-10.018087934112549,0.558597174835205
1758273967240126500,4.48412646484375,-1.6958429634094236,-10.197653058624267,-0.017956512451171875
1758273967250084400,4.49408447265625,-1.5728408531188964,-10.174159954833984,-0.879120922088623
1758273967260042500,4.50404248046875,-0.711227530670166,-9.784054721832275,-1.2761094848632812
1758273967269999600,4.51399951171875,-1.0787374855041503,-8.965088116455078,-1.3251906188964844
1758273967279957500,4.52395751953125,-2.236483625793457,-8.200888874053955,-0.806995597076416
1758273967289915600,4.53391552734375,-2.895786907958984,-8.206126190185547,-0.6554127044677734
1758273967299873500,4.54387353515625,-2.6415526191711423,-8.380453998565674,-0.7040449256896972
1758273967309830400,4.553830322265625,-2.4283190338134766,-8.692149127197265,-0.8041524826049804
1758273967319788500,4.56378857421875,-2.073528275299072,-8.963891015625,-0.6450877098083496
1758273967329746400,4.573746337890625,-1.5019126289367675,-9.266009337615966,-0.31094694061279293
1758273967339704600,4.58370458984375,-0.9192237998962401,-9.22545754699707,0.1327285545349121
1758273967349662500,4.593662353515625,-0.6790554458618163,-8.95057326889038,0.6209960556030273
1758273967359619300,4.603619384765625,-0.6130652626037597,-8.856002303314208,0.5609913764953613
1758273967369577500,4.613577392578125,-0.6973112335205077,-8.742277724456786,0.14694412689208983
1758273967379535400,4.623535400390625,-0.9494505958557128,-8.818293627166748,0.15771803436279297
1758273967389493500,4.633493408203125,-0.8063970466613769,-8.619874164581299,0.11148001480102539
1758273967399450600,4.64345068359375,-0.5873275947570801,-8.620622352600098,-0.3773860366821289
1758273967409408500,4.653408447265625,-0.981323405456543,-8.768763580322265,-0.773776049041748
1758273967419366700,4.66336669921875,-0.9636661682128905,-9.050231912994384,-0.9585784896850585
1758273967429324500,4.673324462890625,-0.2888005752563476,-9.316287572479247,-1.3633482078552246
1758273967439282700,4.68328271484375,-0.30795418853759765,-9.611522564697266,-1.626710390472412
1758273967449239800,4.69323974609375,-0.7655459808349608,-9.751433724212646,-1.7043723068237304
1758273967459197700,4.70319775390625,-1.2600982612609863,-9.708637369537353,-1.5469535476684568
1758273967469155600,4.713155517578125,-1.8689736709594726,-9.609577275848388,-1.1571475898742676
1758273967479113500,4.723113525390625,-2.429965047454834,-9.157970987701415,-0.5624877525329589
1758273967489070600,4.733070556640625,-2.7672482063293455,-8.653542625427246,0.06359598159790039
1758273967499028700,4.74302880859375,-2.7021558486938475,-8.62496184310913,0.6634931350708008
1758273967508986600,4.752986572265625,-2.377142973327637,-9.196727127075194,1.2592004356384277
1758273967518944800,4.76294482421875,-1.9252374099731444,-10.230722969055176,1.7851766128540039
1758273967528902700,4.772902587890625,-1.5023615417480467,-11.380089403533935,1.9743185440063475
1758273967538859500,4.782859619140625,-1.003619408416748,-12.031910805511474,1.6175824966430663
1758273967548817700,4.792817626953125,-0.7211036125183105,-12.157007842254638,0.8391676818847655
1758273967558775600,4.802775634765625,-0.6610989334106445,-11.994800679779052,-0.05566518859863281
1758273967568733700,4.812733642578125,-0.9596259529113769,-11.672032368469237,-0.6311714126586914
1758273967578690800,4.82269091796875,-0.8626607856750488,-11.532121208953857,-0.8518868782043456
1758273967588648400,4.8326484375,-0.7661445312499999,-11.641057384490965,-1.3672387855529784
1758273967598606600,4.842606689453125,-1.2388497215270995,-12.153715814971923,-2.552967157745361
1758273967608564700,4.852564697265625,-1.5300444984436035,-12.94769294052124,-3.3113305335998535
1758273967618522600,4.862522705078125,-1.7630302474975585,-13.716680586242674,-3.499275363922119
1758273967628479700,4.872479736328125,-2.0823568939208985,-14.494796125793457,-2.9077579162597655
1758273967638437600,4.882437744140625,-1.4342764320373533,-15.460407582855224,-1.920449006652832
1758273967648395500,4.8923955078125,-0.4569932418823242,-15.816395442199706,-0.5479729049682617
1758273967658353700,4.902353759765625,-0.14155717315673827,-15.187318955993652,0.5419874008178711
1758273967668311600,4.9123115234375,-0.8592191207885742,-13.947571408843993,0.229843359375
1758273967678268700,4.9222685546875,-2.231246309661865,-12.718897044372557,-1.0489596023559569
1758273967688226800,4.932226806640625,-3.342155879974365,-11.93270107421875,-2.220921315002441
1758273967698184700,4.942184814453125,-3.675997373962402,-11.296591620635986,-2.663998259735107
1758273967708142800,4.952142822265625,-3.1299697578430172,-10.84064584197998,-2.7199627235412596
1758273967718099700,4.962099609375,-2.314744092559814,-10.424653303527831,-2.2125416091918946
1758273967728057600,4.9720576171875,-1.7429788085937499,-10.133608164215087,-1.897404815673828
1758273967738015700,4.982015625,-1.415422093963623,-10.155754529571533,-2.0712837112426756
1758273967747973600,4.9919736328125,-1.462557939147949,-10.620977839660643,-2.6122236488342283
1758273967757931800,5.001931884765625,-1.794603781890869,-10.931924780273437,-2.8600235206604
1758273967767888600,5.011888671875,-2.0575170516967773,-11.10894606552124,-3.0283658248901366
1758273967777846500,5.021846435546875,-2.250998473358154,-11.270853952789306,-2.9173347229003905
1758273967787804700,5.0318046875,-2.005293527984619,-10.92294652404785,-2.14490541229248
1758273967797762600,5.041762451171875,-2.73866742401123,-10.64357311782837,-2.110788038635254
1758273967807719700,5.0517197265625,-3.112312520599365,-10.552294179534911,-1.8432360031127928
1758273967817677800,5.061677734375,-2.3329998802185057,-10.052953495788573,-0.9367313995361327
1758273967827635700,5.0716357421875,-0.797418790435791,-10.32978306274414,-0.1693897674560547
1758273967837593600,5.081593505859375,0.1788169364929199,-10.978013162231445,-0.45489831542968745
1758273967847551500,5.091551513671875,-0.013766659545898436,-10.685172371673584,-0.7855974197387695
1758273967857508600,5.101508544921875,-0.1876455551147461,-10.16338604736328,-1.3263877197265623
1758273967867466800,5.111466796875,-0.10669161148071288,-9.866355403900146,-2.281674182128906
1758273967877424600,5.121424560546875,-0.4626794708251953,-9.373149861907958,-2.723554026031494
1758273967887382800,5.1313828125,-1.4936825607299804,-9.157821350097656,-3.1356559867858884
1758273967897339600,5.141339599609375,-1.9856910018920897,-9.450512503051756,-3.7961563697814937
1758273967907297500,5.151297607421875,-2.3126491661071777,-9.22515827178955,-4.148552926635742
1758273967917255700,5.161255615234375,-2.699761647033691,-8.672247325897215,-4.430021259307861
1758273967927213600,5.171213623046875,-3.066972326660156,-8.503306471252442,-4.827907647705078
1758273967937171700,5.181171630859375,-2.363376313781738,-8.748412866210938,-4.910058692169189
1758273967947128600,5.191128662109375,-1.2315174789428711,-8.361450022888183,-3.736301328277588
1758273967957086500,5.20108642578125,-1.4775216995239258,-8.153753028869628,-1.8914193115234375
1758273967967044600,5.211044677734375,-1.5599720191955566,-9.07148045272827,-0.8007108177185058
1758273967977002500,5.22100244140625,-1.9632453613281249,-9.493907408142089,-0.5472247169494628
1758273967986959600,5.230959716796875,-2.6830022354125975,-9.273790493011473,-0.7025485496520996
1758273967996917800,5.240917724609375,-2.6657939109802244,-9.472808506011962,-0.1788169364929199
1758273968006875600,5.250875732421875,-2.3027730842590333,-9.535357024383543,0.08215104446411133
1758273968016833500,5.26083349609375,-1.893514237976074,-9.152733671569823,-0.36317046432495115
1758273968026791700,5.270791748046875,-1.7438766342163086,-8.40798731765747,-1.1058218917846678
1758273968036748500,5.28074853515625,-2.300827795410156,-7.358429164886474,-2.5966613380432126
1758273968046706700,5.290706787109375,-2.5020903724670407,-5.191527024841308,-3.595791618347168
1758273968056664800,5.300664794921875,-2.877381482696533,-3.6070144386291503,-3.537582590484619
1758273968066622700,5.310622802734375,-3.0891186920166014,-2.795679351043701,-4.242824617004394
1758273968076580900,5.320580810546875,-3.0961516593933105,-2.442235330963135,-4.9549499732971185
1758273968086537500,5.330537353515625,-3.0433295852661133,-2.407968319702148,-4.91589455871582
1758273968096495600,5.34049560546875,-2.606537419891357,-2.5465327407836913,-4.648641798400878
1758273968106453800,5.350453857421875,-2.325817275238037,-2.852392002868652,-4.560804524993896
1758273968116411600,5.36041162109375,-2.4160487503051757,-3.2035914588928223,-4.42448466796875
1758273968126368800,5.37036865234375,-2.8576293190002438,-3.520374266052246,-4.28382532043457
1758273968136326700,5.38032666015625,-3.3541268882751463,-3.616740882873535,-3.9709330909729004
1758273968146284500,5.390284423828125,-3.7294179985046383,-3.77311217880249,-3.8521208335876462
1758273968156242700,5.40024267578125,-3.9624037475585934,-4.074931225585937,-4.056675437927246
1758273968166200600,5.41020068359375,-4.1760862457275385,-3.853317934417724,-3.832069394683838
1758273968176157700,5.42015771484375,-4.188655804443359,-3.717746265411377,-3.814561795043945
1758273968186115800,5.43011572265625,-4.455609289550781,-3.687070556640625,-3.652653907775879
1758273968196073500,5.440073486328125,-5.173869787597656,-3.8353614219665526,-3.3448493568420408
1758273968206031600,5.450031494140625,-6.4281321823120114,-4.076726876831055,-3.1159038230895995
1758273968215989500,5.459989501953125,-8.193107718658446,-4.299836544036865,-3.23681100692749
1758273968225946600,5.469946533203125,-10.04247886352539,-4.442291542816162,-3.564816634368896
1758273968235904800,5.47990478515625,-11.205312682342528,-4.4774563796997064,-3.9386113685607906
1758273968245862700,5.489862548828125,-10.721534309387206,-4.2320507095336914,-4.442890093231201
1758273968255820800,5.49982080078125,-8.599224175262451,-3.6260184143066403,-4.674678741455078
1758273968265777700,5.509777587890625,-6.018873336029053,-2.6210522674560544,-4.854842416381835
1758273968275735600,5.519735595703125,-4.065653694152831,-1.8834885185241699,-5.149778133392334
1758273968285693700,5.529693603515625,-4.414458948516845,-3.5996821960449217,-6.6524389503479
1758273968295651600,5.539651611328125,-7.041047807312012,-8.671648775482177,-10.222792176055908
1758273968305609700,5.549609619140625,-7.542633055114746,-14.25717161102295,-12.928539327239989
1758273968315566600,5.559566650390625,-9.749189160156249,-17.93391717300415,-13.756633826446532
1758273968325524500,5.5695244140625,-10.3169142288208,-19.79929954147339,-8.998906214904785
1758273968335482600,5.579482666015625,-1.6086042404174803,-17.14158606109619,2.721758374786377
1758273968345440500,5.5894404296875,1.995118170928955,-11.891101820373535,3.323151904296875
1758273968355397600,5.599397705078125,-2.7418098136901854,-7.329698744964599,-2.50912333984375
1758273968365355800,5.609355712890625,-6.172401517486572,-5.402815321350097,-6.264727919006347
1758273968375313700,5.619313720703125,-6.916399683380127,-5.195267964935303,-6.148758776092529
1758273968385271600,5.629271484375,-3.5525463508605957,-5.927145484924316,-3.9695863525390624
1758273968395229700,5.639229736328125,0.127042325592041,-7.016806515502929,-2.3689129051208493
1758273968405186300,5.649186279296875,0.6820481979370117,-7.881412590026855,-2.201169151306152
1758273968415144200,5.659144287109375,-0.5690718070983887,-8.827571158599852,-2.93035319442749
1758273968425102300,5.669102294921875,-2.3931541969299315,-9.999233596038819,-3.1144074470520016
1758273968435060200,5.679060302734375,-3.191021900177002,-11.0960772315979,-2.5095722526550293
1758273968445018000,5.68901806640625,-2.538901222991943,-11.852495318603514,-1.397465581512451
1758273968454975200,5.698975341796875,-1.8555062866210936,-12.05929448699951,-0.7594108390808105
1758273968464933000,5.70893310546875,-1.741033519744873,-11.597812117004393,-0.5832873794555664
1758273968474891300,5.718891357421875,-2.0223522148132322,-10.60421842803955,-0.766743081665039
1758273968484849200,5.72884912109375,-2.0676924087524413,-9.593416414642334,-1.1071686302185058
1758273968494806000,5.738805908203125,-1.9469348625183105,-8.705766149139404,-1.497872413635254
1758273968504764200,5.74876416015625,-1.722478456878662,-8.116792540740967,-1.8082208038330077
1758273968514722000,5.75872216796875,-1.871816785430908,-7.851634706878662,-2.382529927062988
1758273968524680200,5.76868017578125,-2.1535843933105467,-7.792976766204833,-2.9958944648742674
1758273968534638000,5.77863818359375,-2.014122146606445,-7.625981200408935,-2.3177368446350095
1758273968544595200,5.78859521484375,-1.4193126716613769,-7.935132489776611,-1.8462287551879881
1758273968554553000,5.798552978515625,-0.6322188758850097,-8.526201024627685,-1.7055694076538086
1758273968564511000,5.808510986328125,-0.15337854385375976,-9.09661957015991,-1.5179238525390624
1758273968574469000,5.81846923828125,-0.5291185668945312,-9.38571942062378,-1.3593079925537108
1758273968584426200,5.82842626953125,-1.441010124206543,-9.504232402801513,-0.7785644523620605
1758273968594384100,5.838384033203125,-2.2246622550964354,-9.49300958251953,-0.12419921112060546
1758273968604342300,5.84834228515625,-2.3527520439147946,-9.573963526153564,0.6444891593933105
1758273968614300200,5.858300048828125,-2.0745757385253905,-9.79393080368042,1.2841899154663086
1758273968624258000,5.868258056640625,-2.385971591949463,-9.828796365356444,2.1609166358947753
1758273968634215200,5.878215087890625,-2.8706477905273435,-9.701754039764404,2.5344120948791504
1758273968644173000,5.888173095703125,-2.808548184967041,-9.827150351715087,2.4684219116210935
1758273968654131200,5.898131103515625,-2.909852842712402,-9.911396322631836,2.3870190551757813
1758273968664089000,5.908089111328125,-2.779219214630127,-9.581445406341553,1.4662988792419434
1758273968674047200,5.918047119140625,-2.4548048896789547,-9.05307502746582,0.7122749938964843
1758273968684004000,5.928004150390625,-2.2981343185424805,-8.540416596984862,0.6913257293701172
1758273968693962000,5.9379619140625,-2.155978594970703,-8.500912269592284,-0.1571194839477539
1758273968703920000,5.947920166015625,-1.7052701324462889,-8.358157995605469,-0.5639841285705566
1758273968713878300,5.957878173828125,-1.4754267730712889,-8.404096739959716,-1.2849381034851073
1758273968723836200,5.967836181640625,-1.455674609375,-8.711901290893554,-2.316988656616211
1758273968733793300,5.977793212890625,-1.5837643981933593,-8.748113591003417,-2.247856083679199
1758273968743751200,5.987751220703125,-1.3742717529296875,-8.629600608825683,-1.8604443275451659
1758273968753709000,5.997708984375,-1.1561001266479491,-8.959701162719726,-1.1671733093261718
1758273968763667200,6.007667236328125,-0.5940612869262695,-9.28965207901001,-0.24974516067504882
1758273968773624000,6.0176240234375,-0.8762778076171874,-9.119514123535156,-0.244507844543457
1758273968783582200,6.027582275390625,-1.539920580291748,-8.79719472503662,-0.5960065757751465
1758273968793540400,6.037540283203125,-1.5988777961730956,-8.756493296813964,-0.3603273498535156
1758273968803498200,6.047498291015625,-1.455076058959961,-8.787617918395995,0.07422025146484375
1758273968813456100,6.0574560546875,-1.6023194610595701,-9.452308154296874,-0.021098902130126954
1758273968823413200,6.067413330078125,-2.0655974822998044,-9.855282221221923,0.18136077575683593
1758273968833371100,6.07737109375,-2.3183353950500485,-10.199747985076904,0.5717652839660644
1758273968843329300,6.087329345703125,-2.2694038986206055,-10.379163471984862,0.9892541984558105
1758273968853287200,6.097287109375,-1.9137153144836425,-10.349684864044189,1.5318401496887206
1758273968863245300,6.107245361328125,-1.9527707290649412,-10.40011273651123,1.7975965339660644
1758273968873202200,6.1172021484375,-2.318933945465088,-10.575488008117675,1.3947721046447754
1758273968883160000,6.12716015625,-2.6056395942687987,-10.59763437347412,1.129314995574951
1758273968893118200,6.1371181640625,-2.652625801849365,-11.068244637298584,0.43499651412963863
1758273968903076000,6.147076171875,-2.426523382568359,-11.800421432495117,-0.5360018966674804
1758273968913033200,6.157033203125,-2.00469497756958,-12.109572721862792,-1.2428899368286133
1758273968922991000,6.1669912109375,-1.9764134704589842,-11.742810955047606,-1.4294880287170408
1758273968932949000,6.176948974609375,-1.7449240974426268,-11.420491556549072,-1.6578350120544432
1758273968942907100,6.1869072265625,-1.066916114807129,-11.722011328125,-1.9556138435363768
1758273968952865000,6.196864990234375,-0.6781576202392577,-12.53199967727661,-2.2086510314941403
1758273968962822100,6.206822265625,-0.6498761131286621,-14.2249995262146,-2.0880431228637693
1758273968972780300,6.2167802734375,-0.548421817779541,-16.053571044158936,-1.703923394012451
1758273968982738200,6.22673828125,-1.1522095489501953,-16.506673708343506,-1.5101426971435545
1758273968992696000,6.236696044921875,-2.231096672058105,-15.861436360931396,-1.0353425804138183
1758273969002654000,6.246654052734375,-3.1543606872558594,-14.731373177337646,-0.5201403106689453
1758273969012611000,6.256611083984375,-3.5609260566711423,-13.410073136138916,-0.481384171295166
1758273969022569200,6.2665693359375,-3.7579987808227537,-12.789825268554686,-1.036838956451416
1758273969032527000,6.276527099609375,-3.5098996337890624,-12.742240510559082,-1.493383285522461
1758273969042485200,6.2864853515625,-2.7789199394226074,-12.439224362945556,-1.4163199195861815
1758273969052442000,6.296442138671875,-2.520944710540771,-11.998990532684326,-1.427542739868164
1758273969062400000,6.30639990234375,-2.467374448394775,-11.484386813354492,-1.9116203880310056
1758273969072358100,6.316358154296875,-2.6446950088500976,-11.25559091720581,-2.372354570007324
1758273969082316300,6.32631640625,-2.8315923759460446,-11.470620153808593,-2.8036101440429686
1758273969092274200,6.336274169921875,-2.639457692718506,-11.669787804412842,-2.819920642852783
1758273969102231300,6.346231201171875,-2.1555296821594236,-11.787402960968016,-2.6598084068298338
1758273969112189000,6.35618896484375,-1.1303624588012695,-11.550676271820068,-2.472013214111328
1758273969122147000,6.36614697265625,0.09831190567016601,-11.233294914245604,-2.1251532485961913
1758273969132105200,6.376105224609375,0.7257423782348632,-11.223269194793701,-1.5562310791015623
1758273969142063000,6.38606298828125,0.2733879020690918,-11.20411558151245,-1.5764321556091307
1758273969152020200,6.396020263671875,-0.6434416961669921,-11.21129818649292,-1.7923592178344725
1758273969161978400,6.405978271484375,-0.8782230964660644,-11.462390085601806,-1.8833388809204101
1758273969171936000,6.41593603515625,-1.02142628326416,-10.727669451141356,-2.2966379425048826
1758273969181894100,6.42589404296875,-1.2044330726623536,-9.642946461486815,-3.270629105377197
1758273969191851300,6.435851318359375,-0.9118915573120117,-9.081057259368896,-3.9618051971435544
1758273969201809200,6.44580908203125,-1.3614029190063475,-8.589048818206786,-4.055478337097168
1758273969211767300,6.455767333984375,-1.9358616798400878,-8.546701376342773,-4.088099334716796
1758273969221725200,6.46572509765625,-2.6509797882080077,-8.302343169403075,-4.019266036987305
1758273969231683300,6.475683349609375,-3.2632968627929686,-7.810783641052246,-4.264372431945801
1758273969241640200,6.48564013671875,-2.6197055290222164,-7.315183897399902,-4.281281481170654
1758273969251598000,6.49559814453125,-1.587804613494873,-6.851756238555907,-2.609829447174072
1758273969261556200,6.50555615234375,-2.383128477478027,-7.688230443572998,1.5783774444580077
1758273969271514000,6.51551416015625,-2.3650223274230955,-9.890895970916748,2.0720318992614746
1758273969281471200,6.52547119140625,-2.7720366096496583,-10.077793338012695,0.716315209197998
1758273969291429000,6.53542919921875,-3.328538858032226,-9.224709358978272,0.30406361083984373
1758273969301387000,6.545386962890625,-3.102137163543701,-8.33690945587158,0.21308394775390624
1758273969311345200,6.55534521484375,-2.033425397491455,-8.851363537597656,0.8632593360900879
1758273969321303000,6.565302978515625,-1.6255132896423339,-8.220790675354003,-0.1854009910583496
1758273969331260200,6.57526025390625,-1.3543699516296386,-6.975207261657714,-1.3584101669311524
1758273969341218300,6.58521826171875,-1.2114660400390624,-6.3515177291870115,-2.431162148284912
1758273969351176200,6.59517626953125,-1.6876128952026366,-4.917989485168457,-3.1790508918762206
1758273969361134000,6.605134033203125,-2.340481760406494,-3.475632622528076,-3.4491467666625977
1758273969371092000,6.615092041015625,-2.7793688522338864,-2.7136779441833494,-3.624372400665283
1758273969381049000,6.625049072265625,-2.8101941986083983,-2.8776807579040526,-4.153790242767334
1758273969391007200,6.63500732421875,-2.9242180526733397,-3.5344402008056637,-4.810848960876465
1758273969400964900,6.64496484375,-2.9864672958374023,-4.0441058792114255,-4.966023155975342
1758273969410923000,6.654923095703125,-2.966116581726074,-4.419247351837158,-5.144091904449462
1758273969420880000,6.6648798828125,-3.112911071014404,-4.546888227844238,-5.052812966156005
1758273969430837800,6.674837646484375,-2.7850550811767576,-4.878485157775879,-4.708646477508545
1758273969440796000,6.6847958984375,-2.8042086944580076,-4.898686234283447,-4.18162283706665
1758273969450754000,6.694754150390625,-3.0265701736450192,-4.823268881988525,-3.956268605804443
1758273969460712000,6.7047119140625,-3.2052374725341797,-4.649689261627197,-4.135833730316162
1758273969470668800,6.714668701171875,-3.3171664001464842,-4.270357936096191,-4.3156981300354005
1758273969480627000,6.724626953125,-3.5027170288085934,-3.918410292053222,-4.622904130554199
1758273969490584800,6.734584716796875,-3.6278140655517577,-3.615693419647217,-4.5133694046020505
1758273969500543000,6.74454296875,-3.789572315216064,-3.3659482589721677,-4.178480447387695
1758273969510500900,6.7545009765625,-4.339191233825684,-3.337517114257812,-4.130297138977051
1758273969520458000,6.7644580078125,-5.128080680847168,-3.3955765045166015,-4.337844495391845
1758273969530416000,6.774416015625,-6.113294664001464,-3.4220623603820797,-4.618415002441406
1758273969540373800,6.784373779296875,-7.227795536804199,-3.592948503875732,-4.966023155975342
1758273969550332000,6.794331787109375,-8.437017012786864,-3.756053491973877,-5.27322915649414
1758273969560289000,6.8042890625,-9.848548529052733,-3.8417958389282223,-5.561880094146728
1758273969570247000,6.814246826171875,-12.123040106201172,-4.396801711273193,-6.238242063140869
1758273969580205000,6.824205078125,-14.812626396179198,-5.387701923370361,-6.982838779449462
1758273969590163000,6.834162841796875,-15.471929678344726,-7.370699448394775,-7.082796698760986
1758273969600120800,6.844120849609375,-8.500014443969727,-10.352827253723143,-5.335029486846923
1758273969610078000,6.854077880859375,4.3801919372558595,-11.545588593292235,-3.847781343078613
1758273969620035800,6.864035888671875,1.987337015533447,-9.592817864227294,-4.096778315734863
1758273969629994000,6.873993896484375,-2.21523508605957,-8.52275935974121,-6.948721405792236
1758273969639952000,6.883951904296875,-3.967192150878906,-8.091803060913085,-10.659733979034423
1758273969649908700,6.89390869140625,-13.46528941192627,-8.742726637268065,-11.652429842376709
1758273969659867000,6.903866943359375,-8.99591346282959,-9.469965391540526,-6.7268088394165035
1758273969669824800,6.91382470703125,0.26979659957885743,-9.018658378601074,-1.5767314308166502
1758273969679783000,6.923782958984375,0.6730699417114258,-8.939350448608398,-0.9941922393798828
1758273969689740800,6.93374072265625,-1.7051204948425291,-10.144232434082031,-3.497928625488281
1758273969699698000,6.943697998046875,-4.968716632843018,-11.508777742767334,-5.807585039520263
1758273969709656000,6.953656005859375,-4.932354695129394,-12.461370728302,-5.052513690948486
1758273969719613700,6.96361376953125,-2.4984990699768064,-12.57105509185791,-3.712209674072265
1758273969729571800,6.97357177734375,-2.21538472366333,-11.582698719024657,-2.6116250984191893
1758273969739529700,6.98352978515625,-2.833388027191162,-10.601225675964354,-2.335992632293701
1758273969749486800,6.99348681640625,-3.7071219955444334,-9.814281517791747,-2.042254016113281
1758273969759445000,7.003445068359375,-3.9740754806518552,-9.567678746795654,-1.8698714965820311
1758273969769403000,7.01340283203125,-3.715052788543701,-9.6028435836792,-1.646462554168701
1758273969779361000,7.023361083984375,-3.114257809448242,-9.542240354156494,-0.9829694190979004
1758273969789319000,7.03331884765625,-2.359036823272705,-9.324068727874755,-0.2846107223510742
1758273969799275800,7.04327587890625,-1.767070462799072,-8.897601557159422,0.44412440795898434
1758273969809234000,7.05323388671875,-1.641973426055908,-8.736441857910156,0.7574655502319335
1758273969819191800,7.06319189453125,-1.7326538139343262,-9.11053586730957,0.4156932632446289
1758273969829150000,7.07314990234375,-1.9039888702392578,-9.525929855346678,-0.48198272171020506
1758273969839106800,7.08310693359375,-2.2628198440551754,-9.136572810363768,-0.40626609420776366
1758273969849064700,7.093064697265625,-2.508524789428711,-8.844480207824706,-0.5790975265502929
1758273969859022800,7.10302294921875,-2.8302456375122067,-8.566752815246582,-1.0664672019958497
1758273969868981000,7.11298095703125,-3.200598706817627,-8.090755597686767,-1.1915642387390135
1758273969878939000,7.12293896484375,-3.3448493568420408,-7.687182980346679,-0.7510311332702636
1758273969888896000,7.13289599609375,-2.656516379547119,-7.735067013549804,-0.4207809417724609
1758273969898854100,7.142854248046875,-1.8611925155639648,-8.103325156402587,-0.273238264465332
1758273969908811800,7.152811767578125,-1.8516157089233398,-8.452130410766602,-0.029927520751953124
1758273969918770000,7.16277001953125,-2.235885075378418,-8.875455191802978,0.2410661796569824
1758273969928726800,7.172726806640625,-2.2800281684875485,-9.270348828125,0.86191259765625
1758273969938685000,7.182684814453125,-1.8189947113037108,-9.246855724334717,1.7702128524780272
1758273969948643000,7.19264306640625,-1.8121113815307617,-9.24984847640991,2.0636521934509275
1758273969958601000,7.20260107421875,-2.1812673500061033,-9.585186346435547,1.9756652824401855
1758273969968558800,7.212558837890625,-2.1639093879699707,-9.62109937133789,1.9047370582580565
1758273969978516000,7.222515869140625,-2.527528765106201,-9.37913536605835,1.8350059349060057
1758273969988473900,7.232473876953125,-2.7527333587646483,-8.900594309234618,1.0999860252380371
1758273969998432000,7.242431884765625,-2.305915473937988,-8.463053955841064,0.045938744354248044
1758273970008390000,7.252389892578125,-2.059013427734375,-8.22243668899536,-0.9035118515014647
1758273970018348000,7.26234814453125,-2.3738509460449215,-8.153902666473389,-1.3819032707214354
1758273970028305000,7.272304931640625,-2.0630536430358886,-8.057984962463378,-1.4423568626403809
1758273970038262800,7.2822626953125,-1.8305168067932127,-8.38943225479126,-1.4157213691711426
1758273970048221000,7.292220947265625,-1.982847887420654,-8.804676605224609,-1.046415763092041
1758273970058178800,7.3021787109375,-2.0766706649780273,-9.283965850067139,-0.8044517578125
1758273970068136000,7.312135986328125,-1.762730972290039,-9.488670092010498,-0.38636429290771485
1758273970078094000,7.322093994140625,-1.3416507553100585,-9.236530729675293,-0.11851298217773437
1758273970088051700,7.3320517578125,-1.5040075553894041,-8.788066831207274,-0.10938508834838867
1758273970098009900,7.342009765625,-1.553238327026367,-8.41487064743042,-0.1949777976989746
1758273970107967700,7.3519677734375,-1.4050970993041991,-8.224830890655516,-0.19512743530273435
1758273970117924900,7.3619248046875,-1.3525743003845214,-8.440757952880858,-0.2651578338623047
1758273970127883000,7.371883056640625,-1.1999439445495605,-8.874557366180419,-0.03037643356323242
1758273970137841000,7.3818408203125,-1.2636895637512207,-9.419687156677245,0.33039982910156246
1758273970147799000,7.391799072265625,-1.5310919616699217,-10.001927072906494,0.6726210289001464
1758273970157757000,7.4017568359375,-1.5918448287963867,-10.280253015899657,0.7734767738342284
1758273970167713800,7.4117138671875,-1.9449895736694334,-10.498873554992675,0.8370727554321289
1758273970177672000,7.421671875,-2.2260089935302734,-10.707618012237548,1.1731588134765625
1758273970187629800,7.4316298828125,-2.1095909378051756,-10.996717862701415,1.2798504249572753
1758273970197588000,7.441587890625,-1.537975291442871,-11.394155338287353,0.9050082275390624
1758273970207544800,7.451544921875,-0.859967308807373,-11.768398985290526,0.29867665710449215
1758273970217502700,7.461502685546875,-0.8942343200683593,-11.963526420593261,-0.6052841072082519
1758273970227460900,7.4714609375,-1.3142670738220215,-12.332383113861082,-1.548150648498535
1758273970237419000,7.4814189453125,-1.1887211242675781,-12.864793708038329,-2.1402666465759275
1758273970247377000,7.491376953125,-0.7945756759643554,-13.038822241210937,-2.0036475143432617
1758273970257334000,7.501333984375,-0.4273649963378906,-13.265074298095703,-1.58331548538208
1758273970267292000,7.5112919921875,0.23223756103515625,-14.2249995262146,-1.460762287902832
1758273970277249800,7.521249755859375,0.6853402252197265,-15.803676245880126,-1.4872481437683105
1758273970287208000,7.5312080078125,-0.06988076095581054,-16.59331388092041,-2.1383213577270506
1758273970297165800,7.541165771484375,-1.3320739486694335,-15.544952828979492,-3.0144495277404784
1758273970307123000,7.551123046875,-3.245041075134277,-14.078504312133788,-3.3737294143676757
1758273970317081000,7.5610810546875,-4.186411240386962,-13.159280512237547,-2.6467899353027344
1758273970327039000,7.5710390625,-3.4440590881347655,-12.362460272216795,-1.2862848419189452
1758273970336996900,7.580996826171875,-2.4359505516052247,-11.656769332885741,-0.11985972061157225
1758273970346954000,7.5909541015625,-2.1742343826293946,-11.3389390625,0.22655133209228515
1758273970356911900,7.600911865234375,-2.581697577667236,-11.110442441558837,-0.13078326568603516
1758273970366870000,7.6108701171875,-3.162740393066406,-11.04520044631958,-0.7594108390808105
1758273970376828000,7.620827880859375,-3.694552436828613,-11.18526124343872,-1.4344260696411133
1758273970386786000,7.6307861328125,-4.314501029205322,-11.420341918945311,-1.7515081520080564
1758273970396743000,7.640742919921875,-4.4819455078125,-11.451616178131102,-1.6807295654296874
1758273970406701000,7.650701171875,-4.370615130615234,-11.562497642517089,-1.3561656028747557
1758273970416659200,7.6606591796875,-3.925293621826172,-11.634024417114258,-0.7628525039672851
1758273970426617000,7.6706171875,-2.705747151184082,-11.609932762908935,-0.3899555953979492
1758273970436574200,7.68057421875,-0.7333738960266113,-11.57476792602539,-0.10040683212280273
1758273970446532000,7.690531982421875,0.6223427940368652,-11.137077935028076,0.46028526916503903
1758273970456490000,7.700489990234375,0.624437720489502,-10.229076955413818,0.8855553390502929
1758273970466448100,7.7104482421875,1.6166846710205076,-9.377788627624511,0.6703764648437499
1758273970476406000,7.720406005859375,0.2856581855773926,-9.709235919952391,0.0613514175415039
1758273970486363100,7.730363037109375,0.10369885940551757,-10.086472319030761,-1.7257704841613768
1758273970496321300,7.7403212890625,-0.6976105087280273,-9.496151972198486,-3.0033763450622555
1758273970506279000,7.75027880859375,-2.350657117462158,-9.117868109893799,-3.9146693519592284
1758273970516237000,7.760237060546875,-2.7178677970886227,-8.652345524597168,-4.4473792213439935
1758273970526195000,7.77019482421875,-1.78113639755249,-8.490886550140381,-4.1088989616394045
1758273970536152000,7.780152099609375,-1.4143746307373046,-8.751255980682373,-4.017021472930908
1758273970546110200,7.790110107421875,-1.8327613708496093,-9.114426445007323,-3.9208044937133786
1758273970556068000,7.800068115234375,-2.1676503280639645,-9.28920316619873,-3.6839281669616697
1758273970566026200,7.810026123046875,-2.489221538543701,-9.288903890991211,-3.1420904037475585
1758273970575983000,7.819983154296875,-2.0579659645080564,-9.022100043487548,-1.4332289688110351
1758273970585941000,7.82994091796875,-1.9521721786499022,-9.69187795791626,-0.1566705711364746
1758273970595899100,7.839899169921875,-2.287510048675537,-10.643722755432128,0.17043723068237304
1758273970605857000,7.84985693359375,-2.587982357025146,-10.692953527069092,0.9307458953857422
1758273970615815200,7.859815185546875,-1.9119196632385254,-10.785130290985107,0.6896797157287597
1758273970625772000,7.86977197265625,-1.8237831146240233,-10.069862545013427,-1.2843395530700683
1758273970635730000,7.87972998046875,-1.2369044326782226,-8.771008144378662,-1.9773112960815429
1758273970645688000,7.88968798828125,-1.013196215057373,-7.218368367767334,-2.0866963844299313
1758273970655646200,7.899646240234375,-1.3057377304077147,-6.650044748687744,-1.582716934967041
1758273970665604000,7.90960400390625,-1.1981482933044434,-5.5157917121887206,-2.946514055633545
1758273970675561200,7.919561279296875,-0.7849988693237304,-3.782240072631836,-3.4132337417602536
1758273970685519000,7.92951904296875,-1.7585411193847655,-2.7000609222412106,-3.2878374298095703
1758273970695477000,7.93947705078125,-2.2520459365844725,-2.353051319122314,-4.113986640167236
1758273970705435100,7.94943505859375,-2.9958944648742674,-2.5706243949890135,-4.788702595520019
1758273970715392000,7.95939208984375,-3.60072965927124,-2.8350340408325194,-5.3670519340515135
1758273970725350100,7.96935009765625,-3.45378553237915,-3.201795807647705,-5.330091445922851
1758273970735308300,7.979308349609375,-3.143137866973877,-3.478775012207031,-4.886266313171387
1758273970745266200,7.98926611328125,-2.7651532798767087,-3.755155666351318,-4.4187984390258785
1758273970755224000,7.99922412109375,-2.5954642372131347,-3.886836757659912,-3.8564603240966795
1758273970765181200,8.00918115234375,-2.623296831512451,-3.771017252349853,-3.432836267852783
1758273970775139000,8.01913916015625,-2.976441576385498,-3.5085528953552245,-2.7896938468933103
1758273970785097200,8.02909716796875,-3.2845454025268555,-3.4810195762634275,-2.2135890724182126
1758273970795055000,8.03905517578125,-3.7158009765625,-3.319111688995361,-2.583193953704834
1758273970805012200,8.04901220703125,-4.642207381439209,-3.1790508918762206,-3.066822689056396
1758273970814970000,8.05897021484375,-6.037578036499023,-3.445106551361084,-3.611653204345703
1758273970824928000,8.068927978515624,-7.434445067596435,-3.933972602844238,-4.359691585540771
1758273970834886100,8.07888623046875,-8.19026460418701,-4.211699995422363,-5.170577760314941
1758273970844844000,8.088843994140625,-8.595632872772216,-4.093486288452148,-6.04595774230957
1758273970854801200,8.09880126953125,-10.40669679107666,-4.105756571960449,-7.03581049118042
1758273970864759300,8.10875927734375,-14.586075064086913,-4.789001870727539,-7.681496751403808
1758273970874717000,8.118717041015625,-15.627552786254881,-7.198915479278564,-7.950245887756347
1758273970884675000,8.128675048828125,-11.978041268157959,-12.108076345825195,-7.896077075195312
1758273970894632200,8.138632080078125,0.3929483474731445,-13.990367763519286,-6.363189462280273
1758273970904590000,8.148590087890625,3.1495722839355467,-11.040711318206787,-3.483862690734863
1758273970914548200,8.15854833984375,-0.28954876327514645,-10.190919366455077,-6.365733301544189
1758273970924506000,8.168506103515625,-1.8722656982421875,-9.016713089752196,-7.604134110260009
1758273970934464300,8.17846435546875,-9.603591771697998,-9.011625411224365,-5.560533355712891
1758273970944421000,8.188421142578125,-13.018920439910888,-10.631452471923827,-5.435137043762206
1758273970954379000,8.19837890625,-4.640711005401611,-9.865756853485108,-3.7092169219970703
1758273970964337200,8.208337158203125,-1.5228618934631346,-7.740304329681396,-1.9449895736694334
1758273970974295000,8.218294921875,-2.531868255615234,-6.9333087326049805,-2.5233389122009275
1758273970984253200,8.228253173828126,-3.631555005645752,-7.4503066535949705,-3.9528269409179684
1758273970994210000,8.2382099609375,-3.404704398345947,-8.443301792144775,-4.448875597381591
1758273971004168000,8.24816796875,-2.146252150726318,-9.258377819824219,-3.720739017486572
1758273971014126000,8.2581259765625,-1.352275025177002,-9.492261394500732,-2.8706477905273435
1758273971024084000,8.268083984375,-1.608155327606201,-9.374945513153076,-2.22166950302124
1758273971034041000,8.278041015625,-2.532616443634033,-9.362076679229736,-1.8752584503173828
1758273971043999200,8.287999267578124,-2.7181670722961426,-9.45485199356079,-1.8760066383361815
1758273971053957000,8.29795703125,-2.3006781578063964,-9.463979887390137,-1.6066589515686034
1758273971063915000,8.3079150390625,-1.843834553527832,-9.521889640045165,-1.4710872825622558
1758273971073873200,8.317873046875,-1.4842553916931152,-9.360580303192139,-1.2900257820129393
1758273971083830000,8.327830078125,-1.1062708045959473,-9.140613025665283,-0.7971195152282714
1758273971093788200,8.3377880859375,-0.8271966735839843,-8.984840280151367,-0.6102221481323242
1758273971103746000,8.34774609375,-1.0293570762634277,-9.081955084991455,-0.4116530479431152
1758273971113704200,8.3577041015625,-1.4887445198059082,-9.354295523834228,-0.21428104858398436
1758273971123662000,8.367662109375,-2.0400094520568848,-9.686191728973387,-0.9036614891052246
1758273971133619000,8.377618896484375,-2.7856536315917966,-9.806949275207518,-1.2101193016052245
1758273971143577000,8.3875771484375,-3.246986363983154,-9.532663547515869,-0.6521206771850585
1758273971153535200,8.39753515625,-2.969408609008789,-9.223661895751952,-0.36810850524902344
1758273971163493000,8.4074931640625,-2.4902690017700193,-8.85480520248413,-0.6654384239196777
1758273971173450000,8.417449951171875,-0.6877344268798827,-8.037185335540771,0.7888894470214843
1758273971183408000,8.427408203125,-0.021697452545166016,-8.505401397705077,1.4686930809020995
1758273971193366000,8.437365966796875,-0.3555389465332031,-9.598504093170165,0.2166752502441406
1758273971203324200,8.44732421875,-0.685040950012207,-9.865607215881347,-0.09412205276489258
1758273971213282000,8.457281982421875,-1.0111012886047364,-9.639953709411621,0.11701660614013672
1758273971223239200,8.4672392578125,-1.5770307060241697,-9.202263718414306,0.7676409072875976
1758273971233197300,8.477197265625,-2.4916157402038572,-9.403077382659912,1.2725181823730467
1758273971243155000,8.487155029296876,-3.0240263343811034,-9.688137017822266,1.0353425804138183
1758273971253113000,8.497113037109376,-2.244863331604004,-9.65970587310791,0.8336310905456542
1758273971263070200,8.5070703125,-1.4143746307373046,-9.504382040405273,-0.26066870574951173
1758273971273028000,8.517028076171876,-1.3494319107055663,-9.015815264129639,-1.0248679481506346
1758273971282986200,8.526986328125,-1.0365396812438965,-8.583811502075195,-1.375917766571045
1758273971292944100,8.536944091796874,-1.0881646545410155,-8.544606449890136,-2.0319290214538572
1758273971302902300,8.54690234375,-1.30873048248291,-8.54221224822998,-2.7724855224609373
1758273971312859100,8.556859130859374,-1.6232687255859375,-8.49821879272461,-2.908057191467285
1758273971322817000,8.566817138671874,-1.9457377616882323,-8.48445213317871,-2.353200956726074
1758273971332775200,8.576775146484374,-2.2842180213928223,-8.754847283172607,-1.4229039741516112
1758273971342733000,8.586733154296875,-2.3425766868591307,-8.708908538818358,-0.7197568740844726
1758273971352691200,8.596691162109375,-2.50253928527832,-9.09048442840576,-0.1801636749267578
1758273971362648000,8.60664794921875,-1.8649334556579589,-9.392303475189209,0.4568436042785644
1758273971372606000,8.61660595703125,-1.2457330513000489,-9.547477670288085,0.42182840499877927
1758273971382564000,8.626564208984375,-1.0119991142272948,-9.498995086669922,0.8390180442810058
1758273971392522000,8.63652197265625,-0.8641571617126464,-9.297283596801757,1.2164040809631347
1758273971402479600,8.646479736328125,-0.7676409072875976,-9.127145641326903,1.1575965026855468
1758273971412437800,8.656437744140625,-1.1897685874938964,-9.215431827545165,0.8224082702636718
1758273971422395600,8.666395751953125,-2.0980688423156737,-9.536404487609863,0.5246294387817383
1758273971432353500,8.676353515625,-3.1932664642333983,-9.784503634643555,0.47554830474853516
1758273971442311400,8.6863115234375,-3.9175124664306638,-9.964816947174072,0.5976525894165039
1758273971452268500,8.6962685546875,-3.962104472351074,-10.2793551902771,0.9572317512512206
1758273971462226700,8.706226806640625,-3.398419618988037,-10.820145490264892,1.577629256439209
1758273971472184600,8.7161845703125,-2.9056629898071287,-11.550077721405028,2.2176292877197263
1758273971482142700,8.726142822265626,-2.199373500061035,-11.691784532165526,2.6803087585449217
1758273971492100600,8.7361005859375,-1.3848960227966307,-11.257236930847167,2.1814169876098632
1758273971502057500,8.746057373046876,-1.2951134605407715,-10.80862339477539,0.8031050193786621
1758273971512015600,8.756015625,-1.3465887962341307,-10.990283445739745,-0.9964368034362793
1758273971521973500,8.765973388671876,-1.3572130661010742,-11.252448527526855,-2.3783400741577148
1758273971531931600,8.775931640625,-1.3848960227966307,-11.81673193130493,-3.0096611244201656
1758273971541888800,8.785888671875,-1.3398551040649413,-13.583802394104003,-2.7735329856872557
1758273971551846400,8.795846435546874,-1.1857283721923828,-15.344588077545165,-2.159120984649658
1758273971561804500,8.805804443359374,-1.1507131729125977,-16.44622011642456,-1.9623475357055662
1758273971571762700,8.8157626953125,-1.1426327423095703,-16.63775624923706,-1.9301754508972166
1758273971581720600,8.825720458984375,-1.5333365257263183,-15.90932039413452,-2.45779764175415
1758273971591677700,8.835677734375,-2.4781483558654784,-14.88250715713501,-2.9893104103088377
1758273971601635600,8.845635498046875,-2.9569886878967284,-13.739874414825438,-2.824260133361816
1758273971611593700,8.85559375,-2.744054377746582,-12.760795573425293,-2.2744915771484373
1758273971621551600,8.865551513671875,-2.377591886138916,-12.416479447174071,-2.063352918243408
1758273971631509500,8.875509521484375,-1.9586065956115721,-12.050615505981444,-1.9214964698791503
1758273971641466600,8.885466552734375,-1.4399626609802245,-11.66335338745117,-1.5562310791015623
1758273971651424800,8.8954248046875,-1.928679074859619,-11.620856307983399,-2.1097405754089356
1758273971661382700,8.905382568359375,-2.526481301879883,-11.23583875350952,-2.6605565948486327
1758273971671340800,8.9153408203125,-2.9319992080688473,-11.227907960510253,-2.6638486221313475
1758273971681297700,8.925297607421875,-3.310881620788574,-11.570727710723876,-2.240074928283691
1758273971691255600,8.935255615234375,-3.2707787429809567,-11.754033775329589,-1.6647183418273925
1758273971701213700,8.945213623046875,-2.978386865234375,-11.887959430694579,-1.9659388381958007
1758273971711171600,8.955171630859375,-1.783829874420166,-11.510274118804931,-2.0651485694885254
1758273971721129700,8.965129638671876,-0.1975216369628906,-10.804433541870116,-2.1212626708984375
1758273971731086600,8.975086669921875,0.4783914192199707,-10.396820709228516,-2.506429862976074
1758273971741044500,8.98504443359375,0.2929904281616211,-10.048614005279541,-2.9140426956176757
1758273971751002600,8.995002685546876,-0.1614589744567871,-9.509918631744384,-2.654421453094482
1758273971760960500,9.00496044921875,-1.0905588562011719,-9.26930136489868,-2.8285996238708493
1758273971770918700,9.014918701171876,-1.6035165618896483,-8.908974015045166,-3.1937153770446773
1758273971780875800,9.024875732421876,-1.9518729034423827,-8.501211544799805,-3.318962051391601
1758273971790833700,9.034833740234374,-1.9533692794799804,-8.402450726318358,-3.2314240531921383
1758273971800791600,9.04479150390625,-2.2053590042114255,-8.619724526977539,-2.888903578186035
1758273971810749400,9.05474951171875,-2.3956980361938474,-8.809764283752441,-2.4597429306030274
1758273971820707600,9.06470751953125,-2.822464482116699,-9.015067076110839,-2.2315455848693846
1758273971830664700,9.074664794921874,-2.9608792655944822,-8.930372192382812,-2.341678861236572
1758273971840622600,9.08462255859375,-2.5746646102905273,-8.550591954040527,-1.92164610748291
1758273971850580700,9.094580810546875,-1.663670878601074,-8.36997936630249,-0.5048772750854492
1758273971860538600,9.10453857421875,-1.4419079498291014,-8.353519229888915,1.709160710144043
1758273971870495500,9.11449560546875,-1.7326538139343262,-9.122506875610352,2.117671368408203
1758273971880453600,9.12445361328125,-1.8118121063232422,-9.94027638015747,1.6340426330566404
1758273971890411500,9.13441162109375,-1.7280150482177734,-9.791835877227783,1.4685434432983397
1758273971900369700,9.14436962890625,-2.0082862800598145,-9.452308154296874,0.5102642288208008
1758273971910327600,9.15432763671875,-2.1538836685180662,-9.2190231300354,-1.4107833282470703
1758273971920284400,9.164284423828125,-2.249801372528076,-8.236502623748779,-2.4103625213623046
1758273971930242600,9.17424267578125,-2.055272487640381,-7.158214051055908,-2.615665313720703
1758273971940200400,9.184200439453125,-2.384475215911865,-6.5397618347167965,-2.5815479400634764
1758273971950158600,9.19415869140625,-2.2095488571166992,-4.985176769256592,-3.1432875045776365
1758273971960116700,9.20411669921875,-2.2463597076416013,-3.7392940803527828,-3.624522038269043
1758273971970073600,9.214073486328125,-2.899677485656738,-3.19236863861084,-4.6903906898498535
1758273971980031500,9.224031494140625,-3.5148376747131347,-2.9397803634643553,-5.398176555633545
1758273971989989600,9.23398974609375,-3.910928411865234,-2.8603227958679196,-5.284003063964843
1758273971999947500,9.243947509765626,-4.011484881591796,-3.024475247192383,-4.962581491088867
1758273972009905700,9.25390576171875,-3.538181140899658,-3.4778771865844726,-4.7098435783386225
1758273972019862500,9.263862548828126,-2.7474960426330566,-4.004900827026367,-4.71148959197998
1758273972029820700,9.273820556640626,-2.412158172607422,-4.355202457427978,-4.659714981079102
1758273972039778800,9.28377880859375,-2.6123732864379883,-4.470273774719238,-4.138227931976318
1758273972049736400,9.293736328125,-2.991106061553955,-4.251353960418701,-3.5146880371093747
1758273972059693600,9.303693603515624,-3.4563293716430663,-3.9035961692810055,-3.349937035369873
1758273972069651700,9.313651611328124,-3.8941690002441405,-3.4759318977355953,-3.4823663146972654
1758273972079609600,9.323609619140624,-4.3059716857910155,-3.1988030555725095,-3.5869629997253414
1758273972089567700,9.333567626953124,-4.73722725982666,-3.27526787109375,-3.540724980163574
1758273972099525600,9.343525634765625,-5.116408947753906,-3.411138815307617,-3.5871126373291014
1758273972109483800,9.35348388671875,-5.572354726409912,-3.3056443046569823,-3.8193501983642575
1758273972119440600,9.363440673828125,-6.214150408935547,-3.189675161743164,-4.230703971099853
1758273972129398500,9.3733984375,-6.949319956207275,-3.076549133300781,-4.589235669708252
1758273972139356700,9.383356689453125,-7.606079399108887,-3.122338240051269,-4.8132431625366205
1758273972149314600,9.393314453125,-8.522609722137451,-3.084928839111328,-5.0376995681762695
1758273972159271700,9.403271728515625,-9.43629693069458,-3.1797990798950195,-5.409549013519287
1758273972169229600,9.4132294921875,-9.830292741394043,-3.282600113677978,-5.920262155151367
1758273972179187500,9.4231875,-10.52805288772583,-3.7288194480895993,-6.3627405494689935
1758273972189145600,9.4331455078125,-11.592275525665283,-4.535216494750976,-6.152499716186523
1758273972199103500,9.443103515625,-11.022156255340576,-5.806687213897705,-5.285948352813721
1758273972209060600,9.453060546875,-10.087519782257079,-9.48133784942627,-4.574870459747314
1758273972219018800,9.463018798828125,-3.1203929512023922,-14.388852702331542,-5.680093801116943
1758273972228976600,9.4729765625,-3.501968840789795,-14.885799184417724,-7.615506568145752
1758273972238934500,9.4829345703125,-6.1544450050354,-12.946495839691162,-9.44243207244873
1758273972248892700,9.492892578125,-3.9285856491088866,-9.681104050445557,-8.116642903137206
1758273972258849500,9.502849609375,-10.345046098327636,-7.270142978668212,-6.035632747650146
1758273972268807700,9.5128076171875,-8.916755170440673,-7.0835448867797846,-5.045181448364257
1758273972278765600,9.522765625,-2.1538836685180662,-6.212354757690429,-3.283946852111816
1758273972288723700,9.5327236328125,-2.2960393920898436,-5.361066429901123,-2.4453777206420897
1758273972298681600,9.542681640625,-2.032677209472656,-6.489782875061035,-2.628384510040283
1758273972308638500,9.552638427734376,-2.238279277038574,-8.741230261230468,-3.212120802307129
1758273972318596600,9.5625966796875,-2.353350594329834,-10.960206287384032,-2.794332612609863
1758273972328554800,9.5725546875,-1.5685013626098632,-12.41707799758911,-1.8463783927917479
1758273972338512600,9.5825126953125,-1.11734398727417,-12.657395989227295,-1.2048819854736328
1758273972348470800,9.592470703125,-1.9850924514770507,-12.18035130844116,-0.7541735229492187
1758273972358427600,9.602427734375,-3.1905729873657225,-12.062137601470946,-0.6314706878662109
1758273972368385500,9.612385498046875,-4.033331971740722,-11.973851415252685,-1.1257236930847168
1758273972378343700,9.62234375,-3.867084593963623,-11.18615906906128,-1.456273159790039
1758273972388301600,9.632301513671875,-2.9447184043884276,-9.82520506286621,-0.9906009368896483
1758273972398259700,9.642259765625,-2.0260931549072265,-8.870666788482666,-0.9279027809143066
1758273972408216300,9.65221630859375,-1.2057798110961913,-8.094346900177001,-0.2823661582946777
1758273972418174200,9.66217431640625,-0.5033808990478515,-8.081777341461182,0.12195464706420897
1758273972428132000,9.672132080078125,-0.263062907409668,-8.817844714355468,-0.8601169464111328
1758273972438090000,9.682090087890625,-0.5467758041381836,-9.222614432525635,-1.330427935028076
1758273972448048000,9.692048095703125,-0.8521861534118652,-9.4879219039917,-1.5638625968933104
1758273972458005200,9.702005126953125,-1.1490671592712403,-9.595960253906249,-1.48754741897583
1758273972467963100,9.711963134765625,-1.2593500732421874,-9.62843161392212,-1.0806827743530272
1758273972477921300,9.72192138671875,-1.5221137054443359,-9.590722937774657,-1.441010124206543
1758273972487879000,9.73187890625,-1.4456488899230957,-9.233238702392578,-0.8111854499816894
1758273972497837000,9.741837158203126,-1.5668553489685058,-8.903287786102295,0.45549686584472654
1758273972507794200,9.751794189453125,-1.9936217948913573,-9.184606481170654,0.7366659233093261
1758273972517752000,9.761751953125,-2.134281142425537,-9.681702600860595,0.6697779144287109
1758273972527710200,9.771710205078126,-1.9205986442565917,-9.545831656646728,0.6452373474121094
1758273972537668400,9.78166845703125,-1.4354735328674315,-8.91825154647827,0.5696703575134276
1758273972547626200,9.791626220703124,-1.4398130233764648,-8.423549628448486,0.03037643356323242
1758273972557583000,9.8015830078125,-1.7589900321960448,-8.31850403060913,0.02693476867675781
1758273972567541200,9.811541259765624,-2.029684457397461,-8.749011416625976,0.06000467910766601
1758273972577499100,9.8214990234375,-2.118269918823242,-9.113528619384764,0.5687725318908691
1758273972587457300,9.831457275390624,-2.3241712615966796,-9.235183991241454,1.2389993591308592
1758273972597415200,9.841415283203125,-2.264465857696533,-9.395745140075682,0.6847416748046875
1758273972607372000,9.8513720703125,-2.129792014312744,-9.504082765197753,-0.05686228942871093
1758273972617330200,9.861330078125,-1.843086365509033,-8.817994351959229,-0.21532851181030271
1758273972627288000,9.8712880859375,-1.793406681060791,-8.36997936630249,-1.0919055946350098
1758273972637246200,9.88124609375,-1.8357541229248047,-8.221987776184081,-1.5650596977233886
1758273972647204000,9.8912041015625,-1.533486163330078,-8.006958539581298,-1.25770405960083
1758273972657161200,9.9011611328125,-1.2032359718322754,-8.03778388595581,-0.7799111907958984
1758273972667119400,9.911119384765625,-1.3581108917236326,-8.419359775543212,-0.5270236404418945
1758273972677077000,9.921076904296875,-1.4567220726013184,-9.076717768859863,-0.037409400939941405
1758273972687035100,9.93103515625,-1.3708300880432127,-9.401880281829833,0.09576806640624999
1758273972696993000,9.940992919921875,-1.5578770927429197,-9.453056342315673,0.04159925384521484
1758273972706951200,9.950951171875,-1.7003320915222166,-9.485378064727783,0.397736750793457
1758273972716908300,9.960908203125,-1.3964181182861328,-9.413103102111815,0.6361094535827636
1758273972726866200,9.9708662109375,-0.7570166374206543,-9.086294575500487,0.977432827758789
1758273972736824000,9.980823974609375,-0.40282442932128903,-8.849418248748778,1.345840608215332
1758273972746782000,9.990781982421876,-0.5458779785156249,-8.795399073791504,1.4586673614501953
1758273972756740000,10.000739990234376,-1.1145008728027344,-9.029731561279297,1.2574047843933105
1758273972766697200,10.010697265625,-1.9099743743896482,-9.211092337036133,1.1451765815734862
1758273972776655000,10.020655029296876,-2.5323171684265136,-9.349507120513916,1.1685200477600097
1758273972786613200,10.03061328125,-2.889651766204834,-9.509320081329346,1.2301707405090332
1758273972796571100,10.040571044921874,-2.9994857673645017,-9.572167874908446,1.1662754837036131
1758273972806529000,10.050529052734374,-2.8577789566040037,-9.683049339294433,1.2415431983947753
1758273972816486100,10.060486083984374,-2.4703672004699704,-9.852439106750488,1.446696353149414
1758273972826444000,10.070444091796874,-1.8537106353759765,-10.090213259124756,1.5595231063842772
1758273972836402200,10.080402099609374,-1.3135188858032225,-10.393528681945801,1.412130066680908
1758273972846360300,10.0903603515625,-1.0244190353393554,-10.690409687805175,1.098788924407959
1758273972856318200,10.100318115234375,-0.7127239067077636,-10.934468619537354,0.6603507453918457
1758273972866275000,10.110275146484375,-0.32785598983764647,-11.2362876663208,0.01945288848876953
1758273972876233200,10.120233154296875,-0.07541735229492187,-11.522095489501952,-0.7173626724243164
1758273972886191000,10.130191162109375,0.011372457885742187,-11.767501159667969,-1.5480010108947753
1758273972896149200,10.140149169921875,-0.35778351058959956,-12.472443910980225,-2.6945243309020994
1758273972906107100,10.150107177734375,-0.7625532287597656,-14.094665173339843,-3.9285856491088866
1758273972916064300,10.160064208984375,0.015113397979736327,-15.421501805877684,-3.801094410705566
1758273972926022100,10.170022216796875,0.852934341430664,-15.344288802337646,-1.3401543792724608
1758273972935980000,10.17997998046875,1.4668974296569823,-14.471901572418211,0.48452656097412106
1758273972945938200,10.189938232421875,1.4600140998840332,-14.418630585479736,0.3742436470031738
1758273972955896000,10.19989599609375,0.16026187362670896,-15.888520767211913,-0.41105449752807616
1758273972965854200,10.209854248046875,-1.0975918235778808,-16.12749202041626,-1.4404115737915038
1758273972975811300,10.219811279296875,-1.564760422515869,-14.592659118652342,-1.9978116477966308
1758273972985769000,10.22976904296875,-2.0872949348449708,-13.2282634475708,-2.1760300338745115
1758273972995727000,10.23972705078125,-3.191620450592041,-12.038943772888183,-2.341678861236572
1758273973005685000,10.24968505859375,-3.07714768371582,-11.355698474121093,-1.8920178619384764
1758273973015643100,10.25964306640625,-2.653224352264404,-11.17957501449585,-1.0462661254882812
1758273973025600300,10.269600341796876,-2.5308207923889157,-11.005546481323242,-0.411802685546875
1758273973035558100,10.27955810546875,-2.583044316101074,-10.862642569732666,-0.07018003616333007
1758273973045516300,10.289516357421874,-2.344821250915527,-10.915913556671143,0.03456628646850586
1758273973055474000,10.299473876953124,-2.111985139465332,-11.20411558151245,-0.23867197799682616
1758273973065432000,10.30943212890625,-2.1058499977111813,-11.505635353088378,-0.5776011505126952
1758273973075389200,10.31938916015625,-2.140565921783447,-11.697620398712157,-0.8539818046569824
1758273973085347000,10.32934716796875,-1.7998410980224608,-11.571625536346435,-0.9169792358398436
1758273973095305200,10.33930517578125,-1.1354501373291015,-11.180173564910888,-0.785896694946289
1758273973105263400,10.349263427734375,-0.7121253562927246,-10.8401969291687,-0.6139630882263183
1758273973115221200,10.35922119140625,-0.0330699104309082,-10.382904412078856,-0.3737947341918945
1758273973125179100,10.36917919921875,0.8285434120178222,-9.702502227783203,-0.6838438491821288
1758273973135136000,10.379135986328125,1.6629226905822754,-8.715342955780029,-1.10447515335083
1758273973145094100,10.38909423828125,2.777722838592529,-7.9035589553833,-1.5514426757812498
1758273973155052300,10.39905224609375,2.9727006362915036,-7.697059062194824,-2.3493103790283203
1758273973165010200,10.40901025390625,2.544737089538574,-7.293486444854736,-2.711283742523193
1758273973174968300,10.41896826171875,1.1266215187072752,-7.06109924621582,-3.549104685974121
1758273973184925200,10.42892529296875,-0.32172084808349605,-7.24620096206665,-5.239111782836914
1758273973194883000,10.438883056640625,-0.859368758392334,-7.315333535003662,-6.200234111785888
1758273973204841200,10.44884130859375,-0.16549918975830077,-7.1954738143920896,-6.565499502563476
1758273973214799000,10.458799072265625,0.7408557762145995,-7.185597732543945,-6.14127689590454
1758273973224757200,10.46875732421875,0.2796726814270019,-7.2054995338439936,-4.888510877227783
1758273973234714000,10.478714111328125,-0.7689876457214355,-7.167790857696533,-3.474585159301758
1758273973244672000,10.488672119140626,-1.0607809730529785,-7.2726868179321285,-2.363376313781738
1758273973254630100,10.498630126953126,-0.5333084197998047,-7.1881415718078605,-1.088463929748535
1758273973264588000,10.508588134765626,-0.3435679382324219,-7.408707399749756,-0.33399113159179683
1758273973274546200,10.518546142578124,-0.5407902999877929,-7.692719571685791,1.3175591011047363
1758273973284504000,10.528504150390624,-0.11671733093261719,-8.242637765502929,1.5752350547790526
1758273973294461200,10.538461181640624,-0.4950011932373047,-8.027608528900146,0.009427169036865234
1758273973304419000,10.548419189453124,-1.3675380607604979,-7.012766300201416,-1.0935516082763672
1758273973314377000,10.558376953125,-0.9979331794738769,-6.311414851379394,-1.5065513946533202
1758273973324335000,10.568335205078125,-0.6866869636535644,-5.990891104125976,-1.8234838394165038
1758273973334293200,10.578293212890625,-1.2288240020751953,-6.676081691741943,-2.046743144226074
1758273973344250000,10.58825,-0.6127659873962402,-6.539462559509277,-2.133832229614258
1758273973354208300,10.598208251953125,-0.13123217849731444,-6.1942486076354975,-2.1191677444458006
1758273973364166100,10.608166259765625,-0.4433762199401855,-6.309619200134277,-2.198924587249756
1758273973374124000,10.6181240234375,-0.5632359405517577,-6.500407144927978,-2.139967371368408
1758273973384082200,10.628082275390625,-0.4128501487731933,-6.473173101043701,-2.0759224769592284
1758273973394039000,10.6380390625,-0.14484920043945312,-6.685508860778808,-2.356642621612549
1758273973403997200,10.6479970703125,-0.03067570877075195,-6.723217536926269,-2.5380033973693847
1758273973413955300,10.657955322265625,-0.2367266891479492,-6.7274073898315425,-2.560748313140869
1758273973423913200,10.667913330078125,-0.280271231842041,-7.196521277618408,-2.5480291168212887
1758273973433871400,10.677871337890625,-0.1892915687561035,-7.200112580108642,-2.20909994430542
1758273973443829200,10.687829345703125,-0.017956512451171875,-7.061248883819579,-1.725620846557617
1758273973453786000,10.6977861328125,0.33488895721435546,-7.600093894958496,-1.900547205352783
1758273973463744300,10.707744140625,-0.05431845016479492,-8.627804957580565,-2.4034791915893554
1758273973473702100,10.7177021484375,-1.1959037292480468,-11.265466999053954,-3.330035234069824
1758273973483660300,10.727660400390626,-1.7175404159545897,-13.071143963623046,-3.303399740600586
1758273973493618200,10.7376181640625,-2.2946926536560057,-13.460201733398437,-2.2786814300537106
1758273973503575300,10.7475751953125,-3.7448306716918944,-14.506467858886717,-2.625691033172607
1758273973513533200,10.757533203125,-5.7986067832946775,-16.096816311645508,-4.733037406921387
1758273973523491000,10.767490966796874,-7.61670366897583,-16.112378622436523,-5.587168849182128
1758273973533449200,10.77744921875,-11.301978574371336,-14.0717706199646,-3.1794998046874996
1758273973543407000,10.787406982421874,-19.762189415740966,-12.012457917022704,0.20395605392456054
1758273973553365200,10.797365234375,-21.367052716064453,-11.507730279541015,1.227028350830078
1758273973563322400,10.807322265625,-5.4981344749450685,-9.422230995941161,1.0863690032958984
1758273973573280300,10.8172802734375,13.306224639129638,-5.850231756591796,1.6151882949829102
1758273973583238100,10.827238037109375,18.891597837066648,-3.5042134048461913,0.9277531433105468
1758273973593196000,10.837196044921875,9.68499462814331,-3.9107787742614746,1.0871171913146973
1758273973603154200,10.847154296875,4.244470630645751,-6.140229432678222,1.34718734664917
1758273973613111300,10.857111328125,-1.4758756858825683,-8.506448860931396,0.05132569808959961
1758273973623069200,10.867069091796875,-13.804517859649657,-11.055675078582762,-4.3363481193542475
1758273973633027300,10.87702734375,-11.895890223693847,-14.472051210021972,-5.448305152893066
1758273973642985200,10.886985107421875,0.3893570449829101,-11.62549507369995,-1.6268600280761718
1758273973652943000,10.896943115234375,8.970923983001708,-10.085873768615722,-3.1120132453918457
1758273973662901200,10.9069013671875,7.428309925842285,-10.630704283905029,-5.776460417938232
1758273973672858000,10.916858154296875,0.49574938125610346,-8.322993158721923,-3.386298973083496
1758273973682816300,10.926816162109375,-0.340275910949707,-8.486995972442626,-2.588880182647705
1758273973692774400,10.9367744140625,-1.401954709625244,-9.21243907546997,-1.5761328804016113
1758273973702732300,10.946732177734376,-2.992303162384033,-9.01491743850708,-0.03441664886474609
1758273973712690200,10.956690185546876,-4.088398609924316,-9.226953923034667,1.0488099647521971
1758273973722647300,10.966647216796876,-3.081038261413574,-9.541043253326416,1.9713257919311522
1758273973732605200,10.976605224609376,-1.0485106895446776,-10.101286441802978,1.88977329788208
1758273973742563300,10.986563232421876,0.24346038131713865,-10.837952365112304,0.5491700057983399
1758273973752521200,10.996521240234374,-0.020649989318847654,-10.077494062805176,-0.9403227020263671
1758273973762479400,11.006479248046874,-0.35838206100463865,-9.578003741455078,-2.634220376586914
1758273973772437200,11.016437255859374,-0.7288847679138183,-10.988188519287108,-4.666299035644531
1758273973782394000,11.02639404296875,-1.7963994331359863,-9.982324546813965,-5.208286436462402
1758273973792352300,11.036352294921874,-1.6163853958129881,-9.024943157958983,-4.667196861267089
1758273973802310100,11.04631005859375,-2.0031986015319823,-9.763704007720946,-3.47922392501831
1758273973812268300,11.056268310546875,-1.3066355560302734,-10.01015714111328,-1.1613374427795409
1758273973822226200,11.06622607421875,-0.2680009483337402,-11.245565197753905,0.2910451393127441
1758273973832183000,11.07618310546875,0.7178115852355956,-8.414272097015381,1.7705121276855467
1758273973842141200,11.08614111328125,1.4384662849426268,-7.5540055130004875,1.5738883163452146
1758273973852099000,11.09609912109375,0.6877344268798827,-8.577526722717284,0.6992565223693847
1758273973862057200,11.10605712890625,-0.3329436683654785,-9.396792603302002,-0.011971008300781249
1758273973872015400,11.116015380859375,-1.1710638870239256,-9.807098912811279,-0.5041290870666504
1758273973881973200,11.12597314453125,-1.5375263786315918,-10.018836122131347,-1.09819037399292
1758273973891930400,11.135930419921875,-1.1037269653320312,-10.460267053222656,-1.6163853958129881
1758273973901888300,11.14588818359375,-0.4664204109191894,-11.308861904144287,-1.9333178405761717
1758273973911846100,11.15584619140625,0.1258452247619629,-11.310507917785644,-1.9964649093627929
1758273973921804300,11.16580419921875,0.2659060218811035,-9.971550639343262,-1.636287197113037
1758273973931762200,11.17576220703125,0.16998831787109375,-9.006986645507812,-1.4139257179260254
1758273973941719300,11.18571923828125,0.18210896377563476,-9.408763611602783,-1.725620846557617
1758273973951677400,11.195677490234376,0.26276363220214843,-10.183587123870849,-2.0958242782592773
1758273973961635300,11.20563525390625,-0.03037643356323242,-10.060884288787841,-2.233191598510742
1758273973971593200,11.21559326171875,-0.55545478515625,-10.076446599578857,-2.117521730804443
1758273973981551000,11.225551025390626,-0.5998971534729004,-10.096797313690185,-1.774253067779541
1758273973991509200,11.23550927734375,-0.43080666122436523,-9.963919121551513,-1.3189058395385742
1758273974001466400,11.24546630859375,0.0674865592956543,-9.579200842285156,-0.9600748657226562
1758273974011424300,11.25542431640625,0.522833787536621,-9.055319591522217,-0.8940846824645996
1758273974021382400,11.26538232421875,0.22909517135620117,-7.818265521240234,-1.0119991142272948
1758273974031340000,11.275340087890624,0.20709844360351562,-7.4108023262023925,-1.6148890197753905
1758273974041298200,11.285298095703125,1.5683517250061034,-10.863839670562744,-3.1515175727844236
1758273974051256000,11.295256103515625,2.919728924560547,-10.313622201538085,-2.540098323822021
1758273974061213200,11.305213134765625,2.972401361083984,-7.60982033920288,-1.2538134819030762
1758273974071171300,11.31517138671875,0.503081623840332,-7.91687670211792,-1.4252981758117675
1758273974081129200,11.325129150390625,-4.165162700653076,-9.259275645446778,-1.9137153144836425
1758273974091087400,11.33508740234375,-6.721721160888672,-10.504859059143065,-1.9117700256347656
1758273974101045200,11.345045166015625,-2.2789807052612305,-12.395230907440185,-1.601870548248291
1758273974111002000,11.355002197265625,1.3208511283874511,-13.958046041107178,-1.6133926437377928
1758273974120960300,11.364960205078125,-0.14006079711914063,-12.384606637573242,-1.006761798095703
1758273974130918100,11.374918212890625,-1.171512799835205,-10.350133776855468,-0.7653963432312011
1758273974140876300,11.384876220703125,-0.5098153160095215,-10.782436814117432,-1.5068506698608397
1758273974150834400,11.39483447265625,0.9867103591918944,-11.965471709442138,-2.030881558227539
1758273974160792300,11.404792236328126,1.1616367179870606,-12.626720280456542,-1.9451392112731933
1758273974170749200,11.414749267578125,-0.3485059791564941,-12.74283906097412,-1.7152958518981933
1758273974180707300,11.424707275390626,-0.30840310134887694,-13.67478205718994,-2.6761189056396484
1758273974190665200,11.434665283203126,0.6166565650939941,-14.782698875427245,-3.612850305175781
1758273974200623400,11.444623291015626,1.2840402778625488,-15.193454097747802,-3.3137247352600094
1758273974210581200,11.454581298828124,2.1006126815795896,-15.191508808898925,-2.3823802894592285
1758273974220539400,11.464539306640624,2.418442951965332,-14.3008657913208,-1.0808324119567871
1758273974230496300,11.474496337890624,1.6870143447875976,-11.994052491760254,0.1352723937988281
1758273974240454100,11.4844541015625,0.3553893089294433,-8.997260201263428,0.7407061386108398
1758273974250412300,11.494412353515624,-0.2145803237915039,-9.568576572418213,-0.5349544334411621
1758273974260370200,11.5043701171875,-0.14619593887329102,-12.325799059295653,-2.6138696624755857
1758273974270328300,11.514328369140625,1.4567220726013184,-15.372869584655762,-3.6469676788330077
1758273974280285200,11.52428515625,3.3170167625427243,-15.179088887786865,-2.4066215812683103
1758273974290243000,11.5342431640625,2.8239608581542965,-14.99712956161499,-1.916558428955078
1758273974300201200,11.544201171875,1.7325041763305664,-13.943830468749999,-1.0621277114868164
1758273974310159000,11.5541591796875,0.2567781280517578,-10.92968021621704,-0.37843349990844727
1758273974320117200,11.5641171875,0.39145197143554683,-11.021707342529297,0.4429273071289062
1758273974330075100,11.5740751953125,1.804180588531494,-12.648567370605468,1.4879963317871092
1758273974340032300,11.5840322265625,0.3591302490234375,-12.169427763366699,2.653373989868164
1758273974349990100,11.593990234375,0.47854105682373044,-10.791564707946776,4.874145667266846
1758273974359948000,11.603947998046875,4.061613478851318,-12.007968788909912,6.507739387512206
1758273974369906200,11.61390625,-2.514809568786621,-9.420136069488525,7.825448126220703
1758273974379864300,11.6238642578125,-4.499902020263671,-8.794950160980225,7.030722812652588
1758273974389821200,11.6338212890625,-1.035492218017578,-9.402927745056152,6.492476351928711
1758273974399779300,11.643779296875,-0.4917091659545898,-7.6571058219909665,6.298097104644775
1758273974409737200,11.6537373046875,-3.2070331237792966,-7.293636082458495,4.030937770080566
1758273974419695000,11.663695068359376,-8.150461001586914,-9.017461277770996,3.5345898384094236
1758273974429653200,11.6736533203125,-2.84086990737915,-8.806023343658447,5.7046343681335445
1758273974439611100,11.683611083984376,8.496423141479491,-9.447519750976562,6.222081201934814
1758273974449568000,11.693568115234376,1.9623475357055662,-9.677363110351562,9.17981807785034
1758273974459526100,11.703526123046874,-9.72300257949829,-8.048707431030273,11.344176378631591
1758273974469484000,11.713484130859374,-8.28034644165039,-6.151751528167725,15.394866312408446
1758273974479442200,11.723442138671874,1.2427402992248535,-7.856572747802734,16.769437340545654
1758273974489400000,11.733400146484374,3.130119395446777,-9.616610243225097,15.045462507629393
1758273974499358200,11.743358154296875,5.342661004638671,-9.62693523788452,13.039720066833496
1758273974509315000,11.753315185546874,7.138312249755859,-8.52335791015625,11.022605168151856
1758273974519273000,11.76327294921875,8.012644768524169,-7.296030284118652,8.831012823486327
1758273974529231000,11.773231201171875,8.582764038848877,-6.7091516021728514,6.050297232818603
1758273974539189000,11.78318896484375,8.90044467163086,-6.502950984191894,3.0732571060180662
1758273974549147100,11.793147216796875,8.818892177581787,-5.6091655769348145,0.819116242980957
1758273974559104300,11.803104248046875,8.108712110137938,-3.584868073272705,-0.6139630882263183
1758273974569062000,11.813061767578125,7.072172428894042,-1.44280577545166,-1.638232485961914
1758273974579020000,11.82302001953125,5.294477696228027,0.603338818359375,-2.5029881980895996
1758273974588978200,11.832978271484375,4.777928688049316,2.7602152389526364,-2.7506384323120114
1758273974598936000,11.84293603515625,4.572326620483398,3.5877111877441403,-3.151367935180664
1758273974608894200,11.852894287109375,4.57097988204956,4.198382248687744,-3.419518521118164
1758273974618851000,11.86285107421875,5.718251390075683,4.819976854705811,-3.4467525650024413
1758273974628809200,11.872809326171875,7.110928568267822,4.157381545257568,-3.3246482803344724
1758273974638767000,11.88276708984375,8.16557439956665,2.910750668334961,-2.966864769744873
1758273974648725000,11.89272509765625,8.595333597564697,0.9762357269287109,-2.9319992080688473
1758273974658683100,11.90268310546875,8.744821563720702,-0.3298012786865234,-2.5086744270324703
1758273974668641000,11.91264111328125,8.500164081573486,-0.7896376350402832,-2.0031986015319823
1758273974678598100,11.92259814453125,7.864204265594482,-0.6408978569030761,-1.8701707717895506
1758273974688556300,11.932556396484374,7.3292498321533195,-0.27099370040893556,-1.8336591964721678
1758273974698514200,11.94251416015625,7.3000704994201655,0.13242927932739257,-1.7986439971923827
1758273974708472000,11.95247216796875,7.179911503601073,0.23523031311035156,-1.7003320915222166
1758273974718430000,11.962429931640624,6.747907741546631,-0.03516483688354492,-1.6343419082641601
1758273974728387000,11.972386962890624,6.3800985115051265,-0.5621884773254394,-1.6603788513183593
1758273974738345200,11.98234521484375,6.083516780853271,-1.016338604736328,-1.741632070159912
1758273974748303000,11.99230322265625,5.822997712707519,-1.6500538566589356,-1.9815011489868164
1758273974758261200,12.00226123046875,5.453542469024658,-2.1076456489562987,-2.2960393920898436
1758273974768219000,12.012218994140625,5.257666845703125,-2.3808839134216306,-2.74525147857666
1758273974778177000,12.022177001953125,6.102820031738281,-2.456001990509033,-3.1515175727844236
1758273974788134100,12.032134033203125,20.100669675445555,-2.394949848175049,1.3527239379882812
1758273974798092000,12.042092041015625,23.32850242614746,-2.482787121582031,5.559485892486572
1758273974808050200,12.05205029296875,6.003161387634277,-2.5650878036499023,-0.9373299499511718
1758273974818008000,12.062008056640625,6.00765051574707,-2.0588637901306153,-1.5518915885925293
1758273974827966200,12.07196630859375,4.938489836883544,-1.8498200576782224,2.9836241813659665
1758273974837924000,12.081924072265625,4.055777612304687,-0.9449614677429199,11.432013652038574
1758273974847881000,12.091880859375,7.267898414611816,-2.419041502380371,12.616245648193358
1758273974857839000,12.101839111328125,9.820117384338378,-3.170371910858154,2.707991715240478
1758273974867797200,12.11179736328125,10.50216558227539,-0.6938695686340332,-9.711031571197509
1758273974877755100,12.121755126953126,8.85540375289917,1.9981109230041503,-1.2832920898437499
1758273974887713300,12.13171337890625,9.85064345550537,3.1362545372009274,0.8087912483215332
1758273974897671200,12.141671142578126,8.61209300918579,1.6439187149047851,0.07601590270996093
1758273974907628000,12.1516279296875,8.208819667053222,-2.688389189147949,-0.9362824867248535
1758273974917586200,12.161586181640626,9.057564155578612,-2.4568998161315916,-1.4426561378479004
1758273974927544000,12.1715439453125,10.316315678405761,-1.2791022369384766,-0.11028291397094726
1758273974937502200,12.181502197265624,10.48884783554077,-0.9540893615722655,0.8661024505615234
1758273974947460000,12.191460205078124,10.171915390777587,-0.49410336761474605,0.8773252708435058
1758273974957417000,12.2014169921875,10.049811106109619,0.18555062866210936,1.0461164878845215
1758273974967375000,12.211375,9.404873033905028,0.7573159126281738,1.3153145370483397
1758273974977333000,12.2213330078125,8.965686666870116,1.037437506866455,1.077540384674072
1758273974987291100,12.231291015625,8.986037380981445,1.3771148674011229,0.6789058082580566
1758273974997249000,12.2412490234375,8.826972608184814,1.4519336692810059,0.4285620971679687
1758273975007207200,12.251207275390625,8.438064476013183,1.3319243110656738,0.31049802780151364
1758273975017164000,12.2611640625,8.432827159881592,1.1236287666320801,0.2668038475036621
1758273975027122000,12.271121826171875,8.582165488433837,1.1914146011352538,0.4583399803161621
1758273975037080000,12.281080078125,8.916904808044434,1.1496657096862792,0.6087257720947266
1758273975047038000,12.291037841796875,9.35309842300415,1.1004349380493164,0.7404068634033203
1758273975056996000,12.30099609375,9.459191484069823,1.1403881782531737,0.9484031326293945
1758273975066954200,12.310954345703125,9.268553176879882,1.1924620643615722,1.055992569732666
1758273975076911000,12.3209111328125,9.048885174560546,1.1294646331787108,0.9938929641723632
1758273975086869000,12.330868896484375,9.050082275390624,0.9639654434204101,0.8113350875854491
1758273975096827100,12.3408271484375,9.168295982360839,0.8786720092773437,0.6726210289001464
1758273975106785000,12.350784912109376,9.41040962524414,0.7656956184387207,0.6157587394714356
1758273975116743200,12.3607431640625,9.387215796661376,1.0018237571716309,0.8158242156982422
1758273975126700300,12.3707001953125,9.511115732574462,1.163881282043457,0.8547299926757812
1758273975136658200,12.380658203125,9.776572841644287,1.2629413757324217,0.730979694366455
1758273975146616300,12.3906162109375,9.618106619262695,1.5099930595397948,0.7187094108581542
1758273975156574000,12.400573974609374,9.331400970458985,1.779939296722412,0.6367080039978027
1758273975166532000,12.410531982421874,9.297433234405517,1.767818650817871,0.3550900337219238
1758273975176490000,12.420489990234374,9.701305126953125,1.4915876342773438,0.1562216583251953
1758273975186447000,12.430447021484374,9.553912087249754,0.9536404487609863,0.32351649932861326
1758273975196405200,12.4404052734375,9.859771349334716,1.0319009155273438,0.49470191802978514
1758273975206363100,12.450363037109375,9.37210239868164,2.2363339881896973,0.46357729644775386
1758273975216321000,12.460321044921875,8.001421948242188,2.1058499977111813,0.17462708358764648
1758273975226279000,12.47027880859375,10.4708913230896,2.000804399871826,0.5734112976074218
1758273975236237000,12.480237060546875,9.985317298889159,3.443161262512207,1.5640122344970702
1758273975246194200,12.490194091796875,8.538022395324706,3.031807489776611,1.4446014266967773
1758273975256152000,12.500152099609375,8.411877895355223,1.5786767196655274,0.2690484115600586
1758273975266110200,12.510110107421875,8.6444147315979,1.1797428680419921,-0.20380641632080077
