time,seconds_elapsed,z,y,x
1758273962811406300,0.05540625,3.0292940456509587,-1.5290703927144407,-0.09215864373743533
1758273962821364500,0.065364501953125,2.9148610262632366,-1.9110193533979356,0.44238530920669433
1758273962831322400,0.075322265625,1.1635609640479088,-2.71886206882298,-0.034757132865488524
1758273962841280500,0.085280517578125,-0.41719022380411624,-2.8785414663866162,-0.7861249507442116
1758273962851237400,0.0952373046875,-1.4838526561111212,-2.0861159541934726,-1.2012560500614344
1758273962861195300,0.1051953125,-2.1338328141361473,-1.6103201044246553,-1.6081342848181723
1758273962871153400,0.1151533203125,-2.124717195266485,-1.6682263499483465,-1.64178345644176
1758273962881111300,0.125111328125,-1.929458827060461,-1.7886286530040203,-1.186262917460501
1758273962891068400,0.135068359375,-1.5449106436640023,-1.6304967771433292,-0.9820876678273082
1758273962901026600,0.145026611328125,-1.404604931873083,-1.5353127942353486,-1.023560080422461
1758273962910984400,0.154984375,-1.9322271227300165,-0.8642875100940466,-1.4286153375357389
1758273962920942300,0.1649423828125,-2.615249134135246,-0.6250118671156466,-2.3309672053471204
1758273962930899500,0.1748994140625,-2.6803525976866482,-1.5031446549497545,-2.4980478190779682
1758273962940857300,0.184857421875,-2.234349536374211,-2.248154482103884,-1.9641583845198154
1758273962950815500,0.1948154296875,-0.7737842323482036,-2.3522684981815516,-0.13405600374639035
1758273962960773400,0.2047734375,0.21858663682341575,-2.4467381953403353,2.936984887526929
1758273962970731500,0.2147314453125,0.5599772310167551,-1.3379361187011003,5.596359871375561
1758273962980688400,0.2246884765625,0.29502631790339945,0.7098077270001173,2.374656124947965
1758273962990646300,0.234646240234375,0.017086743879318238,-0.513085423721373,-1.577602952954173
1758273963000604400,0.2446044921875,0.4989467159926891,-2.699236746376753,-1.2087836690872906
1758273963010562300,0.254562255859375,1.3685054444879292,-2.2928429341360927,-0.8619745569765568
1758273963020519400,0.26451953125,1.367052907592058,-1.3603409888632594,-0.030197277604043483
1758273963030477300,0.274477294921875,0.6301075828194618,-0.3159342275060713,1.2416209398061036
1758273963040435200,0.284435302734375,-0.07788578823506832,0.6741130210235714,2.382401332247257
1758273963050393300,0.294393310546875,-0.1686965244948864,1.0787316402852534,2.4711539669334885
1758273963060350500,0.3043505859375,-0.19231939214468002,0.8091993907310068,1.3180349019229411
1758273963070308400,0.314308349609375,0.09391922366917133,-0.29651100350320336,-0.19290099142491815
1758273963080266500,0.3242666015625,0.8786123880445956,-1.4620149183124302,-1.4345020574867724
1758273963090224400,0.334224365234375,1.2427777086257934,-1.5256018398210405,-1.6480670667558908
1758273963100182300,0.344182373046875,0.735164871096611,-1.1876901737846433,-1.7120295435786246
1758273963110139400,0.354139404296875,-0.030780922710895536,-0.532629936016351,-1.2974655766248702
1758273963120097300,0.36409716796875,-0.5956055937588215,0.49387087403312324,0.6492132653057575
1758273963130055400,0.374055419921875,-0.7518406960874795,1.7846568267636,3.3631542443394657
1758273963140013600,0.384013671875,-1.0062497569203377,2.501791097259521,5.137520709365606
1758273963149970200,0.39397021484375,-1.5256488938331603,2.5190154960438607,5.901686634019017
1758273963159928300,0.40392822265625,-1.3190011166065931,1.7885725389026104,5.374983896094561
1758273963169886500,0.413886474609375,-0.4451759628385305,1.0387029967576265,3.4825054309070107
1758273963179844400,0.42384423828125,0.3816600607395172,0.41871728724092244,1.5478648172944782
1758273963189801500,0.433801513671875,0.8326847496062517,-0.33580753336399793,0.548166381713748
1758273963199759400,0.44375927734375,0.4624877476453781,-0.5038514391690493,0.2236819141358137
1758273963209717500,0.453717529296875,-0.46533436924815175,-0.2640843594118953,0.00020516718327999114
1758273963219675400,0.46367529296875,-1.1672966434448957,0.2705707988217473,0.31589608745276926
1758273963229633300,0.47363330078125,-1.4085340880155564,0.8708829628363252,0.8266162433475256
1758273963239590400,0.48359033203125,-1.2648428254395723,1.002716614358127,0.5491027857810259
1758273963249548500,0.493548583984375,-1.5871335823655128,0.5920420560583471,-0.2901514053434133
1758273963259506400,0.50350634765625,-2.3349779022932053,0.31520722840577364,-0.9444102636009454
1758273963269464600,0.513464599609375,-2.6412796474486586,0.11253507681190966,-1.76506029202044
1758273963279421400,0.52342138671875,-2.611207749789953,-0.3658811845883727,-2.530926590850949
1758273963289379300,0.53337939453125,-1.8971365201264618,-0.6403776324212551,-2.290218138590455
1758273963299337500,0.54333740234375,-1.1153747330278156,-0.2506915016144514,-1.8245394859492778
1758273963309295400,0.55329541015625,-0.7570826883941888,0.010041501542925834,-1.1374123773127793
1758273963319252500,0.56325244140625,-0.3896422916650772,0.2139829424202442,-0.5053127438932657
1758273963329210400,0.57321044921875,-0.06693769324123859,0.28497546401023865,-0.17560791131854056
1758273963339168300,0.583168212890625,0.19233108258247375,0.45339404834657904,0.642490679052472
1758273963349126400,0.59312646484375,0.32957389967143536,1.0732283666938542,2.1835557532042262
1758273963359084300,0.603084228515625,2.101593509310484,1.603617976437509,4.351080409061908
1758273963369041400,0.61304150390625,2.4204770881414412,1.8769123550042508,3.9318455276876687
1758273963378999600,0.62299951171875,1.561765332353115,1.796713321390748,3.047035454046726
1758273963388957400,0.63295751953125,1.5306898106098175,1.061801840533316,1.8613497519522904
1758273963398915800,0.642915771484375,0.6378644805565477,0.9542258474335074,1.7260919712007046
1758273963408872700,0.652872802734375,-0.004907061263918876,1.1509373370572924,1.5288134953439234
1758273963418830600,0.66283056640625,-0.9704501292645931,1.1117866454079746,1.703149487030506
1758273963428788700,0.672788818359375,-1.485818403226137,1.5593565176457165,0.8697294088870287
1758273963438746600,0.68274658203125,-2.3106077234074474,2.456267071186006,1.2201233937472105
1758273963448703700,0.692703857421875,-2.060561241698265,2.3654715324953197,1.244453532883525
1758273963458661600,0.70266162109375,-0.9087292938888072,0.8131587958812713,0.3979068466633558
1758273963468619500,0.71261962890625,0.2023760912567377,-0.7617080101072787,-0.055068976271152495
1758273963478577700,0.72257763671875,-0.2756266209065914,-3.8462136553704735,-1.1838859591960906
1758273963488535600,0.73253564453125,-1.046706854993105,-8.015286807465554,-4.265646689665317
1758273963498492700,0.74249267578125,1.1221733071267603,-0.8484095574826002,-6.724884593355656
1758273963508450800,0.752450927734375,1.7737182302504777,2.076841345369816,-5.727435398006439
1758273963518408400,0.762408447265625,2.758270534625649,3.445437975272536,3.6349510778248306
1758273963528366600,0.77236669921875,2.116824980711937,-0.27214871566295623,4.317454033792019
1758273963538323700,0.78232373046875,-1.5240040492355822,-1.3308511288762093,0.18856033187210558
1758273963548281600,0.792281494140625,-4.379802061155438,-0.25736264994144437,-0.6990864264994859
1758273963558239700,0.80223974609375,-3.224899327598512,0.1678425380140543,-0.39670331609249115
1758273963568197600,0.81219775390625,-0.42013972125947474,0.3200374250411987,1.531988618248701
1758273963578154500,0.822154541015625,-0.3199471164092421,1.5620552552103995,0.45850189287960524
1758273963588112600,0.832112548828125,1.686227432193607,1.0604752681046723,-1.0393056388258934
1758273963598070500,0.842070556640625,1.921787854041159,-0.08538169694840908,-0.7553402286410331
1758273963608028700,0.852028564453125,-0.09594546879976987,0.696221684718132,-1.0258335783123969
1758273963617986600,0.861986572265625,-0.9398708666056395,1.9468939459860324,-1.634332555913925
1758273963627943700,0.871943603515625,-0.8992048019573092,2.824979095286131,-1.077643260526657
1758273963637901600,0.881901611328125,-0.9081285515166818,3.309363032919168,-0.19578619147241114
1758273963647859500,0.891859375,-0.8946190816022456,3.7763065909296274,0.7014993328601121
1758273963657817600,0.901817626953125,-0.5875584809035063,3.750446173486113,1.0672294185400009
1758273963667774700,0.911774658203125,-0.7229331660330295,3.088872608301043,1.6209703855156898
1758273963677732600,0.921732666015625,-0.5343132129281759,2.268271679720282,1.9248416886538267
1758273963687690800,0.931690673828125,0.47315644117593764,0.7633511011391878,1.7595190245062111
1758273963697648600,0.941648681640625,-1.6609148578912019,-0.937491862514615,1.9672814849764106
1758273963707605500,0.95160546875,-3.7120045068889853,-1.3592004405260085,1.557975876942277
1758273963717563600,0.961563720703125,-0.7004641445934772,-0.9428010748386383,-0.036601007166504856
1758273963727521500,0.971521484375,2.5541063909083603,-1.8767904821902512,-1.4158748061671853
1758273963737479700,0.981479736328125,1.5754660870559514,-1.8914719184935092,-2.3841420384347436
1758273963747437800,0.991437744140625,-0.109622258105129,-0.32496494457125663,-2.414208967657387
1758273963757394400,1.00139453125,-1.7610322055481373,1.0952362003624438,-1.9175678982585667
1758273963767352600,1.0113525390625,-0.23132760658338664,1.348695997646451,-0.8733812093928456
1758273963777310700,1.021310791015625,-0.25415654737651344,2.416891046348214,0.2647273334905505
1758273963787268600,1.0312685546875,-1.3690801756359636,2.2911498664826153,0.2231052832916379
1758273963797225700,1.041225830078125,-2.705666487163305,0.3572328909695148,0.4416314220994711
1758273963807183600,1.05118359375,-2.049240221738815,1.2411907316952944,-0.3045131081730127
1758273963817141500,1.0611416015625,5.274151532036066,3.2126170613914726,-1.387510296948254
1758273963827099600,1.071099609375,5.467485069659352,0.8333972817897796,-1.4053484437167643
1758273963837056500,1.081056396484375,1.7554332164973019,-0.261009482011199,-1.485764334951341
1758273963847014700,1.0910146484375,-2.55916192073226,-1.0162801525473595,-1.1567243960261344
1758273963856972800,1.100972900390625,-1.9520769015818833,-1.6401958949893711,-0.5953618481308222
1758273963866930700,1.1109306640625,1.0140635724764318,-1.786259731915593,-0.14774375283718108
1758273963876888800,1.120888916015625,1.5321388403743506,-1.4717887088298798,-0.08421177638620138
1758273963886845700,1.130845703125,-0.2523077046394348,-1.20794546469748,-0.5175561393946408
1758273963896803600,1.140803466796875,-0.6142541801273822,-0.5119686946511268,-1.5105378339409827
1758273963906761700,1.15076171875,-0.09149645350165665,-0.14247779513299463,-2.573013920474052
1758273963916719600,1.1607197265625,0.06994213575422763,-0.0025058453410863875,-2.731041751438379
1758273963926676700,1.1706767578125,-0.04949914024956524,0.5963017593294382,-1.9049498242259024
1758273963936634600,1.180634521484375,-0.18871406112909317,0.7278396427750587,0.2556143449693918
1758273963946592500,1.190592529296875,-0.5433282940328121,0.03159340813755989,1.5383169444873928
1758273963956550700,1.200550537109375,-0.979219053588435,-0.6444353833794594,2.6726789943188427
1758273963966508500,1.210508544921875,-0.09538279341571032,-2.2013848398834464,3.4126243776902556
1758273963976465700,1.220465576171875,0.9676298111468553,-7.99123373170495,2.250236987466365
1758273963986423800,1.230423828125,1.3856874654352664,-16.491713455098868,0.3196214281188324
1758273963996381700,1.240381591796875,0.525621956950426,-11.676810250395535,4.784090133288503
1758273964006339600,1.250339599609375,0.6597778408747166,-1.1820727722942828,6.934419908717274
1758273964016296700,1.260296630859375,0.7978682147037237,-0.05553776282668113,2.0705038129113613
1758273964026254600,1.270254638671875,-0.7687585862059145,0.5143009369909763,-0.9931073667526245
1758273964036212700,1.280212646484375,-1.3724164804518222,1.220168986454606,-2.1779025497481226
1758273964046170600,1.290170654296875,-1.0210036739379167,0.827872380888462,-2.298941251011193
1758273964056127500,1.30012744140625,-0.14957608283087612,0.4847276365041733,-1.3426637317448853
1758273964066085600,1.310085693359375,0.557744941920042,0.8201461705505847,-0.8854282055392861
1758273964076043500,1.32004345703125,1.165616581403464,1.7135943086773155,-0.5427155689619482
1758273964086001700,1.330001708984375,1.6357036981366573,1.4783458753883838,-0.6577901011236011
1758273964095958800,1.339958740234375,-0.3637501639090478,-0.5073100551903248,-1.4854304268218577
1758273964105916700,1.349916748046875,-1.4016735545963048,-1.121594045934081,-1.546060836612433
1758273964115874800,1.359874755859375,-1.6705869415998458,-0.6802239051192999,-0.13441387727335094
1758273964125832400,1.36983251953125,-1.0939364428754896,0.1955173114031553,0.9393938967436551
1758273964135790600,1.37979052734375,-0.368391852235049,0.34092648381292817,1.075755839344859
1758273964145747700,1.389747802734375,-0.36470549187250434,0.2105675810188055,0.9384519397184252
1758273964155705600,1.39970556640625,-0.6213853471815586,0.21904724007248877,0.4820943653911352
1758273964165663700,1.409663818359375,-0.5578945795238017,0.18393150302767752,0.011587708071619272
1758273964175621600,1.41962158203125,-0.45836964480206366,0.14742694197297096,-0.2266996545217931
1758273964185578500,1.42957861328125,-0.271059020730108,0.1209562836766243,-0.27072774294912816
1758273964195536600,1.43953662109375,0.04297156511172652,0.16805471946001052,-0.02830094246342778
1758273964205494500,1.44949462890625,0.17870237020254134,0.04496083923280239,0.22169702392891047
1758273964215452700,1.45945263671875,0.08260536410287023,0.04236263943314552,0.4575638813771307
1758273964225410800,1.469410888671875,0.026220775188505647,0.02345218725800514,0.5842502331383526
1758273964235367400,1.479367431640625,-0.03521656707078218,-0.0012274959683418274,0.599334551154077
1758273964245325600,1.48932568359375,-0.19397841139808297,0.02401683540344238,0.541263032066077
1758273964255283700,1.49928369140625,-0.33217633725479245,0.05400456191003322,0.44902898500487204
1758273964265241600,1.50924169921875,-0.30596403763368724,0.02430091304183006,0.34872298290804027
1758273964275198700,1.51919873046875,-0.23091829513013362,-0.02621463770866394,0.36086423320919275
1758273964285156600,1.529156494140625,-0.13653963725566864,-0.05817220298349857,0.4009172805257141
1758273964295114800,1.53911474609375,-0.053741088668257,-0.07112345449328422,0.4095069758251309
1758273964305072600,1.54907275390625,0.051370121753215786,-0.05257423684597015,0.4145100448094308
1758273964315029500,1.559029541015625,0.2547697108387947,-0.043049452653527255,0.37831425744295116
1758273964324987600,1.568987548828125,0.46843511174246666,-0.0772983437359333,0.32553309984803197
1758273964334945800,1.57894580078125,0.6129243928283452,-0.030351883643865582,0.2994363894306123
1758273964344903700,1.588903564453125,0.6468151181228459,0.14464987847507,0.23281638383641837
1758273964354861800,1.59886181640625,0.5557024763070046,0.25389058991670604,0.1155671379841864
1758273964364818700,1.608818603515625,0.5358743247650564,0.27935820865035055,0.02335705632045865
1758273964374776600,1.618776611328125,0.5476175156593323,0.26264146712720393,0.020771862132847308
1758273964384734700,1.628734619140625,0.4903365624271333,0.1140016422331333,0.00018149404674768448
1758273964394692400,1.6386923828125,0.4708655537597835,-0.15196224731504918,0.06243351368978619
1758273964404649200,1.648649169921875,0.5150093775212764,-0.478607107797265,0.18961787810102104
1758273964414607400,1.658607421875,0.5488910427264869,-0.6798363671064377,0.30656770261526106
1758273964424565200,1.668565185546875,0.5709713571093976,-0.6734270845860243,0.4612725266367197
1758273964434523400,1.6785234375,0.5878951655119657,-0.7917699708938598,0.3945901233308017
1758273964444480500,1.68848046875,0.5637041425853967,-0.6922054348140955,0.45319078085944053
1758273964454438400,1.6984384765625,0.517381513480097,-0.500496868044138,0.465443967102468
1758273964464396500,1.708396484375,0.32562209330573677,-0.24208675487637518,0.3551189675554633
1758273964474354200,1.718354248046875,0.0728062930136919,-0.041269583499431606,0.2569929398462176
1758273964484312300,1.728312255859375,-0.22201968001201747,-0.06468845300972462,0.18199089035391808
1758273964494269400,1.73826953125,-0.31294235221371053,-0.32698271413445473,0.023799831651896235
1758273964504227300,1.748227294921875,-0.27192498990967867,-0.24286709159910677,0.2925084898635745
1758273964514185500,1.758185546875,-0.11899974278137088,-0.3374976784080267,0.2288733452990651
1758273964524143400,1.768143310546875,-0.19703779896870255,-0.5002490307629108,0.10414178086742758
1758273964534100200,1.778100341796875,-0.23797062479443848,-0.49194414375424383,0.16625190782174468
1758273964544058400,1.788058349609375,-0.10923369717895984,-0.5223351903647184,0.5333075430169701
1758273964554016300,1.798016357421875,0.03214928845465183,-0.4064461269497871,0.8971573679082095
1758273964563974400,1.807974365234375,0.12092113929800688,-0.363870137026906,1.0325944507494569
1758273964573932300,1.817932373046875,0.11732757178544997,-0.4004524394929409,1.090547165763378
1758273964583889200,1.82788916015625,0.2499105803698301,-0.3677186291486025,1.372505181648582
1758273964593847300,1.837847412109375,0.2849427307844162,-0.6116349375396967,1.3545993764713407
1758273964603805200,1.84780517578125,0.05154606284201145,-0.8267939380019903,1.331608961506188
1758273964613763300,1.857763427734375,-0.014384499183297157,-0.8164210125476121,1.372666655820608
1758273964623720400,1.867720458984375,-0.12583821049928665,-0.6241594880700111,1.1551781894974409
1758273964633678300,1.87767822265625,-0.2872341296572238,-0.20896949817240237,0.8423932198025286
1758273964643636500,1.887636474609375,-0.26572423557341096,0.08835282171368598,0.41485140559300776
1758273964653594400,1.897594482421875,-0.14190145654976366,0.551599863293767,0.025427286723256108
1758273964663551200,1.90755126953125,-0.8238386683929712,0.8574147017151117,-0.22357348532527685
1758273964673509400,1.91750927734375,-1.0290104547828436,0.7689128269195556,-0.25167057577967644
1758273964683467300,1.92746728515625,-0.9918594855833798,0.6082575700610876,-0.19958821410387753
1758273964693425400,1.93742529296875,-1.0895528940290211,0.5079103591710329,-0.33522929508462546
1758273964703382300,1.94738232421875,-0.9182751939345151,0.38722529365122316,-0.142180565752089
1758273964713340200,1.957340087890625,-0.9535393264740705,0.21886136211156842,0.30510259849876165
1758273964723298300,1.96729833984375,-1.1758961294859647,0.16429916631877423,0.43632177138403055
1758273964733256400,1.97725634765625,-1.2761655989646912,0.16218319707810877,0.5821015306718648
1758273964743214300,1.98721435546875,-1.2707628631383179,0.20278525657951832,0.8246230237036943
1758273964753171500,1.99717138671875,-0.9870429521471261,0.33937750080525875,0.9092721685938536
1758273964763129600,2.007129638671875,-0.9471295324970036,0.4662041378200054,1.0378590932793914
1758273964773087200,2.017087158203125,-1.2669810065120457,0.44255204407572746,1.121080105062574
1758273964783045400,2.02704541015625,-1.4748305607438086,0.3987690164506435,1.146151710215956
1758273964793002200,2.037002197265625,-1.5430132856100798,0.45206455330848694,1.4345815524637697
1758273964802960400,2.04696044921875,-1.5606887891627848,0.4222492607593536,1.5353380748070775
1758273964812918500,2.05691845703125,-1.680043921253085,0.3945739028483629,1.4319130639068782
1758273964822876400,2.06687646484375,-1.8215736218810081,0.25772972968816754,1.455288240405917
1758273964832834300,2.076834228515625,-1.882702921104431,0.16302432407736778,1.7639622676506637
1758273964842791400,2.08679150390625,-1.9299901574581861,-0.04968026897013187,1.935320704831183
1758273964852749300,2.096749267578125,-1.798950140532106,-0.3898036197066307,1.9225027243122457
1758273964862707500,2.10670751953125,-1.6470470760583877,-0.8000070533633231,1.7248048539996146
1758273964872665300,2.116665283203125,-1.7410855421930551,-1.5086282009273766,0.976651321992278
1758273964882622200,2.126622314453125,-1.9352263045459985,-2.382658521878719,0.04431187380477786
1758273964892580400,2.136580322265625,-2.2097516862124205,-3.064213967862725,-0.5651274533867836
1758273964902538200,2.146538330078125,-2.5932313635945317,-3.354835913327336,-0.7374781164750457
1758273964912496400,2.156496337890625,-2.8274750037550924,-3.710293611317873,-0.8329290797561406
1758273964922453500,2.16645361328125,-2.674450680166483,-4.138941048681736,-0.926403336136788
1758273964932411400,2.176411376953125,-2.4628046562612056,-4.108459985700249,-0.7251086103759705
1758273964942369500,2.18636962890625,-2.651168004256487,-4.479140387263894,-0.5410596184484661
1758273964952327200,2.1963271484375,-3.1793449063867327,-5.31286207870245,-0.11879179911911487
1758273964962285300,2.206285400390625,-3.834002993094921,-5.843184760689735,0.693844580323249
1758273964972242400,2.216242431640625,-4.459557734915614,-5.914754789906739,1.5867979206703602
1758273964982200300,2.226200439453125,-4.641700016438961,-5.535716309842467,1.9258220779933035
1758273964992158500,2.236158447265625,-3.9625235745459793,-4.414236245676875,1.739961944990605
1758273965002116400,2.246116455078125,-2.8338807791441676,-3.4090012187570333,0.7902483142845332
1758273965012073200,2.2560732421875,-2.2515590298503634,-2.7310370752632616,0.054227557010948654
1758273965022031400,2.26603125,-1.856815031132102,-2.149937561240792,-0.4303676852852106
1758273965031989200,2.2759892578125,-1.27691378698349,-1.670185959583521,-1.090436544995755
1758273965041947400,2.285947509765625,-0.5787205099314451,-1.428637549367547,-1.5724726043283939
1758273965051904500,2.295904541015625,-0.31988311126232144,-1.4208184000492095,-1.895182901840657
1758273965061862400,2.3058623046875,-0.17097382177710532,-1.7195979330062865,-2.0170102692633867
1758273965071820300,2.3158203125,-0.19277064304351804,-2.1128373723804947,-1.8514207708731292
1758273965081778200,2.325778076171875,-0.22762561026029288,-2.233602517399192,-1.582578987801075
1758273965091736300,2.335736328125,-0.37710429713129995,-1.9670745642274616,-1.2598816959008574
1758273965101693400,2.345693359375,-0.3473766828656196,-1.6332997057348488,-1.0777547580771147
1758273965111651300,2.3556513671875,0.3182990569412708,-1.3123141861885785,-1.0928371763966978
1758273965121609500,2.365609375,1.0425007816053926,-0.9120388568282127,-1.2577705489657818
1758273965131567400,2.3755673828125,2.006529353389889,-0.8855319581747054,-1.71571685378924
1758273965141524200,2.385524169921875,2.342056170116365,-0.8793208285748958,-2.1118571291714905
1758273965151482400,2.395482421875,2.4908640450537205,-1.0280559305369854,-2.528550509369373
1758273965161440300,2.405440185546875,1.9667799651950597,-0.8922568825155496,-2.349142475115508
1758273965171398400,2.4153984375,2.2901313370898366,-0.6571364595204592,-1.2840658506952225
1758273965181356500,2.4253564453125,2.8862042560994623,-1.4375257892221212,-0.41912995969504113
1758273965191313200,2.435313232421875,2.0533365511417387,-2.210466556483507,-0.6181269299075007
1758273965201271300,2.445271240234375,1.4775371893540024,-1.6156348697066305,-0.3004861907444894
1758273965211229400,2.4552294921875,1.3515496335119008,-0.8793436249285936,-0.769883717778325
1758273965221187300,2.465187255859375,1.0041378793328999,-0.3606669570714235,-1.2087152800261973
1758273965231144400,2.47514453125,1.8486264639794825,-0.5191173973619938,-0.6719090812385082
1758273965241102300,2.485102294921875,2.6591560804009435,-0.41446927440762515,-0.8443304714754223
1758273965251060200,2.495060302734375,2.364721298649907,0.5137111544042825,-0.7994657860934734
1758273965261018400,2.505018310546875,2.440496378341317,0.9079074561119079,-0.2488669165357947
1758273965270975200,2.514975341796875,3.550421029269695,0.34725802492201324,-0.243040110078454
1758273965280933400,2.524933349609375,4.309642483258247,-0.3110919020414352,0.491313444635272
1758273965290891500,2.5348916015625,4.257101564159989,-1.0726771625518798,2.794198172575235
1758273965300849400,2.544849365234375,4.297322515389323,-1.8769336900532245,3.117004477807879
1758273965310807600,2.5548076171875,4.63853073875308,-2.1831191153526306,2.6957085722506045
1758273965320764400,2.564764404296875,4.080615116441249,-1.968580877137184,2.3190660474121567
1758273965330722300,2.574722412109375,3.615427462187409,-1.9085966562956571,2.4944448261499406
1758273965340680400,2.584680419921875,3.7567712848544117,-1.9548574722111225,1.7619263779088854
1758273965350638300,2.594638427734375,3.46354003367424,-1.0403782364934682,1.3647832090944052
1758273965360595500,2.604595458984375,4.176637449869514,1.0781254910856484,1.3561170875579118
1758273965370553300,2.61455322265625,4.287594902101159,2.6771640307784077,1.3905825440004467
1758273965380511200,2.62451123046875,3.891850201907754,3.7315871592372654,1.3422381998091935
1758273965390469400,2.634469482421875,4.242344140011072,4.308882604801655,0.600996346886456
1758273965400426800,2.6444267578125,4.290992143324018,4.302138391238451,-0.07490881825089454
1758273965410384600,2.654384521484375,3.8570384162455795,4.023808941113948,-0.3496948966801166
1758273965420342800,2.6643427734375,3.4440491512626408,3.684181264939904,-0.45095717658847567
1758273965430300700,2.67430078125,3.347812882822752,2.8880729725807903,-0.8683452610522508
1758273965440258600,2.684258544921875,2.8559833053588863,2.6171482457548376,-0.7191334814891218
1758273965450215700,2.694215576171875,2.420864041632414,2.6051976957201957,-0.3127747405618429
1758273965460173600,2.704173583984375,2.211329895314574,2.3821038106054067,0.10371785636693238
1758273965470131700,2.714131591796875,2.248374554595351,2.171923767599463,0.46881519710123537
1758273965480089600,2.724089599609375,2.110989114165306,2.2658786471039054,0.8937985589995979
1758273965490046500,2.73404638671875,2.1707933022648094,2.1699615276157855,0.8081298618033528
1758273965500004600,2.744004638671875,1.700150889736414,2.326828498107195,0.9150649266511202
1758273965509962500,2.75396240234375,1.1164812329649925,2.7219045052587982,0.9496905420914292
1758273965519920600,2.763920654296875,0.32765549882948397,2.9522774414658546,0.9461597376167774
1758273965529878500,2.77387841796875,-0.7105734506756067,2.945424506831169,0.7772726589858532
1758273965539835600,2.783835693359375,-1.7655998057246207,2.5592963607668877,0.07563011826276779
1758273965549793800,2.793793701171875,-3.1134675358533856,1.9529864176422356,-0.5897124440670013
1758273965559751400,2.80375146484375,-4.131413575786352,1.2062094346851109,-1.2842831467077136
1758273965569709600,2.81370947265625,-4.470711581614613,0.8429682432115078,-1.532193785431981
1758273965579666700,2.823666748046875,-4.367481508764624,0.7510749724119902,-1.4768652814418077
1758273965589624600,2.83362451171875,-4.014678124675155,0.7883657154083251,-1.6947835174843668
1758273965599582700,2.843582763671875,-2.490941201943159,0.9050830463409423,-1.1726140390753745
1758273965609540600,2.85354052734375,0.23285189354121683,0.6396458110153674,0.7952052060395479
1758273965619497500,2.86349755859375,3.166996881467104,-0.3383271149694919,2.0651421397477385
1758273965629455600,2.87345556640625,4.968316819870472,-1.6864777536928652,0.6082578623220324
1758273965639413500,2.88341357421875,1.8782739987462758,-2.7312264603555203,-1.4844225649535656
1758273965649371600,2.89337158203125,-0.9642904375910758,-3.5549224323421713,-4.281498046530783
1758273965659329500,2.90332958984375,-2.876257447102666,-3.1728345015794037,-7.300832131442427
1758273965669286400,2.913286376953125,-4.307615361344814,-2.377289688321948,-6.724456138810515
1758273965679244500,2.92324462890625,-0.989337200564146,-2.0323405248641966,-3.888542977055907
1758273965689202400,2.933202392578125,2.139687969905138,-0.9080980102479458,-1.8183312789589166
1758273965699160600,2.94316064453125,2.8542022671610114,-0.29636721111834047,-0.9892758257657289
1758273965709117700,2.95311767578125,2.6672218979567286,-1.0126666382253169,-0.7680357518240809
1758273965719075600,2.96307568359375,2.503115623861551,-2.163703636264801,-0.4814484687030315
1758273965729033700,2.97303369140625,2.8286984080702067,-2.9088264222741125,0.472243710245192
1758273965738991600,2.98299169921875,3.3057804982572794,-2.9972283438265324,1.254363809262216
1758273965748949500,2.992949462890625,2.9270488921850917,-2.6236352696865795,1.5206830881193278
1758273965758906600,3.00290673828125,1.8608888564422725,-2.062455677142739,1.2462136744238435
1758273965768864500,3.012864501953125,1.2677607587128876,-1.4209382270365953,0.697273531858623
1758273965778822700,3.02282275390625,0.786670601928234,-0.6985825686305761,0.31148031683713195
1758273965788780800,3.03278076171875,0.7427695008814335,-0.17383973260223864,0.17679142201468348
1758273965798737400,3.0427373046875,0.8597831844121218,0.1711053392022848,0.2814972665056586
1758273965808695600,3.052695556640625,1.162622514154017,0.34159108520150183,0.5616590466238558
1758273965818653700,3.06265380859375,1.7085510538130997,0.5379062689840793,1.1638181536793708
1758273965828611600,3.072611572265625,2.204420554317534,0.7320172207206487,2.13003254507035
1758273965838568700,3.082568603515625,2.385721416580677,0.30138650058507915,2.162986281775683
1758273965848526600,3.092526611328125,2.2617136363789436,-0.05840308912992477,2.1777827227607367
1758273965858484500,3.102484375,1.910099754334986,-0.26718612481951715,2.0516371998779475
1758273965868442600,3.112442626953125,1.4914777441620826,-0.46008360911309715,1.6848576051451265
1758273965878400500,3.122400390625,1.1628630449116228,-0.44746670412421224,1.1354103898406027
1758273965888357600,3.132357666015625,0.8212509169220924,-0.2041501151919365,0.951592430189997
1758273965898315800,3.142315673828125,0.8484335228800773,0.27359774542748927,0.8712642172388732
1758273965908273700,3.152273681640625,0.493564438432455,0.7357394561141729,0.7993548730649054
1758273965918231800,3.162231689453125,-0.012183774268627165,0.8732838864982128,0.9392423594437539
1758273965928188700,3.172188720703125,0.14122750281095503,0.748499568966031,1.0130369328424333
1758273965938146600,3.182146484375,-0.0912801073372364,0.6543266627967357,0.9662896485842764
1758273965948104700,3.192104736328125,-0.18749825559854508,0.5122065950602293,1.418283767005056
1758273965958062600,3.2020625,-0.3067747694946825,-0.1345236212581396,1.7724936568915843
1758273965968020700,3.212020751953125,-1.2395185606993735,-0.16537936277091503,1.096587176579982
1758273965977977600,3.2219775390625,-1.8183448690928519,0.0795505065768957,1.1339069995403288
1758273965987935500,3.231935546875,-1.3641992717266083,0.31846330759227276,1.440210644391924
1758273965997893600,3.2418935546875,-1.014475075886771,0.5745809259086847,1.4523223763376474
1758273966007851500,3.2518515625,-1.5052876583278179,0.5095411752432585,0.4156000320032239
1758273966017808600,3.26180859375,-2.3021312792241573,0.5462064798176288,0.1290619948513806
1758273966027766800,3.271766845703125,-1.9263550158262253,0.8604162216186523,0.5178503000356257
1758273966037724400,3.281724365234375,-1.2724234898269176,1.0030904161065817,0.4532059784285724
1758273966047682600,3.2916826171875,-1.3163783668875693,1.1477607528477907,0.8631146669223904
1758273966057639700,3.3016396484375,-1.4784300465404987,0.743967770755291,1.2361758261427283
1758273966067597600,3.31159765625,-1.5690648417115212,0.5528858114510774,1.655165646714717
1758273966077555700,3.3215556640625,-1.4684370603144168,0.8404565526515245,1.6095473664864897
1758273966087513600,3.331513671875,-1.172001460134983,1.0420365250945092,1.2794906517341733
1758273966097471700,3.3414716796875,-0.9453238713145256,0.7117804883778095,1.807082009061426
1758273966107428600,3.3514287109375,0.1427729969535954,0.6182423729807138,1.2345591847263275
1758273966117386500,3.361386474609375,0.2930290066063404,0.6157587394714356,0.6277542976915836
1758273966127344600,3.3713447265625,-0.13507365635633467,0.2988537672370672,0.6048088909119367
1758273966137302500,3.381302490234375,-0.5138415027856826,0.49924482215642924,0.44366628892794246
1758273966147259600,3.391259765625,-1.2980676341712474,0.7425853764861822,0.3219168090470135
1758273966157217500,3.401217529296875,-2.0365876609146594,0.8997492840975523,0.6003237083218992
1758273966167175400,3.411175537109375,-2.098223156094551,0.797224729168415,1.2114594641678034
1758273966177133600,3.421133544921875,-2.271491810810566,0.3665373104095459,2.0772522642582656
1758273966187091700,3.431091796875,-2.5983260563850403,-0.17082769130468367,2.4802532191902396
1758273966197048600,3.441048583984375,-2.6452240011602637,-0.3626408874928951,2.5416946531027556
1758273966207006700,3.4510068359375,-2.6082564987689256,-0.6539011308610438,2.0894408608324824
1758273966216964600,3.460964599609375,-2.788503175804019,-1.0107587587773799,1.363471103582531
1758273966226922500,3.470922607421875,-2.8634184237957,-1.3509569283157585,0.4996859900526702
1758273966236879600,3.480879638671875,-2.837131305372715,-1.4335411035001278,-0.2633496153965592
1758273966246837500,3.49083740234375,-2.497738606998324,-1.239343058001995,-0.9427142733380198
1758273966256795600,3.500795654296875,-1.9061375727057457,-1.1889561020672321,-1.5629310151316225
1758273966266753800,3.51075390625,-1.4682722251415252,-1.5233563989818095,-2.120822379785031
1758273966276711700,3.520711669921875,-1.3965250857919453,-2.0055197379559275,-2.108660232826322
1758273966286668500,3.53066845703125,-1.2451304092317819,-2.672566766116023,-1.8129840727120636
1758273966296626700,3.540626708984375,-0.7881839291006326,-3.8588597864538428,-1.4410221069052815
1758273966306584600,3.55058447265625,-0.26032502514468503,-5.2494116430550815,-0.7780366290956735
1758273966316542700,3.560542724609375,-0.17716449311077595,-6.112845166668295,-0.03739917180687189
1758273966326499600,3.57049951171875,-0.714493254467845,-6.67222618535757,-0.10461451294571161
1758273966336457500,3.58045751953125,-1.7696704161643981,-6.478045090994239,-0.8263926637247204
1758273966346415600,3.59041552734375,-2.8061247572124004,-5.458748220974207,-1.2455125404171645
1758273966356373500,3.60037353515625,-3.4096810177147385,-4.086336416697502,-1.0809652445562183
1758273966366330600,3.61033056640625,-3.423053709506988,-3.0646365771889683,-0.46607831948325035
1758273966376288800,3.620288818359375,-3.204783883547783,-2.641364987644553,0.05229746573120355
1758273966386246700,3.63024658203125,-2.6860008327066898,-2.441421676492691,0.33579394323006273
1758273966396204500,3.64020458984375,-1.8963386477470396,-2.123117358854413,0.6888228066384792
1758273966406162400,3.650162353515625,-1.5839070215344428,-1.8739678259849548,0.9097777800284326
1758273966416119600,3.66011962890625,-1.2230419115424156,-1.951255063804984,0.9613812721461057
1758273966426077400,3.670077392578125,-1.0151753331106155,-2.142133024969697,0.7620778663329779
1758273966436035300,3.680035400390625,-0.8709400998510419,-2.321587090322375,0.4410752495214343
1758273966445993500,3.689993408203125,-0.2921278199829161,-2.628533563122153,-0.2514125093653798
1758273966455950600,3.69995068359375,0.5334297080919146,-2.4551567718565463,-0.7439744927570223
1758273966465908500,3.709908447265625,1.5375482982024549,-1.7652958543419837,-0.7420254045158624
1758273966475866600,3.71986669921875,2.399955839768797,-1.2713871325165031,-0.9504276241943239
1758273966485824500,3.729824462890625,2.5611145161047575,-1.076442068043351,-1.2285456235252321
1758273966495782400,3.739782470703125,2.155366892813146,-1.130533139193058,-1.4048016234889626
1758273966505739500,3.749739501953125,1.9732439005121587,-0.6471826362609863,-1.0625270860679448
1758273966515697400,3.759697509765625,2.2428663125678896,-0.33791268894970417,-0.9954809640161693
1758273966525655600,3.769655517578125,2.833470152516663,-0.5026747966051102,-1.6914916363321244
1758273966535613400,3.779613525390625,2.541666303791106,-1.0318605835169554,-1.9713411356307564
1758273966545570300,3.7895703125,1.5615540276899933,-1.0223854836851358,-1.2032583297945558
1758273966555528400,3.799528564453125,1.5374781555756927,-0.7298843003451824,-0.9348479238770901
1758273966565486300,3.809486328125,1.283860829642415,-0.7098539042294025,-1.291691231007129
1758273966575444500,3.819444580078125,1.374013394254446,-1.3084428977131843,-1.428027893036604
1758273966585402400,3.82940234375,1.7004978034779428,-1.815271891388297,-0.6291115575194358
1758273966595359500,3.839359375,1.8154419872581957,-1.806972265076637,0.10913403619676827
1758273966605317600,3.849317626953125,2.869704956719279,-1.8540163403242826,0.606371317923069
1758273966615275300,3.859275146484375,4.619434700877965,-1.987303697785735,1.8358812564358113
1758273966625233400,3.8692333984375,4.689109417867661,-2.0729963603794572,2.983919364920258
1758273966635190500,3.8791904296875,3.8357664956361055,-2.0989333501905203,3.287501621983945
1758273966645148400,3.8891484375,3.8194472289979458,-1.9082173015892505,2.5891478936731813
1758273966655106600,3.8991064453125,4.187206774678826,-1.2962766591012478,3.2020629341512916
1758273966665064400,3.909064453125,4.659709135860204,-0.6519599336653947,2.8683199321016666
1758273966675022600,3.919022705078125,5.1910518085449935,0.11709259398579597,1.5435373094841838
1758273966684979500,3.9289794921875,5.357596123442053,1.2686533236384392,0.3210501092150807
1758273966694937300,3.938937255859375,5.233097052592039,2.199706677538156,0.1829348932057619
1758273966704895500,3.9488955078125,5.148886152988672,2.825730205914378,0.5806278048574924
1758273966714853600,3.958853515625,5.183159593990445,3.151701697179675,0.8892875113159417
1758273966724810500,3.968810546875,5.397608984878659,4.241057022809982,-0.3342243558257818
1758273966734768400,3.978768310546875,4.933019296517968,5.275670704427361,-0.8753668302521109
1758273966744726500,3.9887265625,4.2082974935024975,5.611954330870509,-0.6994213575422763
1758273966754684400,3.998684326171875,3.857013866326213,4.981454533863067,-0.8460080492988228
1758273966764641500,4.0086416015625,3.8444887312740086,4.027539359813928,-0.4199932985261082
1758273966774599700,4.018599609375,3.5160125637114046,3.3787124634772536,-0.06828063228279352
1758273966784557600,4.0285576171875,3.0096488494604823,2.903316134420037,0.0152671272367239
1758273966794515500,4.038515380859375,2.7057757927566763,2.474445409694314,-0.09240589649677276
1758273966804473300,4.048473388671875,2.4565257221221923,2.113943287795782,-0.1521326354458928
1758273966814430500,4.058430419921875,2.2092606878250836,1.8957541258573531,0.10759645136594771
1758273966824388600,4.068388671875,1.6632137824833393,1.7416221332877873,0.6113216338068247
1758273966834346500,4.078346435546875,0.7847387570828199,1.51376907094717,0.7811673283368349
1758273966844304600,4.0883046875,-0.5883838258117438,1.4112708195030688,0.7114958262175322
1758273966854262500,4.098262451171875,-2.367119591963291,1.6322282771110534,0.17829115905314682
1758273966864219400,4.108219482421875,-4.2225306015163655,2.3424895930975675,-0.6909159795254468
1758273966874177500,4.118177490234375,-5.723781551674008,3.0199808583825827,-1.3286921972766519
1758273966884135400,4.128135498046875,-6.063215751102566,3.2422225105822085,-1.517637436813116
1758273966894093600,4.138093505859375,-5.561757929071784,2.8904765265911814,-1.4601739666208624
1758273966904050700,4.14805078125,-4.687796581703425,2.6060224561065435,-0.8784154041677713
1758273966914008300,4.15800830078125,-2.7528987784594294,1.8726660957366228,0.46311055571883913
1758273966923966500,4.167966552734375,0.6952274129837751,-0.32366438336670394,0.8850044271692633
1758273966933924400,4.17792431640625,5.6301440675556655,-2.840364880466461,-0.8251184060052037
1758273966943881500,4.187881591796875,3.4494016182065006,-3.031800475513935,-2.2388103151753542
1758273966953839600,4.197839599609375,2.253111519989371,-2.769569927275181,-3.8956758976757526
1758273966963797500,4.207797607421875,-0.3517015603274107,-2.2366461228787897,-3.9358530097633597
1758273966973755600,4.217755615234375,-3.596427578163147,-2.7088024471014736,-3.0533471214115617
1758273966983713300,4.22771337890625,-0.03944236807227135,-3.062998162332177,-1.9925114955618977
1758273966993670400,4.23767041015625,1.396318749564886,-2.288341823324561,-1.4537211372196674
1758273967003628500,4.247628662109375,1.5137977125197648,-1.8300106108367442,-1.1854010399341584
1758273967013586400,4.25758642578125,0.8345756779193878,-2.163235434231162,-0.9731550043091177
1758273967023544600,4.267544677734375,1.146859420093894,-2.8398510857254267,-0.9436661672353744
1758273967033501400,4.27750146484375,2.7165280729174612,-3.241901023542881,-0.5602886350534856
1758273967043459300,4.287459228515625,3.069785045993328,-2.815577060690522,0.22345877290442584
1758273967053417500,4.29741748046875,2.1825229030251503,-2.044353034219146,0.7101945343606173
1758273967063375400,4.307375244140625,1.2201321615755558,-1.4782798244148492,0.5461721391566098
1758273967073333500,4.31733349609375,0.3468532435134053,-0.7701718870699406,0.41928120473399755
1758273967083290600,4.32729052734375,0.010617547865211963,0.14652970087230205,-0.013981471340358256
1758273967093248300,4.337248291015625,0.47093905738741154,1.2594634704887866,1.0586066977538169
1758273967103206400,4.347206298828125,1.5014488108173012,1.4513929865330457,0.9730668876342475
1758273967113164500,4.35716455078125,1.8855092106968163,1.4617343478053808,0.7717956888794899
1758273967123122400,4.367122314453125,1.9547955128908157,1.190102934014797,0.8050862563237547
1758273967133079600,4.37707958984375,1.7864079082146287,0.6385095004618168,0.27702245917916296
1758273967143037400,4.387037353515625,1.717331157118082,0.15587503684461115,0.578842821136862
1758273967152995600,4.39699560546875,1.4387480244934558,-0.23382044631242752,0.8894038311719894
1758273967162953500,4.406953369140625,0.9414014371737838,-0.5947890166789292,1.2503498974457383
1758273967172910300,4.416910400390625,0.5540595314055681,-0.6802952167898416,1.6739096562817692
1758273967182868500,4.426868408203125,0.3364040379524231,-0.5375649082005024,2.014092628251016
1758273967192826600,4.43682666015625,0.13416560160070656,-0.5581172823637723,2.122902839320898
1758273967202784500,4.446784423828125,0.14303601353764533,-0.7102572243332862,1.9254754565127192
1758273967212742700,4.45674267578125,0.2760524451032281,-0.6643295858949423,1.7986393210172653
1758273967222699500,4.466699462890625,0.7204863574028014,-0.45071723035275935,2.080577755419165
1758273967232657400,4.476657470703125,0.6697472270295024,-0.5010755447149277,2.0067697380170224
1758273967242615600,4.486615478515625,0.03795402921065688,-0.6455266857475042,1.3681260897815226
1758273967252573400,4.496573486328125,0.024743980634212494,-0.5895213054090738,0.44481516670212146
1758273967262530600,4.506530517578125,0.7479157777287065,-0.16955460262894628,-0.010140431872755288
1758273967272488700,4.51648876953125,0.24676073803678153,0.6752513774037361,-0.10974968387708067
1758273967282446300,4.5264462890625,-1.0245672847036271,1.459922914469242,0.36363011772595344
1758273967292404500,4.536404541015625,-1.7660874431110918,1.469095231962204,0.4778403612084686
1758273967302361600,4.546361572265625,-1.5657926881730555,1.3039958551764488,0.40255394181683657
1758273967312319500,4.556319580078125,-1.3908758278585969,0.9983213020086288,0.2862029599785805
1758273967322277600,4.566277587890625,-1.075137926642224,0.7319044079959393,0.4343354198724031
1758273967332235500,4.576235595703125,-0.5579774355016649,0.43656127922832966,0.7565273925989866
1758273967342193400,4.586193359375,-0.047887540334463116,0.48612639738619323,1.1797693176575004
1758273967352150500,4.596150634765625,0.10941782157421111,0.7715460980325937,1.6354375945463775
1758273967362108400,4.6061083984375,0.09221059312038123,0.8763941274732351,1.5374334396511316
1758273967372066600,4.616066650390625,-0.06725735364966094,0.9987024102807044,1.0886069184157996
1758273967382024400,4.6260244140625,-0.38412206693887707,0.9296201062262057,1.0682018437687306
1758273967391982600,4.635982666015625,-0.29856910507678985,1.1338163986474274,0.9935419587776064
1758273967401939700,4.645939697265625,-0.13600191364977507,1.1377999153256415,0.48278424735143777
1758273967411897600,4.655897705078125,-0.5879670617043972,0.9931383464127779,0.07530088630840182
1758273967421855700,4.665855712890625,-0.6273731894195079,0.7139063944905996,-0.11069865516498684
1758273967431813600,4.675813720703125,-0.006174925775267183,0.4490677095800638,-0.5099140271436423
1758273967441770500,4.6857705078125,-0.07356556868208572,0.1541524508357048,-0.7623971614152193
1758273967451728600,4.695728759765625,-0.5757786112606526,0.013790624943375587,-0.8241668774340302
1758273967461686500,4.7056865234375,-1.1165385161101817,0.055423196536302566,-0.6453395656775682
1758273967471644700,4.715644775390625,-1.7734370752215385,0.15252864902615546,-0.22840981944054364
1758273967481602600,4.7256025390625,-2.3762007240414618,0.6015998657375574,0.39577816407158967
1758273967491559700,4.7355595703125,-2.7442344104886054,1.10316933144927,1.0517398807242513
1758273967501517600,4.745517578125,-2.7042507751464844,1.1286918952405451,1.6816403966642914
1758273967511475500,4.755475341796875,-2.4074866736650464,0.5537666859388352,2.306738480758667
1758273967521433600,4.76543359375,-1.9914263306736946,-0.48339083494246005,2.86012668877393
1758273967531390700,4.775390625,-1.6125316429942846,-1.6357172882705926,3.072249974802136
1758273967541348600,4.7853486328125,-1.1665765124768017,-2.29013396743834,2.7318594975620507
1758273967551306800,4.795306640625,-0.9438169738829135,-2.4174954419821497,1.9628595768809318
1758273967561264600,4.8052646484375,-0.9467407523751258,-2.2575907112300393,1.073731859236583
1758273967571222500,4.815222412109375,-1.308230716267228,-1.9373276607394216,0.5021397398803383
1758273967581179600,4.8251796875,-1.2745511495053767,-1.8000269759833811,0.2826104884445667
1758273967591137500,4.835137451171875,-1.242763680100441,-1.9121230768561361,-0.23098522288650272
1758273967601095700,4.845095703125,-1.7767606666862963,-2.429084757488966,-1.4072820421278476
1758273967611053800,4.8550537109375,-2.1183283710122107,-3.2282594516813754,-2.1464587792143224
1758273967621010400,4.865010498046875,-2.380331540235877,-4.002819929099083,-2.303348838320374
1758273967630968600,4.874968505859375,-2.697180982890725,-4.78610848737359,-1.6693078615747392
1758273967640926700,4.8849267578125,-2.0128964042037722,-5.755527520024776,-0.6355807535335422
1758273967650884600,4.894884521484375,-0.9755546858619898,-6.113381173241138,0.7760372719720006
1758273967660842800,4.9048427734375,-0.5946446397721767,-5.48436723087728,1.8902562590934335
1758273967670799600,4.914799560546875,-1.2568956658273935,-4.244031654706597,1.591298446960002
1758273967680757800,4.9247578125,-2.5803783117622134,-3.015158552792668,0.32433877549692985
1758273967690715600,4.934715576171875,-3.62833195194602,-2.229571654447913,-0.8288837498880922
1758273967700673500,4.944673583984375,-3.863629485073685,-1.5953841088384388,-1.2421170527599752
1758273967710631700,4.954631591796875,-3.1780852617144584,-1.1441209350407122,-1.2552182341344653
1758273967720588800,4.9645888671875,-2.190871044653654,-0.7367208683669567,-0.6962943115629255
1758273967730546700,4.974546630859375,-1.4269593870222568,-0.4589636651724577,-0.3252142431572079
1758273967740504800,4.9845048828125,-0.8970950432617216,-0.49984804874658584,-0.43874461461678144
1758273967750462500,4.99446240234375,-0.7360324477113783,-0.9902069691359996,-0.9119909260332584
1758273967760419600,5.004419677734375,-0.8534672792635858,-1.3333143041193485,-1.084824842593819
1758273967770377700,5.014377685546875,-0.8948468259435146,-1.5504139172554015,-1.1701286520004273
1758273967780335600,5.024335693359375,-0.8620330091655254,-1.7602941005319357,-0.9704368313916027
1758273967790293800,5.034293701171875,-0.384596844843775,-1.468071149611473,-0.10798267420455812
1758273967800251600,5.044251708984375,-0.872618554457277,-1.2551128740638493,0.021127689833194015
1758273967810208500,5.05420849609375,-0.983262849086523,-1.2418646854341029,0.3823967044509947
1758273967820166700,5.064166748046875,0.06588277736082673,-0.8270324229329824,1.365035868681222
1758273967830124500,5.07412451171875,1.858539955228567,-1.1878040094226598,2.1844370660834014
1758273967840082700,5.084082763671875,3.0633830699965356,-1.9152245500028133,1.9358178406983613
1758273967850039800,5.094039794921875,3.0634479519262907,-1.695042168420553,1.6390049316391349
1758273967859997700,5.103997802734375,3.0508105886712666,-1.2411439699441194,1.1386451339781283
1758273967869955600,5.11395556640625,3.2775749789923427,-1.0125070637494324,0.23357991555482147
1758273967879913500,5.12391357421875,3.071517861135304,-0.5938929446220398,-0.15363690252900122
1758273967889871600,5.13387158203125,2.2078321163266894,-0.46544659745097156,-0.5066244110137224
1758273967899828700,5.143828857421875,1.9051117367893455,-0.8608002525001763,-1.1037810336068272
1758273967909786600,5.15378662109375,1.786343903067708,-0.7534738502472639,-1.3918871968582271
1758273967919744800,5.163744873046875,1.6180910306870937,-0.330943434458971,-1.6105924916252492
1758273967929702700,5.17370263671875,1.4662977101981638,-0.2998416092306375,-1.9429422857508063
1758273967939659500,5.183659423828125,2.3520462337329984,-0.6770856070935726,-1.9454595292687415
1758273967949617700,5.19361767578125,3.619381752771139,-0.40416999871134757,-0.6832917682573199
1758273967959575600,5.203575439453125,3.4859003340423107,-0.29456980630755425,1.2339721786186097
1758273967969533700,5.21353369140625,3.5160482195466756,-1.3031751864433287,2.3706992040157315
1758273967979491600,5.22349169921875,3.2332980303704737,-1.8192828805953263,2.656907716952264
1758273967989448400,5.233448486328125,2.636293675729632,-1.7058996625214815,2.553599902690947
1758273967999406600,5.243406494140625,2.7813854527533053,-2.0301684415221213,3.153710406653583
1758273968009364500,5.253364501953125,3.281468479299545,-2.2360107475847006,3.5035803676396604
1758273968019322600,5.263322509765625,3.830397662079334,-2.006673584166169,3.149812230171263
1758273968029280800,5.27328076171875,4.109101206213236,-1.4111328723371028,2.4937711646720766
1758273968039237600,5.283237548828125,3.660750704991817,-0.5076286196202039,1.1042170869365333
1758273968049195800,5.29319580078125,3.5390304512053725,1.522607626441121,0.22463293125033376
1758273968059153700,5.303153564453125,3.21269655636847,2.9936551615148783,0.40100773528814315
1758273968069111600,5.313111572265625,3.0342367627501488,3.712982996532321,-0.20398644906282423
1758273968079068700,5.323068603515625,3.055433280035853,3.9929526150792833,-0.8419538054719566
1758273968089026800,5.33302685546875,3.134271838951111,3.968954484376311,-0.751464848512411
1758273968098984700,5.342984619140625,3.5960686817228793,3.784716107356548,-0.45181437793970103
1758273968108942800,5.35294287109375,3.8992718763411043,3.443535941043496,-0.34417671778053044
1758273968118900500,5.362900390625,3.8272634557068343,3.0664234606057406,-0.19620470914542673
1758273968128857600,5.372857666015625,3.4009412464201447,2.731435134670138,-0.051146249869465824
1758273968138815700,5.382815673828125,2.919713726991415,2.6248347086042165,0.2542345810487866
1758273968148773600,5.392773681640625,2.560305830070376,2.466938979586959,0.35163054091781376
1758273968158731800,5.402731689453125,2.3401491674512624,2.172691244840622,0.11650368818193674
1758273968168688600,5.412688720703125,2.132921544510126,2.4111697460919617,0.30592648210227485
1758273968178646500,5.422646484375,2.1175667389899493,2.572430567628145,0.28856033675968645
1758273968188604700,5.432604736328125,1.8358377095550298,2.637980021381378,0.41942426646649833
1758273968198562600,5.4425625,1.090603279864788,2.53480430906713,0.6983864615365862
1758273968208520700,5.452520751953125,-0.2007727477133274,2.3497762429744005,0.8953846591472625
1758273968218477800,5.462477783203125,-2.009019855031371,2.1924574370622634,0.7352884974762797
1758273968228435700,5.472435791015625,-3.905318755289912,2.1196365310013294,0.36541999681741
1758273968238393600,5.4823935546875,-5.119309345370531,2.152487245723605,-0.04312690180391073
1758273968248351500,5.4923515625,-4.692544653013348,2.4637416448503733,-0.5714513957113028
1758273968258309600,5.5023095703125,-2.637247615453601,3.1399253346681593,-0.8214668977603315
1758273968268266800,5.512266845703125,-0.13545242654085157,4.224588118568063,-1.0217033466398715
1758273968278224600,5.522224609375,1.7491823394089936,5.043110487309098,-1.357642105168104
1758273968288182800,5.532182861328125,1.3873270493358374,3.383092285996675,-2.9442691993162033
1758273968298140700,5.542140625,-1.2110241414904594,-1.6603163074761629,-6.6141317237854
1758273968308097500,5.55209765625,-1.7338877396434544,-7.214696401256322,-9.346303356036543
1758273968318055700,5.5620556640625,-4.050753646662831,-10.860468148303031,-10.060074141448736
1758273968328013600,5.572013671875,-4.720772384110093,-12.699846306943893,-5.197413160270452
1758273968337971700,5.5819716796875,3.9241929671078917,-9.953881711661815,6.449420469534397
1758273968347929600,5.5919296875,7.454556712254881,-4.554597487047315,6.864426335036754
1758273968357886500,5.601886474609375,2.62419407261312,0.1617640948832035,0.8456307404190302
1758273968367844600,5.6118447265625,-0.9101192869424819,2.2188193742871283,-3.041459407480061
1758273968377802500,5.621802490234375,-1.7562644066244362,2.532847914302349,-3.015132541568577
1758273968387760600,5.6317607421875,1.5056056382358074,1.9043793308615684,-0.9277613266170024
1758273968397718300,5.64171826171875,5.072934547686576,0.9310112683236599,0.5535390146628022
1758273968407675400,5.65167529296875,5.504456079182028,0.1912912181407213,0.5820344567850232
1758273968417633000,5.661633056640625,4.124889142453671,-0.634693157044053,-0.28198212741315365
1758273968427591200,5.671591064453125,2.1697581139981748,-1.697815724787116,-0.5773430840983986
1758273968437549000,5.681549072265625,1.2361486458748578,-2.694832958459854,-0.06219897428154945
1758273968447506200,5.691506103515625,1.7459169078722596,-3.3539082770884034,0.9657419515736401
1758273968457464300,5.70146435546875,2.2812726155906913,-3.4640912378162145,1.5165335672244429
1758273968467422200,5.711422119140625,2.245364266863465,-2.9088205770552156,1.6031341384433209
1758273968477380000,5.721380126953125,1.8181766729190945,-1.8281109146952628,1.3310327690534294
1758273968487338000,5.731337890625,1.6339751207783817,-0.7378127552568912,0.9043784052029251
1758273968497295000,5.741295166015625,1.6195239860996602,0.22326631907224653,0.4316726304039359
1758273968507253200,5.751253173828125,1.7059671747997402,0.8822375928044318,0.04477905292510986
1758273968517211100,5.761211181640625,1.4156106022730468,1.2134107443660498,-0.5969879880279302
1758273968527169300,5.771169189453125,0.9916077758446336,1.3334183490157128,-1.2675808721013366
1758273968537126100,5.781126220703125,0.9842471839487552,1.559945131188631,-0.6447387502402067
1758273968547084000,5.791083984375,1.4216615728750823,1.3107061664700508,-0.22952932498976586
1758273968557042200,5.801042236328125,2.0368089024499056,0.780954562368989,-0.14879925323948262
1758273968567000000,5.811,2.3320561696276068,0.2719248437792063,-0.026824001778662204
1758273968576958200,5.820958251953125,1.7724178151763974,0.03995791637897491,0.06544599337875842
1758273968586915300,5.830915283203125,0.691975863841921,-0.02998129676580429,0.5850060199417173
1758273968596873000,5.840873046875,-0.23538901080340147,0.02030336783826351,1.1834941833995283
1758273968606831000,5.8508310546875,-0.48713104438409205,-0.028484920728206634,1.898955698377639
1758273968616789000,5.8607890625,-0.3291537745632231,-0.21947452557384967,2.489877956625819
1758273968626747100,5.8707470703125,-0.7735200284540653,-0.22593992219567297,3.3251904243871566
1758273968636704300,5.880704345703125,-1.403583187609911,-0.07187631868720054,3.667359017215669
1758273968646662100,5.890662109375,-1.4908848928354679,-0.17324293575286864,3.5802772383511066
1758273968656620300,5.900620361328125,-1.7339141892589627,-0.23734335974156856,3.4825770348384975
1758273968666578200,5.910578125,-1.725357811707258,0.1082592991888523,2.5476851256892084
1758273968676535000,5.92053515625,-1.5044352792821825,0.6492068355649709,1.7766601289212702
1758273968686493200,5.9304931640625,-1.4408055415451526,1.1730828256309032,1.7321423572808503
1758273968696451000,5.940451171875,-1.382631584995985,1.2224041981607674,0.8574914202131331
1758273968706409200,5.9504091796875,-1.009189902025461,1.3740081335574388,0.4213099340826273
1758273968716367400,5.960367431640625,-0.8533307203371078,1.3360779236137865,-0.329752617239207
1758273968726324000,5.970323974609375,-0.9057202482659369,1.0351017573952674,-1.3875430301740765
1758273968736282000,5.9802822265625,-1.1035726515531539,1.0045774397939442,-1.3396607505366205
1758273968746240300,5.990240234375,-0.9611047932922839,1.1276882711559533,-0.9688191670618951
1758273968756198100,6.0001982421875,-0.8084627470195292,0.8015069365322589,-0.290617780746147
1758273968766156300,6.01015625,-0.31154782911539075,0.4753162495583296,0.6081427115097642
1758273968776113200,6.020113037109375,-0.6551192744791507,0.6482336066186428,0.5996432517770678
1758273968786071000,6.030071044921875,-1.3683376867055892,0.9715309102386236,0.24835005305483937
1758273968796029200,6.040029296875,-1.46084061383605,1.0115057777523995,0.49846287799850103
1758273968805987000,6.049987060546875,-1.3423241245269775,0.978743910357356,0.9550411093391478
1758273968815944200,6.059944091796875,-1.515231544715166,0.311857041195035,0.8865819786842912
1758273968825902300,6.06990234375,-2.00831316806674,-0.09369184465408324,1.1186271589525043
1758273968835860200,6.079860107421875,-2.2958839092671868,-0.4409978003710508,1.5395844802051781
1758273968845818000,6.089818115234375,-2.2868378485023975,-0.6232125626087188,1.9850012660622596
1758273968855776000,6.09977587890625,-1.9753315204411743,-0.595768675366044,2.5456033509790896
1758273968865733000,6.109733154296875,-2.0635908186525107,-0.6471276912033558,2.816118620221317
1758273968875691300,6.119691162109375,-2.485292382401228,-0.8229296637892722,2.409823738310486
1758273968885649200,6.129649169921875,-2.8325124134004116,-0.8456126202404498,2.1377711764983833
1758273968895607300,6.139607177734375,-2.9392578008949757,-1.3171616262197494,1.4373010405555366
1758273968905565200,6.149565185546875,-2.765349094709754,-2.050546043640375,0.4617521999124437
1758273968915522000,6.15952197265625,-2.380135140880942,-2.360508064869046,-0.250333701152727
1758273968925480200,6.169480224609375,-2.3698995780706404,-1.9934557906746864,-0.44682299939319486
1758273968935438000,6.17943798828125,-2.1467793894708156,-1.670146796616912,-0.6884623758282512
1758273968945396200,6.189396240234375,-1.4793816481769084,-1.9710674332559108,-0.9967814521554856
1758273968955353300,6.199353271484375,-1.1056909588813781,-2.781734996843338,-1.2495119853168726
1758273968965311000,6.20931103515625,-1.0879583183139563,-4.476281490701437,-1.1180074926842003
1758273968975269000,6.21926904296875,-0.9854173967719078,-6.306411928525566,-0.7178572510082274
1758273968985227000,6.22922705078125,-1.5754922444105148,-6.760625768822432,-0.5072649739395827
1758273968995185200,6.23918505859375,-2.6267034250855446,-6.1164779702126975,-0.010808028936013578
1758273969005142300,6.249142333984375,-3.502147119966149,-4.987708918082713,0.533633267839998
1758273969015100200,6.25910009765625,-3.832824012443423,-3.6679198659688232,0.6080659199465066
1758273969025058000,6.26905810546875,-3.9223400327175852,-3.0501375117152927,0.09535473636500537
1758273969035016000,6.279015869140625,-3.5381659433305264,-3.0070453889638182,-0.31203977735079824
1758273969044974000,6.28897412109375,-2.6474212189435957,-2.7113807731568813,-0.18256036080494523
1758273969054931200,6.29893115234375,-2.2065175265967842,-2.282410679709911,-0.13928791305050253
1758273969064889000,6.30888916015625,-1.9468506913661956,-1.7847095798641441,-0.5641403420455754
1758273969074847200,6.31884716796875,-1.8965292018830775,-1.5804519126445054,-0.9573182604908943
1758273969084805400,6.328805419921875,-1.83749716719985,-1.8297142582386732,-1.308584936532378
1758273969094762000,6.338761962890625,-1.3855344668306409,-2.0739134752243755,-1.2333334423236548
1758273969104720100,6.34872021484375,-0.6311351723015308,-2.247698847290873,-0.9743848383650183
1758273969114678300,6.35867822265625,0.6681203564800322,-2.0766332555770872,-0.6892175050444901
1758273969124636200,6.36863623046875,2.1652995271541178,-1.8311568582624196,-0.2549276778794825
1758273969134594300,6.37859423828125,3.0477497397959232,-1.8958394660532474,0.3874067876979708
1758273969144551000,6.388551025390625,2.8319702693477273,-1.952709938788414,0.4324329472519457
1758273969154509000,6.398509033203125,2.1326655239224435,-2.037382610684633,0.2819844655007124
1758273969164467200,6.40846728515625,2.0997733081459997,-2.367938507130742,0.2597613816462457
1758273969174425000,6.418425048828125,2.1513149870738384,-1.7159417485862969,-0.08465513623952865
1758273969184383200,6.42838330078125,2.163000164170563,-0.7195330022007227,-0.9895163565233349
1758273969194340400,6.43834033203125,2.651204829135537,-0.25189503218531606,-1.612203580083698
1758273969204298200,6.44829833984375,2.402944061799347,0.13819032707214354,-1.6398257465027273
1758273969214256000,6.458256103515625,2.0408730831488966,0.06842471692860126,-1.6110887507095932
1758273969224214000,6.468214111328125,1.5484858718022703,0.188768421664834,-1.482358910422027
1758273969234171100,6.478171142578125,1.157551494500041,0.5463076021045447,-1.6594705043017863
1758273969244129300,6.48812939453125,1.9878192460924387,0.9100549895346164,-1.581920523892343
1758273969254087200,6.498087158203125,3.146147570183873,1.259406771865487,0.21313509341925382
1758273969264045300,6.50804541015625,2.449245209725201,0.3245996183902025,4.5131879105553026
1758273969274003200,6.518003173828125,2.59095991153121,-1.9783932460993527,5.0721851906239985
1758273969283960000,6.5279599609375,2.334057280316949,-2.2763304830133912,3.755291859951615
1758273969293918200,6.537918212890625,1.9206483286172151,-1.5388976669847965,3.3935172338992357
1758273969303876000,6.5478759765625,2.2674773144721985,-0.7705909892648458,3.3893151060342785
1758273969313834200,6.557834228515625,3.448533603200316,-1.4111720353037118,4.143818299329281
1758273969323792100,6.567792236328125,3.960056892171502,-0.9150696028262376,3.2202170150011775
1758273969333749000,6.5777490234375,4.333345430406927,0.1841366702109575,2.186176457096636
1758273969343707100,6.58770703125,4.576454514068365,0.6504781706750392,1.2624015697672963
1758273969353665000,6.5976650390625,4.187356412282586,1.922351040881872,0.6764458478853106
1758273969363623200,6.607623046875,3.5940240241527555,3.214671655833721,0.5747647580429911
1758273969373580300,6.617580322265625,3.187088067859411,3.8525031109035015,0.5537909435972571
1758273969383538200,6.6275380859375,3.177645701253414,3.5910289339900014,0.14411094929277896
1758273969393496000,6.63749609375,3.0824563115179537,2.8567040208488703,-0.4241057022809982
1758273969403454000,6.647453857421875,3.037100335487723,2.283074696576595,-0.5102610139504075
1758273969413411800,6.657411865234375,3.07149711060822,1.857012599530816,-0.6356362831130623
1758273969423369000,6.667368896484375,2.9362697249948977,1.687369734096527,-0.5017889536812902
1758273969433326800,6.677326904296875,3.2782769897818564,1.3191770576953887,-0.12657558486312628
1758273969443285000,6.687284912109375,3.274439603576064,1.2690069593816995,0.42054830206036564
1758273969453243100,6.6972431640625,3.0656495536237953,1.321360246953368,0.6587915332511067
1758273969463200800,6.70720068359375,2.8971418296992777,1.4793758029580115,0.48649406165480613
1758273969473158000,6.717157958984375,2.793743999066949,1.8525632189065218,0.3035015930429101
1758273969483116000,6.727115966796875,2.6169635368376967,2.2088877628594634,-0.02115355492681265
1758273969493074000,6.737073974609375,2.502400169068575,2.529714876973629,0.05005319393575191
1758273969503032000,6.747031982421875,2.35348912601769,2.815063850471377,0.3191036513224244
1758273969512989000,6.756989013671875,1.816642595219612,2.897587235379219,0.2741974648863077
1758273969522946800,6.76694677734375,1.0385428377598525,2.909915386554599,-0.05019698632061481
1758273969532905000,6.776905029296875,0.057711599734425544,2.9675311246991156,-0.4636389635071158
1758273969542862800,6.78686279296875,-1.0639946744024753,2.8911089792758227,-0.9491898990929126
1758273969552821000,6.796821044921875,-2.2975310919523237,2.828272876134515,-1.3843033176004886
1758273969562778000,6.806778076171875,-3.7490959279209375,2.838962612453103,-1.7757827615648507
1758273969572735700,6.81673583984375,-6.066609485194086,2.361336332386732,-2.5210373572602864
1758273969582694000,6.82669384765625,-8.784108448970317,1.4092869522094726,-3.291187032498419
1758273969592651800,6.83665185546875,-9.437505137440562,-0.5835369703024625,-3.382725790771842
1758273969602609000,6.84660888671875,-2.450175476312637,-3.5812411149471997,-1.6315902714684605
1758273969612567000,6.856567138671875,10.402271960371731,-4.732466913557053,-0.1754103429198265
1758273969622525000,6.86652490234375,7.956897746860981,-2.705466580677032,-0.47750762212276454
1758273969632483000,6.876483154296875,3.692240068233013,-1.548596638700366,-3.3944030768230555
1758273969642440700,6.886440673828125,1.8503963962614536,-1.0267226361066102,-7.136853283119201
1758273969652397800,6.896397705078125,-7.7449670607954255,-1.6222563336730003,-8.082108180850744
1758273969662356000,6.90635595703125,-3.364201707565784,-2.29709094696939,-3.1206913496270774
1758273969672313900,6.91631396484375,5.828875664830208,-1.7607114491611717,1.971398857167363
1758273969682272000,6.92627197265625,6.1730766402691595,-1.5692191554903983,2.4119018597587942
1758273969692230000,6.93622998046875,3.735107150056958,-2.6542344060897824,-0.2615349671900272
1758273969702186800,6.946186767578125,0.40952597278654573,-3.9121249281734225,-2.7195810307472943
1758273969712145000,6.956144775390625,0.3846972364783287,-4.7703082761734725,-2.094996303002536
1758273969722102800,6.966102783203125,2.7497861993968487,-4.784422141721844,-0.8848018903344869
1758273969732061000,6.97606103515625,2.948608397564292,-3.6956495844155546,0.08986001140624285
1758273969742018000,6.98601806640625,2.227293188121915,-2.611850723868608,0.2581903329372406
1758273969751976000,6.995975830078125,1.2320464712530375,-1.7237421932041643,0.47134150070846076
1758273969761933800,7.005933837890625,0.8308502276554703,-1.3785294103741645,0.5838844685658812
1758273969771891700,7.0158916015625,0.9469926813095807,-1.3169476912081242,0.7576283395782113
1758273969781849900,7.025849853515625,1.3983049549460411,-1.1599135474562645,1.371550365141779
1758273969791807000,7.035806884765625,1.9981699597150087,-0.844500859606266,2.0136644659668206
1758273969801764900,7.045764892578125,2.428724107483029,-0.31864977007508277,2.6728654568016528
1758273969811723000,7.055722900390625,2.3853604743137953,-0.057063364958763116,2.9067338339090347
1758273969821681000,7.065680908203125,2.1205027924418447,-0.33340427161455155,2.4858468014135955
1758273969831638800,7.075638671875,1.777608223426342,-0.6588198825627565,1.515662337347865
1758273969841596000,7.085595947265625,1.2578002134516835,-0.18835165755748748,1.5185625888340175
1758273969851553800,7.0955537109375,0.8627581085696816,0.17671908743083475,1.2709855659782885
1758273969861512000,7.105511962890625,0.40284342628270386,0.5196849681168795,0.7095325633205473
1758273969871470000,7.115469970703125,-0.09457359592467546,1.0538847837984562,0.5109498729974031
1758273969881426700,7.1254267578125,-0.35900370003432036,1.5108499686300754,0.877253959172964
1758273969891384800,7.135384765625,0.20550942084640264,1.5147259332805871,1.1350205137401819
1758273969901343000,7.145343017578125,0.8623623872503637,1.1988082185178994,1.2177196936063468
1758273969911300900,7.15530078125,0.716458709321916,0.9026344841450452,1.4066529504440723
1758273969921259000,7.165259033203125,0.16639248533621429,0.5302051930874586,1.6313899265907703
1758273969931216100,7.175216064453125,-0.046780163614451885,0.18357728276252747,2.205889311695844
1758273969941173800,7.185173828125,0.2448195408411324,0.2534761638969183,3.056580696505308
1758273969951132000,7.1951318359375,0.08691387495175003,0.2937485530525446,3.2817835365980863
1758273969961089800,7.20508984375,-0.433849828312546,-0.003957797715067863,3.12326032333225
1758273969971048000,7.2150478515625,-0.5545161891318857,-0.007945990568399428,2.9852561664819715
1758273969981005000,7.225005126953125,-1.0477756532683968,0.26167291435599327,2.8526164592742917
1758273969990963000,7.234962890625,-1.3943525640584529,0.7637924151659011,2.061659266068041
1758273970000921000,7.244921142578125,-1.063784246522188,1.2212649649977683,0.9632572220858185
1758273970010878700,7.254878662109375,-0.9280593597155063,1.4784867451637982,-0.01840206426158547
1758273970020835800,7.2648359375,-1.3479543854989111,1.560933557704091,-0.5217459922999144
1758273970030794000,7.2747939453125,-1.1405249563753603,1.6691192071348429,-0.6040390755832195
1758273970040751900,7.284751953125,-1.009324342060089,1.3482692966669798,-0.5952291616618632
1758273970050710000,7.2947099609375,-1.2555530190467834,0.9416092347055673,-0.23935901041291652
1758273970060668000,7.30466796875,-1.4308651622891426,0.46885494458973404,-0.007073080191388726
1758273970070624800,7.314624755859375,-1.1860159569621085,0.26925007161200043,0.4015355585545301
1758273970080583000,7.3245830078125,-0.8249439262211322,0.5255635047614574,0.6592600275456905
1758273970090540800,7.334540771484375,-1.0419933435399085,0.9774164611458778,0.6602000118095427
1758273970100499000,7.3444990234375,-1.1441127517342566,1.3533289181441068,0.5700663710936904
1758273970110456800,7.354456787109375,-1.0482605141758918,1.545358971953392,0.5706682094443589
1758273970120414000,7.3644140625,-1.0448036517202854,1.330392863714695,0.5096127061095088
1758273970130371800,7.374371826171875,-0.9366717783033848,0.8965402589231729,0.7612788979750126
1758273970140329700,7.384329833984375,-1.039470473998785,0.35041268956065175,1.1460357556860894
1758273970150288000,7.394287841796875,-1.3420049755752086,-0.23364567426741123,1.5183812409177422
1758273970160245000,7.404244873046875,-1.4379378771543503,-0.5142863239437342,1.6524509809285401
1758273970170203000,7.414202880859375,-1.8312299234986305,-0.7352958039999008,1.7481100340023636
1758273970180161000,7.4241611328125,-2.1610522449731824,-0.9461316805660724,2.1110034349516034
1758273970190119000,7.434118896484375,-2.1032617347836493,-1.2368810518026352,2.2368948369428514
1758273970200076800,7.444076904296875,-1.5984101786613463,-1.6354969235181807,1.872125559119135
1758273970210034000,7.454033935546875,-0.9910556949198246,-2.0105816975206134,1.2672837888509034
1758273970219991800,7.46399169921875,-1.0921966865360737,-2.2065362312972545,0.3602941782362759
1758273970229950000,7.473949951171875,-1.5708862119197844,-2.5765613838225603,-0.5845723046995699
1758273970239908000,7.483908203125,-1.4955495236456393,-3.110636111819744,-1.1745207494795322
1758273970249864700,7.49386474609375,-1.1406255672056227,-3.286483677113056,-1.0328072897825389
1758273970259822800,7.50382275390625,-0.8008031721770763,-3.5146658252775667,-0.6032824850622565
1758273970269781000,7.513781005859375,-0.15991992832124233,-4.476422360476851,-0.4698809266366064
1758273970279739000,7.52373876953125,0.27749884451925755,-6.0570700879544015,-0.48339726468324656
1758273970289697000,7.533697021484375,-0.497926725295186,-6.849334564366936,-1.117514229274541
1758273970299654000,7.54365380859375,-1.7868261336266993,-5.804298857456446,-1.9736507277473807
1758273970309611800,7.55361181640625,-3.7138504270166157,-4.341568484351039,-2.3047636735543606
1758273970319570000,7.56356982421875,-4.629123443460464,-3.425551956063509,-1.5382193293318152
1758273970329527800,7.57352783203125,-3.8107916288554664,-2.631251589909196,-0.12893164646998048
1758273970339486000,7.58348583984375,-2.6859844660937786,-1.928404934093356,1.0912542180541902
1758273970349443000,7.593443115234375,-2.2834201490134,-1.6151058773964642,1.493648804590851
1758273970359401000,7.60340087890625,-2.537456284880638,-1.393724641418457,1.193538753682375
1758273970369359000,7.613359130859375,-2.955461916720867,-1.3390595697730778,0.6256020880937576
1758273970379316700,7.623316650390625,-3.3103882843136785,-1.4945406388640403,0.019097937571257353
1758273970389273900,7.63327392578125,-3.7341888661682603,-1.7514070297211408,-0.22006270072534678
1758273970399232300,7.643232177734375,-3.6865047394514083,-1.8124077341288327,-0.06106076403185725
1758273970409190100,7.653190185546875,-3.344399274986982,-1.9621902993172406,0.36178631649017334
1758273970419148300,7.663148193359375,-2.6546377261936662,-2.0819185025036333,1.0573377007313072
1758273970429106000,7.67310595703125,-1.1795207497239113,-2.114280556926131,1.5267136004552244
1758273970439063000,7.68306298828125,1.0528503261841833,-2.1413988654762504,1.897427319766581
1758273970449021200,7.693021240234375,2.668606630313396,-1.7691601285547016,2.5158418344438074
1758273970458979000,7.70297900390625,2.9248750552773473,-0.9273504077285528,2.9727199255138634
1758273970468937200,7.712937255859375,4.147757976865768,-0.1389975518018007,2.7700895672351122
1758273970478895000,7.72289501953125,3.016579817767441,-0.5301683682084083,2.172552713152766
1758273970488852000,7.73285205078125,3.004327069915831,-0.9674795890212059,0.41915684770196676
1758273970498810000,7.74281005859375,2.3579203864634035,-0.4444008868128061,-0.7897986708208918
1758273970508768000,7.75276806640625,0.8694847864761948,-0.1501917305111885,-1.5947867274671792
1758273970518726100,7.76272607421875,0.690865418381989,0.20881810700297354,-1.9916303288131951
1758273970528683300,7.772683349609375,1.83635004299134,0.24391864647865294,-1.5036416446864604
1758273970538641200,7.78264111328125,2.4204390942186116,-0.15805296540558336,-1.256325756984949
1758273970548599000,7.79259912109375,2.213924003461003,-0.6724234605014324,-1.0006474068686366
1758273970558557000,7.802556884765625,2.078745133164525,-1.00314945281744,-0.6049950611338019
1758273970568515000,7.81251513671875,1.943724376039207,-1.157307164350152,0.08227116371244192
1758273970578472200,7.82247216796875,2.5537705830827355,-1.0326976188629866,1.8941908220633863
1758273970588430000,7.83243017578125,2.8378277632042765,-1.827207828375697,3.215753898112476
1758273970598388200,7.84238818359375,2.6784330278009176,-2.8876737441301343,3.5399311994373797
1758273970608346000,7.85234619140625,2.5349358264923096,-3.0303286493957042,4.27892001273632
1758273970618303000,7.862302978515625,3.3441730650156734,-3.2091461704105138,4.028593252781033
1758273970628261000,7.87226123046875,3.560089605847001,-2.596215347841382,2.0815040764838457
1758273970638219000,7.882218994140625,4.282249449419975,-1.4255518583118916,1.4510402275726197
1758273970648177200,7.89217724609375,4.646161672022939,-0.021496961537003517,1.4271481875926255
1758273970658135300,7.90213525390625,4.481569660237431,0.38990532651543613,2.0389616965696216
1758273970668092000,7.912091796875,4.700254496738315,1.3539111019462347,0.8199711062446237
1758273970678050000,7.922050048828125,5.200006683894991,2.925127568733692,0.5061170460134744
1758273970688008200,7.93200830078125,4.278358871722221,3.8766730910420417,0.7708321045443415
1758273970697966000,7.941966064453125,3.8185879818201065,4.126731555449962,0.04897065939605236
1758273970707924200,7.95192431640625,3.1054969953656193,3.840187234687805,-0.5643786808460951
1758273970717881000,7.961881103515625,2.5264479841321705,3.52737917637825,-1.107028637225926
1758273970727839000,7.9718388671875,2.6936475480675695,3.1227105804949997,-1.0428919728800654
1758273970737797000,7.981797119140625,3.0188463013947007,2.8150352088987827,-0.5748521440654992
1758273970747755000,7.991755126953125,3.407774891832471,2.5164889001756907,-0.09077215781509876
1758273970757712100,8.001712158203125,3.586065174102783,2.374814822641015,0.4737590832442045
1758273970767670300,8.011670166015625,3.56641354817152,2.4948802949577567,0.879518104712665
1758273970777628200,8.021628173828125,3.218072988709807,2.7796915083169935,1.4830515688613057
1758273970787586300,8.03158642578125,2.9061913975954052,2.8503508524298664,2.0005437031090256
1758273970797544000,8.0415439453125,2.460247372993827,3.0752088246077296,1.5567922201156614
1758273970807501000,8.0515009765625,1.5073831693023443,3.295262026852369,0.9873366743966937
1758273970817459200,8.061459228515625,0.07256430095136165,3.121723323023319,0.352346287971735
1758273970827417000,8.0714169921875,-1.3794506168723106,2.7338550552934406,-0.48058045369684693
1758273970837375200,8.081375244140625,-2.2079256398290394,2.562943192836642,-1.364501761804521
1758273970847332000,8.09133203125,-2.7022657388091087,2.788946827918291,-2.2948609959602355
1758273970857290000,8.1012900390625,-4.6034693622440095,2.868470446488261,-3.313835502158105
1758273970867248000,8.111248046875,-8.846707820746301,2.235547221726179,-3.955136679165065
1758273970877206000,8.1212060546875,-9.894940862393378,-0.18382044386863708,-4.1957822953224175
1758273970887164200,8.1311640625,-6.205065769726038,-5.1416901040047405,-4.1128772176206105
1758273970897121300,8.141121337890626,6.154193076100945,-7.025009695702791,-2.5602643290162086
1758273970907079200,8.1510791015625,8.801180579802393,-4.005468982303142,0.354767085377872
1758273970917037000,8.161037109375,5.217648139047623,-3.051666620978713,-2.5092788226664067
1758273970926995000,8.170994873046874,3.5274358750015495,-1.7573720756053923,-3.8205382391050455
1758273970936953000,8.180953125,-4.255834320703149,-1.64916889051795,-1.9045637475177644
1758273970946910200,8.19091015625,-7.710664978221058,-3.1888141609996556,-1.8854963512152432
1758273970956868000,8.2008681640625,0.6030956572532653,-2.3274445841789246,-0.2673082898944616
1758273970966826200,8.210826171875,3.631823301193118,-0.08241466383635997,1.365044490379095
1758273970976784000,8.220783935546875,2.5189561670720577,0.8535738083779811,0.6427347169414163
1758273970986741000,8.230740966796875,1.310719025951624,0.45787411637008185,-0.918852920757234
1758273970996699100,8.24069921875,1.4307035419866443,-0.4288941056013107,-1.5233870863810182
1758273971006657000,8.250656982421875,2.5846105425044894,-1.1499275754928588,-0.8848352080821991
1758273971016615200,8.260615234375,3.274294349886477,-1.2977408864349127,-0.11110445948690176
1758273971026573000,8.270572998046875,2.9106285032600163,-1.0996586929798124,0.4747364038437605
1758273971036530000,8.280530029296875,1.8701579123079777,-1.0084592496633529,0.7710688359096646
1758273971046488000,8.290488037109375,1.5556509411260484,-1.0205763884365557,0.7255053546085953
1758273971056446000,8.300446044921875,1.8297084130197763,-0.9439625198334455,0.9466928215801715
1758273971066404000,8.310404052734375,2.131371976980567,-0.9130617701351642,1.030152902816236
1758273971076361200,8.320361328125,2.3309379792526363,-0.6643932987809181,1.1576308433465659
1758273971086319000,8.330319091796875,2.5505603888645765,-0.360348977163434,1.5913824719816445
1758273971096277000,8.340277099609375,2.67847482111603,-0.12492460278570651,1.70980982170254
1758273971106235100,8.350235107421875,2.3323919774532316,-0.14618424843549727,1.829113954257965
1758273971116193000,8.360193115234376,1.7343848755106328,-0.3462017938673496,1.9388740133985876
1758273971126150100,8.370150146484375,1.050542779894173,-0.6111912854254246,1.161099396239966
1758273971136108300,8.3801083984375,0.17897592644691465,-0.6718576433122158,0.7726715949311852
1758273971146066200,8.390066162109376,-0.41038171283304686,-0.3415320484906435,1.2576326017998158
1758273971156024300,8.4000244140625,-0.26516163325458764,0.02032031897306442,1.477486774341017
1758273971165982000,8.40998193359375,0.08426642918288707,0.43848143363595005,1.1169706239171326
1758273971175939000,8.41993896484375,1.7497732910394668,1.3094833466768263,2.4826260858014226
1758273971185897200,8.429897216796874,2.2611741226747633,0.8999924452036618,3.049027504646778
1758273971195855000,8.439855224609374,1.7540125360444188,-0.13474749314188955,1.6855153384014963
1758273971205813200,8.449813232421874,1.241773207758367,-0.3489683359712362,1.281146163856238
1758273971215770000,8.45977001953125,0.7424129425287246,-0.07931494425535202,1.4169295759171248
1758273971225728000,8.46972802734375,0.027353286349773406,0.39289340241551396,2.004290342291444
1758273971235686100,8.47968603515625,-1.0126410653926432,0.21917817297577857,2.453711833745241
1758273971245644000,8.48964404296875,-1.6521170727990566,-0.04398059602379799,2.166053414261341
1758273971255602200,8.499602294921875,-0.9722329210281372,0.0036404023289680477,1.9155413608670233
1758273971265559300,8.509559326171875,-0.23369762365035712,0.17526362792551517,0.7789726678367703
1758273971275517200,8.51951708984375,-0.2503906189717352,0.6774965259820223,-0.023769509578868746
1758273971285475000,8.52947509765625,-0.012173399005085229,1.1218214249491691,-0.4158434123050421
1758273971295433000,8.539432861328125,-0.13743278670310974,1.1726304056882857,-1.1144329221330582
1758273971305391000,8.54939111328125,-0.4359142134964466,1.1857757184654474,-1.892239103473723
1758273971315348200,8.55934814453125,-0.8338100273091346,1.2394780825585126,-2.0569383750259873
1758273971325306000,8.56930615234375,-1.241983927899599,1.2618775458931921,-1.5260472455009817
1758273971335264300,8.57926416015625,-1.6615736140608786,0.9989631070435047,-0.6192316762790083
1758273971345222000,8.589221923828125,-1.791201864492893,1.0508604675412176,0.06336962549611926
1758273971355179000,8.599178955078125,-2.0088252092421053,0.673459233289957,0.5892722990840673
1758273971365137200,8.60913720703125,-1.4230489355802536,0.37482524628341196,1.2173213419385254
1758273971375095000,8.619094970703125,-0.8569242878496647,0.22216040365695952,1.1790575891915709
1758273971385053200,8.62905322265625,-0.6794833158850669,0.2726858912795782,1.5966981140464542
1758273971395011000,8.639010986328126,-0.5897744033873081,0.47597734381556506,1.9769860096499323
1758273971404968400,8.648968505859376,-0.5534942987382412,0.6469517501145601,1.9267182961806655
1758273971414926600,8.658926513671876,-1.0366939950227736,0.5583972683489322,1.609313557730615
1758273971424884500,8.668884521484374,-2.0016998874068257,0.23598083921670912,1.3380093300677836
1758273971434842600,8.678842529296874,-3.147643361699581,-0.01455868670642376,1.3219970835521817
1758273971444800500,8.688800537109374,-3.919706761604547,-0.19819968235492705,1.4828537082016466
1758273971454757600,8.698757568359374,-4.0114030485272405,-0.5166688351660966,1.8834674757361412
1758273971464715800,8.7087158203125,-3.4926387023866177,-1.0610714804321526,2.537830963411927
1758273971474673400,8.71867333984375,-3.0390602373838425,-1.793503711694479,3.1983757700711486
1758273971484631600,8.728631591796875,-2.367257539129257,-1.9360949040740727,3.664546297882497
1758273971494588700,8.738588623046875,-1.5872779592722654,-1.5009984367012976,3.153648739594221
1758273971504546600,8.748546630859375,-1.5341267993211745,-1.0512269627660513,1.7551964851319788
1758273971514504700,8.758504638671875,-1.6200737289369105,-1.2321171984016894,-0.06167378136366605
1758273971524462600,8.768462646484375,-1.6525784067004918,-1.494375219169259,-1.449280378293246
1758273971534420500,8.77842041015625,-1.6805559624284505,-2.059720699220896,-2.069604087592661
1758273971544377600,8.788377685546875,-1.6130337472975254,-3.8286125322282314,-1.8081142747186123
1758273971554335500,8.79833544921875,-1.4220476495832204,-5.591682527214289,-1.1614395879797637
1758273971564293600,8.808293701171875,-1.3465414499610662,-6.695992845392227,-0.9303082346208393
1758273971574251800,8.818251708984375,-1.3009306223869324,-6.889936039346456,-0.8693561185952275
1758273971584209700,8.828209716796875,-1.6558868005961178,-6.163270116525888,-1.376191907337308
1758273971594166500,8.83816650390625,-2.553666830447316,-5.138248439118266,-1.887447485283017
1758273971604124700,8.848124755859375,-2.9594337429612874,-3.9983091736763714,-1.6963000595271587
1758273971614082600,8.85808251953125,-2.6400211718201634,-3.0236066476643084,-1.1140125778291374
1758273971624040700,8.868040771484376,-2.1354572004675862,-2.6863743421941995,-0.8646795781515538
1758273971633997600,8.87799755859375,-1.556875222223997,-2.330841825401783,-0.6825475257612764
1758273971643955700,8.887955810546876,-0.8726432505071162,-1.9569494760543107,-0.2778508728273213
1758273971653913600,8.89791357421875,-1.1869055262129753,-1.9324200149536133,-0.7852157269448041
1758273971663871500,8.90787158203125,-1.5939748265624045,-1.5716104345411062,-1.2808794757440685
1758273971673829600,8.91782958984375,-1.7877286354243753,-1.595891473838687,-1.2197899240091443
1758273971683786800,8.927786865234374,-1.9359562262557446,-1.979453568807244,-0.7276476273342967
1758273971693744600,8.93774462890625,-1.655205832594633,-2.211405298638344,-0.08403583529740571
1758273971703702800,8.947702880859374,-1.1221280066803097,-2.4011299981147047,-0.31525486693978305
1758273971713660700,8.95766064453125,0.3063990680500865,-2.0841659891694784,-0.3476443938910961
1758273971723618600,8.96761865234375,2.114806918887794,-1.4411059857964514,-0.3459837672024965
1758273971733575700,8.97757568359375,2.9992732936576005,-1.0969652161121368,-0.6820873609036207
1758273971743533600,8.987533447265625,3.011742899130285,-0.8130857306450605,-1.0475539733417332
1758273971753491700,8.99749169921875,2.7518194587901235,-0.34023850154876706,-0.7570107922017574
1758273971763449600,9.00744970703125,2.0222522615700957,-0.17112170581519603,-0.9040427435077726
1758273971773406500,9.017406494140625,1.7172250663951039,0.10799100364148616,-1.2347886095680296
1758273971783364600,9.027364501953125,1.5855989201441407,0.422358566352725,-1.3123299682796001
1758273971793322500,9.037322509765625,1.8053005324721336,0.41639235142469405,-1.1648311301141976
1758273971803280600,9.04728076171875,1.769689413125813,0.08652034558951854,-0.7509897783465683
1758273971813238500,9.057238525390625,1.783421293619275,-0.22039865468144415,-0.23980244333148001
1758273971823195600,9.067195556640625,1.5478975505203008,-0.5466337653189898,0.0827503255315125
1758273971833153800,9.07715380859375,1.5951336412087083,-0.5902367602020502,0.07808905572220683
1758273971843111400,9.087111328125,2.158541723456979,-0.3435223455250263,0.6103796767815948
1758273971853069600,9.097069580078125,3.2357325640410184,-0.2932774284094572,2.128204452860355
1758273971863027500,9.10702734375,3.5939117959499356,-0.39182957257628437,4.433569014917314
1758273971872984600,9.116984619140625,3.422829253101349,-1.265764616459608,4.9217707572728395
1758273971882942700,9.126942626953126,3.459300496408343,-2.186404712894559,4.508627763032913
1758273971892900600,9.136900634765626,3.6624364661216733,-2.1468366726160046,4.412590816557407
1758273971902858500,9.1468583984375,3.516886423936486,-1.9333815534621477,3.5283106120094656
1758273971912816600,9.156816650390626,3.517673774921894,-1.8489193094462155,1.701353543524444
1758273971922773500,9.1667734375,3.569082475119829,-1.0376257229149342,0.828025233362615
1758273971932731600,9.176731689453124,3.89329338645339,-0.13789338995218275,0.7755062338352203
1758273971942689500,9.186689453125,3.6621231623888013,0.30386662696301936,0.992496541377902
1758273971952647700,9.196647705078124,3.9080683462589976,1.6905355046510695,0.6223489315167069
1758273971962605800,9.206605712890624,3.920966406276822,2.7966408895522354,0.3018032646924257
1758273971972562400,9.2165625,3.309052651795745,3.2342642450541255,-0.6505325312107801
1758273971982520600,9.2265205078125,2.7307278631836174,3.401233507364988,-1.2805512667030094
1758273971992478700,9.236478759765625,2.363853868165612,3.4099908143162727,-1.1030141408875584
1758273972002436600,9.2464365234375,2.28220785061419,3.1833705086410045,-0.717294283363223
1758273972012393700,9.256393798828125,2.769485756123066,2.6702508903890845,-0.3988990725710988
1758273972022351600,9.2663515625,3.576116027018428,2.08656895865798,-0.3438458783909678
1758273972032309500,9.2763095703125,3.9308553476065393,1.6883569915682077,-0.25381343302726744
1758273972042267600,9.286267578125,3.7528479739308356,1.5396441014379263,0.2816410588905215
1758273972052225500,9.2962255859375,3.3979262825131413,1.7427128511339425,0.892330824534595
1758273972062182700,9.3061826171875,2.953331918954849,2.0914339343458415,1.0257049834966658
1758273972072140800,9.316140869140625,2.5307617556780575,2.5348329506397245,0.8490721130445599
1758273972082098700,9.3260986328125,2.130520913109183,2.8413468772411345,0.6860378520950675
1758273972092056600,9.336056640625,1.7084639600515366,2.8075790476739404,0.6571826367497444
1758273972102014500,9.346014404296875,1.3366039933145046,2.727772520509362,0.5168833546996117
1758273972111971600,9.3559716796875,0.8847598047584295,2.9022908830255267,0.17284283051937818
1758273972121929700,9.3659296875,0.24017478377521037,3.0984137591063976,-0.36133681915700433
1758273972131887600,9.3758876953125,-0.5087298588603735,3.30009076218307,-0.8438856503173708
1758273972141845800,9.385845703125,-1.1922113044708966,3.350409913578629,-1.1888511803880333
1758273972151803400,9.395803466796876,-2.149872679311037,3.490015952667594,-1.526473654219508
1758273972161760500,9.405760498046876,-3.119729518857598,3.499678099504113,-1.9954680072799325
1758273972171718700,9.41571875,-3.5839959666132923,3.499245553305745,-2.579493053360283
1758273972181676500,9.425676513671876,-4.356681882330775,3.1427287016510963,-3.0663194157093763
1758273972191634700,9.435634765625,-5.488985538327694,2.4058681325525044,-2.8750623920992013
1758273972201592600,9.445592529296874,-4.968284671166539,1.180143850058317,-2.0140657402440905
1758273972211549400,9.455549560546874,-4.054956359049678,-2.4728999338179825,-1.3098483805969356
1758273972221507600,9.465507568359374,2.8816473234474658,-7.345856683561205,-2.433232232557237
1758273972231465500,9.475465576171874,2.448574470856786,-7.800916911554336,-4.364989107427001
1758273972241423600,9.485423583984375,-0.27571313014626503,-5.812842229396105,-6.168002990266681
1758273972251381800,9.4953818359375,1.8576941520541905,-2.4799399154573676,-4.825353579308092
1758273972261338600,9.505338623046875,-4.64502010077238,-0.013263386198878287,-2.716327289648354
1758273972271296500,9.515296630859375,-3.305344444927573,0.2297287930846214,-1.6987661573797463
1758273972281254700,9.525254638671875,3.3652421565294266,1.1777876423209905,0.04703589194118976
1758273972291212500,9.535212646484375,3.138239573538303,2.122024887442589,0.8168824925795197
1758273972301170700,9.545170654296875,3.3281343688845633,1.0956856976956129,0.5168891999185085
1758273972311127600,9.55512744140625,3.050862318858504,-1.0496434929668903,-0.20631839914172886
1758273972321085700,9.565085693359375,2.8542490289121862,-3.1611955017119646,0.0738937959894538
1758273972331043800,9.5750439453125,3.545447332510352,-4.508983736863732,0.8885741023495792
1758273972341001500,9.58500146484375,3.8922570291429754,-4.63909012620151,1.39916478664577
1758273972350958600,9.59495849609375,2.911615176209807,-4.053434264048934,1.7249112369835375
1758273972360916700,9.604916748046875,1.5854729556769132,-3.829912508910894,1.7328969750404357
1758273972370874600,9.61487451171875,0.61709320294559,-3.6423107929378746,1.1390864480048417
1758273972380832800,9.624832763671876,0.6532832912236451,-2.7605659520864485,0.7222685646444559
1758273972390790700,9.634790771484376,1.4349749356955288,-1.3059487428098917,1.1096253757208585
1758273972400747000,9.6447470703125,2.199219186282158,-0.2563297997623682,1.0994932732850313
1758273972410705200,9.654705078125,2.8512387411803006,0.6172896023005247,1.6717020632348953
1758273972420663000,9.6646630859375,3.3762694542393086,0.7298579968601465,1.985765966824442
1758273972430621200,9.67462109375,3.43872620267421,0.09222235662341118,0.8942641306847333
1758273972440579000,9.6845791015625,2.9811145366325973,-0.2201350353091955,0.3065615651354194
1758273972450537200,9.694537109375,2.503722065322101,-0.4004612073212862,-0.038633828168362375
1758273972460494000,9.704494140625,2.0343252689406275,-0.43022973811924453,-0.06424918480962515
1758273972470452000,9.714451904296874,1.7519366065531967,-0.39081659614145753,0.24935776879265903
1758273972480410000,9.72441015625,1.3252566698700188,-0.28976737446188927,-0.193977388484776
1758273972490368000,9.734367919921874,1.2395119848281144,0.1249731181025505,0.36532121261805295
1758273972500326100,9.744326171875,0.9552925998821854,0.5072977802306413,1.5735475400835275
1758273972510283300,9.754283203125,0.37464550580233336,0.27184242619276044,1.8030898706853389
1758273972520241200,9.7642412109375,0.09588584756702184,-0.1860147390425205,1.684003472533822
1758273972530199000,9.774198974609375,0.18222089971750974,-0.014753332495689392,1.597646208551526
1758273972540157200,9.7841572265625,0.5402314970612525,0.646722617533803,1.4518550510868429
1758273972550115000,9.794114990234375,0.40203196376934647,1.1743249346464872,0.8420395840592682
1758273972560072200,9.804072265625,-0.05871741577610373,1.3105500991255044,0.7757826396238058
1758273972570030300,9.8140302734375,-0.46877135795950886,0.9072609749019146,0.760247289904952
1758273972579988200,9.82398828125,-0.6869150733210146,0.5655804578512906,1.2294257673606275
1758273972589946000,9.833946044921875,-1.0163773293115197,0.4640653722256422,1.8591832215681672
1758273972599904000,9.843904052734375,-1.0724232608560471,0.3209083626568317,1.2644523648172616
1758273972609861000,9.853861083984375,-1.0408019417982548,0.2268979535728693,0.48396761191710824
1758273972619819300,9.8638193359375,-0.8462963647209107,0.9248913241386413,0.28764358724094924
1758273972629777200,9.873777099609375,-0.8806066306017338,1.382706403797865,-0.6204143832575529
1758273972639735300,9.8837353515625,-1.003622915548086,1.539057241460681,-1.1179076855715364
1758273972649693200,9.893693115234376,-0.7819008302431553,1.7615730344265699,-0.8319149342775345
1758273972659650000,9.903650146484376,-0.5338916995804757,1.737553276413679,-0.37352914205826815
1758273972669608200,9.913608154296876,-0.7701579316098243,1.3617261596113444,-0.13325495302919296
1758273972679566000,9.923566162109376,-0.9439502448737621,0.7087690316021442,0.35208610266558826
1758273972689524200,9.933524169921874,-0.920244375115633,0.3864700913697481,0.49017764553837473
1758273972699482000,9.943482177734374,-1.1534721162319184,0.3367255249917507,0.4502754779346287
1758273972709439000,9.95343896484375,-1.3283341776192188,0.30482465834021566,0.8266101058676838
1758273972719397000,9.963397216796874,-1.0499427681744098,0.37699206892848014,1.088188327677548
1758273972729355000,9.97335498046875,-0.43434181308057157,0.7034498824059963,1.454053730174899
1758273972739313200,9.983313232421875,-0.1033247471298091,0.939800723978877,1.8477181169629096
1758273972749271000,9.99327099609375,-0.26916177227403965,0.9931979676455259,1.9851482733175156
1758273972759228200,10.003228271484375,-0.8617442553520203,0.7581915264189243,1.8079215286254882
1758273972769186300,10.013186279296875,-1.6831927406728266,0.5761071125626563,1.7193623706847427
1758273972779144000,10.02314404296875,-2.3322060994923115,0.43682606764435766,1.7668707024432717
1758273972789102000,10.03310205078125,-2.715117037075758,0.2759416782051325,1.8535332329824565
1758273972799060200,10.043060302734375,-2.849234415620565,0.2118359935194254,1.8151853821486235
1758273972809018000,10.05301806640625,-2.7318729415655136,0.09953063381016254,1.9165812253087757
1758273972818975200,10.062975341796875,-2.3701824866652488,-0.07137596794962883,2.1475191019222137
1758273972828933000,10.07293310546875,-1.7813690372645854,-0.3106283761829138,2.284001748293638
1758273972838891300,10.082891357421875,-1.271920801001787,-0.6153180099666118,2.157284124611318
1758273972848849200,10.09284912109375,-1.017657286119461,-0.9134083916157484,1.860750032493472
1758273972858807000,10.10280712890625,-0.746336253452301,-1.1583785929739474,1.4332191780693828
1758273972868764200,10.11276416015625,-0.410385219964385,-1.4608172329604625,0.7964655082989484
1758273972878722300,10.122722412109376,-0.2180786873012781,-1.7472259446442127,0.05849405534900724
1758273972888680200,10.13268017578125,-0.20169395421147346,-1.9937036279559135,-0.7747706130370497
1758273972898638300,10.142638427734376,-0.6471119091123342,-2.7008149554789065,-1.9186700142815707
1758273972908596000,10.152595947265626,-1.1244517734527588,-4.326596540668606,-3.1384944250822064
1758273972918553000,10.162552978515626,-0.3978326489159837,-5.657306799769401,-2.98846694522202
1758273972928511200,10.17251123046875,0.42563656511008735,-5.581879510602355,-0.513613904574886
1758273972938469000,10.18246923828125,1.0563865374863146,-4.708994852554798,1.3137000875890255
1758273972948427300,10.19242724609375,1.079247188591957,-4.654880985051393,1.2076687666479498
1758273972958385200,10.20238525390625,-0.20399346332550047,-6.125423493212461,0.4372645321268588
1758273972968342000,10.212342041015624,-1.4812737455338238,-6.367042630577087,-0.5704645035658031
1758273972978300200,10.222300048828124,-1.9973796861201523,-4.835545595237613,-1.1135242828555405
1758273972988258000,10.232258056640624,-2.5624358278363943,-3.4739345864385363,-1.2828916923493145
1758273972998216200,10.24221630859375,-3.6611920190185305,-2.285983862021565,-1.4308166469722985
1758273973008174000,10.252174072265625,-3.4794226624608036,-1.6029332090437411,-0.9474928128514438
1758273973018131200,10.262131103515625,-2.946868275898695,-1.4274176521837711,-0.056523193667456506
1758273973028089000,10.272089111328125,-2.6985639616817236,-1.2554355301469564,0.6262645705904811
1758273973038047000,10.282046875,-2.6159067212611435,-1.1161170758277177,1.0135879177886993
1758273973048005000,10.292005126953125,-2.234368825596571,-1.1745663421869277,1.1589971632637084
1758273973057963000,10.301962890625,-1.8477473430573939,-1.4698784912943839,0.921150676305592
1758273973067921200,10.311921142578125,-1.674519604873657,-1.7810054646492004,0.6123225544776767
1758273973077878300,10.321878173828125,-1.5272878932118414,-1.9861761550605297,0.3634489890053868
1758273973087836200,10.331836181640625,-0.9919265594702213,-1.8779723854511976,0.3283138166077435
1758273973097794000,10.3417939453125,-0.12313764630369842,-1.5094658207952976,0.4880843995861709
1758273973107752200,10.351752197265625,0.5158686246991158,-1.1983774258852005,0.689013360774517
1758273973117710000,10.3617099609375,1.4229424064658582,-0.7762661122918129,0.9539524373196064
1758273973127667200,10.371667236328125,2.5211925478219985,-0.1373205585002899,0.6624965252488851
1758273973137625300,10.381625244140626,3.5892145780444142,0.8039151667177676,0.25328356393426654
1758273973147583200,10.391583251953126,4.919912562185526,1.5688269413024185,-0.18934315281286834
1758273973157541000,10.401541015625,5.3054269602656365,1.7300193737775087,-0.9858712780192493
1758273973167499000,10.4114990234375,5.040539175516367,2.091663651448488,-1.3473499898649752
1758273973177457200,10.42145703125,3.7652149958118795,2.28317757242918,-2.173349708749354
1758273973187414300,10.431414306640624,2.4510046206131575,2.0531582719653843,-3.8233796000108122
1758273973197372200,10.4413720703125,2.045978589594364,1.9326275202244518,-4.715454988479614
1758273973207330300,10.451330322265624,2.8690099601924417,1.9968542009413242,-4.996026664572954
1758273973217288200,10.4612880859375,3.8972763186097144,1.9506985989660024,-4.487348828160762
1758273973227246000,10.47124609375,3.5521067903995514,1.8748223969876765,-3.1537709046691655
1758273973237203200,10.481203125,2.6119422015443443,1.8559674743920564,-1.654835684107989
1758273973247161000,10.4911611328125,2.4113623460546134,1.6965525729835031,-0.44834377921968693
1758273973257119200,10.501119140625,3.0105346923843026,1.7316940289914606,0.9235228122644126
1758273973267077000,10.5110771484375,3.2628909123405814,1.4672972426295279,1.7589438549667595
1758273973277035300,10.52103515625,3.130306150190532,1.1472720925480127,3.450160912141204
1758273973286992100,10.5309921875,3.6181659472405907,0.5710346316039562,3.706015495607257
1758273973296950000,10.540949951171875,3.290627937310934,0.7679150480538606,2.125597192971408
1758273973306908200,10.550908203125,2.445416883608699,1.771808012714982,1.0190326661258935
1758273973316866000,10.560865966796875,2.8113047901988026,2.4719524238348005,0.6177271169349551
1758273973326824200,10.57082421875,3.0862010510042306,2.801548535338044,0.3279581350378692
1758273973336782300,10.5807822265625,2.490605394117534,2.129157808062434,0.14505933605879545
1758273973346739000,10.590739013671875,3.058699296094477,2.2768074528753757,0.09419745608866215
1758273973356697000,10.600697021484375,3.5000831731736657,2.6319272972136734,0.13528466875851153
1758273973366655200,10.6106552734375,3.14292627004981,2.5286890410572287,0.07992138571590185
1758273973376613000,10.620613037109376,2.9655060486122964,2.3550287566751242,0.1621232835844159
1758273973386571300,10.6305712890625,3.0423101790905,2.4062170921206474,0.24543343495577571
1758273973396528000,10.640528076171876,3.224304284314811,2.223808268615603,-0.02355973928570747
1758273973406486300,10.650486328125,3.2437846453323957,2.220952294662595,-0.20345380349084732
1758273973416444400,10.6604443359375,2.932539598555863,2.256635602462292,-0.23413930300325153
1758273973426402300,10.67040234375,2.7696368550315498,1.8328928882747888,-0.23758973571807146
1758273973436360200,10.680360107421874,2.7288866192311048,1.880520900890231,0.07052899573147296
1758273973446318000,10.690318115234374,2.7605264968588945,2.0763269661068917,0.500391215712577
1758273973456275200,10.700275146484374,2.9699595208898186,1.5989122829645872,0.24539792525097726
1758273973466233300,10.7102333984375,2.429849019859731,0.6355863064914942,-0.35680297511965037
1758273973476191200,10.720191162109375,1.1182079106271265,-1.940003601950407,-1.367637867873162
1758273973486149400,10.7301494140625,0.4037666786074638,-3.689543668755889,-1.3913278094097972
1758273973496107300,10.740107177734375,-0.3822048351407051,-4.029878031894564,-0.38612346988916396
1758273973506064100,10.750064208984375,-2.0358276363275944,-5.038675719732046,-0.725531219702214
1758273973516022300,10.760022216796875,-4.257649261170625,-6.605547435313463,-2.806472255475819
1758273973525980200,10.769980224609375,-6.18340806466937,-6.6101581439793105,-3.6317011361181732
1758273973535938300,10.779938232421875,-9.90265772038102,-4.569495196449757,-1.199838730609417
1758273973545896200,10.789896240234375,-18.287459392762184,-2.5268308459699154,2.208561015123129
1758273973555853000,10.79985302734375,-19.717564676594733,-2.057760212802887,3.2636066593945023
1758273973565811200,10.809811279296875,-3.6765807268083095,-0.003142389678955078,3.1193723759829997
1758273973575769000,10.81976904296875,15.228638808375596,3.5719928096085787,3.5377889267116784
1758273973585727200,10.829727294921875,20.83963393882513,5.953201717200875,2.6403087565898895
1758273973595685000,10.83968505859375,11.624521260231733,5.5883782249718905,2.5617823323637245
1758273973605643300,10.849643310546876,6.172712483131885,3.39343481631279,2.5967905173808337
1758273973615600400,10.859600341796876,0.4325821464642882,1.053351699835062,1.1182737424049525
1758273973625558000,10.86955810546875,-11.940380522805452,-1.4789642995476722,-3.345394131243229
1758273973635516200,10.87951611328125,-10.062243886703252,-4.8934945108592505,-4.419043061436713
1758273973645474300,10.889474365234374,2.203599885584414,-2.0500205584615467,-0.5363563361283391
1758273973655432200,10.89943212890625,10.748780043709278,-0.5067079976439476,-1.9943362267710267
1758273973665389300,10.909389404296874,9.118560183811187,-1.0366869807600974,-4.650285766215622
1758273973675347500,10.919347412109374,2.0372329730808736,1.294974344331026,-2.250993651052564
1758273973685305000,10.92930517578125,1.025989207265526,1.153360472550988,-1.4195909040808676
1758273973695263200,10.93926318359375,-0.21858196064829824,0.4446376181781292,-0.3469493973642587
1758273973705221000,10.94922119140625,-1.9836488285399971,0.6522925266206264,1.2686809422977268
1758273973715179300,10.95917919921875,-3.2229508238792417,0.44330899992287154,2.4298969506546855
1758273973725136400,10.969136474609375,-2.296566630834341,0.12544891892075538,3.4252602796405553
1758273973735094300,10.97909423828125,-0.2702571297626942,-0.44384559101760385,3.4058711040377614
1758273973745052400,10.989052490234375,1.0540905355036259,-1.1902233455240725,2.109490838431567
1758273973755010000,10.999010009765625,0.8058488381940871,-0.43398061508536334,0.6376302334092557
1758273973764968200,11.00896826171875,0.43388942967057226,0.06929682358801365,-1.061868037637323
1758273973774925300,11.01892529296875,-0.02291683827228844,-1.330071961197257,-3.1194384269565343
1758273973784883200,11.02888330078125,-1.1999123803675174,-0.31309564307928084,-3.68493471365571
1758273973794841300,11.03884130859375,-1.1148469097614289,0.6501864942520856,-3.1470944956451654
1758273973804799200,11.04879931640625,-1.555976227557659,-0.08746668652892112,-1.949252930202335
1758273973814757400,11.05875732421875,-0.8572633105456828,-0.33307577031254765,0.36265462375730273
1758273973824715300,11.06871533203125,0.236277812869288,-1.5651584819227455,1.7762443877272307
1758273973834672000,11.078672119140625,1.3115525541663169,1.2692115420430898,3.2016011618584392
1758273973844630300,11.08863037109375,2.136912659972906,2.130094212129712,2.952574963107705
1758273973854588200,11.098588134765626,1.4905518614888191,1.1037369022041559,2.0405242697112262
1758273973864546300,11.10854638671875,0.5641899533409624,0.27951836764812465,1.3050485790997743
1758273973874504400,11.11850439453125,-0.1964028620660305,-0.13532675433456898,0.7909566086843609
1758273973884462000,11.128462158203124,-0.5068856922984123,-0.3506026591747999,0.17987156011238692
1758273973894419200,11.138419189453124,-0.03905307649374008,-0.7950912242710589,-0.3431123034194112
1758273973904377300,11.14837744140625,0.6116647481560706,-1.645319229352474,-0.6589307955913245
1758273973914335200,11.158335205078124,1.1996494916476308,-1.6461895824462174,-0.7243447863966226
1758273973924293400,11.16829345703125,1.322119540888071,-0.30487726531028747,-0.367340005094558
1758273973934251300,11.178251220703125,1.1991420535821466,0.6622960342407226,-0.14262611756250262
1758273973944208100,11.1882080078125,1.1759072354018687,0.2634931155204773,-0.44882630203962326
1758273973954166300,11.198166259765625,1.2133983232758938,-0.5066542216300964,-0.8216017761863768
1758273973964124200,11.208124267578125,0.8723030587673187,-0.3788093474835157,-0.9631580725602805
1758273973974082300,11.218082275390625,0.29740466440729796,-0.3905623291194439,-0.8421135260783136
1758273973984040200,11.228040283203125,0.2038438257217407,-0.40906946119070053,-0.48107466695457696
1758273973993998300,11.237998291015625,0.3262684283852577,-0.2754477572083473,-0.003326514074206352
1758273974003955200,11.247955078125,0.7811118718225508,0.10997720902264117,0.37445071388259527
1758273974013913000,11.2579130859375,1.1890764405112713,0.635211627960205,0.45503523968234655
1758273974023871200,11.267871337890625,0.8063724967420101,1.8766040197074412,0.3469140337899327
1758273974033829000,11.2778291015625,0.6139210026502608,2.2919255270302292,-0.2503554015278816
1758273974043787300,11.287787353515625,1.7517875534713268,-1.1539712979257106,-1.7894639347843824
1758273974053744400,11.297744384765625,2.8911288530200716,-0.5992810674011707,-1.1980274434037506
1758273974063702300,11.307702392578125,2.778228450027108,2.1056407388746736,0.0662261839710176
1758273974073660200,11.31766015625,0.20834818793628362,1.7947732932388782,-0.09587284195497632
1758273974083618000,11.3276181640625,-4.499256708097458,0.44374856038391586,-0.5316524692863226
1758273974093576200,11.337576171875,-7.093879233789443,-0.8137585153400898,-0.4576527287043631
1758273974103534300,11.347534423828124,-2.696156900539994,-2.713679113227129,-0.09724296126440167
1758273974113491200,11.3574912109375,0.8654431098699569,-4.280459643393755,-0.09440700718611478
1758273974123449300,11.367449462890624,-0.6410702908605337,-2.706991013765335,0.49760859925672407
1758273974133407200,11.3774072265625,-1.7167963195890188,-0.669154814094305,0.7014703990265727
1758273974143365000,11.387365234375,-1.0892414169270546,-1.0963163968145846,-0.0877919729605317
1758273974153323300,11.3973232421875,0.38740412081684916,-2.2722300619572398,-0.6698948188066483
1758273974163280100,11.407280029296874,0.5628899035930633,-2.9227245992451905,-0.6628093905903398
1758273974173238300,11.41723828125,-0.9272685746639966,-3.024686844116449,-0.5350624969255179
1758273974183196400,11.427196533203125,-0.853079887381196,-3.942152986690402,-1.603904976685345
1758273974193154300,11.437154296875,0.11697751623876392,-5.037737562099099,-2.6348718262329696
1758273974203112200,11.4471123046875,0.8379530453979969,-5.438868046984076,-2.408492343576252
1758273974213070000,11.457070068359375,1.7124042221099138,-5.428896688067913,-1.539116570432484
1758273974223027200,11.467027099609375,2.0938965250670907,-4.52950279327929,-0.3156358290813863
1758273974232985300,11.4769853515625,1.4376847791761158,-2.2111761660575864,0.7705395513385533
1758273974242943200,11.486943115234375,0.19580199182974173,0.7987742966979742,1.1680563757710158
1758273974252901400,11.4969013671875,-0.2481768884450197,0.23653730405569076,-0.36461167610920964
1758273974262859300,11.506859375,-0.035886146028572694,-2.520270172280073,-2.7130229874059557
1758273974272817200,11.516817138671875,1.6708873858511446,-5.576058841624856,-4.030389780808985
1758273974282774300,11.526774169921875,3.5807635605633257,-5.3994835465788835,-3.0849636181637643
1758273974292732200,11.536732177734375,3.0810768398582935,-5.243589220511913,-2.9028286431640384
1758273974302690300,11.546690185546876,1.9626853893578051,-4.225606940221787,-2.3557781137377023
1758273974312648200,11.556648193359376,0.4807154782533645,-1.2557038256943225,-1.970419052349776
1758273974322606300,11.5666064453125,0.6251636966764926,-1.3980992032408714,-1.4284180613979696
1758273974332563200,11.576563232421876,2.033607768321037,-3.0773955209970474,-0.6357784680627286
1758273974342521000,11.58652099609375,0.5565875885784626,-2.6508628838300705,0.3021360037781298
1758273974352479200,11.596479248046874,0.582064559662342,-1.330083067113161,2.297320079550147
1758273974362437400,11.606437255859374,3.99620431035161,-2.606586519730091,3.7184517833322284
1758273974372395300,11.616395263671874,-2.770675842690468,-0.08931377570033074,4.8186768780231475
1758273974382353400,11.626353515625,-4.968634799778461,0.453407200089097,3.802944422486424
1758273974392310000,11.63631005859375,-1.7729425697028636,-0.24772154589295386,3.056087652291357
1758273974402268200,11.64626806640625,-1.569448434201628,1.3924234956920145,2.676649066993594
1758273974412226300,11.656226318359375,-4.675075631818175,1.6469406930744648,0.2784288188457489
1758273974422184000,11.666183837890625,-9.99587142612934,-0.18127835817039012,-0.29773616138398645
1758273974432142000,11.67614208984375,-5.117939810582995,-0.08268938912451267,1.8460344016596675
1758273974442100000,11.686099853515625,5.637040256810188,-0.8740794207900762,2.415449323107302
1758273974452057000,11.69605712890625,-1.5158032071232794,-1.295444299930334,5.462789605319499
1758273974462015200,11.70601513671875,-13.715018205988406,0.12952712814509867,7.690317771241069
1758273974471973000,11.71597314453125,-12.713842099070549,1.7958716098695993,11.741128701049089
1758273974481931300,11.72593115234375,-3.6597149322032925,-0.20404607029557226,13.084987780058384
1758273974491889000,11.735888916015625,-2.28330792081058,-2.3333359803050757,11.328056433957814
1758273974501846000,11.745845947265625,-0.625534283554554,-2.792742128548026,9.318854792618751
1758273974511804200,11.75580419921875,0.5793687447071075,-2.2180063043385743,7.362934659612178
1758273974521762000,11.765761962890625,0.8495710024774074,-1.5909785673558712,5.322001662969589
1758273974531720200,11.77572021484375,0.8341554066807031,-1.6596867774009703,2.789567590165138
1758273974541678000,11.785677978515626,0.6147095226794481,-2.1416583931952715,0.15844839446395634
1758273974551636200,11.79563623046875,0.07001578551232815,-1.9428972775653004,-1.6680574231222272
1758273974561593000,11.805593017578126,-1.0116156678676604,-0.5953314529925584,-2.627089794054627
1758273974571551000,11.815551025390626,-2.322447506543994,0.9166242849223315,-3.169439306183159
1758273974581509000,11.825509033203126,-4.283129739385843,2.399268442026526,-3.605015666027367
1758273974591467300,11.83546728515625,-4.910115975314379,4.071163397485018,-3.5210891363233325
1758273974601425200,11.845425048828124,-5.176000954407454,4.492231339505315,-3.7191216454178093
1758273974611382000,11.855382080078124,-5.206086296069622,4.766752629518509,-3.925796602912247
1758273974621340200,11.865340087890624,-4.068293979528546,5.105924963140487,-4.00545553829968
1758273974631298000,11.875298095703124,-2.6725486459374426,4.200775281304121,-3.9970144576907156
1758273974641256200,11.885256103515625,-1.607387265843153,2.7393501455783844,-3.7607340510055423
1758273974651214000,11.895214111328125,-1.164409105309844,0.6138375621505081,-3.818832311969995
1758273974661172200,11.905172119140625,-1.0028758965730666,-0.8593214851845056,-3.4426904301300643
1758273974671129300,11.91512939453125,-1.2376286552995444,-1.4674991949424148,-2.9446272189736367
1758273974681087000,11.9250869140625,-1.864358870640397,-1.4551722128108142,-2.7988267091587185
1758273974691045000,11.935045166015625,-2.3894261163175106,-1.2160757988568394,-2.7417016771405933
1758273974701003000,11.9450029296875,-2.409302198654413,-0.9366319577496498,-2.667885622562468
1758273974710961200,11.954961181640625,-2.52242004379034,-0.947375397016853,-2.4981989179864525
1758273974720919000,11.9649189453125,-2.9506138921678065,-1.3149319674715398,-2.3208226818211375
1758273974730876200,11.974876220703125,-3.318981340613961,-1.9096116785570978,-2.1920666841790077
1758273974740834000,11.984833984375,-3.6207676541715856,-2.3885125086039305,-2.0798473953180014
1758273974750792000,11.9947919921875,-3.8900621494472025,-2.9955703474864364,-2.1097357531033456
1758273974760750000,12.00475,-4.270827891695499,-3.3741385796904564,-2.241250401803851
1758273974770708000,12.0147080078125,-4.480986307391524,-3.5210832911044356,-2.5750591625660655
1758273974780666000,12.024666015625,-3.651466743817925,-3.446269457660615,-2.9425992202773688
1758273974790623200,12.034623291015626,10.346783297383785,-3.3748782921418545,1.6207129036232828
1758273974800581000,12.0445810546875,13.59249774173498,-3.5925410921186205,5.945531620964408
1758273974810539000,12.0545390625,-3.7141695759683846,-3.8128108597233887,-0.5048385505102575
1758273974820497200,12.0644970703125,-3.6966362573653457,-3.4174306089282034,-1.1626662802305072
1758273974830455000,12.074455078125,-4.759936519762873,-3.2769378501325845,3.2561043209403753
1758273974840412200,12.084412109375,-5.6435226045668125,-2.3863481701768934,11.559971338909865
1758273974850370000,12.0943701171875,-2.436259763684869,-3.8315824879497287,12.682808662903309
1758273974860328200,12.104328125,0.10917641403377056,-4.534125192382931,2.7984736579373477
1758273974870286300,12.114286376953125,0.7834504708379506,-1.9994835265316069,-9.59998936329186
1758273974880244000,12.124243896484375,-0.8743050462394952,0.7805974194943904,-1.1390295301858335
1758273974890202000,12.1342021484375,0.11099310806691647,2.0050220175668594,0.9817314017355442
1758273974900159200,12.1441591796875,-1.134550558140874,0.574506180172041,0.24831483561098575
1758273974910117000,12.1541171875,-1.5420365495324133,-3.724398416776955,-0.8025922475509345
1758273974920075300,12.1640751953125,-0.693765523737669,-3.4948972949683665,-1.3754770370662213
1758273974930033200,12.174033203125,0.5682464621901512,-2.3492843678042292,-0.12601612434946
1758273974939991000,12.183990966796875,0.7468354351460933,-2.072549493394792,0.7537534709062427
1758273974949949000,12.193948974609375,0.4379179545342922,-1.6675786996945738,0.6708472972258925
1758273974959906000,12.203906005859375,0.32402620241641994,-1.0401199508834629,0.7682301784176379
1758273974969864200,12.2138642578125,-0.31384675370752807,-0.5121244697347284,0.9906748789086938
1758273974979822000,12.223822021484375,-0.7468722600251436,-0.2709429931350052,0.7243732818387448
1758273974989780200,12.2337802734375,-0.7203443185836076,0.02838964366018772,0.3081289605826139
1758273974999738000,12.243738037109376,-0.8728221142053604,0.06110913321822881,0.0412870826235041
1758273975009695000,12.253695068359375,-1.2548100917249918,-0.0995532840333879,-0.10113591358233243
1758273975019653000,12.263653076171876,-1.2534563390284776,-0.3417642498113215,-0.17920257480964064
1758273975029611000,12.273611083984376,-1.0990262402951716,-0.2945459870405495,-0.028310221748426553
1758273975039569200,12.283569091796876,-0.7612994293063878,-0.34364071120768785,0.08643986423183232
1758273975049527300,12.29352734375,-0.32384558515250683,-0.393706472364068,0.19756525690890847
1758273975059485200,12.303485107421874,-0.21743454417884348,-0.3541897238813341,0.4011075424008071
1758273975069442000,12.313442138671874,-0.4078969102799892,-0.30458705019205806,0.512355209750682
1758273975079400000,12.32339990234375,-0.6271165843099356,-0.37168899408429856,0.4536037455745041
1758273975089358000,12.333358154296874,-0.6248813726037741,-0.5433829468294978,0.2697029664786532
1758273975099316200,12.343316162109375,-0.504264111623168,-0.6415200804546475,0.1240023733742535
1758273975109274000,12.353274169921875,-0.2580599845558405,-0.7769590629920363,0.05782094186041504
1758273975119232300,12.363232177734375,-0.2759744114309549,-0.5700806918799877,0.24814455707799643
1758273975129189000,12.373189208984375,-0.14667933847606182,-0.4391553873747587,0.28231680272761733
1758273975139147000,12.38314697265625,0.12307809813618659,-0.36799203926250335,0.16486929435692727
1758273975149105200,12.393105224609375,-0.032629765447974204,-0.141825322573632,0.16628303361237048
1758273975159063000,12.40306298828125,-0.3182043643951416,0.11713409503996372,0.09765285723954438
1758273975169021200,12.413021240234375,-0.35310616642832754,0.10840499126985668,-0.17765779305305332
1758273975178978300,12.422978271484375,0.048939095214009284,-0.1574348335072398,-0.3756992161063477
1758273975188936000,12.43293603515625,-0.09761632462143897,-0.6978373032212257,-0.21593488020561635
1758273975198894000,12.44289404296875,0.2227753206849098,-0.7014939260326325,-0.047548371507972476
1758273975208852000,12.45285205078125,-0.23608371506929396,0.36074528300464154,-0.1154834417561069
1758273975218810000,12.46281005859375,-1.5825684664070605,0.12854761558845637,-0.46395942763313647
1758273975228768000,12.47276806640625,0.8958961158007382,-0.016628478717803954,-0.07452325299941003
1758273975238725000,12.48272509765625,0.4046954838901758,1.441026052428037,0.9528449144691228
1758273975248683300,12.492683349609376,-1.056777582630515,1.083649661334604,0.8834593896843492
1758273975258641000,12.502640869140626,-1.1967904489547014,-0.31075127191022034,-0.2543430463919416
