time,seconds_elapsed,z,y,x
1758273962811406300,0.05540625,9.551786765658855,-0.07743889385093934,2.2198557315975425
1758273962821364500,0.065364501953125,9.531695579266547,0.04743265900670085,2.305410008633882
1758273962831322400,0.075322265625,9.51906756836176,0.18070901558352634,2.3505488347820935
1758273962841280500,0.085280517578125,9.511565229907632,0.29968689359296113,2.3686922481074926
1758273962851237400,0.0952373046875,9.50352980749011,0.38623262935206293,2.3883310145571826
1758273962861195300,0.1051953125,9.491513791003822,0.4350663644954562,2.4274000192724166
1758273962871153400,0.1151533203125,9.475364620235561,0.45137331964131444,2.4867867126122114
1758273962881111300,0.125111328125,9.45697848419547,0.43889743055831637,2.5579908311262725
1758273962891068400,0.135068359375,9.436199315539001,0.4021217244120314,2.639473767070472
1758273962901026600,0.145026611328125,9.408720356982945,0.34105511516127734,2.7440932484522462
1758273962910984400,0.154984375,9.365774364703894,0.24493737680083139,2.897009143230319
1758273962920942300,0.1649423828125,9.29671777961254,0.10352475408078171,3.119407739557326
1758273962930899500,0.1748994140625,9.196471691009402,-0.07972189022158271,3.4042534397080537
1758273962940857300,0.184857421875,9.07308730340302,-0.27683042547209186,3.711177408415079
1758273962950815500,0.1948154296875,8.952975653856992,-0.44730143055990335,3.9767493760362265
1758273962960773400,0.2047734375,8.85633489626944,-0.5647186168575659,4.173344838064908
1758273962970731500,0.2147314453125,8.784142935761809,-0.6405722782105207,4.3126425418570635
1758273962980688400,0.2246884765625,8.721686771848796,-0.7195340981792658,4.425475432571768
1758273962990646300,0.234646240234375,8.661594998979568,-0.8300617806915194,4.523069545361399
1758273963000604400,0.2446044921875,8.60590292237401,-0.9697277332741766,4.600918508717418
1758273963010562300,0.254562255859375,8.555610074463486,-1.1167995051339268,4.660974041229486
1758273963020519400,0.26451953125,8.505736913269757,-1.2512841095559297,4.717744852982461
1758273963030477300,0.274477294921875,8.45334387820959,-1.3661420763574539,4.77964630562216
1758273963040435200,0.284435302734375,8.399382570919395,-1.4579146433867514,4.847189271280169
1758273963050393300,0.294393310546875,8.340106790608168,-1.5286919147908686,4.927078216031194
1758273963060350500,0.3043505859375,8.267811369726061,-1.5883623935081064,5.028993699151277
1758273963070308400,0.314308349609375,8.181638814660907,-1.6450369052797555,5.150245166382193
1758273963080266500,0.3242666015625,8.08782246684432,-1.701324025169015,5.2785424604713915
1758273963090224400,0.334224365234375,7.9918077322006225,-1.7556515354231,5.4054672971636055
1758273963100182300,0.344182373046875,7.889497696805,-1.812094868787378,5.535569594848155
1758273963110139400,0.354139404296875,7.7760232933163635,-1.881323887836188,5.671372734522819
1758273963120097300,0.36409716796875,7.659547954446077,-1.9712429359532893,5.797923477205634
1758273963130055400,0.374055419921875,7.555712901440263,-2.07824580534026,5.895971763503551
1758273963140013600,0.384013671875,7.472988441002369,-2.1918917660035193,5.959903260666132
1758273963149970200,0.39397021484375,7.407454769340157,-2.3012927825734018,6.000338146907091
1758273963159928300,0.40392822265625,7.354484226652979,-2.400291209203005,6.026653322380781
1758273963169886500,0.413886474609375,7.310848498544097,-2.4879431891709562,6.044172612458467
1758273963179844400,0.42384423828125,7.270657357931137,-2.5702067540988325,6.058214581814408
1758273963189801500,0.433801513671875,7.234877019497752,-2.6488638189673424,6.06716244290173
1758273963199759400,0.44375927734375,7.2059899477094405,-2.723981311532855,6.0682800487548105
1758273963209717500,0.453717529296875,7.177029810684919,-2.8018405040219423,6.067150752463936
1758273963219675400,0.46367529296875,7.1409788386166095,-2.882644517791271,6.071833357322216
1758273963229633300,0.47363330078125,7.096857957339286,-2.959973548926413,6.086341775146126
1758273963239590400,0.48359033203125,7.048036351025104,-3.0309044034570456,6.108123983365297
1758273963249548500,0.493548583984375,6.994736722514033,-3.0954788746982813,6.136941497048735
1758273963259506400,0.50350634765625,6.926009223246574,-3.15847133744508,6.182624220815301
1758273963269464600,0.513464599609375,6.836818197143077,-3.228588245244324,6.245359201669693
1758273963279421400,0.52342138671875,6.726390906265378,-3.3152038679018614,6.319451442840695
1758273963289379300,0.53337939453125,6.595607640579343,-3.42003845333904,6.400912166953087
1758273963299337500,0.54333740234375,6.448458931025862,-3.5357384239226577,6.4873974412292235
1758273963309295400,0.55329541015625,6.283498670449853,-3.6567099051684138,6.581527677300572
1758273963319252500,0.56325244140625,6.0993643383264535,-3.781044140845537,6.683699765530228
1758273963329210400,0.57321044921875,5.899961125400662,-3.908001126241684,6.788842394003272
1758273963339168300,0.583168212890625,5.692018632188439,-4.038561396826803,6.889218830987811
1758273963349126400,0.59312646484375,5.486090985929966,-4.163992780090868,6.980998704540729
1758273963359084300,0.603084228515625,5.309208816891909,-4.257291241513192,7.061031441676616
1758273963369041400,0.61304150390625,5.164204133629799,-4.320793699608743,7.129665417441725
1758273963378999600,0.62299951171875,5.039945885798335,-4.367337716379762,7.189972294366359
1758273963388957400,0.63295751953125,4.928267133554816,-4.413534234887361,7.239010758301616
1758273963398915800,0.642915771484375,4.821364217410982,-4.4675668538480995,7.277751700106263
1758273963408872700,0.652872802734375,4.7211853488251565,-4.5319989940091965,7.303546066576242
1758273963418830600,0.66283056640625,4.623702295194566,-4.608218894858658,7.318202368438244
1758273963428788700,0.672788818359375,4.527053646561503,-4.699801784534752,7.320386142218113
1758273963438746600,0.68274658203125,4.425734960290789,-4.795700783844292,7.320142981112003
1758273963448703700,0.692703857421875,4.329067314696312,-4.88102928930074,7.321551094344258
1758273963458661600,0.70266162109375,4.245497927866876,-4.95138672785759,7.32324386973679
1758273963468619500,0.71261962890625,4.163899256588518,-5.0158004555791615,7.326259418165684
1758273963478577700,0.72257763671875,4.078965595668554,-5.088198752313852,7.324115976396203
1758273963488535600,0.73253564453125,3.9896296081364153,-5.187987160277366,7.303290045988559
1758273963498492700,0.74249267578125,3.8727299063742158,-5.333419129040837,7.261335402834415
1758273963508450800,0.752450927734375,3.733693483866751,-5.505637397921085,7.205406010341644
1758273963518408400,0.762408447265625,3.6064150114312765,-5.627453513297438,7.176066518610716
1758273963528366600,0.77236669921875,3.498176462769508,-5.698392258873581,7.1736664717316625
1758273963538323700,0.78232373046875,3.3747219325363633,-5.780975265014171,7.166726443335413
1758273963548281600,0.792281494140625,3.1988620922833677,-5.918929445242881,7.134700488999486
1758273963558239700,0.80223974609375,2.988023000846803,-6.103069038063287,7.070690081381797
1758273963568197600,0.81219775390625,2.781271763245761,-6.292822379112243,6.988226902228593
1758273963578154500,0.822154541015625,2.590099495309591,-6.472563444712757,6.896934519931674
1758273963588112600,0.832112548828125,2.4424235470116136,-6.638216363728046,6.792571643659472
1758273963598070500,0.842070556640625,2.328069876470417,-6.792412069183587,6.679343908408284
1758273963608028700,0.852028564453125,2.2020950339794156,-6.950026643171906,6.55883419945538
1758273963617986600,0.861986572265625,2.0400066755779087,-7.128993801790475,6.417648197698592
1758273963627943700,0.871943603515625,1.842669747532159,-7.333708565127849,6.244329274100065
1758273963637901600,0.881901611328125,1.6245931060574947,-7.550690104842186,6.043024611467123
1758273963647859500,0.891859375,1.4056312061809002,-7.760556844115257,5.82823619788289
1758273963657817600,0.901817626953125,1.2087039549145846,-7.951521899041533,5.6109471996545786
1758273963667774700,0.911774658203125,1.0388181475698948,-8.119988121911883,5.3997267076849935
1758273963677732600,0.921732666015625,0.9188814892645925,-8.261556985506415,5.2031455664426085
1758273963687690800,0.931690673828125,0.8981222674176096,-8.367934124210477,5.034028186187148
1758273963697648600,0.941648681640625,0.9235010388240218,-8.434609951645136,4.916795891469716
1758273963707605500,0.95160546875,0.9125843618817627,-8.44760036612153,4.896493108153343
1758273963717563600,0.961563720703125,0.9047196198560297,-8.442170157766341,4.907305009546875
1758273963727521500,0.971521484375,0.961629182492569,-8.45179664876759,4.8798362801238895
1758273963737479700,0.981479736328125,1.0720721823960542,-8.495623515534401,4.779691021546721
1758273963747437800,0.991437744140625,1.1934478605285286,-8.572787419235706,4.6101413873538375
1758273963757394400,1.00139453125,1.2875789733827114,-8.671987798178195,4.394220462608337
1758273963767352600,1.0113525390625,1.3467263050086795,-8.786282870399951,4.1422143712639805
1758273963777310700,1.021310791015625,1.3427701147288083,-8.905027907767892,3.8817306666925546
1758273963787268600,1.0312685546875,1.2589467531383036,-9.020351738515496,3.635748950204253
1758273963797225700,1.041225830078125,1.08509072698839,-9.124649732857941,3.425453171864152
1758273963807183600,1.05118359375,0.8820668393474072,-9.183954154741764,3.3237507469728587
1758273963817141500,1.0611416015625,0.7670174416270107,-9.187795048078893,3.3416274721860884
1758273963827099600,1.071099609375,0.7613296052489429,-9.178087893056869,3.369491630667448
1758273963837056500,1.081056396484375,0.811450092267245,-9.174538091620802,3.367456909969449
1758273963847014700,1.0910146484375,0.8359355680957437,-9.18571122754216,3.330808848790824
1758273963856972800,1.100972900390625,0.8152799527537077,-9.215113847637175,3.253823224265873
1758273963866930700,1.1109306640625,0.7838325289580971,-9.258790492278337,3.1354078572437167
1758273963876888800,1.120888916015625,0.7653968546878546,-9.309301366853713,2.9868820141181347
1758273963886845700,1.130845703125,0.7550900532722473,-9.362754140099883,2.817635746785998
1758273963896803600,1.140803466796875,0.7445883868716656,-9.419778342092037,2.623691968309879
1758273963906761700,1.15076171875,0.7311974287703633,-9.479818092513083,2.40182850177288
1758273963916719600,1.1607197265625,0.7223889761537313,-9.539135958400369,2.157181541019678
1758273963926676700,1.1706767578125,0.7194266922820359,-9.594010288882256,1.8994130867563186
1758273963936634600,1.180634521484375,0.7085550235252827,-9.641452423536776,1.646429236420989
1758273963946592500,1.190592529296875,0.690272128663957,-9.680525373774767,1.4075985607311128
1758273963956550700,1.200550537109375,0.6872759425226599,-9.709440502613782,1.1936575577564537
1758273963966508500,1.210508544921875,0.7159300823379308,-9.729222476926445,1.000038992646709
1758273963976465700,1.220465576171875,0.7760972585309296,-9.74486252912879,0.778278328897059
1758273963986423800,1.230423828125,0.8605226776678114,-9.75711644602418,0.47809652792662377
1758273963996381700,1.240381591796875,0.9487574990250169,-9.759075763398409,0.17519929398503153
1758273964006339600,1.250339599609375,1.0392075852788984,-9.751198161891102,-0.06755003471961245
1758273964016296700,1.260296630859375,1.1323070900630205,-9.737045717898011,-0.27964086151663214
1758273964026254600,1.270254638671875,1.2169231364011763,-9.71850935973227,-0.4899508875777945
1758273964036212700,1.280212646484375,1.2827838480606675,-9.696989601841569,-0.7023221935503184
1758273964046170600,1.290170654296875,1.324319242889434,-9.674447515165806,-0.9064457860615104
1758273964056127500,1.30012744140625,1.3399435130007564,-9.653772975927591,-1.0861043610103427
1758273964066085600,1.310085693359375,1.3276887193225324,-9.638439797717332,-1.2280534560941159
1758273964076043500,1.32004345703125,1.2852975844472645,-9.632565352725981,-1.316082598811388
1758273964086001700,1.330001708984375,1.2129469993118196,-9.637035776138305,-1.3515434960320591
1758273964095958800,1.339958740234375,1.1345338992670178,-9.64739818019867,-1.3457133285738527
1758273964105916700,1.349916748046875,1.0759124181460589,-9.656353640070558,-1.3295248487085103
1758273964115874800,1.359874755859375,1.041959222074598,-9.66212871634066,-1.3145270399324596
1758273964125832400,1.36983251953125,1.0273475630719213,-9.665331311774253,-1.302414577334374
1758273964135790600,1.37979052734375,1.0279944096080957,-9.666043843957782,-1.2966209424942732
1758273964145747700,1.389747802734375,1.0428632582422346,-9.664521164435147,-1.2960858127042651
1758273964155705600,1.39970556640625,1.0699988101880997,-9.661329674917459,-1.2977689434856177
1758273964165663700,1.409663818359375,1.1055685015454888,-9.657188921850919,-1.298770375613123
1758273964175621600,1.41962158203125,1.1443084935020655,-9.653006667730212,-1.2963120226755738
1758273964185578500,1.42957861328125,1.1808555054590106,-9.649431147330999,-1.2901422479994595
1758273964195536600,1.43953662109375,1.212188143768534,-9.646698507496714,-1.2814768571153283
1758273964205494500,1.44949462890625,1.2347745810426771,-9.644812255358696,-1.274098291171342
1758273964215452700,1.45945263671875,1.2455784452602268,-9.644010291326046,-1.2696473031118511
1758273964225410800,1.469410888671875,1.2468959575995802,-9.644101476740836,-1.2676448772482574
1758273964235367400,1.479367431640625,1.244587388396263,-9.64456032642424,-1.2664185503236949
1758273964245325600,1.48932568359375,1.2436857633814216,-9.644816347011924,-1.2653592505291102
1758273964255283700,1.49928369140625,1.2472101381152867,-9.644427055433392,-1.2648529084421694
1758273964265241600,1.50924169921875,1.2564623889766633,-9.643155135801434,-1.265402797409892
1758273964275198700,1.51919873046875,1.2707501497872173,-9.641122753190993,-1.2666205026365815
1758273964285156600,1.529156494140625,1.2881506357908248,-9.638643795856833,-1.2679177028402686
1758273964295114800,1.53911474609375,1.305758919326216,-9.63616659208834,-1.2687259504832327
1758273964305072600,1.54907275390625,1.3211059799313545,-9.634066404938697,-1.2687911246739327
1758273964315029500,1.559029541015625,1.3337833829358219,-9.632218731245398,-1.2695558254361152
1758273964324987600,1.568987548828125,1.3439758372567594,-9.63044061565697,-1.2722900727055966
1758273964334945800,1.57894580078125,1.3521166197448968,-9.628755439049005,-1.276420304378122
1758273964344903700,1.588903564453125,1.35877812346071,-9.627185997775197,-1.2811777280382812
1758273964354861800,1.59886181640625,1.3635492833852767,-9.625842766472697,-1.2861818199358879
1758273964364818700,1.608818603515625,1.3660199112825095,-9.624674891737103,-1.292283936203271
1758273964374776600,1.618776611328125,1.3660980910852552,-9.62352104552686,-1.3007719246938825
1758273964384734700,1.628734619140625,1.363224289214611,-9.62227367581427,-1.3129521918311715
1758273964394692400,1.6386923828125,1.3568079924315213,-9.621167760398983,-1.3276193073481322
1758273964404649200,1.648649169921875,1.347829297814518,-9.620584407553077,-1.3409294552981852
1758273964414607400,1.658607421875,1.3374405902691184,-9.620766193860769,-1.3499905675016344
1758273964424565200,1.668565185546875,1.3264331663034856,-9.62178910716772,-1.3535614117257295
1758273964434523400,1.6785234375,1.3125028406284749,-9.623755438804626,-1.3531686130158602
1758273964444480500,1.68848046875,1.2959917046800256,-9.626504445251822,-1.3495198812499642
1758273964454438400,1.6984384765625,1.2785692991055548,-9.629820437932015,-1.3424702549993992
1758273964464396500,1.708396484375,1.2617338996388017,-9.633397711896896,-1.3327015790484844
1758273964474354200,1.718354248046875,1.246997079886496,-9.636692077267169,-1.3227120999537407
1758273964484312300,1.728312255859375,1.2310256037726997,-9.639608841496706,-1.3163932721957563
1758273964494269400,1.73826953125,1.20792464110516,-9.64247416779995,-1.3168185118705034
1758273964504227300,1.748227294921875,1.174987855534628,-9.645932783821225,-1.3212667234510183
1758273964514185500,1.758185546875,1.134440375764668,-9.649766078373789,-1.3287098790638148
1758273964524143400,1.768143310546875,1.0888778443116693,-9.653409403312205,-1.340297879396379
1758273964534100200,1.778100341796875,1.039579341200739,-9.65662719631493,-1.3561699867889285
1758273964544058400,1.788058349609375,0.9891028072863817,-9.659306644657253,-1.3747199350886046
1758273964554016300,1.798016357421875,0.9409443410560488,-9.661620766818523,-1.392158561145514
1758273964563974400,1.807974365234375,0.8961654342614114,-9.663793434682487,-1.4065386764146386
1758273964573932300,1.817932373046875,0.8542694624919444,-9.666118078237771,-1.4166075043559074
1758273964583889200,1.82788916015625,0.8194001014236361,-9.668625092622637,-1.4200899396441875
1758273964593847300,1.837847412109375,0.7951414200883358,-9.670862642416358,-1.4186442708805203
1758273964603805200,1.84780517578125,0.7811869828853756,-9.672977442613243,-1.411964354725182
1758273964613763300,1.857763427734375,0.776638379670307,-9.675269937464595,-1.3987035988748073
1758273964623720400,1.867720458984375,0.7796048282604664,-9.677641342771052,-1.3805322746291755
1758273964633678300,1.87767822265625,0.787921332641691,-9.679980599373579,-1.3592413570582866
1758273964643636500,1.887636474609375,0.8006785959493369,-9.681918873959779,-1.3378162917137144
1758273964653594400,1.897594482421875,0.816018934552744,-9.683234048211574,-1.3188947336226702
1758273964663551200,1.90755126953125,0.827130695675686,-9.684236503252386,-1.3045255781389773
1758273964673509400,1.91750927734375,0.8317884583536534,-9.68521908454895,-1.2942353625319898
1758273964683467300,1.92746728515625,0.8295029046997427,-9.686171855229139,-1.2885574630260466
1758273964693425400,1.93742529296875,0.8203548448652028,-9.686980249002575,-1.2883387057088316
1758273964703382300,1.94738232421875,0.8066450300730764,-9.687650111088157,-1.2919459364205599
1758273964713340200,1.957340087890625,0.791631731466949,-9.688227618715166,-1.2969004900880157
1758273964723298300,1.96729833984375,0.7784587269652634,-9.688433370420336,-1.30332190143764
1758273964733256400,1.97725634765625,0.7679962235312908,-9.688113052424788,-1.3118842703387141
1758273964743214300,1.98721435546875,0.7594509518954903,-9.687266664728522,-1.323066027957946
1758273964753171500,1.99717138671875,0.7533090150743722,-9.685592594036459,-1.338732091384381
1758273964763129600,2.007129638671875,0.7497573139421642,-9.68313175688088,-1.358382694402337
1758273964773087200,2.017087158203125,0.7496840295102447,-9.679980014851688,-1.3807010553248227
1758273964783045400,2.02704541015625,0.7534273807570337,-9.676449502637983,-1.4032291134752333
1758273964793002200,2.037002197265625,0.7631024601403623,-9.672882165545225,-1.422460614298284
1758273964802960400,2.04696044921875,0.781226657308638,-9.669103231528402,-1.4382228315755725
1758273964812918500,2.05691845703125,0.8072079246528446,-9.664623455765843,-1.4539099377900362
1758273964822876400,2.06687646484375,0.8392025340024382,-9.65931073631048,-1.4710003349311649
1758273964832834300,2.076834228515625,0.8763903280809521,-9.653491236376762,-1.4874319759026169
1758273964842791400,2.08679150390625,0.9188884304620325,-9.647285367473959,-1.5019703504733741
1758273964852749300,2.096749267578125,0.9683120212573557,-9.640406129354238,-1.5150396754048763
1758273964862707500,2.10670751953125,1.0260510935205966,-9.632427405560016,-1.5277322759784757
1758273964872665300,2.116665283203125,1.0922569653559475,-9.623062780365347,-1.5407850881665943
1758273964882622200,2.126622314453125,1.162348008061573,-9.612890345919132,-1.5529581949107347
1758273964892580400,2.136580322265625,1.2272311799257993,-9.603507016023993,-1.5610734045661985
1758273964902538200,2.146538330078125,1.2765702342428267,-9.596897242495418,-1.5621525781050323
1758273964912496400,2.156496337890625,1.3037155769303441,-9.59353682615161,-1.560374900908023
1758273964922453500,2.16645361328125,1.308708270651102,-9.592703297936916,-1.5613218263693154
1758273964932411400,2.176411376953125,1.2962298973500728,-9.593854806059598,-1.564646002355963
1758273964942369500,2.18636962890625,1.2725569069482385,-9.5960707285434,-1.5704763159446418
1758273964952327200,2.1963271484375,1.2431838052086532,-9.598374913832545,-1.5798942787617445
1758273964962285300,2.206285400390625,1.2102575410321355,-9.600613048148155,-1.591819986616075
1758273964972242400,2.216242431640625,1.1688773367650807,-9.604011458414792,-1.602210593857616
1758273964982200300,2.226200439453125,1.1050152515769005,-9.610302667513489,-1.6097874588526784
1758273964992158500,2.236158447265625,1.0068817712135611,-9.619826867184042,-1.6172592560380696
1758273965002116400,2.246116455078125,0.8749746891293674,-9.630568625950813,-1.6300144004538655
1758273965012073200,2.2560732421875,0.7171751139629632,-9.64084978146851,-1.6462218772806225
1758273965022031400,2.26603125,0.5392554185707121,-9.649884151795506,-1.6611166640736161
1758273965031989200,2.2759892578125,0.3472151356283575,-9.656482234886289,-1.673968546862155
1758273965041947400,2.285947509765625,0.14731525262626818,-9.659658526834844,-1.6851380295217036
1758273965051904500,2.295904541015625,-0.05840101590384729,-9.658499419927596,-1.6971670516200363
1758273965061862400,2.3058623046875,-0.2731502939209342,-9.651962127113341,-1.7133058471247553
1758273965071820300,2.3158203125,-0.5019963493542745,-9.638951838892698,-1.7346442570991814
1758273965081778200,2.325778076171875,-0.7469638838313519,-9.618293081745504,-1.760923338346183
1758273965091736300,2.335736328125,-1.0058461445555091,-9.589287936535477,-1.7900319439306853
1758273965101693400,2.345693359375,-1.2714032068684697,-9.551961537703871,-1.8204263515420256
1758273965111651300,2.3556513671875,-1.5335054525524376,-9.507532028868793,-1.850833910895884
1758273965121609500,2.365609375,-1.7844044594377277,-9.457546639472246,-1.881775869387388
1758273965131567400,2.3755673828125,-2.020296889718622,-9.402950541409849,-1.916586193744838
1758273965141524200,2.385524169921875,-2.2414991158679127,-9.34392142933607,-1.9588845357701181
1758273965151482400,2.395482421875,-2.4464209460847077,-9.280777867680788,-2.013100402343273
1758273965161440300,2.405440185546875,-2.629076583957672,-9.21426921350658,-2.087014364337921
1758273965171398400,2.4153984375,-2.793661873741448,-9.145772015863656,-2.1727121414981783
1758273965181356500,2.4253564453125,-2.954587764234841,-9.074066962090134,-2.258784743320197
1758273965191313200,2.435313232421875,-3.1296804195076224,-8.992900837010145,-2.345894871496409
1758273965201271300,2.445271240234375,-3.3297514486923814,-8.899698237177729,-2.424563919063657
1758273965211229400,2.4552294921875,-3.5572064516261217,-8.792481140518188,-2.4917665468513963
1758273965221187300,2.465187255859375,-3.809093885026872,-8.67115836161673,-2.5440458924040197
1758273965231144400,2.47514453125,-4.0644609772369265,-8.546227913612126,-2.5714859802544114
1758273965241102300,2.485102294921875,-4.2990348722651595,-8.427019934907555,-2.5834187023714184
1758273965251060200,2.495060302734375,-4.516211350029707,-8.311776768180728,-2.5862349288359283
1758273965261018400,2.505018310546875,-4.725014259463548,-8.196454690998792,-2.5812287911117076
1758273965270975200,2.514975341796875,-4.907932786056399,-8.084567848962545,-2.5927412419900295
1758273965280933400,2.524933349609375,-5.057381589245796,-7.97898098385334,-2.6323285714909432
1758273965290891500,2.5348916015625,-5.193832963696122,-7.874156335288286,-2.681820624412596
1758273965300849400,2.544849365234375,-5.335508794796467,-7.762273000383376,-2.729443376331031
1758273965310807600,2.5548076171875,-5.479045159071684,-7.64148739709854,-2.785341496902704
1758273965320764400,2.564764404296875,-5.619189542821049,-7.507371772119402,-2.8695833761662244
1758273965330722300,2.574722412109375,-5.761830419561266,-7.356066527408361,-2.976577769985795
1758273965340680400,2.584680419921875,-5.9100569874793285,-7.190095043963193,-3.089361560861766
1758273965350638300,2.594638427734375,-6.04927782664299,-7.006383905687928,-3.2383959380313754
1758273965360595500,2.604595458984375,-6.1710097708672285,-6.815083335196971,-3.4122882776036856
1758273965370553300,2.61455322265625,-6.261763808503747,-6.640765463688969,-3.5862153962284324
1758273965380511200,2.62451123046875,-6.315831498777866,-6.504671816635131,-3.737637545317411
1758273965390469400,2.634469482421875,-6.346248848873376,-6.411739850437641,-3.8451398886591193
1758273965400426800,2.6444267578125,-6.366465707471966,-6.349929583212733,-3.9136820944875477
1758273965410384600,2.654384521484375,-6.3814253761947155,-6.304436244538426,-3.9625624452516433
1758273965420342800,2.6643427734375,-6.390565544983744,-6.267526609814166,-4.006149073521793
1758273965430300700,2.67430078125,-6.395033045786619,-6.2353165310829874,-4.049045965962112
1758273965440258600,2.684258544921875,-6.396258788189291,-6.208600373592972,-4.087974539293349
1758273965450215700,2.694215576171875,-6.39433980282545,-6.189615687137842,-4.119639551362395
1758273965460173600,2.704173583984375,-6.387118034878373,-6.180954241776466,-4.143784397059679
1758273965470131700,2.714131591796875,-6.374632062792777,-6.1843082283794875,-4.1579818492382765
1758273965480089600,2.724089599609375,-6.357703724345565,-6.201196819338202,-4.15874055865109
1758273965490046500,2.73404638671875,-6.3371548573136325,-6.232324948051572,-4.143552634130418
1758273965500004600,2.744004638671875,-6.312879663234948,-6.276662686949968,-4.113568414755165
1758273965509962500,2.75396240234375,-6.2854118105947965,-6.332808352541923,-4.069334428492188
1758273965519920600,2.763920654296875,-6.2574956296652555,-6.3994800883233545,-4.007596057459712
1758273965529878500,2.77387841796875,-6.232461726173758,-6.474626806983351,-3.925048414893448
1758273965539835600,2.783835693359375,-6.210532218438386,-6.555367400127649,-3.824500712995231
1758273965549793800,2.793793701171875,-6.186957866105437,-6.638288259920477,-3.7182036537900567
1758273965559751400,2.80375146484375,-6.154674722138047,-6.719906220421195,-3.623979601955414
1758273965569709600,2.81370947265625,-6.108965694886446,-6.797047912290692,-3.556831188572943
1758273965579666700,2.823666748046875,-6.052832304254174,-6.865716959369182,-3.520731701187789
1758273965589624600,2.83362451171875,-6.001165829902887,-6.9200663891941305,-3.502729596029222
1758273965599582700,2.843582763671875,-5.959843054911494,-6.964957085800171,-3.484258119793236
1758273965609540600,2.85354052734375,-5.923720186650753,-7.016303242155909,-3.442593984018266
1758273965619497500,2.86349755859375,-5.880374965921044,-7.091627070948481,-3.3616014619395136
1758273965629455600,2.87345556640625,-5.823046228024364,-7.194812135612964,-3.2399341073840855
1758273965639413500,2.88341357421875,-5.764810896676779,-7.309008423635363,-3.0847619581118226
1758273965649371600,2.89337158203125,-5.692489172309637,-7.4209975570023055,-2.9486925687164067
1758273965659329500,2.90332958984375,-5.606398450309038,-7.513833077087998,-2.8776673139005897
1758273965669286400,2.913286376953125,-5.532404993337392,-7.578849446877837,-2.8502561598837373
1758273965679244500,2.92324462890625,-5.4648319248020645,-7.635295556721091,-2.8298858642891047
1758273965689202400,2.933202392578125,-5.391014993441105,-7.699208349183201,-2.798139019155502
1758273965699160600,2.94316064453125,-5.308259553343057,-7.773739566293358,-2.749868909244239
1758273965709117700,2.95311767578125,-5.217046666023135,-7.857402768886089,-2.6858997104197737
1758273965719075600,2.96307568359375,-5.118032165041566,-7.947608524990081,-2.6099147873699664
1758273965729033700,2.97303369140625,-5.009218154579401,-8.04374951636195,-2.5251219962254163
1758273965738991600,2.98299169921875,-4.890293376730382,-8.144938438773154,-2.4321618268467486
1758273965748949500,2.992949462890625,-4.762953529496491,-8.24783708771169,-2.336208320870995
1758273965758906600,3.00290673828125,-4.630231989224255,-8.348280744713545,-2.244445836844295
1758273965768864500,3.012864501953125,-4.4958936614051455,-8.442874506643413,-2.162225964927673
1758273965778822700,3.02282275390625,-4.360763890947402,-8.530314889687299,-2.0947112024508416
1758273965788780800,3.03278076171875,-4.223788784883916,-8.61198253454864,-2.040527776842564
1758273965798737400,3.0427373046875,-4.08192882938832,-8.690421865013242,-1.9961944218583403
1758273965808695600,3.052695556640625,-3.934209334209561,-8.766786142769455,-1.9585259315907955
1758273965818653700,3.06265380859375,-3.779684250669181,-8.842941161689161,-1.9200863108202815
1758273965828611600,3.072611572265625,-3.618495325325429,-8.920485589140654,-1.8713089820392428
1758273965838568700,3.082568603515625,-3.4511408630892633,-8.998174393498896,-1.8146297940924763
1758273965848526600,3.092526611328125,-3.2786548831835387,-9.07368059312105,-1.7576004775337875
1758273965858484500,3.102484375,-3.105554278510809,-9.14501798262596,-1.7013352772153914
1758273965868442600,3.112442626953125,-2.9336855537205935,-9.211742909899353,-1.6455027692258357
1758273965878400500,3.122400390625,-2.761142582930624,-9.273141673713923,-1.5985387734770773
1758273965888357600,3.132357666015625,-2.5854788497716186,-9.328812707531451,-1.5680992115497587
1758273965898315800,3.142315673828125,-2.4088546010173855,-9.379794122228025,-1.5450824930995701
1758273965908273700,3.152273681640625,-2.238338459879905,-9.425195106443763,-1.525097397430241
1758273965918231800,3.162231689453125,-2.0754108741752804,-9.464427631157637,-1.512504019447416
1758273965928188700,3.172188720703125,-1.9168278935462235,-9.498857724025845,-1.5059431996271013
1758273965938146600,3.182146484375,-1.7610834973439573,-9.529632216995953,-1.5016928487062453
1758273965948104700,3.192104736328125,-1.6018677717693148,-9.5583982927531,-1.497142930316925
1758273965958062600,3.2020625,-1.436802735644579,-9.585786650416255,-1.4895293865732848
1758273965968020700,3.212020751953125,-1.2832223856084048,-9.609099721464514,-1.4795099507316947
1758273965977977600,3.2219775390625,-1.1533083039723335,-9.626580433097482,-1.4728363181866704
1758273965987935500,3.231935546875,-1.040027377229184,-9.640137249284981,-1.4684920053720474
1758273965997893600,3.2418935546875,-0.938445656108111,-9.651896660661697,-1.459654326660931
1758273966007851500,3.2518515625,-0.8506056792873888,-9.661525489750504,-1.4497453654564916
1758273966017808600,3.26180859375,-0.7696292315606027,-9.670210900509357,-1.4370445815764368
1758273966027766800,3.271766845703125,-0.6834749428045004,-9.679459205847978,-1.4182200541190801
1758273966037724400,3.281724365234375,-0.5905647865800187,-9.688355629009008,-1.3990652717940508
1758273966047682600,3.2916826171875,-0.49827663471139966,-9.695957336184382,-1.3822073682345448
1758273966057639700,3.3016396484375,-0.41882546032313256,-9.70202291983366,-1.3659117747329175
1758273966067597600,3.31159765625,-0.36051289902087297,-9.706668115290999,-1.3494563144944607
1758273966077555700,3.3215556640625,-0.3200313240939751,-9.709327689889072,-1.340498954926431
1758273966087513600,3.331513671875,-0.2933996482833288,-9.709646254318953,-1.3442838802926242
1758273966097471700,3.3414716796875,-0.2746710189484991,-9.708740245389938,-1.3547270945042371
1758273966107428600,3.3514287109375,-0.25200901395380493,-9.707678753638268,-1.366689042715728
1758273966117386500,3.361386474609375,-0.21955716235600412,-9.706841718292235,-1.3781867344163357
1758273966127344600,3.3713447265625,-0.1803623941029422,-9.706121002802252,-1.3889099346131086
1758273966137302500,3.381302490234375,-0.13902735328502022,-9.705101012104748,-1.4007486948363481
1758273966147259600,3.391259765625,-0.09954783154013566,-9.703035896268487,-1.4183116779252887
1758273966157217500,3.401217529296875,-0.06387517756519373,-9.699637486001848,-1.443382114034891
1758273966167175400,3.411175537109375,-0.03037177108784672,-9.696023387157917,-1.4685370135575533
1758273966177133600,3.421133544921875,0.0050808212412492134,-9.693450321799515,-1.4857349627263843
1758273966187091700,3.431091796875,0.045658077949075955,-9.692235685312747,-1.4929443095833062
1758273966197048600,3.441048583984375,0.09225695301275699,-9.692557172352075,-1.48869454318434
1758273966207006700,3.4510068359375,0.14192948620100504,-9.694137719541787,-1.4744303093798459
1758273966216964600,3.460964599609375,0.1875018723277375,-9.696561147296428,-1.4532539580993353
1758273966226922500,3.470922607421875,0.2233622354610823,-9.699480834135413,-1.4284867427200079
1758273966236879600,3.480879638671875,0.24735285871103405,-9.702788643509148,-1.401817785372585
1758273966246837500,3.49083740234375,0.26110521573694423,-9.70619874421358,-1.3754716302387415
1758273966256795600,3.500795654296875,0.26850341796316207,-9.709000942152738,-1.3541044325612486
1758273966266753800,3.51075390625,0.2702733137125149,-9.710538234722614,-1.3426898890994488
1758273966276711700,3.520711669921875,0.26272056024540213,-9.71065689266622,-1.343330086699128
1758273966286668500,3.53066845703125,0.24091274266093968,-9.709496032193302,-1.355741824504733
1758273966296626700,3.540626708984375,0.20235313050625844,-9.707285370406508,-1.3777014351174235
1758273966306584600,3.55058447265625,0.14839580527143553,-9.704471482029557,-1.4041282542720437
1758273966316542700,3.560542724609375,0.08708224465544336,-9.701753455242514,-1.4278519519478081
1758273966326499600,3.57049951171875,0.03229512666612863,-9.699324182268976,-1.4465288876280187
1758273966336457500,3.58045751953125,-0.006228838786436245,-9.697031687417626,-1.4621647020466624
1758273966346415600,3.59041552734375,-0.03384698205089662,-9.694453361362218,-1.4787896736331283
1758273966356373500,3.60037353515625,-0.07118966529702302,-9.690949737155437,-1.5002838586911558
1758273966366330600,3.61033056640625,-0.14176314405761659,-9.685534726369381,-1.5299376770682631
1758273966376288800,3.620288818359375,-0.2593260224362835,-9.676503278651833,-1.5711191438928245
1758273966386246700,3.63024658203125,-0.41957759386468674,-9.6626138695091,-1.6211808133959769
1758273966396204500,3.64020458984375,-0.6066500983318314,-9.643934888002276,-1.6723907761514185
1758273966406162400,3.650162353515625,-0.807151226029545,-9.62074515107274,-1.7205146094597874
1758273966416119600,3.66011962890625,-1.0126933070365338,-9.593136428657173,-1.7653841171473263
1758273966426077400,3.670077392578125,-1.2202603179998694,-9.560724105352163,-1.8093911627866326
1758273966436035300,3.680035400390625,-1.431234433992952,-9.522828966721892,-1.8541035802163182
1758273966445993500,3.689993408203125,-1.6485227015689015,-9.478047575709223,-1.902471305283159
1758273966455950600,3.69995068359375,-1.8711903240956365,-9.426668686127663,-1.951148680821061
1758273966465908500,3.709908447265625,-2.0939019318945706,-9.371184699314831,-1.9917042708322406
1758273966475866600,3.71986669921875,-2.3110719799183306,-9.313677097719907,-2.0210757651366293
1758273966485824500,3.729824462890625,-2.517569681149721,-9.254986423820256,-2.0438791330970822
1758273966495782400,3.739782470703125,-2.711122122220695,-9.194761964482069,-2.0679881768286226
1758273966505739500,3.749739501953125,-2.890672049163282,-9.134030140143633,-2.093779182297736
1758273966515697400,3.759697509765625,-3.049861325122416,-9.074742669394611,-2.125510829862207
1758273966525655600,3.769655517578125,-3.183471923188865,-9.016221506842971,-2.1779870131611823
1758273966535613400,3.779613525390625,-3.313796339191496,-8.950912291586398,-2.251731025416404
1758273966545570300,3.7895703125,-3.473473398667574,-8.871353017181157,-2.324747161788493
1758273966555528400,3.799528564453125,-3.672806761227548,-8.775396734726428,-2.3818698557190596
1758273966565486300,3.809486328125,-3.895933964090049,-8.665089855358005,-2.430693361729383
1758273966575444500,3.819444580078125,-4.115375464177132,-8.546839323508738,-2.487090371733904
1758273966585402400,3.82940234375,-4.324093033415079,-8.425026130741834,-2.5478435311213135
1758273966595359500,3.839359375,-4.523434287020564,-8.302095332121848,-2.6046403540983794
1758273966605317600,3.849317626953125,-4.705758062590658,-8.184573114547133,-2.653115046671033
1758273966615275300,3.859275146484375,-4.853916533708572,-8.084802826762198,-2.691808057680726
1758273966625233400,3.8692333984375,-4.990478967317938,-7.995818721407652,-2.707837693722546
1758273966635190500,3.8791904296875,-5.128935836371779,-7.905987643834948,-2.71289351580739
1758273966645148400,3.8891484375,-5.270032406279444,-7.810294396230578,-2.7196312996298073
1758273966655106600,3.8991064453125,-5.400768325692415,-7.709813329827785,-2.749708750246465
1758273966665064400,3.909064453125,-5.528952222535014,-7.5941183276802295,-2.816095531606674
1758273966675022600,3.919022705078125,-5.674680543896556,-7.448436183547973,-2.913618917247653
1758273966684979500,3.9289794921875,-5.8358379050582645,-7.271815295794606,-3.0387685609608885
1758273966694937300,3.938937255859375,-5.9833782442778345,-7.083427982401847,-3.1928944160506125
1758273966704895500,3.9488955078125,-6.097887836033106,-6.906198022839426,-3.3601465869560836
1758273966714853600,3.958853515625,-6.1779486302196975,-6.7519806900739665,-3.5233570812553165
1758273966724810500,3.968810546875,-6.230642694053054,-6.6232882591873405,-3.671724518948793
1758273966734768400,3.978768310546875,-6.267339562809467,-6.528438476669788,-3.7776156277015804
1758273966744726500,3.9887265625,-6.297986630007625,-6.461596645018458,-3.841033330123126
1758273966754684400,3.998684326171875,-6.32259383251965,-6.414384811988473,-3.8795477696955203
1758273966764641500,4.0086416015625,-6.344934843665361,-6.380442794898152,-3.8989980278357863
1758273966774599700,4.018599609375,-6.365263345944881,-6.358745342352986,-3.9013060125172134
1758273966784557600,4.0285576171875,-6.383378263828158,-6.349619202089309,-3.8865409895837306
1758273966794515500,4.038515380859375,-6.398233303132653,-6.352603770858049,-3.8571296016603704
1758273966804473300,4.048473388671875,-6.407706649398803,-6.365297248214483,-3.82029712382555
1758273966814430500,4.058430419921875,-6.408837699255347,-6.385777726185322,-3.7840415690958498
1758273966824388600,4.068388671875,-6.400590095391869,-6.416449343302846,-3.745929572844505
1758273966834346500,4.078346435546875,-6.384478334024548,-6.458843546918034,-3.700298287004232
1758273966844304600,4.0883046875,-6.363181278973817,-6.512266509547829,-3.6428958993494507
1758273966854262500,4.098262451171875,-6.339093131899833,-6.574607522648573,-3.572221065406501
1758273966864219400,4.108219482421875,-6.309862361240387,-6.643373600360751,-3.495944758194685
1758273966874177500,4.118177490234375,-6.270570215293764,-6.714831985896826,-3.4294840348154305
1758273966884135400,4.128135498046875,-6.2205345570147035,-6.784144007053971,-3.3838916196808215
1758273966894093600,4.138093505859375,-6.167735279241204,-6.844501152861118,-3.358905062462389
1758273966904050700,4.14805078125,-6.119779349845648,-6.896880743917823,-3.339419733008742
1758273966914008300,4.15800830078125,-6.0873915764600035,-6.94388390263319,-3.300987711022794
1758273966923966500,4.167966552734375,-6.073203476631641,-6.993764662611484,-3.2208477141201493
1758273966933924400,4.17792431640625,-6.035660804700851,-7.073424474781751,-3.1157372343510388
1758273966943881500,4.187881591796875,-5.955832065704465,-7.173933013713359,-3.0386084019631148
1758273966953839600,4.197839599609375,-5.845311251324415,-7.284879360029101,-2.9888503915816544
1758273966963797500,4.207797607421875,-5.7397465980470175,-7.39058955925703,-2.9334114129543303
1758273966973755600,4.217755615234375,-5.6450406079143285,-7.487653510692716,-2.8703566986262796
1758273966983713300,4.22771337890625,-5.543984956493974,-7.588803270137309,-2.800829281152785
1758273966993670400,4.23767041015625,-5.43503825956285,-7.694730911508202,-2.7243103973567484
1758273967003628500,4.247628662109375,-5.322374003413319,-7.803360213053226,-2.6363436523512003
1758273967013586400,4.25758642578125,-5.208782695546746,-7.910968354856967,-2.540785429303348
1758273967023544600,4.267544677734375,-5.093251944050192,-8.017405699315667,-2.4393410708263517
1758273967033501400,4.27750146484375,-4.970817404514551,-8.126216202646493,-2.3293625466294587
1758273967043459300,4.287459228515625,-4.8379029720187186,-8.237853453835845,-2.2142375994548202
1758273967053417500,4.29741748046875,-4.699427106003463,-8.346931083670258,-2.101076207438111
1758273967063375400,4.307375244140625,-4.561239409279823,-8.448080258592963,-1.9988539964564143
1758273967073333500,4.31733349609375,-4.423280552875996,-8.540279234340787,-1.9153578209936617
1758273967083290600,4.32729052734375,-4.285165044605732,-8.624097919756174,-1.8527476355627177
1758273967093248300,4.337248291015625,-4.1428962160483,-8.704834421247243,-1.797966536322236
1758273967103206400,4.347206298828125,-3.9914173683360215,-8.785879550296068,-1.7456456897154449
1758273967113164500,4.35716455078125,-3.8297497195646164,-8.866848691499232,-1.6977530348144472
1758273967123122400,4.367122314453125,-3.6617122435003515,-8.94537102407217,-1.6560753089055418
1758273967133079600,4.37707958984375,-3.4907799227774143,-9.018812692379951,-1.6266037152275443
1758273967143037400,4.387037353515625,-3.3172570010393856,-9.087294692453742,-1.6084991726078093
1758273967152995600,4.39699560546875,-3.145664170581102,-9.149804047858714,-1.598835710597038
1758273967162953500,4.406953369140625,-2.9785677747592327,-9.206175923421979,-1.5952647202424703
1758273967172910300,4.416910400390625,-2.8158316199734807,-9.25743966219127,-1.5941532518692314
1758273967182868500,4.426868408203125,-2.654889947389066,-9.30529739190936,-1.5916655267067252
1758273967192826600,4.43682666015625,-2.4903584336191416,-9.351482804501057,-1.5869007965229451
1758273967202784500,4.446784423828125,-2.323256338708848,-9.396266533601283,-1.5757725226566195
1758273967212742700,4.45674267578125,-2.1637300858803092,-9.438751338109373,-1.5487443766079843
1758273967222699500,4.466699462890625,-2.0132053240224717,-9.479084517541526,-1.5047721100211142
1758273967232657400,4.476657470703125,-1.870739219327271,-9.5170135584414,-1.4481728554427622
1758273967242615600,4.486615478515625,-1.7337974310114979,-9.552127541920543,-1.3860828944936394
1758273967252573400,4.496573486328125,-1.5975846876226365,-9.58463864942491,-1.323936234921217
1758273967262530600,4.506530517578125,-1.4591430161379277,-9.614498950159549,-1.2659689068600535
1758273967272488700,4.51648876953125,-1.3254970544971525,-9.640338324815035,-1.2154405696932227
1758273967282446300,4.5264462890625,-1.2119163410898297,-9.660810034957528,-1.1706254225414245
1758273967292404500,4.536404541015625,-1.1296994648478924,-9.67522259119153,-1.1332533579371868
1758273967302361600,4.546361572265625,-1.0757602963242678,-9.684449853742121,-1.1065987944412976
1758273967312319500,4.556319580078125,-1.0374433520853519,-9.690471598249673,-1.0903555156487972
1758273967322277600,4.566277587890625,-0.9983904217220843,-9.69579483909905,-1.0794229835502802
1758273967332235500,4.576235595703125,-0.9439341705217957,-9.702569447800517,-1.0674742601465432
1758273967342193400,4.586193359375,-0.8713361864965409,-9.711583944383262,-1.0470408361878245
1758273967352150500,4.596150634765625,-0.788473121305555,-9.722119366922975,-1.0144416850738227
1758273967362108400,4.6061083984375,-0.7052762941155583,-9.732397599831224,-0.9764424284819513
1758273967372066600,4.616066650390625,-0.6300530030880123,-9.7409795502156,-0.9416626453932374
1758273967382024400,4.6260244140625,-0.5653284558515995,-9.747913733392954,-0.9104837363407016
1758273967391982600,4.635982666015625,-0.5078287818348035,-9.753690563228727,-0.8820620901070535
1758273967401939700,4.645939697265625,-0.4513266674879938,-9.758423436969519,-0.8601703570988029
1758273967411897600,4.655897705078125,-0.39335590536072845,-9.761901926735042,-0.8490768622849136
1758273967421855700,4.665855712890625,-0.33629264999981967,-9.764139476528763,-0.847879907585308
1758273967431813600,4.675813720703125,-0.28262522935597223,-9.765356451103091,-0.8534343268420547
1758273967441770500,4.6857705078125,-0.23438931397525592,-9.76567443101108,-0.8643130829267204
1758273967451728600,4.695728759765625,-0.1897668581176549,-9.7652255181998,-0.8802054293897003
1758273967461686500,4.7056865234375,-0.14355969035187735,-9.764059397029877,-0.9016138358604162
1758273967471644700,4.715644775390625,-0.09553624867806211,-9.762105340352655,-0.9287377704337239
1758273967481602600,4.7256025390625,-0.05376376172436866,-9.759570268917082,-0.9582658435393124
1758273967491559700,4.7355595703125,-0.0230142365154461,-9.756711372354626,-0.9881438260611146
1758273967501517600,4.745517578125,0.002095478437663405,-9.753653738349676,-1.0181472615934908
1758273967511475500,4.755475341796875,0.03034400173150934,-9.75049322849214,-1.0475378259245305
1758273967521433600,4.76543359375,0.06618881566927302,-9.747331549590825,-1.0749498567242175
1758273967531390700,4.775390625,0.11017041177349164,-9.744373284307121,-1.0979317230567336
1758273967541348600,4.7853486328125,0.1629570309948176,-9.741776253551244,-1.1142767817232757
1758273967551306800,4.795306640625,0.22271319696782155,-9.73951123122871,-1.12369182193093
1758273967561264600,4.8052646484375,0.28564170936662703,-9.737209384027123,-1.1293968286395073
1758273967571222500,4.815222412109375,0.3486044345622882,-9.734704123207926,-1.1333110794737935
1758273967581179600,4.8251796875,0.4118904734281823,-9.732095402014256,-1.1344975127793848
1758273967591137500,4.835137451171875,0.47661900271996854,-9.72893430763483,-1.1362534896012395
1758273967601095700,4.845095703125,0.5379112008875235,-9.724631057482958,-1.1456850425522773
1758273967611053800,4.8550537109375,0.5882842013621702,-9.719432904317975,-1.1648716082550585
1758273967621010400,4.865010498046875,0.6173009274121374,-9.713860657143591,-1.1959264525365083
1758273967630968600,4.874968505859375,0.6148243081655353,-9.708687638419866,-1.2384502008154987
1758273967640926700,4.8849267578125,0.5786198625685647,-9.704880062830448,-1.2848682531192899
1758273967650884600,4.894884521484375,0.5185611882513389,-9.703015438002348,-1.3240103230707347
1758273967660842800,4.9048427734375,0.45308772234376515,-9.702951725116371,-1.34826871214509
1758273967670799600,4.914799560546875,0.39767701996285465,-9.703539169615507,-1.3614549414545296
1758273967680757800,4.9247578125,0.3491316733067855,-9.70373849157989,-1.3732983778528869
1758273967690715600,4.934715576171875,0.2861760171727277,-9.703129419770836,-1.3920374189838767
1758273967700673500,4.944673583984375,0.1876318371166475,-9.701207511797547,-1.4218810608446597
1758273967710631700,4.954631591796875,0.04811545820566825,-9.696524906939267,-1.4647446355372666
1758273967720588800,4.9645888671875,-0.12387353196335024,-9.687933604204654,-1.5162475898899137
1758273967730546700,4.974546630859375,-0.316019385038875,-9.67464449904263,-1.5721907186470925
1758273967740504800,4.9845048828125,-0.5183270141692832,-9.655907649868727,-1.6325390966258941
1758273967750462500,4.99446240234375,-0.7265260759584605,-9.630773208612203,-1.700233453453332
1758273967760419600,5.004419677734375,-0.9411371602144092,-9.598609307110308,-1.7751983858056366
1758273967770377700,5.014377685546875,-1.162670737209916,-9.558531563743948,-1.858237026759237
1758273967780335600,5.024335693359375,-1.388965171931684,-9.510559852257371,-1.9468978915087878
1758273967790293800,5.034293701171875,-1.6206969754017888,-9.454876543480157,-2.0369228842183946
1758273967800251600,5.044251708984375,-1.8660498924672602,-9.38845965924263,-2.1319155823379754
1758273967810208500,5.05420849609375,-2.1290490869909524,-9.31042949410081,-2.2256327075637876
1758273967820166700,5.064166748046875,-2.3988830959707497,-9.225920488333701,-2.3017671220868823
1758273967830124500,5.07412451171875,-2.6559581611424683,-9.14197905332148,-2.3538269796699285
1758273967840082700,5.084082763671875,-2.884565548981726,-9.06278978127241,-2.3907164483889938
1758273967850039800,5.094039794921875,-3.077214903733134,-8.99012961873114,-2.4246023513779043
1758273967859997700,5.103997802734375,-3.238455559264123,-8.922241492897271,-2.465032561443746
1758273967869955600,5.11395556640625,-3.3842657136902212,-8.853846586585044,-2.515253220900893
1758273967879913500,5.12391357421875,-3.5341982087433337,-8.779259255373477,-2.5699177080243825
1758273967889871600,5.13387158203125,-3.70151526157856,-8.692375921690463,-2.629031868033111
1758273967899828700,5.143828857421875,-3.890803323203325,-8.58971341959536,-2.6923759206965565
1758273967909786600,5.15378662109375,-4.098992192392051,-8.471683252498506,-2.75666543751657
1758273967919744800,5.163744873046875,-4.317854431286454,-8.341305645003914,-2.8194293522045015
1758273967929702700,5.17370263671875,-4.533266821987927,-8.203464277499913,-2.884965069693327
1758273967939659500,5.183659423828125,-4.715422255253792,-8.071326674595475,-2.964598870639503
1758273967949617700,5.19361767578125,-4.85089923171401,-7.9572800241768356,-3.053009267759323
1758273967959575600,5.203575439453125,-4.963422618088126,-7.859183222562074,-3.1253914901420474
1758273967969533700,5.21353369140625,-5.076019069698453,-7.768304681763053,-3.1714097294732926
1758273967979491600,5.22349169921875,-5.196542807176709,-7.674624527546763,-3.204132433901727
1758273967989448400,5.233448486328125,-5.31929532662034,-7.5678896614462134,-3.256148160082102
1758273967999406600,5.243406494140625,-5.447179948255419,-7.442640064489841,-3.3325273431465026
1758273968009364500,5.253364501953125,-5.584241563558578,-7.299346276798844,-3.4214290309146045
1758273968019322600,5.263322509765625,-5.723911315533519,-7.146060087403654,-3.5129826944962144
1758273968029280800,5.27328076171875,-5.852976671385765,-6.996853276276588,-3.5995924719348547
1758273968039237600,5.283237548828125,-5.961579084923863,-6.85080054526627,-3.700878424979746
1758273968049195800,5.29319580078125,-6.041121992716193,-6.714135235804319,-3.8204251341193913
1758273968059153700,5.303153564453125,-6.090077454543113,-6.600669015622138,-3.9385897412508726
1758273968069111600,5.313111572265625,-6.12335487024486,-6.508661178532242,-4.038837583419681
1758273968079068700,5.323068603515625,-6.151586692994833,-6.435189699608087,-4.112997044607996
1758273968089026800,5.33302685546875,-6.177603762304782,-6.3769251421660185,-4.1644311715081335
1758273968098984700,5.342984619140625,-6.202606686136126,-6.331248848140239,-4.1968271282002325
1758273968108942800,5.35294287109375,-6.225089736101031,-6.295927943912148,-4.216627807213365
1758273968118900500,5.362900390625,-6.243310452446341,-6.270013750454783,-4.228279082040489
1758273968128857600,5.372857666015625,-6.258569980898499,-6.251809400722384,-4.232679070565104
1758273968138815700,5.382815673828125,-6.273841199788451,-6.241575591477751,-4.225167672021687
1758273968148773600,5.392773681640625,-6.289724413096905,-6.240051742911338,-4.2037519590273495
1758273968158731800,5.402731689453125,-6.302553499531745,-6.247623054948448,-4.173179710631072
1758273968168688600,5.412688720703125,-6.309007205715775,-6.264488265031575,-4.137995876786112
1758273968178646500,5.422646484375,-6.306221958911419,-6.290176248517632,-4.103121839542687
1758273968188604700,5.432604736328125,-6.291445830062031,-6.325049993500113,-4.072077589720488
1758273968198562600,5.4425625,-6.264471898418664,-6.370165146511793,-4.043235233856738
1758273968208520700,5.452520751953125,-6.227359434598684,-6.426503119805455,-4.0112884822368615
1758273968218477800,5.462477783203125,-6.1840878636270755,-6.492294565621018,-3.9720997966647147
1758273968228435700,5.472435791015625,-6.137158939191699,-6.561926320251822,-3.930235462142527
1758273968238393600,5.4823935546875,-6.086002167928219,-6.629943625423312,-3.89548446675688
1758273968248351500,5.4923515625,-6.028989071851968,-6.695791769862175,-3.8714384052589534
1758273968258309600,5.5023095703125,-5.961977144330739,-6.765944333496689,-3.853212428216636
1758273968268266800,5.512266845703125,-5.883419155922532,-6.845638632458448,-3.8331381929591295
1758273968278224600,5.522224609375,-5.814837202605605,-6.926599590355157,-3.792136905007064
1758273968288182800,5.532182861328125,-5.801785413330793,-6.982773897519707,-3.708169166509807
1758273968298140700,5.542140625,-5.830023665821552,-7.011332468006015,-3.6086607445314525
1758273968308097500,5.55209765625,-5.808745315471291,-7.0424757942885154,-3.582236263464391
1758273968318055700,5.5620556640625,-5.698436098015308,-7.073449609223008,-3.696560561780631
1758273968328013600,5.572013671875,-5.596142429232597,-7.099453234529495,-3.801493346895277
1758273968337971700,5.5819716796875,-5.532797792047262,-7.187704349434376,-3.72766209474802
1758273968347929600,5.5919296875,-5.459438541325927,-7.33650374880433,-3.5412741384789346
1758273968357886500,5.601886474609375,-5.366003301781416,-7.491461670804023,-3.35475408026278
1758273968367844600,5.6118447265625,-5.2622816460222,-7.621633526593446,-3.2232682192653415
1758273968377802500,5.621802490234375,-5.1601346922338,-7.728115294715762,-3.1336256500020623
1758273968387760600,5.6317607421875,-5.058152573618292,-7.831526569351554,-3.0418253181830046
1758273968397718300,5.64171826171875,-4.945891637572646,-7.947818368348479,-2.9224519197836516
1758273968407675400,5.65167529296875,-4.822407881245017,-8.072704977211355,-2.7832039003521203
1758273968417633000,5.661633056640625,-4.693960072769224,-8.192876247990132,-2.6483704824924468
1758273968427591200,5.671591064453125,-4.5629114341452714,-8.301417871251703,-2.537064362953603
1758273968437549000,5.681549072265625,-4.427171422834694,-8.401244857659936,-2.4473735706344244
1758273968447506200,5.691506103515625,-4.284818130864203,-8.498586456993221,-2.363207240825146
1758273968457464300,5.70146435546875,-4.13677977899462,-8.595204418227077,-2.2759445524357256
1758273968467422200,5.711422119140625,-3.9863974943473934,-8.688992708992958,-2.1864218101598323
1758273968477380000,5.721380126953125,-3.840528303210437,-8.776106928822397,-2.097775704587996
1758273968487338000,5.731337890625,-3.701668114052713,-8.855605997473,-2.0115476199433204
1758273968497295000,5.741295166015625,-3.5664594331398605,-8.92903363725543,-1.9295454824306069
1758273968507253200,5.751253173828125,-3.4284447548955677,-8.999028964501619,-1.8529995644971726
1758273968517211100,5.761211181640625,-3.28742709544301,-9.065044282200931,-1.785541646774113
1758273968527169300,5.771169189453125,-3.1451918768942355,-9.126394530698656,-1.7283134466424583
1758273968537126100,5.781126220703125,-2.9983693305552004,-9.185926331597566,-1.6729979482643305
1758273968547084000,5.791083984375,-2.8409739522755144,-9.245837487202882,-1.6166992840677499
1758273968557042200,5.801042236328125,-2.669026901552081,-9.307154417952894,-1.5567700082838534
1758273968567000000,5.811,-2.485435590264201,-9.368545582982897,-1.491100143021345
1758273968576958200,5.820958251953125,-2.3015366743318735,-9.425676752480864,-1.4247538398019968
1758273968586915300,5.830915283203125,-2.1329851112656293,-9.474250521513818,-1.3635703261733054
1758273968596873000,5.840873046875,-1.989272952032089,-9.513311781314014,-1.3076931022591889
1758273968606831000,5.8508310546875,-1.865620707269758,-9.545478020903468,-1.254466392853856
1758273968616789000,5.8607890625,-1.7454216717012225,-9.574456862628459,-1.205688187289983
1758273968626747100,5.8707470703125,-1.6124515634953975,-9.602856443160771,-1.1642736423619091
1758273968636704300,5.880704345703125,-1.4670635800041258,-9.629877721077204,-1.1329467762060463
1758273968646662100,5.890662109375,-1.3176627076096832,-9.65390683144033,-1.1118552536647766
1758273968656620300,5.900620361328125,-1.1759390918448567,-9.674054131934046,-1.0955581988584249
1758273968666578200,5.910578125,-1.0538613298576325,-9.689704705530405,-1.0813863195125013
1758273968676535000,5.92053515625,-0.9503692450705915,-9.702280109465121,-1.0643848427638412
1758273968686493200,5.9304931640625,-0.857329580714926,-9.713500591659546,-1.0408167009759695
1758273968696451000,5.940451171875,-0.7733475944966077,-9.723317636796832,-1.0146109772261231
1758273968706409200,5.9504091796875,-0.6960798650946468,-9.732166129162907,-0.9852940626531839
1758273968716367400,5.960367431640625,-0.622095249016583,-9.740175832617282,-0.9551856323763728
1758273968726324000,5.970323974609375,-0.5499549456309527,-9.7470042173326,-0.9294456995073705
1758273968736282000,5.9802822265625,-0.4801928060861304,-9.752691030797362,-0.9081954062078148
1758273968746240300,5.990240234375,-0.41316685003954917,-9.757288879981637,-0.8916251604832708
1758273968756198100,6.0001982421875,-0.34763734309580174,-9.761208099251984,-0.8765555285800248
1758273968766156300,6.01015625,-0.28251364047396926,-9.764968328568338,-0.8578879452500492
1758273968776113200,6.020113037109375,-0.22115902632838114,-9.767748899197578,-0.8441512424509972
1758273968786071000,6.030071044921875,-0.17158302145032212,-9.768726804319023,-0.844356701895222
1758273968796029200,6.040029296875,-0.13803710927180946,-9.767998490044475,-0.8587901547867804
1758273968805987000,6.049987060546875,-0.11275264681903645,-9.766362997797131,-0.8808209309395402
1758273968815944200,6.059944091796875,-0.08708823600481264,-9.764166364535688,-0.9076811000101268
1758273968825902300,6.06990234375,-0.057284784590522754,-9.76159037656784,-0.9372663831956684
1758273968835860200,6.079860107421875,-0.022451035975001286,-9.758750184705853,-0.9678192693043499
1758273968845818000,6.089818115234375,0.01743413368652691,-9.755949740332364,-0.995746702280268
1758273968855776000,6.09977587890625,0.061615922829741605,-9.753916188678145,-1.0137631282251327
1758273968865733000,6.109733154296875,0.11082033618274144,-9.752986214351653,-1.0185223785161972
1758273968875691300,6.119691162109375,0.16635847346875815,-9.752558344328403,-1.015051779796183
1758273968885649200,6.129649169921875,0.22687322099041193,-9.75202292227745,-1.0084564001191407
1758273968895607300,6.139607177734375,0.2866321269097738,-9.751083011078833,-1.002304526425898
1758273968905565200,6.149565185546875,0.338825492945686,-9.749874804332851,-0.997754023514688
1758273968915522000,6.15952197265625,0.3754403825070709,-9.749064656993745,-0.9925562356758862
1758273968925480200,6.169480224609375,0.3934858153507113,-9.749354579851031,-0.9826649562586098
1758273968935438000,6.17943798828125,0.4018552920281887,-9.75034475993216,-0.9693727092914283
1758273968945396200,6.189396240234375,0.41246542377192524,-9.750943894869089,-0.9588323913808912
1758273968955353300,6.199353271484375,0.4275336674356833,-9.750264680433272,-0.959139046177268
1758273968965311000,6.20931103515625,0.4380822782505303,-9.748718035513162,-0.9700357032448053
1758273968975269000,6.21926904296875,0.4369957981880754,-9.747159115633368,-0.9860662160694599
1758273968985227000,6.22922705078125,0.42328295118864623,-9.746049108564852,-1.0028779423996805
1758273968995185200,6.23918505859375,0.39560653383173044,-9.744957806196808,-1.0245344784125685
1758273969005142300,6.249142333984375,0.34778668843861665,-9.743663674733043,-1.0537732862479985
1758273969015100200,6.25910009765625,0.2718980288375169,-9.742153270170093,-1.089450237372145
1758273969025058000,6.26905810546875,0.16434174508517607,-9.739687172317504,-1.1321936928164213
1758273969035016000,6.279015869140625,0.028266633768449536,-9.735195121595263,-1.1813435081716626
1758273969044974000,6.28897412109375,-0.13149823642182162,-9.727843589788675,-1.2337595587812364
1758273969054931200,6.29893115234375,-0.31442648982424287,-9.716579268452525,-1.2882548268176615
1758273969064889000,6.30888916015625,-0.5205229898435995,-9.699677233490346,-1.3474801921159028
1758273969074847200,6.31884716796875,-0.7481660992279648,-9.675137835517525,-1.4150363095164298
1758273969084805400,6.328805419921875,-0.9940949895504861,-9.64090531104803,-1.4950249152496455
1758273969094762000,6.338761962890625,-1.25392293362692,-9.595875498232244,-1.5865874927900732
1758273969104720100,6.34872021484375,-1.5243943637274204,-9.539704113677143,-1.6854235684648156
1758273969114678300,6.35867822265625,-1.7984828152813017,-9.47404243172109,-1.782795416805893
1758273969124636200,6.36863623046875,-2.0669868908315894,-9.402137471461296,-1.8702254245862364
1758273969134594300,6.37859423828125,-2.322007507691532,-9.327429728740453,-1.9436378667995333
1758273969144551000,6.388551025390625,-2.5585814904958006,-9.251404473680257,-2.0088648106001314
1758273969154509000,6.398509033203125,-2.7761072200894352,-9.173915575808286,-2.0743435372047125
1758273969164467200,6.40846728515625,-2.977996696873009,-9.094451578471064,-2.1431001164361834
1758273969174425000,6.418425048828125,-3.1727415625989437,-9.011728871598839,-2.2119830985262987
1758273969184383200,6.42838330078125,-3.3674332368329165,-8.923412290242315,-2.2811126027233897
1758273969194340400,6.43834033203125,-3.563095801925659,-8.829160473617911,-2.3496011786684394
1758273969204298200,6.44829833984375,-3.7643461040228603,-8.72723856075704,-2.415652444463968
1758273969214256000,6.458256103515625,-3.9767338862061496,-8.615123755183815,-2.477009999485314
1758273969224214000,6.468214111328125,-4.199464783227444,-8.49110983750224,-2.5369065420433876
1758273969234171100,6.478171142578125,-4.420849526336789,-8.35709241220057,-2.604902219904959
1758273969244129300,6.48812939453125,-4.6075250673756,-8.225240055978297,-2.699361249539256
1758273969254087200,6.498087158203125,-4.73395306046158,-8.111164179465174,-2.8229651251152155
1758273969264045300,6.50804541015625,-4.832372810420393,-8.01282947744131,-2.9348101738363503
1758273969274003200,6.518003173828125,-4.955981654432415,-7.9125027248173945,-3.0001535836234687
1758273969283960000,6.5279599609375,-5.106093889966607,-7.801464024043082,-3.038976943014562
1758273969293918200,6.537918212890625,-5.249187186649442,-7.685810522949695,-3.089453330798447
1758273969303876000,6.5478759765625,-5.369615062537789,-7.566318466606735,-3.1762308660194276
1758273969313834200,6.557834228515625,-5.481957831647992,-7.440190333250165,-3.280558378717303
1758273969323792100,6.567792236328125,-5.585570766335725,-7.305721657049656,-3.4056185905814167
1758273969333749000,6.5777490234375,-5.687715382036567,-7.159344516390561,-3.544587208549678
1758273969343707100,6.58770703125,-5.787919969585538,-7.0019947308182715,-3.6935631335303185
1758273969353665000,6.5976650390625,-5.874969307485222,-6.84033935700655,-3.8554958629786964
1758273969363623200,6.607623046875,-5.934506369081139,-6.690304278361797,-4.023911524705588
1758273969373580300,6.617580322265625,-5.966455751049518,-6.566179886043072,-4.178162175218761
1758273969383538200,6.6275380859375,-5.987839899861812,-6.468709691894054,-4.297901192060113
1758273969393496000,6.63749609375,-6.006674364191293,-6.3911442216545336,-4.386743258595466
1758273969403454000,6.647453857421875,-6.023568215847015,-6.327181160309911,-4.455763018807769
1758273969413411800,6.657411865234375,-6.037614276856184,-6.276260535889864,-4.5084564981192345
1758273969423369000,6.667368896484375,-6.049181380531191,-6.234259715506434,-4.55102547377944
1758273969433326800,6.677326904296875,-6.063333824524283,-6.197663969036936,-4.582072353950142
1758273969443285000,6.687284912109375,-6.078648882555961,-6.1676937781870365,-4.602172015909851
1758273969453243100,6.6972431640625,-6.092220311790705,-6.144629713463783,-4.615061015838385
1758273969463200800,6.70720068359375,-6.1023798867553465,-6.129065064585209,-4.622327791970968
1758273969473158000,6.717157958984375,-6.110910983735322,-6.122921739524602,-4.619200015339255
1758273969483116000,6.727115966796875,-6.119679396602511,-6.127297470390796,-4.601749991105496
1758273969493074000,6.737073974609375,-6.130214819142222,-6.145408296620846,-4.5634225985378025
1758273969503032000,6.747031982421875,-6.143062610277533,-6.181013863009214,-4.497585267753899
1758273969512989000,6.756989013671875,-6.155833244523405,-6.235104349637031,-4.404494311602414
1758273969522946800,6.76694677734375,-6.1666241031289095,-6.3054924755930895,-4.287648385854065
1758273969532905000,6.776905029296875,-6.17100684825778,-6.389594069603085,-4.154776915717124
1758273969542862800,6.78686279296875,-6.1638008624017235,-6.484057483151554,-4.016833256882429
1758273969552821000,6.796821044921875,-6.13948650535643,-6.584326368108392,-3.888925546632707
1758273969562778000,6.806778076171875,-6.099453185653686,-6.680759035903215,-3.786098209364712
1758273969572735700,6.81673583984375,-6.056430036485195,-6.758137459138036,-3.7172041213586926
1758273969582694000,6.82669384765625,-6.028516193643212,-6.796987706536054,-3.6916508701682087
1758273969592651800,6.83665185546875,-6.034425125426053,-6.787163062614202,-3.7000714925110336
1758273969602609000,6.84660888671875,-6.0498395521789785,-6.771586138775945,-3.703439215378463
1758273969612567000,6.856567138671875,-6.022081192159653,-6.813123433300852,-3.6723715846806764
1758273969622525000,6.86652490234375,-5.969563069415092,-6.887353037115931,-3.6192718626558777
1758273969632483000,6.876483154296875,-5.9074757388144725,-6.974164474606513,-3.554319205752015
1758273969642440700,6.886440673828125,-5.8175885471403594,-7.065080424806475,-3.522880695915222
1758273969652397800,6.896397705078125,-5.720321766608953,-7.120469719073176,-3.5703213692650198
1758273969662356000,6.90635595703125,-5.631711170741915,-7.172874444571137,-3.606117489789426
1758273969672313900,6.91631396484375,-5.559082572382688,-7.2579469294399015,-3.5481302879840135
1758273969682272000,6.92627197265625,-5.500006114035845,-7.37013070859611,-3.406094099138677
1758273969692230000,6.93622998046875,-5.440228229421377,-7.489999197036028,-3.2363942428201433
1758273969702186800,6.946186767578125,-5.378242021107673,-7.596651645550131,-3.0880037165120244
1758273969712145000,6.956144775390625,-5.317051347085833,-7.691062452128529,-2.9575176802068945
1758273969722102800,6.966102783203125,-5.2482846848517655,-7.786632950136065,-2.8274080759987235
1758273969732061000,6.97606103515625,-5.163993121227621,-7.887050303652882,-2.701485402086377
1758273969742018000,6.98601806640625,-5.0606812153130765,-7.989376121139526,-2.5941832574918866
1758273969751976000,6.995975830078125,-4.9391696358412505,-8.090539909109474,-2.5135958090826866
1758273969761933800,7.005933837890625,-4.804926000568271,-8.1891487518996,-2.4537556728869676
1758273969771891700,7.0158916015625,-4.662046054375171,-8.285897061514854,-2.4040913321383295
1758273969781849900,7.025849853515625,-4.512562764394283,-8.38232680670023,-2.3545197842396792
1758273969791807000,7.035806884765625,-4.357206490726769,-8.47956669922471,-2.29827489605695
1758273969801764900,7.045764892578125,-4.195793693499267,-8.578950618040562,-2.228740902712196
1758273969811723000,7.055722900390625,-4.027333023586869,-8.679377908429503,-2.1492681375466285
1758273969821681000,7.065680908203125,-3.8531568986371156,-8.777131595695018,-2.070153392038494
1758273969831638800,7.075638671875,-3.6815976781874893,-8.867109972783922,-1.99764505905807
1758273969841596000,7.085595947265625,-3.5206194729849694,-8.948220568284391,-1.9248285369113087
1758273969851553800,7.0955537109375,-3.371282313476503,-9.021198126211761,-1.850082946398109
1758273969861512000,7.105511962890625,-3.2330884792730212,-9.086436614319682,-1.7759996191859244
1758273969871470000,7.115469970703125,-3.106023649588227,-9.144638043397665,-1.7025136733449995
1758273969881426700,7.1254267578125,-2.9858456568077205,-9.198031779932975,-1.6282848001822827
1758273969891384800,7.135384765625,-2.862026969437301,-9.24979411587417,-1.555801601643115
1758273969901343000,7.145343017578125,-2.723554610553384,-9.302134543964266,-1.4909581042021511
1758273969911300900,7.15530078125,-2.568074418245256,-9.354766063955426,-1.4365807634569703
1758273969921259000,7.165259033203125,-2.4022775607146323,-9.405659800368547,-1.3903236008033155
1758273969931216100,7.175216064453125,-2.2332481510035693,-9.453924941843747,-1.343976421778649
1758273969941173800,7.185173828125,-2.063814836666733,-9.500334226319193,-1.2863684285491703
1758273969951132000,7.1951318359375,-1.8990251103520392,-9.543596444940567,-1.218131489277631
1758273969961089800,7.20508984375,-1.7474185446068644,-9.581229717764257,-1.1475954062182456
1758273969971048000,7.2150478515625,-1.6093930527076123,-9.61315454981327,-1.080519473550096
1758273969981005000,7.225005126953125,-1.4797542808815836,-9.6408106185019,-1.0176107435639947
1758273969990963000,7.234962890625,-1.3583810869671404,-9.6643878934443,-0.9616733869604766
1758273970000921000,7.244921142578125,-1.2421310812853277,-9.684318920838832,-0.9173185507968068
1758273970010878700,7.254878662109375,-1.1309536296274512,-9.70092284963727,-0.8851096411094069
1758273970020835800,7.2648359375,-1.0258970720026641,-9.71483739322126,-0.8601573514867573
1758273970030794000,7.2747939453125,-0.9225278829429298,-9.72710416959822,-0.8383178601223975
1758273970040751900,7.284751953125,-0.8211928300593048,-9.737701551458239,-0.8204922805745154
1758273970050710000,7.2947099609375,-0.727294941439107,-9.746285255408287,-0.8070567526791245
1758273970060668000,7.30466796875,-0.6458057218845933,-9.752820794656872,-0.7973787506863474
1758273970070624800,7.314624755859375,-0.5767151979910209,-9.757920163622497,-0.7878999245274811
1758273970080583000,7.3245830078125,-0.5167062445670366,-9.76209423443675,-0.7777730097234249
1758273970090540800,7.334540771484375,-0.4620144675778225,-9.765484461396932,-0.7695852462884039
1758273970100499000,7.3444990234375,-0.4091253195637837,-9.768199565574527,-0.765044168792665
1758273970110456800,7.354456787109375,-0.35683614673689007,-9.770189278087019,-0.7657954986166209
1758273970120414000,7.3644140625,-0.30776980841401963,-9.771150816595554,-0.7747705399718136
1758273970130371800,7.374371826171875,-0.2632714903927408,-9.771097625103593,-0.7916552584730088
1758273970140329700,7.384329833984375,-0.22421824950221925,-9.770099261716007,-0.8156358535192907
1758273970150288000,7.394287841796875,-0.18908603624664247,-9.768280229595304,-0.8457601389523595
1758273970160245000,7.404244873046875,-0.15390647671800106,-9.765966691955924,-0.8789742070943116
1758273970170203000,7.414202880859375,-0.11375920264623127,-9.763578920036554,-0.9110374977659433
1758273970180161000,7.4241611328125,-0.06495723718085791,-9.761487500715255,-0.9378448406707495
1758273970190119000,7.434118896484375,-0.006328454673677333,-9.759836810898781,-0.9570443389203399
1758273970200076800,7.444076904296875,0.06043522514519281,-9.758658414769172,-0.9671174046453088
1758273970210034000,7.454033935546875,0.131088376979297,-9.757817287769914,-0.968607058681175
1758273970219991800,7.46399169921875,0.1979622934024781,-9.756990189296006,-0.9655782123792916
1758273970229950000,7.473949951171875,0.25661921116299924,-9.755821730038523,-0.9635783437989651
1758273970239908000,7.483908203125,0.30682850897591557,-9.754157596218585,-0.9657458970963955
1758273970249864700,7.49386474609375,0.34604956244770435,-9.752336810532212,-0.9708400784302502
1758273970259822800,7.50382275390625,0.3734377374477684,-9.750407888296246,-0.9800329272545873
1758273970269781000,7.513781005859375,0.39215752588901664,-9.748577165737748,-0.9908813612662255
1758273970279739000,7.52373876953125,0.4078409057764336,-9.746606157925724,-1.003850879085064
1758273970289697000,7.533697021484375,0.4280462931329384,-9.743979316553473,-1.0208071284525095
1758273970299654000,7.54365380859375,0.4547522945551201,-9.740653971523045,-1.0407987269278616
1758273970309611800,7.55361181640625,0.46880979027375574,-9.73693465873897,-1.0689655216176062
1758273970319570000,7.56356982421875,0.4427120569430291,-9.73372855617404,-1.1085705329056827
1758273970329527800,7.57352783203125,0.36673279644902795,-9.731208682307601,-1.157353268514201
1758273970339486000,7.58348583984375,0.250033567428682,-9.728363814270496,-1.21111379253529
1758273970349443000,7.593443115234375,0.10918535539205186,-9.723833185103535,-1.2670974724985657
1758273970359401000,7.60340087890625,-0.04424117862216662,-9.716717215618491,-1.3243218732379376
1758273970369359000,7.613359130859375,-0.20727849461184814,-9.7061408765465,-1.3850129271745681
1758273970379316700,7.623316650390625,-0.38416448130849745,-9.690720604574679,-1.4535238610818981
1758273970389273900,7.63327392578125,-0.5803130763525143,-9.668934304702281,-1.5314453051522374
1758273970399232300,7.643232177734375,-0.7954414990134536,-9.639207859480381,-1.6196685091368852
1758273970409190100,7.653190185546875,-1.0262157094977795,-9.600307343199848,-1.717951919364929
1758273970419148300,7.663148193359375,-1.270655457241088,-9.552105914610625,-1.8201900585681199
1758273970429106000,7.67310595703125,-1.5262255246773362,-9.495652205982804,-1.9166691958531736
1758273970439063000,7.68306298828125,-1.7862234915584325,-9.43336789150536,-1.9978338596284388
1758273970449021200,7.693021240234375,-2.0462639824070035,-9.367917806473374,-2.055556419148296
1758273970458979000,7.70297900390625,-2.3004380654402077,-9.301726547685265,-2.0871645864635706
1758273970468937200,7.712937255859375,-2.5310733058452604,-9.23879107582271,-2.0997132485218346
1758273970478895000,7.72289501953125,-2.7309210476681587,-9.179066967222093,-2.11120114948079
1758273970488852000,7.73285205078125,-2.900627625988424,-9.118991560965776,-2.144926893471926
1758273970498810000,7.74281005859375,-3.0555314797133204,-9.05175108538568,-2.213577820371836
1758273970508768000,7.75276806640625,-3.220141319416463,-8.96767521033883,-2.319882332231104
1758273970518726100,7.76272607421875,-3.408733215470612,-8.861162462556361,-2.455748600269854
1758273970528683300,7.772683349609375,-3.6174861482828855,-8.734806365662813,-2.6052576092138886
1758273970538641200,7.78264111328125,-3.8348143094778058,-8.593204184320568,-2.7606963004678486
1758273970548599000,7.79259912109375,-4.0466839130058885,-8.442001230940223,-2.9201565023228526
1758273970558557000,7.802556884765625,-4.246396045750379,-8.28605488242507,-3.0789333980888127
1758273970568515000,7.81251513671875,-4.432944745539128,-8.13159555759728,-3.224360982938111
1758273970578472200,7.82247216796875,-4.611736255329847,-7.989401840102672,-3.327419206352532
1758273970588430000,7.83243017578125,-4.789998772810399,-7.8646689604967825,-3.3724235924661157
1758273970598388200,7.84238818359375,-4.965943660998344,-7.756050180345773,-3.3694942610159515
1758273970608346000,7.85234619140625,-5.122919937083124,-7.662626631239056,-3.3481749941334127
1758273970618303000,7.862302978515625,-5.256093897297978,-7.575985289618372,-3.3389138293132183
1758273970628261000,7.87226123046875,-5.383872720471024,-7.473648366215825,-3.3658442140758034
1758273970638219000,7.882218994140625,-5.519153882098197,-7.34545628606677,-3.4283518159151076
1758273970648177200,7.89217724609375,-5.659356133514643,-7.196869068142771,-3.5138431107178327
1758273970658135300,7.90213525390625,-5.787307390645146,-7.03994949068129,-3.6216780470147727
1758273970668092000,7.912091796875,-5.898402205520868,-6.869703398656845,-3.766485746400058
1758273970678050000,7.922050048828125,-5.985005553218722,-6.707367056843638,-3.919349910990894
1758273970688008200,7.93200830078125,-6.036899991106987,-6.576734013283252,-4.058669534353911
1758273970697966000,7.941966064453125,-6.070634502926469,-6.479782874572277,-4.162957299563288
1758273970707924200,7.95192431640625,-6.101392044761776,-6.410811629676818,-4.224323914673924
1758273970717881000,7.961881103515625,-6.12717764340341,-6.362413801732659,-4.260023589086533
1758273970727839000,7.9718388671875,-6.14743249592483,-6.324505219098925,-4.287198888520896
1758273970737797000,7.981797119140625,-6.161984752890468,-6.293810221105813,-4.311414461366832
1758273970747755000,7.991755126953125,-6.172929925274849,-6.271646320092677,-4.3280274502545595
1758273970757712100,8.001712158203125,-6.181529411315918,-6.261651580300927,-4.330219115079939
1758273970767670300,8.011670166015625,-6.189709210640192,-6.265896378263831,-4.312353788043558
1758273970777628200,8.021628173828125,-6.194515149617195,-6.288244988194108,-4.27274570801556
1758273970787586300,8.03158642578125,-6.19073680012226,-6.331370428693294,-4.214132483266294
1758273970797544000,8.0415439453125,-6.176047765034437,-6.394319929081202,-4.139985881559551
1758273970807501000,8.0515009765625,-6.149591135263442,-6.474314087772369,-4.0541596557140345
1758273970817459200,8.061459228515625,-6.110143506494164,-6.566830458906293,-3.9640003691002725
1758273970827417000,8.0714169921875,-6.054995035246014,-6.667829411703348,-3.879112008626759
1758273970837375200,8.081375244140625,-5.982338379836082,-6.774643772780895,-3.80607658303231
1758273970847332000,8.09133203125,-5.893365380397439,-6.88243194732666,-3.7510961618274448
1758273970857290000,8.1012900390625,-5.80322684431076,-6.9742264339268205,-3.7219744045004246
1758273970867248000,8.111248046875,-5.739367243340611,-7.024548507931828,-3.7263591954559088
1758273970877206000,8.1212060546875,-5.7326101702958345,-7.0150944508880375,-3.7544633001729846
1758273970887164200,8.1311640625,-5.77297549843192,-6.966386241820454,-3.783200149835646
1758273970897121300,8.141121337890626,-5.76124589767158,-6.965358652338385,-3.802926010046899
1758273970907079200,8.1510791015625,-5.651607711344957,-7.035241751381754,-3.8386291915908455
1758273970917037000,8.161037109375,-5.507196317800879,-7.139252745476365,-3.8564547711387274
1758273970926995000,8.170994873046874,-5.399702742287516,-7.259341598668694,-3.7835964556768533
1758273970936953000,8.180953125,-5.347757450994849,-7.362455351662636,-3.6559696081951256
1758273970946910200,8.19091015625,-5.308255461689829,-7.442637141880392,-3.5496406925469635
1758273970956868000,8.2008681640625,-5.243806662654876,-7.538312269306182,-3.4419086321026087
1758273970966826200,8.210826171875,-5.154686363700032,-7.657890834888815,-3.3100340640485286
1758273970976784000,8.220783935546875,-5.050824422687292,-7.786882540982961,-3.166073336881399
1758273970986741000,8.230740966796875,-4.942274031597376,-7.908180769965052,-3.0339740201607346
1758273970996699100,8.24069921875,-4.835407648071646,-8.014406517499685,-2.9254882187396287
1758273971006657000,8.250656982421875,-4.7308621087089175,-8.10844907528758,-2.8359032248824834
1758273971016615200,8.260615234375,-4.626568498280644,-8.194519923543929,-2.759542746518552
1758273971026573000,8.270572998046875,-4.518784415388107,-8.275287989217043,-2.6964064913868904
1758273971036530000,8.280530029296875,-4.402773479159176,-8.353617429566382,-2.646327578487992
1758273971046488000,8.290488037109375,-4.2738177211612465,-8.434273851558565,-2.601511408422887
1758273971056446000,8.300446044921875,-4.130386570826173,-8.52001853660047,-2.5533523576706645
1758273971066404000,8.310404052734375,-3.975206238247454,-8.60882903895378,-2.5012404776394366
1758273971076361200,8.320361328125,-3.8151933709457513,-8.69618641988933,-2.4476566253595053
1758273971086319000,8.330319091796875,-3.6568314857214688,-8.780263463979958,-2.3885018410794436
1758273971096277000,8.340277099609375,-3.5056720792219043,-8.85991509284377,-2.320031969834864
1758273971106235100,8.350235107421875,-3.361749053716659,-8.935770836555957,-2.2407671483315528
1758273971116193000,8.360193115234376,-3.2231288107946514,-9.008094899010658,-2.1531553542435167
1758273971126150100,8.370150146484375,-3.090552816472947,-9.074999274504185,-2.0647604469537733
1758273971136108300,8.3801083984375,-2.9646289735168216,-9.135091631895303,-1.9827908965364098
1758273971146066200,8.390066162109376,-2.8366043588891623,-9.191129745459556,-1.9097529867239296
1758273971156024300,8.4000244140625,-2.704247268015146,-9.243983383768796,-1.8455954257205127
1758273971165982000,8.40998193359375,-2.574534261909127,-9.293284882554412,-1.7824087555758654
1758273971175939000,8.41993896484375,-2.4375072795279324,-9.346668682217597,-1.6937366387799382
1758273971185897200,8.429897216796874,-2.2828712829589843,-9.40539267386496,-1.5803341314837336
1758273971195855000,8.439855224609374,-2.1095510441862046,-9.463755430984497,-1.4688400881573558
1758273971205813200,8.449813232421874,-1.9268140116401016,-9.51664063347578,-1.375268655012548
1758273971215770000,8.45977001953125,-1.7535148156553506,-9.560638765156268,-1.299912969776988
1758273971225728000,8.46972802734375,-1.604384576895833,-9.59515712082982,-1.2366494350038468
1758273971235686100,8.47968603515625,-1.4789745286807416,-9.62225672467947,-1.1811940166983752
1758273971245644000,8.48964404296875,-1.3719089693211017,-9.644155252754688,-1.1307107607822864
1758273971255602200,8.499602294921875,-1.2726296799235046,-9.663346275436878,-1.0819104895170777
1758273971265559300,8.509559326171875,-1.1806766417607664,-9.679645083808898,-1.0396412274558096
1758273971275517200,8.51951708984375,-1.0990413647990673,-9.69331295915544,-1.0010985847022384
1758273971285475000,8.52947509765625,-1.0243655515864492,-9.705634096068144,-0.9600745734617113
1758273971295433000,8.539432861328125,-0.9507321600988506,-9.717236855578422,-0.9174960262555628
1758273971305391000,8.54939111328125,-0.8728160497907549,-9.727987966695427,-0.8802466381829231
1758273971315348200,8.55934814453125,-0.7894584790810942,-9.737698044326901,-0.8511189625717699
1758273971325306000,8.56930615234375,-0.7037538337886333,-9.746329679071902,-0.8271537842903286
1758273971335264300,8.57926416015625,-0.6226449918538332,-9.753810390216112,-0.8036724440030754
1758273971345222000,8.589221923828125,-0.5513748588988557,-9.759768421837688,-0.7831263534501195
1758273971355179000,8.599178955078125,-0.49371316272076216,-9.763943661695718,-0.7694361201412976
1758273971365137200,8.60913720703125,-0.44188382595796133,-9.76712872147262,-0.7604778107251972
1758273971375095000,8.619094970703125,-0.3888088730482384,-9.769638073945044,-0.7572292572580277
1758273971385053200,8.62905322265625,-0.33251620020102707,-9.771682146993278,-0.7576802889611571
1758273971395011000,8.639010986328126,-0.27438288618950174,-9.773260940617323,-0.7605819286867975
1758273971404968400,8.648968505859376,-0.2141466998809017,-9.774096806919575,-0.7691217934951186
1758273971414926600,8.658926513671876,-0.15307399881607853,-9.773827926850318,-0.7869052874669432
1758273971424884500,8.668884521484374,-0.09636823338964022,-9.772385326826571,-0.8133799643512815
1758273971434842600,8.678842529296874,-0.04562294270361308,-9.76994611698091,-0.8464487788036466
1758273971444800500,8.688800537109374,0.00219429731446653,-9.766617264819144,-0.8852009726546705
1758273971454757600,8.698757568359374,0.04929815148448106,-9.762686355111002,-0.9262357975501566
1758273971464715800,8.7087158203125,0.0942192386622075,-9.75907225626707,-0.9602013416465371
1758273971474673400,8.71867333984375,0.13339716537832283,-9.75657342518866,-0.9807465554166584
1758273971484631600,8.728631591796875,0.16788398426929488,-9.755689628091455,-0.9842376854680478
1758273971494588700,8.738588623046875,0.20238195474194362,-9.75623966318965,-0.9722318981148302
1758273971504546600,8.748546630859375,0.23901383197074755,-9.757396432009338,-0.9520916118837892
1758273971514504700,8.758504638671875,0.2734850970995612,-9.758166247338057,-0.934762949007377
1758273971524462600,8.768462646484375,0.2953651579363271,-9.758072723835706,-0.9290596958644688
1758273971534420500,8.77842041015625,0.29565970216980203,-9.757011232084036,-0.9400569637622683
1758273971544377600,8.788377685546875,0.2731787162978202,-9.755191030919551,-0.965418930164352
1758273971554335500,8.79833544921875,0.23631955138547345,-9.752904965808987,-0.9976811774741857
1758273971564293600,8.808293701171875,0.19582809438537804,-9.750227271032333,-1.0320394472151995
1758273971574251800,8.818251708984375,0.1582977522131987,-9.747820209890603,-1.0608193323019892
1758273971584209700,8.828209716796875,0.1225503114024177,-9.746050277608633,-1.08160558828637
1758273971594166500,8.83816650390625,0.0755183695505606,-9.744258718016743,-1.1018627788953483
1758273971604124700,8.848124755859375,0.0024454552108916687,-9.741564072105287,-1.1279599277041852
1758273971614082600,8.85808251953125,-0.10403278580131009,-9.737188341239094,-1.1604789993193
1758273971624040700,8.868040771484376,-0.24213472220394758,-9.730104520457983,-1.198673193961382
1758273971633997600,8.87799755859375,-0.4017313003223389,-9.719773096057772,-1.2389487979874014
1758273971643955700,8.887955810546876,-0.5673192643426358,-9.706403326874971,-1.2783800601437687
1758273971653913600,8.89791357421875,-0.7417744254294782,-9.688435708507894,-1.3245245562031864
1758273971663871500,8.90787158203125,-0.932506109991297,-9.664227734446525,-1.379677119104564
1758273971673829600,8.91782958984375,-1.1442710110358894,-9.632016486671567,-1.4440588442526756
1758273971683786800,8.927786865234374,-1.3749261251851916,-9.591273557394743,-1.512427154818922
1758273971693744600,8.93774462890625,-1.6155734949082134,-9.542628476691245,-1.5806826526604592
1758273971703702800,8.947702880859374,-1.8562597353368997,-9.486830601623653,-1.6506842635169625
1758273971713660700,8.95766064453125,-2.090229234731197,-9.426109298679233,-1.717504467858374
1758273971723618600,8.96761865234375,-2.3123285558506845,-9.363328725117444,-1.7752791959568857
1758273971733575700,8.97757568359375,-2.5208815821766852,-9.299854908594488,-1.8243422098115085
1758273971743533600,8.987533447265625,-2.718753640012443,-9.23552944367826,-1.8664890145368873
1758273971753491700,8.99749169921875,-2.913277848725021,-9.169678961151838,-1.89741036863178
1758273971763449600,9.00744970703125,-3.112810533249378,-9.098177905517815,-1.924556588102132
1758273971773406500,9.017406494140625,-3.320741920545697,-9.016967356774211,-1.9589273519985377
1758273971783364600,9.027364501953125,-3.5374715313255787,-8.92356952663064,-2.0066320831120015
1758273971793322500,9.037322509765625,-3.7586689351692795,-8.818843077743052,-2.0665929230779407
1758273971803280600,9.04728076171875,-3.9750484173372387,-8.706244288045168,-2.137913799839467
1758273971813238500,9.057238525390625,-4.179119914335012,-8.589366798114776,-2.2199406334020195
1758273971823195600,9.067195556640625,-4.370362032637,-8.468432141748071,-2.31429547200948
1758273971833153800,9.07715380859375,-4.556010860976577,-8.340133094093202,-2.4197671863064167
1758273971843111400,9.087111328125,-4.733205456964671,-8.20706843947172,-2.53202549200356
1758273971853069600,9.097069580078125,-4.899404027163982,-8.076703106936812,-2.633082020206749
1758273971863027500,9.10702734375,-5.035820914822817,-7.9616914108783,-2.7244088892951606
1758273971872984600,9.116984619140625,-5.1554824825137855,-7.856741090106964,-2.8040988043427464
1758273971882942700,9.126942626953126,-5.271112602731585,-7.753871082741021,-2.8745848377153274
1758273971892900600,9.136900634765626,-5.390452683383226,-7.644999204611778,-2.9440473732590675
1758273971902858500,9.1468583984375,-5.52517328851819,-7.518927769878506,-3.0180466754496096
1758273971912816600,9.156816650390626,-5.67155744343996,-7.370102651545405,-3.1121362872496245
1758273971922773500,9.1667734375,-5.818883263126016,-7.198876900833845,-3.23838775472492
1758273971932731600,9.176731689453124,-5.948565874093771,-7.020320661103725,-3.391171547555923
1758273971942689500,9.186689453125,-6.046598378300667,-6.843628461679816,-3.5740444814413785
1758273971952647700,9.196647705078124,-6.117617787897586,-6.67571285842955,-3.7656367283552883
1758273971962605800,9.206605712890624,-6.167326113918423,-6.535934385383129,-3.9263250107005234
1758273971972562400,9.2165625,-6.208731306496262,-6.426633468186855,-4.039858743160963
1758273971982520600,9.2265205078125,-6.245566122418642,-6.341015624395013,-4.1176258734524245
1758273971992478700,9.236478759765625,-6.274782864552736,-6.270314194706082,-4.1809895075991745
1758273972002436600,9.2464365234375,-6.293693901249766,-6.207846340355276,-4.245287499986588
1758273972012393700,9.256393798828125,-6.307666312500834,-6.148128076973557,-4.310944505767524
1758273972022351600,9.2663515625,-6.323610900607704,-6.091469201162457,-4.3676431290671225
1758273972032309500,9.2763095703125,-6.343013520213961,-6.043560033518076,-4.4059018403127785
1758273972042267600,9.286267578125,-6.365221844890713,-6.009917876157164,-4.419869283127785
1758273972052225500,9.2962255859375,-6.389032928588986,-5.994066811552643,-4.407019153904915
1758273972062182700,9.3061826171875,-6.409661875119805,-5.995029519104957,-4.375642311127484
1758273972072140800,9.316140869140625,-6.424930171400308,-6.010764263853431,-4.331438427741825
1758273972082098700,9.3260986328125,-6.436492598900198,-6.040150517335534,-4.273001144081354
1758273972092056600,9.336056640625,-6.445689466312527,-6.082845749723911,-4.197906740130484
1758273972102014500,9.346014404296875,-6.45301294106841,-6.138911335816979,-4.1039956997677685
1758273972111971600,9.3559716796875,-6.457116284734011,-6.207936941248178,-3.99219390566647
1758273972121929700,9.3659296875,-6.454325777232647,-6.288089505371451,-3.8693677364647385
1758273972131887600,9.3758876953125,-6.440589512825012,-6.376639310961961,-3.745349727129936
1758273972141845800,9.385845703125,-6.413869263681769,-6.472748738151789,-3.624392566670477
1758273972151803400,9.395803466796876,-6.372737042826413,-6.574944791778922,-3.511226206217706
1758273972161760500,9.405760498046876,-6.316566827315092,-6.679476594877243,-3.4140810062393543
1758273972171718700,9.41571875,-6.246297359302639,-6.781845666983723,-3.3407693940520287
1758273972181676500,9.425676513671876,-6.171369836351275,-6.871547565218806,-3.296420841498673
1758273972191634700,9.435634765625,-6.103290571859478,-6.94108462730348,-3.2774373240873214
1758273972201592600,9.445592529296874,-6.053870415130257,-6.986830479434132,-3.27188261256963
1758273972211549400,9.455549560546874,-6.032562838685513,-7.008437331086396,-3.2650220791503783
1758273972221507600,9.465507568359374,-6.002039690127968,-7.042994849726558,-3.2468609840378164
1758273972231465500,9.475465576171874,-5.950542727124691,-7.084881688341498,-3.250517168457806
1758273972241423600,9.485423583984375,-5.878731874889135,-7.133653610295057,-3.2744290821820496
1758273972251381800,9.4953818359375,-5.786278632119298,-7.2011635504662985,-3.2912887393072245
1758273972261338600,9.505338623046875,-5.700024828511476,-7.256877838903665,-3.3193048734799024
1758273972271296500,9.515296630859375,-5.61141189455688,-7.313274264386296,-3.346415875506401
1758273972281254700,9.525254638671875,-5.519125825047492,-7.3901424000114195,-3.330982744053006
1758273972291212500,9.535212646484375,-5.434280719193816,-7.483093070909381,-3.262261090004444
1758273972301170700,9.545170654296875,-5.360813331922889,-7.585470326322317,-3.145274879002571
1758273972311127600,9.55512744140625,-5.289142180418968,-7.691587937307357,-3.0058026954263446
1758273972321085700,9.565085693359375,-5.20759962324202,-7.799009616628289,-2.8682258240774274
1758273972331043800,9.5750439453125,-5.113949279642105,-7.9080954297691575,-2.7349524951413273
1758273972341001500,9.58500146484375,-5.009602185460925,-8.018307032069563,-2.6040470643803477
1758273972350958600,9.59495849609375,-4.896708504469692,-8.126918213436007,-2.479085052193701
1758273972360916700,9.604916748046875,-4.776046527564525,-8.232226261603833,-2.364368101298064
1758273972370874600,9.61487451171875,-4.650425174686313,-8.33153945327103,-2.264809702698141
1758273972380832800,9.624832763671876,-4.520367300665378,-8.42559194793105,-2.17854143217355
1758273972390790700,9.634790771484376,-4.379694509127736,-8.519256904578208,-2.100226458740979
1758273972400747000,9.6447470703125,-4.22531204892844,-8.614336988720297,-2.0273959080688653
1758273972410705200,9.654705078125,-4.0570176754936575,-8.711635333433748,-1.9540679292686283
1758273972420663000,9.6646630859375,-3.879648891982436,-8.811633000233769,-1.863810881368816
1758273972430621200,9.67462109375,-3.701788817822933,-8.910066486456989,-1.7543807848349213
1758273972440579000,9.6845791015625,-3.5278912175536155,-9.002481735303997,-1.636990084685385
1758273972450537200,9.694537109375,-3.355908218733966,-9.087461865714191,-1.525229060985893
1758273972460494000,9.704494140625,-3.183393304994702,-9.165731684830785,-1.4232985264271496
1758273972470452000,9.714451904296874,-3.0112858030125498,-9.237613264214993,-1.3300401047542691
1758273972480410000,9.72441015625,-2.8473709598362444,-9.300957901400327,-1.2470330279827118
1758273972490368000,9.734367919921874,-2.6851614592731,-9.358214158582687,-1.1765070279259233
1758273972500326100,9.744326171875,-2.522148533372581,-9.410584981811047,-1.118050674238801
1758273972510283300,9.754283203125,-2.3682678852155803,-9.456450076407194,-1.0664239473760126
1758273972520241200,9.7642412109375,-2.2301672822535035,-9.495689030861854,-1.0142256311703473
1758273972530199000,9.774198974609375,-2.1028195439741015,-9.531079493194818,-0.9524089342046529
1758273972540157200,9.7841572265625,-1.975705322189629,-9.564974164012074,-0.8821848397038876
1758273972550115000,9.794114990234375,-1.8418448410153387,-9.597873978573084,-0.8116630774307996
1758273972560072200,9.804072265625,-1.7002720318980513,-9.629052960690855,-0.7488477978818118
1758273972570030300,9.8140302734375,-1.5609130994379519,-9.65627239152789,-0.700242610797286
1758273972579988200,9.82398828125,-1.431356014546007,-9.679110246279835,-0.6606533816002309
1758273972589946000,9.833946044921875,-1.3077934938937426,-9.699250532510876,-0.6201840816330164
1758273972599904000,9.843904052734375,-1.1920414277967064,-9.716651749166846,-0.5797105438821017
1758273972609861000,9.853861083984375,-1.0889891957316546,-9.730980134248734,-0.540829828280583
1758273972619819300,9.8638193359375,-0.9967892701357602,-9.7428839225322,-0.5029720625186339
1758273972629777200,9.873777099609375,-0.9128004888504743,-9.752684016534685,-0.47149110177960246
1758273972639735300,9.8837353515625,-0.8321314996376633,-9.761045017644763,-0.44715204868447034
1758273972649693200,9.893693115234376,-0.7515856253478675,-9.768530989485978,-0.42578912532329555
1758273972659650000,9.903650146484376,-0.6693434685342013,-9.7753365778476,-0.4063819391397759
1758273972669608200,9.913608154296876,-0.5879522294614463,-9.781087104198336,-0.39376876047793774
1758273972679566000,9.923566162109376,-0.5127713162709028,-9.785486800462007,-0.38949550360552965
1758273972689524200,9.933524169921874,-0.45058553026448933,-9.788349788677692,-0.39440954259950667
1758273972699482000,9.943482177734374,-0.4044052322393283,-9.789781867307424,-0.4086762971546501
1758273972709439000,9.95343896484375,-0.37199838882703334,-9.790202723067999,-0.42887342813946305
1758273972719397000,9.963397216796874,-0.346475386644341,-9.790094586518407,-0.4520787279643118
1758273972729355000,9.97335498046875,-0.32267434941604733,-9.789743873384595,-0.47662068322040135
1758273972739313200,9.983313232421875,-0.29949948126208037,-9.789218388205766,-0.5018775452801958
1758273972749271000,9.99327099609375,-0.27671578611647707,-9.78859587239325,-0.5264807657368481
1758273972759228200,10.003228271484375,-0.2527559598635882,-9.787921334132552,-0.5505165250364691
1758273972769186300,10.013186279296875,-0.22678223650502038,-9.78719944959879,-0.5741858621764928
1758273972779144000,10.02314404296875,-0.20011064880909396,-9.786334357202053,-0.5983508008137345
1758273972789102000,10.03310205078125,-0.17453502139002083,-9.785261175012588,-0.6233624194081873
1758273972799060200,10.043060302734375,-0.15025153440702704,-9.784003868427872,-0.6489099715102463
1758273972809018000,10.05301806640625,-0.1259060881037265,-9.782579973104596,-0.6750380269140005
1758273972818975200,10.062975341796875,-0.10018506999774836,-9.78106196975708,-0.7008226757075637
1758273972828933000,10.07293310546875,-0.07234111862077842,-9.779584882941842,-0.7244785688441246
1758273972838891300,10.082891357421875,-0.04159796607042662,-9.778210087457298,-0.7451539117999374
1758273972848849200,10.09284912109375,-0.006761616789153777,-9.777001296189427,-0.7619611811507493
1758273972858807000,10.10280712890625,0.03361277600280009,-9.776088857519627,-0.7728682865470647
1758273972868764200,10.11276416015625,0.08252895613210275,-9.775469848838448,-0.7770126198101789
1758273972878722300,10.122722412109376,0.1426613898052834,-9.77486954485774,-0.7758567277733236
1758273972888680200,10.13268017578125,0.2130665764939971,-9.773797531712054,-0.7732303978577256
1758273972898638300,10.142638427734376,0.2893284350553527,-9.771628955501317,-0.7758543896857648
1758273972908596000,10.152595947265626,0.36189858122561125,-9.768070386236905,-0.7900911509614438
1758273972918553000,10.162552978515626,0.4129459372978657,-9.764194421586394,-0.8126275385487824
1758273972928511200,10.17251123046875,0.42729766672272235,-9.76240929173529,-0.8265405477628112
1758273972938469000,10.18246923828125,0.41051111136637625,-9.762906719863414,-0.8291735266149044
1758273972948427300,10.19242724609375,0.38076661903113124,-9.763749015906452,-0.833425119644776
1758273972958385200,10.20238525390625,0.36425544655006376,-9.763097273999453,-0.8483191027201712
1758273972968342000,10.212342041015624,0.3836820315537974,-9.760448805317282,-0.8699469971604644
1758273972978300200,10.222300048828124,0.43261875214762985,-9.75711352341473,-0.8842875110715627
1758273972988258000,10.232258056640624,0.4751412948502227,-9.754327692088484,-0.893138341525197
1758273972998216200,10.24221630859375,0.46957167802434413,-9.752959326344728,-0.9108621411990374
1758273973008174000,10.252174072265625,0.40227501527760173,-9.752764096033573,-0.944524829891324
1758273973018131200,10.262131103515625,0.29364428896047173,-9.752157362312078,-0.9897428587555884
1758273973028089000,10.272089111328125,0.16774346155375242,-9.750109782132506,-1.0380669638764113
1758273973038047000,10.282046875,0.03286275906980736,-9.746525493904947,-1.0837679539520293
1758273973048005000,10.292005126953125,-0.11045241618580184,-9.741346629962324,-1.1244308037299662
1758273973057963000,10.301962890625,-0.2642375589459203,-9.734237090218066,-1.1598228004328905
1758273973067921200,10.311921142578125,-0.4313303563049063,-9.7246287193954,-1.189923704990372
1758273973077878300,10.321878173828125,-0.6132781016368418,-9.711444243651627,-1.2174308667276055
1758273973087836200,10.331836181640625,-0.8079142462912946,-9.693652566373348,-1.2452929063171148
1758273973097794000,10.3417939453125,-1.0123122718296944,-9.6707071595937,-1.2739808022715151
1758273973107752200,10.351752197265625,-1.227994273252785,-9.6418195032835,-1.3029764490008353
1758273973117710000,10.3617099609375,-1.456011440113932,-9.606639468830823,-1.3277474637724458
1758273973127667200,10.371667236328125,-1.6926491358041762,-9.565181669282913,-1.346340374431014
1758273973137625300,10.381625244140626,-1.9262921797230839,-9.519257537975907,-1.3577587172850967
1758273973147583200,10.391583251953126,-2.1421903081148863,-9.47238472764194,-1.362099376837909
1758273973157541000,10.401541015625,-2.33272617784366,-9.427077851450443,-1.3634389548785983
1758273973167499000,10.4114990234375,-2.495802962760627,-9.385149511781334,-1.3639336065277456
1758273973177457200,10.42145703125,-2.6385940616264936,-9.344277987688779,-1.3757551233552396
1758273973187414300,10.431414306640624,-2.772725176435709,-9.299358649510145,-1.4157320366956292
1758273973197372200,10.4413720703125,-2.905347347986698,-9.247961055228114,-1.484778977175802
1758273973207330300,10.451330322265624,-3.0345097344726324,-9.192328015333414,-1.56947269186005
1758273973217288200,10.4612880859375,-3.156419957873225,-9.136296331509946,-1.6539282138742506
1758273973227246000,10.47124609375,-3.2724341089725493,-9.080321930831671,-1.7347401186890898
1758273973237203200,10.481203125,-3.38092984726578,-9.02375716304481,-1.8197491829328238
1758273973247161000,10.4911611328125,-3.472144195890426,-8.96924172900319,-1.9150329729534685
1758273973257119200,10.501119140625,-3.543843112184107,-8.919835016277432,-2.011986449752003
1758273973267077000,10.5110771484375,-3.606459142833948,-8.876005811423063,-2.0929352788195015
1758273973277035300,10.52103515625,-3.6710964501783248,-8.839992833277583,-2.132602249427885
1758273973286992100,10.5309921875,-3.7348841549560428,-8.813672397106885,-2.130780440828204
1758273973296950000,10.540949951171875,-3.785628838287294,-8.795523576954007,-2.1161701700650153
1758273973306908200,10.550908203125,-3.8129566979348657,-8.784575481960177,-2.112584712793678
1758273973316866000,10.560865966796875,-3.8092385541945695,-8.783367275214195,-2.124278657718748
1758273973326824200,10.57082421875,-3.77288772239685,-8.79243905494213,-2.1514418283239007
1758273973336782300,10.5807822265625,-3.719428519409895,-8.805237161716818,-2.1918018957629797
1758273973346739000,10.590739013671875,-3.671465575751662,-8.816268843340874,-2.228029393441975
1758273973356697000,10.600697021484375,-3.6313159361928697,-8.82617590484917,-2.254452559334785
1758273973366655200,10.6106552734375,-3.586302782250941,-8.838308241191505,-2.2788459729656574
1758273973376613000,10.620613037109376,-3.5287419891640543,-8.855437070646882,-2.302090947213769
1758273973386571300,10.6305712890625,-3.455160035602748,-8.879390193164348,-2.3213560580454766
1758273973396528000,10.640528076171876,-3.3691546537980437,-8.90931829843819,-2.3330831745877862
1758273973406486300,10.650486328125,-3.2744603541031476,-8.944168662545085,-2.334549301617592
1758273973416444400,10.6604443359375,-3.169265995442867,-8.984041823250054,-2.3266087178766726
1758273973426402300,10.67040234375,-3.0499069178298113,-9.029413581371307,-2.310439234972745
1758273973436360200,10.680360107421874,-2.9181787725090977,-9.080635819086432,-2.2796295245587825
1758273973446318000,10.690318115234374,-2.778483593831956,-9.137575265404582,-2.2260119161397216
1758273973456275200,10.700275146484374,-2.635069394631684,-9.199005593401193,-2.145944692212343
1758273973466233300,10.7102333984375,-2.484167177763581,-9.26339243311584,-2.0466766548611224
1758273973476191200,10.720191162109375,-2.314111932136118,-9.325463397103547,-1.9623975123271344
1758273973486149400,10.7301494140625,-2.121306510040164,-9.381600294867157,-1.9120719311907886
1758273973496107300,10.740107177734375,-1.9124876723848283,-9.430323701503871,-1.8925581062950192
1758273973506064100,10.750064208984375,-1.7090030353643,-9.467790970110892,-1.9001595212094484
1758273973516022300,10.760022216796875,-1.540957814384997,-9.491268876332043,-1.9265650053150951
1758273973525980200,10.769980224609375,-1.4332953120455145,-9.502220478457211,-1.9554675669334827
1758273973535938300,10.779938232421875,-1.3993210001207887,-9.502273085427284,-1.9796606356866657
1758273973545896200,10.789896240234375,-1.4747300229787825,-9.485626486530899,-2.0046048150680957
1758273973555853000,10.79985302734375,-1.649488039469719,-9.449970066738128,-2.036578162433952
1758273973565811200,10.809811279296875,-1.821554186528176,-9.419089775305986,-2.0330038110785185
1758273973575769000,10.81976904296875,-1.922414461506903,-9.422223397156596,-1.9226001933373509
1758273973585727200,10.829727294921875,-1.9480347865842282,-9.457413953003286,-1.7125551748879253
1758273973595685000,10.83968505859375,-1.9395269243493676,-9.499156999233364,-1.4746652871794999
1758273973605643300,10.849643310546876,-1.928241706355661,-9.533663079947233,-1.2496028784707187
1758273973615600400,10.859600341796876,-1.9084581246078014,-9.559801729810237,-1.0669481904458253
1758273973625558000,10.86955810546875,-1.8641376291051506,-9.576710779035091,-0.9909540611762553
1758273973635516200,10.87951611328125,-1.8336456063382327,-9.578554945597052,-1.0292619453258811
1758273973645474300,10.889474365234374,-1.8142421099491417,-9.575472761672735,-1.0905033996868878
1758273973655432200,10.89943212890625,-1.777856060707569,-9.579164017406105,-1.117676726359874
1758273973665389300,10.909389404296874,-1.6902496734470127,-9.594016718623042,-1.1261744325269012
1758273973675347500,10.919347412109374,-1.5414830073028802,-9.617967503052949,-1.1353053220309317
1758273973685305000,10.92930517578125,-1.3662652643457054,-9.640355275949835,-1.169289205501601
1758273973695263200,10.93926318359375,-1.183371799128875,-9.657076693648099,-1.2291836291678249
1758273973705221000,10.94922119140625,-1.0086546261049807,-9.667211134171485,-1.303097591162473
1758273973715179300,10.95917919921875,-0.8654482975017279,-9.670262922957539,-1.3810869859024881
1758273973725136400,10.969136474609375,-0.78447265349254,-9.66649334129095,-1.4539349261008203
1758273973735094300,10.97909423828125,-0.7782537059124559,-9.657439681741595,-1.5160978061556816
1758273973745052400,10.989052490234375,-0.8106308117736131,-9.647729019588231,-1.5603206865027546
1758273973755010000,10.999010009765625,-0.8264991928391158,-9.643512278676033,-1.5779527893051504
1758273973764968200,11.00896826171875,-0.7922718560013919,-9.647300565043091,-1.5723523389495908
1758273973774925300,11.01892529296875,-0.7059686602938919,-9.65811772713363,-1.546861047079414
1758273973784883200,11.02888330078125,-0.5964874911598861,-9.669228903734684,-1.523351722806692
1758273973794841300,11.03884130859375,-0.5015382303232326,-9.67512965221107,-1.5201025117523967
1758273973804799200,11.04879931640625,-0.44722270276788617,-9.676237321192026,-1.5299711409464478
1758273973814757400,11.05875732421875,-0.44937188015840945,-9.677080201756954,-1.5239919204063712
1758273973824715300,11.06871533203125,-0.5042790899965912,-9.68040613130927,-1.4851989561535417
1758273973834672000,11.078672119140625,-0.5937406401371583,-9.68348480810225,-1.431089180303365
1758273973844630300,11.08863037109375,-0.6984463750302791,-9.6840997251302,-1.3786865006320177
1758273973854588200,11.098588134765626,-0.8028171423479914,-9.68126362492144,-1.3412677473418413
1758273973864546300,11.10854638671875,-0.8971336947716771,-9.676310386428236,-1.3170192951396107
1758273973874504400,11.11850439453125,-0.9746605135012417,-9.67177215847671,-1.2950858418814837
1758273973884462000,11.128462158203124,-1.0306407593984157,-9.668233462956547,-1.2780619341053068
1758273973894419200,11.138419189453124,-1.0646739619035273,-9.665175828951597,-1.2732729462631045
1758273973904377300,11.14837744140625,-1.0780858897276222,-9.663542674791813,-1.2743870449848473
1758273973914335200,11.158335205078124,-1.073804266885668,-9.664317166295646,-1.2721199768356979
1758273973924293400,11.16829345703125,-1.0562142496593296,-9.666672789511084,-1.2689470458880066
1758273973934251300,11.178251220703125,-1.0291532242543995,-9.669282095226645,-1.2712993081025779
1758273973944208100,11.1882080078125,-0.9937975409738719,-9.67225672712326,-1.2767946906484662
1758273973954166300,11.198166259765625,-0.9506353486608713,-9.676934071284531,-1.274222648203373
1758273973964124200,11.208124267578125,-0.9026792731348424,-9.682074941304325,-1.270033672080934
1758273973974082300,11.218082275390625,-0.8528591573026031,-9.685885439503192,-1.2754084969870745
1758273973984040200,11.228040283203125,-0.8037414175860583,-9.687727852499485,-1.293178400824964
1758273973993998300,11.237998291015625,-0.7570750165443867,-9.688471364343165,-1.3155794715948401
1758273974003955200,11.247955078125,-0.7136262623749673,-9.689177466785907,-1.3345255796052515
1758273974013913000,11.2579130859375,-0.6662431644313037,-9.6905323885262,-1.3491202144078909
1758273974023871200,11.267871337890625,-0.5772778733750805,-9.694868956425786,-1.3589128557562826
1758273974033829000,11.2778291015625,-0.4068221571879461,-9.702726684188843,-1.3645334721170366
1758273974043787300,11.287787353515625,-0.18343610245985909,-9.709867203593253,-1.3620534918695688
1758273974053744400,11.297744384765625,0.02860001217497047,-9.714341134136914,-1.3420707342877982
1758273974063702300,11.307702392578125,0.19417267359485849,-9.715459909033775,-1.3200395197436212
1758273974073660200,11.31766015625,0.2947333993714303,-9.711651164400577,-1.3294254799872636
1758273974083618000,11.3276181640625,0.33409364211820064,-9.703024205830692,-1.3820629913277924
1758273974093576200,11.337576171875,0.37215858435742555,-9.691099959281086,-1.45411715079993
1758273974103534300,11.347534423828124,0.4171759030178189,-9.681552963256836,-1.5046277331143616
1758273974113491200,11.3574912109375,0.455407616658695,-9.677586397713423,-1.518985636551678
1758273974123449300,11.367449462890624,0.5010092745456844,-9.677615623807906,-1.5043702512219548
1758273974133407200,11.3774072265625,0.5452836658842861,-9.680978962761163,-1.4668667422577737
1758273974143365000,11.387365234375,0.5794263931784779,-9.686119248259066,-1.4190584046393633
1758273974153323300,11.3973232421875,0.5993059095814823,-9.693241062963008,-1.3609867394208908
1758273974163280100,11.407280029296874,0.5987470335897058,-9.703995681211351,-1.2823298206828533
1758273974173238300,11.41723828125,0.5787630338989198,-9.718152801379562,-1.1802335011031477
1758273974183196400,11.427196533203125,0.5446771878911182,-9.732629070499538,-1.072213855889067
1758273974193154300,11.437154296875,0.49967886619213964,-9.744962482371927,-0.9779788442689925
1758273974203112200,11.4471123046875,0.44608686713837087,-9.754585466241837,-0.9052323916837572
1758273974213070000,11.457070068359375,0.38820820374134923,-9.762612120831012,-0.8432637190267444
1758273974223027200,11.467027099609375,0.3245463173003867,-9.77136299804151,-0.7651965828754007
1758273974232985300,11.4769853515625,0.2493297482745722,-9.782876325702667,-0.6352671575397253
1758273974242943200,11.486943115234375,0.15958737189862876,-9.796035667005182,-0.4273502736927941
1758273974252901400,11.4969013671875,0.03359673133358592,-9.805113876473904,-0.17034286692980677
1758273974262859300,11.506859375,-0.11031021296982653,-9.80553005605936,0.0991531696667429
1758273974272817200,11.516817138671875,-0.21416518538566304,-9.796810743030905,0.383421955845505
1758273974282774300,11.526774169921875,-0.2637465057596564,-9.779605341207981,0.6783419638302177
1758273974292732200,11.536732177734375,-0.25711552504627033,-9.753538587537408,0.9862701411437242
1758273974302690300,11.546690185546876,-0.23018190714698283,-9.718223528528213,1.293650402250886
1758273974312648200,11.556648193359376,-0.22393738673422484,-9.673976390522718,1.5919855524413287
1758273974322606300,11.5666064453125,-0.23371108592012896,-9.623609308332204,1.8713455146573483
1758273974332563200,11.576563232421876,-0.22942749031679704,-9.57117184960842,2.123774799849838
1758273974342521000,11.58652099609375,-0.19745724822347982,-9.518564879536628,2.3512379860900343
1758273974352479200,11.596479248046874,-0.10352399602895603,-9.461482809877396,2.576825879977643
1758273974362437400,11.606437255859374,0.06540910456762648,-9.401381684657931,2.7892876041799783
1758273974372395300,11.616395263671874,0.2558661825723015,-9.330822293788193,3.0067712481975555
1758273974382353400,11.626353515625,0.4687328891126439,-9.2483585301131,3.227778682427108
1758273974392310000,11.63631005859375,0.7374499132938682,-9.155206199163198,3.4363886996373534
1758273974402268200,11.64626806640625,1.0777391221165658,-9.049528148639201,3.621447745390236
1758273974412226300,11.656226318359375,1.4680426541693508,-8.940575606489181,3.7525083667129278
1758273974422184000,11.666183837890625,1.845410424542427,-8.836182919600606,3.8323259997934103
1758273974432142000,11.67614208984375,2.27707019546479,-8.723333954533935,3.8585999664738773
1758273974442100000,11.686099853515625,2.859382592408359,-8.573440330186486,3.806631878827512
1758273974452057000,11.69605712890625,3.4781510350897906,-8.381918810421228,3.7170284725308416
1758273974462015200,11.70601513671875,3.992015626490116,-8.178234559175372,3.653858607390523
1758273974471973000,11.71597314453125,4.433495949681103,-7.947623138037324,3.6537373190984126
1758273974481931300,11.72593115234375,4.902455231428146,-7.652526677507161,3.6844489759653802
1758273974491889000,11.735888916015625,5.413426731735467,-7.283273678398132,3.7174051968887447
1758273974501846000,11.745845947265625,5.968195288193225,-6.834193109336495,3.7208652742147446
1758273974511804200,11.75580419921875,6.5589435050487515,-6.305351605817675,3.6596702162787316
1758273974521762000,11.765761962890625,7.163073181524872,-5.705051716762781,3.5090111605167387
1758273974531720200,11.77572021484375,7.748608632168174,-5.0494648247718805,3.260729642653465
1758273974541678000,11.785677978515626,8.28573514895141,-4.361292590996623,2.9148087115541097
1758273974551636200,11.79563623046875,8.748875807547568,-3.666268007108569,2.4871733738422392
1758273974561593000,11.805593017578126,9.1203277780056,-2.9895366202801466,2.013126705828309
1758273974571551000,11.815551025390626,9.394619935438037,-2.3594300603739917,1.5312068202212452
1758273974581509000,11.825509033203126,9.57760685109198,-1.7959294775366783,1.1020275410030036
1758273974591467300,11.83546728515625,9.688044663363694,-1.3109480124019086,0.7704505578808486
1758273974601425200,11.845425048828124,9.748326990368962,-0.9045202248264104,0.5677535275740548
1758273974611382000,11.855382080078124,9.777066178119181,-0.5683703808307647,0.5062780087288469
1758273974621340200,11.865340087890624,9.78654536960423,-0.28594809016836803,0.558702863699384
1758273974631298000,11.875298095703124,9.783477214205265,-0.043393667547893706,0.6723660312257707
1758273974641256200,11.885256103515625,9.772961665409802,0.17140035835979506,0.7938692081954329
1758273974651214000,11.895214111328125,9.75974270287454,0.36239820131082084,0.886833176966384
1758273974661172200,11.905172119140625,9.74769746029377,0.5295202064979821,0.9340160030975937
1758273974671129300,11.91512939453125,9.73779215235114,0.6778614137716591,0.9414284713111817
1758273974681087000,11.9250869140625,9.728563136234879,0.8142744289729744,0.9286558643039315
1758273974691045000,11.935045166015625,9.71867594847083,0.9450820984479039,0.9080425537336617
1758273974701003000,11.9450029296875,9.70937211355269,1.0690611640118062,0.8692414792396128
1758273974710961200,11.954961181640625,9.702331547391415,1.1826057101272045,0.797866899529472
1758273974720919000,11.9649189453125,9.698521633714437,1.279767130587995,0.6864808466222136
1758273974730876200,11.974876220703125,9.699079267597197,1.3474230551011859,0.5316877232627942
1758273974740834000,11.984833984375,9.704284435024856,1.3721739038676022,0.3382153616907075
1758273974750792000,11.9947919921875,9.713059277632832,1.3455164908275008,0.1282345584507566
1758273974760750000,12.00475,9.724370360720156,1.266492784603685,-0.05478889895444736
1758273974770708000,12.0147080078125,9.73865315309465,1.1401993046175687,-0.17019237080952151
1758273974780666000,12.024666015625,9.754286775556206,0.9902674671515822,-0.20891829770812764
1758273974790623200,12.034623291015626,9.75388696258366,0.9799285170320421,-0.2679890021676197
1758273974800581000,12.0445810546875,9.736005268934369,1.109754116667062,-0.38604580154307183
1758273974810539000,12.0545390625,9.717330963602661,1.2477230560734867,-0.43249136290829626
1758273974820497200,12.0644970703125,9.704286773112416,1.3585669649280607,-0.3892252718294039
1758273974830455000,12.074455078125,9.698426356646419,1.4271179385848343,-0.27248015784071755
1758273974840412200,12.084412109375,9.699299632349609,1.441386556303501,-0.12795745854242704
1758273974850370000,12.0943701171875,9.704158178296685,1.4125409855693578,-0.06656288684578612
1758273974860328200,12.104328125,9.710940970304607,1.3637531353943049,-0.09048205229472368
1758273974870286300,12.114286376953125,9.71871511143744,1.3056139578975736,-0.1110421987724956
1758273974880244000,12.124243896484375,9.729708799138665,1.2175135035097597,-0.14426257792422548
1758273974890202000,12.1342021484375,9.739650347438454,1.131232519634068,-0.172940153414011
1758273974900159200,12.1441591796875,9.746642982804774,1.0694124616675078,-0.1722989329010248
1758273974910117000,12.1541171875,9.750856216585635,1.0360091545637697,-0.13369021177445536
1758273974920075300,12.1640751953125,9.751329679316282,1.0379976249672471,-0.06717915101402905
1758273974930033200,12.174033203125,9.74806863169372,1.0701820578005163,0.015733211520157057
1758273974939991000,12.183990966796875,9.742012400394678,1.1184601318225265,0.1123489796552807
1758273974949949000,12.193948974609375,9.733997436243294,1.1734753320798277,0.2064779370849952
1758273974959906000,12.203906005859375,9.7257849036932,1.2256705795455722,0.27788629120057445
1758273974969864200,12.2138642578125,9.718719787612557,1.2694403823629021,0.3246396216070279
1758273974979822000,12.223822021484375,9.71255892689526,1.3083805000014603,0.3531671028353274
1758273974989780200,12.2337802734375,9.706381699565052,1.3487252237409353,0.37077684767544267
1758273974999738000,12.243738037109376,9.699794137868285,1.3908243899323045,0.3872749780118465
1758273975009695000,12.253695068359375,9.692874567738174,1.4314775950990617,0.41163394138384607
1758273975019653000,12.263653076171876,9.686283498910068,1.4653930164434015,0.44600642231330273
1758273975029611000,12.273611083984376,9.68119172872901,1.4859605881758033,0.48665020206458864
1758273975039569200,12.283569091796876,9.67820423735082,1.493306420893967,0.5222859078628942
1758273975049527300,12.29352734375,9.676944008156656,1.494141264282912,0.5428416064944118
1758273975059485200,12.303485107421874,9.676626028248668,1.4945779021345078,0.5472955902285873
1758273975069442000,12.313442138671874,9.676450087159871,1.4970489684231578,0.543637396514602
1758273975079400000,12.32339990234375,9.676001758870482,1.5011537733934819,0.5402892185978592
1758273975089358000,12.333358154296874,9.674963647994398,1.5073483902499079,0.5416321211067959
1758273975099316200,12.343316162109375,9.672560093984007,1.5201920897319912,0.548618655525893
1758273975109274000,12.353274169921875,9.668469609799981,1.5426545353002845,0.5579377976110205
1758273975119232300,12.363232177734375,9.663190208092331,1.5719043029211461,0.5676796586202457
1758273975129189000,12.373189208984375,9.657795071050524,1.6030366694182157,0.5724131899481639
1758273975139147000,12.38314697265625,9.6534947435081,1.630933414994925,0.5661104000095277
1758273975149105200,12.393105224609375,9.650735800188778,1.6518182359829543,0.5524263041805476
1758273975159063000,12.40306298828125,9.649605334854126,1.6628053478129208,0.5390551467582583
1758273975169021200,12.413021240234375,9.650539400833845,1.6594136595480142,0.532747790242359
1758273975178978300,12.422978271484375,9.652366031739115,1.6490224677845835,0.531920874431543
1758273975188936000,12.43293603515625,9.651528411871194,1.651477751982212,0.5394513795342296
1758273975198894000,12.44289404296875,9.636996028649806,1.7333949876904486,0.5422502895377576
1758273975208852000,12.45285205078125,9.608186113750934,1.8755887051850557,0.5790607382038608
1758273975218810000,12.46281005859375,9.583990414649248,1.9773023821227251,0.6385864381555467
1758273975228768000,12.47276806640625,9.574995207288861,2.0174327324591577,0.6479345506068319
1758273975238725000,12.48272509765625,9.580621814998985,2.00213521008417,0.6111673200279474
1758273975248683300,12.492683349609376,9.59479997795522,1.9481578284420071,0.561142037012428
1758273975258641000,12.502640869140626,9.608668344309926,1.8894279915757477,0.5233914579520001
