time,seconds_elapsed,z,y,x
1758273316734500900,0.0435009765625,4.831349312591552,-7.033865202331542,4.588637119293213
1758273316744459000,0.053458984375,4.786009118652344,-6.726359926605224,4.528782077789306
1758273316754415900,0.063415771484375,4.74994645614624,-6.746860278320312,4.446182120513916
1758273316764373800,0.073373779296875,4.787505494689941,-7.279270872497558,4.487482099151611
1758273316774332000,0.083331787109375,4.78810404510498,-7.210138299560547,4.354603907012939
1758273316784288800,0.093288818359375,4.823717794799804,-7.523479441833496,4.32198290939331
1758273316794247000,0.103246826171875,4.8421232200622555,-8.291569261932372,4.334103555297851
1758273316804205000,0.113205078125,4.866065236663818,-8.61852742614746,4.366275640106201
1758273316814161700,0.12316162109375,4.894496381378174,-7.622539535522461,4.388571643066406
1758273316824119800,0.133119873046875,4.866514149475098,-6.801328366088867,4.228908319854736
1758273316834078000,0.143077880859375,4.881028997039794,-6.662763945007324,4.101865994262695
1758273316844034800,0.153034912109375,4.7946880996704095,-6.986729357147216,4.137330106353759
1758273316853993000,0.162992919921875,4.813093524932861,-7.464821501159667,4.266018445587158
1758273316863949800,0.17294970703125,4.861725746154785,-7.672518495178222,4.2235213661193844
1758273316873907700,0.18290771484375,4.884769937133789,-7.579743180847167,4.172644580841064
1758273316883865900,0.192865966796875,4.853495677947998,-7.755866640472411,4.157680820465088
1758273316893823000,0.202822998046875,4.894795656585693,-7.477989610290527,4.184166676330566
1758273316903780900,0.21278076171875,4.748300442504883,-6.789806270599365,4.225616292572021
1758273316913739000,0.222739013671875,4.66689758605957,-7.061248883819579,4.3369466697692864
1758273316923695900,0.23269580078125,4.8136920753479,-7.467066065216064,4.4750621780395505
1758273316933653800,0.24265380859375,4.924872814941406,-7.340472652435302,4.581304876708984
1758273316943612000,0.25261181640625,4.940584763336181,-7.1203557373046875,4.542698374938965
1758273316953569000,0.262569091796875,5.069273102569579,-7.114220595550536,4.422240103912353
1758273316963527000,0.27252685546875,5.118803149414062,-7.1416042770385735,4.3065702362060545
1758273316973484800,0.28248486328125,5.0052282081604,-7.447463539123535,4.362085787200927
1758273316983442000,0.29244189453125,4.9640778671264645,-7.5148004608154295,4.639663542175293
1758273316993399800,0.30239990234375,4.931157594299316,-7.324461428833008,4.650736724853515
1758273317003358000,0.31235791015625,4.922628250885009,-7.165845568847656,4.6258968826293945
1758273317013315000,0.322315185546875,4.969165545654296,-7.123947039794921,4.6921863410949705
1758273317023272700,0.332272705078125,4.939686937713622,-7.18200643005371,4.643105207061767
1758273317033230800,0.34223095703125,4.9543514228820795,-7.126191603851318,4.670189613342285
1758273317043188000,0.35218798828125,4.950311207580566,-7.216722354125976,4.612429498291015
1758273317053145900,0.362145751953125,4.974702136993408,-7.278821959686279,4.562450538635254
1758273317063104000,0.37210400390625,4.983530755615234,-7.103745963287353,4.4762592788696285
1758273317073060900,0.382060791015625,4.961982940673828,-6.900388459777831,4.3439796371459956
1758273317083018800,0.392018798828125,4.957044899749755,-6.976105087280273,4.287117347717285
1758273317092977000,0.401976806640625,4.975450325012207,-7.078157933044433,4.316147042846679
1758273317102933800,0.411933837890625,4.970661921691894,-7.111676756286621,4.394557147216797
1758273317112892000,0.421891845703125,4.957493812561035,-7.227945174407958,4.38602780380249
1758273317122850000,0.43185009765625,4.957044899749755,-7.391798350524902,4.443189368438721
1758273317132806700,0.441806640625,4.9172412971496575,-7.260266896820068,4.446032482910156
1758273317142764800,0.451764892578125,4.90975941696167,-7.284059275817871,4.386476716613769
1758273317152722000,0.461721923828125,4.917091659545898,-7.442525498199463,4.422838654327393
1758273317162679800,0.4716796875,4.884769937133789,-7.480683087158202,4.413411485290527
1758273317172638000,0.481637939453125,4.9263691909790035,-7.458985634613037,4.4196962646484375
1758273317182594800,0.4915947265625,4.9455228042602535,-7.294234632873534,4.432415460968017
1758273317192552700,0.501552734375,4.930858319091796,-7.286453477478027,4.421491915893554
1758273317202510800,0.5115107421875,4.9084126785278315,-7.269843703460693,4.416104962158203
1758273317212468000,0.521468017578125,4.843170683288574,-7.203404607391357,4.342782536315918
1758273317222425900,0.53142578125,4.886266313171387,-7.259518708801269,4.270208298492431
1758273317232384000,0.541384033203125,4.874444942474365,-7.262810736083984,4.256890551757812
1758273317242340900,0.5513408203125,4.83314496383667,-7.173177811431884,4.253448886871338
1758273317252298800,0.561298828125,4.818630116271972,-7.248146250915527,4.24551809387207
1758273317262257000,0.5712568359375,4.8229696067810055,-7.363217568206787,4.297891255187988
1758273317272214000,0.581214111328125,4.835389527893066,-7.31682991104126,4.397100986480712
1758273317282172000,0.591171875,4.794089549255371,-7.268945877838134,4.3616368743896485
1758273317292129800,0.6011298828125,4.784512742614746,-7.303212889099121,4.410418733215332
1758273317302087000,0.6110869140625,4.848407999420166,-7.34855308303833,4.51995345916748
1758273317312044800,0.621044921875,4.8512511138916015,-7.363367205810547,4.507832813262939
1758273317322003000,0.6310029296875,4.7849616554260255,-7.3371806251525875,4.414758223724365
1758273317331960000,0.6409599609375,4.71148959197998,-7.298274848175049,4.302530020904541
1758273317341917700,0.650917724609375,4.584596903991699,-7.193827800750732,4.256292001342773
1758273317351875800,0.660875732421875,4.423586842346191,-7.146991230773925,4.190601093292236
1758273317361833000,0.6708330078125,4.286668434906006,-7.192481062316894,4.1852141395568845
1758273317371790800,0.680790771484375,4.321234721374512,-7.491008081817626,4.2886137237548825
1758273317381748000,0.690748046875,4.4279263328552245,-7.777713730621337,4.397699536895752
1758273317391706000,0.7007060546875,4.500201295471191,-7.941417269134521,4.611830947875976
1758273317401663700,0.710663818359375,4.57112951965332,-7.870040132141113,4.689642501831054
1758273317411620900,0.720620849609375,4.655824403381347,-7.574505864715576,4.866663787078857
1758273317421579000,0.7305791015625,4.657620054626465,-7.552209861755371,4.817133740234374
1758273317431537000,0.740536865234375,4.694430905151367,-7.565826883697509,4.675726204681396
1758273317441494000,0.750493896484375,4.890007253265381,-7.418882756805419,4.743811314392089
1758273317451452000,0.760451904296875,4.923825351715087,-7.226299160766601,4.7292964668273925
1758273317461409800,0.770409912109375,4.949563019561768,-7.089231115722656,4.826860184478759
1758273317471367000,0.780366943359375,5.030217687988281,-7.037157229614257,4.760271450805663
1758273317481324800,0.79032470703125,5.122693727111816,-6.936750397491455,4.787355857086181
1758273317491283700,0.80028369140625,5.0674774513244625,-6.8569935546875,4.7667058677673335
1758273317501240800,0.81024072265625,5.099050985717773,-6.788758807373046,4.637269340515137
1758273317511198700,0.82019873046875,5.173570512390136,-6.769754831695556,4.543895475769043
1758273317521156900,0.830156982421875,5.200654918670654,-6.791751559448242,4.556315396881104
1758273317531114000,0.840114013671875,5.289689292907714,-6.931812356567383,4.518307445526123
1758273317541071600,0.850071533203125,5.363759906768799,-7.018003616333007,4.529979178619384
1758273317551028700,0.86002880859375,5.351190348052978,-6.9527616210937495,4.534617944335937
1758273317560987000,0.86998681640625,5.3214124649047845,-6.894702230834961,4.546439315032958
1758273317570944800,0.87994482421875,5.397278730010986,-6.848913124084472,4.579209950256347
1758273317580902000,0.88990185546875,5.462371087646484,-6.733093618774413,4.626345795440674
1758273317590859800,0.89985986328125,5.503521428680419,-6.6340335250854485,4.740220011901855
1758273317600817700,0.909817626953125,5.57998624420166,-6.552331393432617,4.7289971916198725
1758273317610774800,0.91977490234375,5.6203883972167965,-6.623558892822265,4.789899696350098
1758273317620732700,0.929732666015625,5.575347478485107,-6.6997244331359855,4.835389527893066
1758273317630690800,0.93969091796875,5.57998624420166,-6.779780551147461,4.703259523773193
1758273317640647700,0.949647705078125,5.578639505767822,-6.732644705963135,4.6255976074218745
1758273317650605600,0.95960546875,5.558438429260254,-6.533477055358886,4.478503842926025
1758273317660563700,0.969563720703125,5.644031138610839,-6.5291375648498535,4.332457541656494
1758273317670520800,0.979520751953125,5.646126065063476,-6.549937191772461,4.3348517433166505
1758273317680478700,0.989478759765625,5.637895996856689,-6.55637160873413,4.398298087310791
1758273317690436900,0.999436767578125,5.707178207397461,-6.640318304443359,4.56439582748413
1758273317700393700,1.009393798828125,5.7207952293396,-6.666355247497558,4.655525128173828
1758273317710351600,1.0193515625,5.709871684265137,-6.688052700042724,4.7481508049011225
1758273317720308700,1.029308837890625,5.678896700286865,-6.673088939666748,4.778527238464355
1758273317730267000,1.039266845703125,5.6568999725341795,-6.670395462799072,4.727201540374756
1758273317740224800,1.049224853515625,5.623530786895752,-6.669347999572754,4.698171845245361
1758273317750181600,1.059181640625,5.597344206237793,-6.6394204788208,4.668543599700928
1758273317760139800,1.069139892578125,5.568763423919678,-6.548440815734863,4.612728773498535
1758273317770097700,1.07909765625,5.654505770874023,-6.4284314575195305,4.583699078369141
1758273317780054800,1.0890546875,5.453991381835937,-6.360495985412597,4.741417112731933
1758273317790013000,1.099012939453125,5.198709629821777,-6.613084260559082,4.361487236785888
1758273317799970800,1.108970703125,5.56711741027832,-6.741174049377441,4.4847886222839355
1758273317809927700,1.118927734375,5.475389559173584,-6.720823335266113,4.69233597869873
1758273317819885800,1.1288857421875,5.467159490966797,-6.8309566116333,4.685003736114502
1758273317829843700,1.13884375,5.397578005218506,-6.883778685760498,4.64175846862793
1758273317839800800,1.14880078125,5.390993950653076,-6.909965266418457,4.672134902191162
1758273317849759000,1.158759033203125,5.412242490386962,-6.938246773529053,4.744110589599609
1758273317859715600,1.168715576171875,5.333084197998047,-6.847865660858154,4.725106613922119
1758273317869673700,1.178673828125,5.332485647583008,-6.769455556488037,4.712088142395019
1758273317879632000,1.1886318359375,5.359570053863525,-6.717680945587158,4.6255976074218745
1758273317889588700,1.198588623046875,5.409549013519287,-6.7559881721496575,4.51381831741333
1758273317899547000,1.208546875,5.485864191436767,-6.833949363708496,4.461145880889893
1758273317909504800,1.2185048828125,5.412691403198242,-6.839635592651367,4.390367294311523
1758273317919461600,1.228461669921875,5.314379497528076,-6.932410906982422,4.365677089691162
1758273317929419800,1.238419677734375,5.318868625640869,-6.937797860717773,4.424933580780029
1758273317939377700,1.248377685546875,5.366603021240234,-6.945279740905761,4.461445156097412
1758273317949334800,1.258334716796875,5.42017328338623,-6.973411610412597,4.4273277824401855
1758273317959292700,1.268292724609375,5.38800119857788,-6.973561248016357,4.390965844726562
1758273317969250600,1.27825048828125,5.3481975959777825,-6.965480817413329,4.350563691711425
1758273317979207700,1.288207763671875,5.328295794677734,-6.921038449096679,4.444985019683838
1758273317989165800,1.298165771484375,5.30525160369873,-6.928819604492187,4.5787610374450685
1758273317999123000,1.308123046875,5.328295794677734,-7.029525711822509,4.658218605041504
1758273318009080600,1.31808056640625,5.345803394317627,-7.00977354812622,4.628141446685791
1758273318019038700,1.328038818359375,5.3010617507934565,-6.9530608963012694,4.506037162017822
1758273318028995800,1.337995849609375,5.266345826721191,-6.908768165588379,4.486434635925293
1758273318038953700,1.34795361328125,5.214720853424072,-6.9436337272644035,4.49466470413208
1758273318048912000,1.357911865234375,5.235819755554199,-6.946327204132079,4.4930186904907226
1758273318058868700,1.36786865234375,5.280711036682129,-6.923881563568115,4.499752382659912
1758273318068826600,1.37782666015625,5.284900889587402,-6.931064168548583,4.502445859527588
1758273318078784800,1.38778466796875,5.248389314270019,-6.906373963928222,4.614823699951172
1758273318088742000,1.397741943359375,5.187187534332275,-6.8590884811401365,4.578162487030029
1758273318098699800,1.40769970703125,5.168931746673584,-6.911760917663574,4.5884874816894525
1758273318108656600,1.41765673828125,5.1794063789367675,-6.960093863677978,4.653729476928711
1758273318118614800,1.42761474609375,5.156661463165283,-6.9545572723388664,4.750395368957519
1758273318128572700,1.43757275390625,5.163095880126953,-6.908319252777099,4.758176524353027
1758273318138529800,1.44752978515625,5.214571215820312,-6.9445315528869624,4.717475096130371
1758273318148487700,1.45748779296875,5.237914682006836,-6.94647684173584,4.616918626403808
1758273318158445800,1.46744580078125,5.172373411560058,-6.861632320404052,4.536114320373535
1758273318168402700,1.477402587890625,5.234323379516601,-6.888118176269531,4.562151263427734
1758273318178360600,1.487360595703125,5.271433505249023,-6.854000802612305,4.57112951965332
1758273318188318700,1.497318603515625,5.218312155914306,-6.851456963348388,4.567388579559326
1758273318198275800,1.50727587890625,5.169380659484863,-6.880486658477783,4.627692533874511
1758273318208233700,1.517233642578125,5.164292980957031,-6.901884835815429,4.693832354736328
1758273318218190600,1.527190673828125,5.182997681427001,-6.949918506622314,4.715529807281494
1758273318228148700,1.537148681640625,5.185840795898438,-6.941239525604248,4.712836330413818
1758273318238106600,1.547106689453125,5.17162522354126,-6.975356899261474,4.658667517852783
1758273318248063700,1.557063720703125,5.1982607170104975,-7.053318090820312,4.656422953796387
1758273318258022000,1.56702197265625,5.189581735992431,-7.048828962707519,4.5787610374450685
1758273318267979800,1.576979736328125,5.174617975616455,-7.029824987030029,4.555267933654785
1758273318277936600,1.5869365234375,5.180902754974365,-7.040748532104492,4.567687854766845
1758273318287894800,1.596894775390625,5.137507849884033,-7.0449383850097655,4.562899451446533
1758273318297852700,1.606852783203125,5.093514394378662,-6.97146632156372,4.636820427703857
1758273318307809800,1.616809814453125,5.071667304229736,-6.945429378509521,4.730343930053711
1758273318317768000,1.626767822265625,5.09441222000122,-6.93345837020874,4.827608372497559
1758273318327724800,1.636724853515625,5.079598097229003,-6.933757645416259,4.924124626922607
1758273318337682700,1.6466826171875,5.061940859985351,-6.889764189910888,4.994603938293457
1758273318347640800,1.656640869140625,5.089923091888427,-6.896647519683837,4.993556475067138
1758273318357598000,1.666597900390625,5.098153160095214,-6.894103680419922,4.918438397979736
1758273318367555800,1.676555908203125,5.106682503509521,-6.846668560028076,4.889558340454101
1758273318377513700,1.686513671875,5.059247383117675,-6.83739102859497,4.8600797325134275
1758273318387470800,1.696470947265625,5.071218391418457,-6.828712047576904,4.831349312591552
1758273318397428700,1.7064287109375,5.093364756774902,-6.90143592300415,4.863671035003661
1758273318407387000,1.716386962890625,5.1146132965087885,-6.919542073059081,4.921880062866211
1758273318417343700,1.72634375,5.0769046203613275,-6.785017867279052,4.857835168457031
1758273318427301600,1.736301513671875,5.021837982177734,-6.779182000732422,4.795885200500488
1758273318437258800,1.7462587890625,4.968566995239257,-6.839635592651367,4.725705164337158
1758273318447216600,1.756216552734375,4.991311911010742,-6.896647519683837,4.741417112731933
1758273318457174800,1.7661748046875,5.0495209388732905,-6.950517057037353,4.7884033203125
1758273318467132000,1.7761318359375,5.03740029296875,-6.991966673278808,4.804564181518554
1758273318477089500,1.786089599609375,5.0766053451538085,-6.898443170928955,4.8804304466247554
1758273318487047200,1.796047119140625,5.077652808380127,-6.737882022094726,4.899284784698486
1758273318497004300,1.80600439453125,5.078999546813964,-6.7550903465270995,4.891054716491699
1758273318506962200,1.815962158203125,5.080645560455322,-6.852055513763427,4.9175405723571775
1758273318516920300,1.82592041015625,5.016750303649902,-6.851606600952148,4.9348985343933105
1758273318526877200,1.835877197265625,5.012710088348388,-6.83739102859497,4.9286137550354
1758273318536835000,1.8458349609375,5.023334358215331,-6.845621096801757,4.856488430023193
1758273318546792200,1.855792236328125,5.039944132232666,-6.900388459777831,4.8389808303833
1758273318556750300,1.865750244140625,5.0495209388732905,-6.943184814453125,4.860827920532226
1758273318566708200,1.875708251953125,5.054010066986084,-6.937199310302734,4.875492405700683
1758273318576665000,1.8856650390625,5.062240135192871,-6.974010160827636,4.909160866546631
1758273318586623200,1.895623291015625,5.051615865325927,-6.884676511383057,4.939686937713622
1758273318596581000,1.9055810546875,5.036053554534912,-6.860135944366455,4.910357967376709
1758273318606538200,1.915538330078125,5.013757551574707,-6.880187383270263,4.925920278167724
1758273318616496400,1.925496337890625,5.008520235443115,-6.842478707122802,4.90946014175415
1758273318626454300,1.935454345703125,5.01151298751831,-6.814646112823486,4.850802201080322
1758273318636411100,1.9454111328125,5.026925660705566,-6.84427435836792,4.886266313171387
1758273318646369300,1.955369384765625,5.04338579711914,-6.868366012573242,4.8892590652465815
1758273318656326400,1.965326416015625,5.0571524566650385,-6.857741742706298,4.8704047271728514
1758273318666284300,1.9752841796875,5.068375276947021,-6.854748990631103,4.871901103210449
1758273318676242400,1.985242431640625,5.054758255004883,-6.816292126464844,4.833593876647949
1758273318686199300,1.99519921875,5.0662803504943845,-6.800280902862548,4.799326865386963
1758273318696157200,2.0051572265625,5.0577510070800775,-6.839785230255127,4.83314496383667
1758273318706115300,2.015115234375,5.05026912689209,-6.851307325744629,4.853495677947998
1758273318716072400,2.025072509765625,5.026027835083007,-6.930016705322266,4.897339495849609
1758273318726030300,2.0350302734375,4.9808372787475585,-6.893205854797363,4.828955110931396
1758273318735988200,2.04498828125,4.969165545654296,-6.9162500457763665,4.802469255065918
1758273318745945000,2.054945068359375,4.952256496429443,-6.906373963928222,4.810549685668945
1758273318755903200,2.0649033203125,4.989516259765625,-6.884826148986816,4.847659811401367
1758273318765860400,2.0748603515625,5.093664031982422,-6.906673239135742,4.865466686248779
1758273318775818200,2.084818359375,5.097554609680175,-6.894103680419922,4.8136920753479
1758273318785776000,2.094776123046875,5.0435354347229,-6.865822173309326,4.8427217704772945
1758273318795733200,2.104733154296875,5.012261175537109,-6.8976949829101555,4.836436991119385
1758273318805691100,2.114691162109375,5.00537784576416,-6.982689141845703,4.82012649230957
1758273318815649300,2.124649169921875,5.010166249084472,-6.962936978149414,4.831648587799072
1758273318825606400,2.1346064453125,5.0294694999694824,-6.911611280059814,4.809202947235107
1758273318835564000,2.14456396484375,4.97978981552124,-6.908019977569579,4.790198971557617
1758273318845521200,2.154521240234375,4.987421333312988,-6.932111631774902,4.803367080688476
1758273318855479300,2.164479248046875,4.998195240783691,-6.930764893341064,4.819677579498291
1758273318865437200,2.174437255859375,5.023035083007812,-6.915202582550048,4.831050037384033
1758273318875394300,2.184394287109375,5.040243407440185,-6.967725381469726,4.825214170837402
1758273318885352200,2.194352294921875,5.051166952514648,-6.979546752166748,4.843469958496094
1758273318895310000,2.20431005859375,5.044133985137939,-6.933757645416259,4.806659107971191
1758273318905267200,2.21426708984375,4.996249951934814,-6.9168485961914055,4.774187747955322
1758273318915225300,2.224225341796875,4.991611186218261,-6.940940250396728,4.7849616554260255
1758273318925183200,2.234183349609375,5.028272399139404,-6.927921778869629,4.8241667076110835
1758273318935140000,2.24414013671875,5.014655377197266,-6.899041721343994,4.829852936553955
1758273318945098200,2.25409814453125,4.974702136993408,-6.9427359016418455,4.832546413421631
1758273318955055400,2.264055419921875,4.98023872833252,-6.957250749206542,4.825812721252441
1758273318965013200,2.27401318359375,4.993706112670898,-6.8822823097229,4.791246434783935
1758273318974971400,2.283971435546875,4.9914615486145015,-6.8967971572875975,4.793341361236572
1758273318984928300,2.29392822265625,4.994903213500976,-6.935254021453857,4.815787001800537
1758273318994886100,2.30388623046875,5.033958628082275,-6.9904702972412105,4.844218146514892
1758273319004844300,2.31384423828125,5.007921685028076,-7.040598894500732,4.896142395019531
1758273319014801200,2.32380126953125,5.016301390838623,-6.995857250976562,4.87758733215332
1758273319024759300,2.33375927734375,5.027673848724365,-6.915501857757568,4.779275426483154
1758273319034717400,2.343717529296875,5.030217687988281,-6.834398276519775,4.716128357696533
1758273319044674000,2.353674072265625,5.00552748336792,-6.858938843536377,4.727800090789795
1758273319054632200,2.363632080078125,4.9342999839782715,-6.903081936645507,4.779574701690674
1758273319064589300,2.37358935546875,4.898835871887207,-7.001992392730712,4.8686090759277345
1758273319074547200,2.383547119140625,4.907963765716552,-7.0455369354248045,4.893897830963135
1758273319084505300,2.39350537109375,4.929960493469238,-7.034014839935303,4.870255089569092
1758273319094462200,2.403462158203125,4.941781864166259,-6.980294940185546,4.848258361816406
1758273319104420000,2.413420166015625,4.9908629981994626,-6.960542776489257,4.802618892669678
1758273319114378200,2.423378173828125,5.073762230682373,-6.9168485961914055,4.7884033203125
1758273319124335400,2.43333544921875,5.031714064025879,-6.849062761688232,4.733935232543945
1758273319134293200,2.443293212890625,4.921281512451172,-6.899789909362792,4.7855602058410645
1758273319144250000,2.45325,4.861576108551025,-6.963236253356933,4.8689083511352536
1758273319154208300,2.463208251953125,4.846462710571289,-7.015459777069092,4.869357263946533
1758273319164166100,2.473166259765625,4.89015689086914,-7.0847419876098625,4.844218146514892
1758273319174123300,2.483123291015625,4.926668466186523,-7.101501399230957,4.808604396820068
1758273319184081400,2.493081298828125,4.901978261566162,-7.076661557006836,4.837484454345703
1758273319194039300,2.503039306640625,4.810549685668945,-7.020547455596923,4.8983869590759275
1758273319203996200,2.51299609375,4.78226817855835,-7.0196496299743645,4.930858319091796
1758273319213954300,2.522954345703125,4.842572132873535,-7.095815170288086,4.993107562255859
1758273319223911200,2.5329111328125,4.875193130493164,-7.191283961486816,4.996249951934814
1758273319233869300,2.542869384765625,4.862922846984863,-7.415441091918945,5.004031107330322
1758273319243827500,2.552827392578125,4.8494554626464845,-7.505522929382324,5.073911868286133
1758273319253784000,2.5627841796875,4.742314938354492,-7.359775903320312,5.1800049293518065
1758273319263742200,2.5727421875,4.669591062927246,-7.165845568847656,5.30525160369873
1758273319273700400,2.582700439453125,4.687697212982178,-7.356633513641357,5.306149429321289
1758273319283657200,2.5926572265625,4.684854098510742,-7.1978680160522455,5.403413871765136
1758273319293615400,2.602615478515625,4.676175117492676,-7.031919913482666,5.402366408538818
1758273319303573200,2.6125732421875,4.7004164093017575,-6.88213267211914,5.242403810119629
1758273319313530000,2.622530029296875,4.713434880828857,-6.638073740386963,5.022286894989014
1758273319323488300,2.63248828125,4.597465737915039,-6.799831990051269,4.815188451385498
1758273319333445400,2.6424453125,4.3531075309753415,-6.928969242095947,4.754435584259033
1758273319343403300,2.6524033203125,3.987692502593994,-7.010821011352538,4.7283986412048336
1758273319353361200,2.662361083984375,3.562871345520019,-7.218218730163573,4.52653751373291
1758273319363318300,2.672318359375,3.0448259613037107,-7.157765138244629,4.326621675109863
1758273319373276200,2.682276123046875,2.4639327835083007,-6.801777278900146,4.196436959838867
1758273319383234300,2.692234375,1.9403508079528808,-6.22507395401001,3.2781109855651853
1758273319393191400,2.70219140625,1.8192939865112303,-5.376628740692138,4.017620023345947
1758273319403149000,2.712149169921875,1.1553519386291504,-4.417302062988281,5.467458766174316
1758273319413106200,2.722106201171875,0.7202057868957519,-3.9044939949035644,5.591657977294922
1758273319423064300,2.732064208984375,-0.6141127258300781,-3.7497687126159667,4.658368242645263
1758273319433022200,2.742022216796875,-1.6959926010131834,-4.697872570037841,3.99023634185791
1758273319442979300,2.751979248046875,-1.0160393295288086,-5.793818379974365,3.4097920768737793
1758273319452937500,2.7619375,0.3595791618347168,-6.95231270828247,3.3611598556518554
1758273319462895000,2.77189501953125,0.15442600708007811,-8.378658347320556,3.7427357452392576
1758273319472852200,2.781852294921875,-1.6178817718505858,-9.51964507598877,4.295048140716553
1758273319482810400,2.791810302734375,-3.540126429748535,-9.322871627044677,4.787655132293701
1758273319492767700,2.801767822265625,-2.62374574432373,-7.310545131683349,4.913649994659424
1758273319502726000,2.811725830078125,1.0013748443603514,-6.2675710334777825,4.4756607284545895
1758273319512683800,2.821683837890625,1.1234791290283201,-7.19502490158081,4.448875597381591
1758273319522640600,2.831640625,-0.9458592933654785,-8.978106587982177,3.8052842636108397
1758273319532598800,2.841598876953125,-1.4049474617004394,-9.764003282928467,3.2740707702636715
1758273319542556700,2.851556640625,-0.8096890739440917,-9.99833577041626,3.1747114013671873
1758273319552513800,2.861513671875,-1.0296563514709471,-9.486275890350342,3.901501242828369
1758273319562472000,2.871471923828125,-1.2226888603210448,-8.270619997406005,4.848407999420166
1758273319572428800,2.8814287109375,-1.163133094024658,-8.656385739898681,4.678868594360352
1758273319582386700,2.89138671875,-1.1227309410095214,-9.988459688568115,4.19479094619751
1758273319592344800,2.9013447265625,-0.23777415237426758,-10.486004721069335,4.452766175079345
1758273319602302000,2.911302001953125,-0.9849147079467773,-10.01659155807495,4.432714736175537
1758273319612259800,2.921259765625,-1.0735001693725585,-9.737218151855469,4.0349779853820795
1758273319622218000,2.931218017578125,-0.984465795135498,-8.908076189422607,3.8435914901733397
1758273319632174800,2.9411748046875,-0.7977180656433105,-8.138340355682372,3.640233986663818
1758273319642132700,2.9511328125,-0.7802104660034179,-8.073846548461914,3.3544261634826658
1758273319652089900,2.96108984375,-1.310077220916748,-8.016236071014404,3.227383837890625
1758273319662047700,2.9710478515625,-1.518821678161621,-7.5710641998291015,3.0678701522827145
1758273319672006000,2.981005859375,-1.2201450210571287,-7.29722738494873,3.1299697578430172
1758273319681962800,2.990962646484375,-0.6389525680541992,-6.7651160659790035,3.4056022239685055
1758273319691920600,3.000920654296875,-0.9834183319091796,-8.314014902496337,3.3825580329895018
1758273319701878800,3.010878662109375,-2.2424691299438475,-8.797942913055419,2.5948656867980957
1758273319711836000,3.0208359375,-2.4281693962097166,-9.799317757415771,2.3678654418945313
1758273319721793800,3.030793701171875,-0.9234136528015137,-11.482291886901855,2.774580448913574
1758273319731750700,3.040750732421875,-0.7609072151184082,-14.15407130203247,3.2493805656433103
1758273319741708800,3.050708740234375,-1.517026026916504,-15.41237391204834,3.7591958816528317
1758273319751666700,3.060666748046875,-3.0538042175292968,-14.732719915771483,4.4656350090026855
1758273319761623800,3.070623779296875,-3.358915291595459,-11.397297727966308,4.778976151275635
1758273319771582000,3.08058203125,-2.8585271446228027,-9.181464091491698,4.542399099731445
1758273319781539600,3.09053955078125,-2.194884371948242,-9.78779566192627,3.7110125732421873
1758273319791496700,3.10049658203125,-2.2590789039611816,-9.937882178497313,2.9104513931274414
1758273319801454800,3.110454833984375,-2.643647545623779,-10.020482135772705,2.431760698699951
1758273319811412700,3.120412841796875,-3.1010897003173827,-10.005219100189208,2.2233155166625975
1758273319821369900,3.130369873046875,-3.7600937072753906,-9.964966584777832,2.2138883476257325
1758273319831327700,3.14032763671875,-4.082113830566406,-10.219949061584472,2.2659622337341307
1758273319841284900,3.150284912109375,-3.9354689788818358,-10.467898571014404,2.3133973541259762
1758273319851242800,3.16024267578125,-3.9636008483886718,-10.69415062789917,2.6122236488342283
1758273319861201000,3.170200927734375,-4.4285248832702635,-11.03891566696167,2.768295669555664
1758273319871157800,3.18015771484375,-5.260210684967041,-11.36961477127075,2.907309003448486
1758273319881115600,3.19011572265625,-5.84828646774292,-11.667393602752686,3.0933085449218747
1758273319891072800,3.20007275390625,-4.602104503631591,-11.788600061798094,3.3916859268188473
1758273319901030700,3.21003076171875,-2.7252000396728513,-11.94586918334961,3.6233249374389644
1758273319910988800,3.21998876953125,-1.656039360809326,-11.959935118103026,3.948038537597656
1758273319920946000,3.22994580078125,-1.3301286598205566,-11.801468895721435,3.3774703544616695
1758273319930903600,3.239903564453125,-2.8930934310913083,-11.571775173950195,1.945288848876953
1758273319940861700,3.24986181640625,-3.650409343719482,-11.136180109405517,0.8110358123779297
1758273319950818800,3.25981884765625,-3.30714068069458,-10.645967319488525,0.6934206558227539
1758273319960776700,3.269776611328125,-3.6258687767028808,-10.168024813079834,1.2611457244873046
1758273319970733800,3.27973388671875,-3.5601778686523438,-9.566332008361815,0.5433341392517089
1758273319980691700,3.289691650390625,-4.564994377899169,-8.890718227386474,0.6087257720947266
1758273319990649600,3.299649658203125,-4.691138877868652,-8.8872765625,1.3111246841430664
1758273320000606700,3.309606689453125,-4.219181875610351,-9.037512716674804,2.024297503662109
1758273320010564900,3.31956494140625,-4.6161704383850095,-8.88144069595337,2.834734765625
1758273320020522800,3.329522705078125,-5.185990433502197,-8.760982424926757,3.552097438049316
1758273320030479600,3.339479736328125,-5.398176555633545,-8.723124111175537,3.7844846366882323
1758273320040437800,3.349437744140625,-4.759822537994385,-8.832060286712647,3.1010897003173827
1758273320050395000,3.359394775390625,-3.4549826332092284,-8.545205000305176,2.311900978088379
1758273320060352800,3.369352783203125,-2.8809727851867675,-8.074894011688231,1.439663385772705
1758273320070311000,3.379310791015625,-2.7919384109497067,-7.440879484558105,1.6888099960327148
1758273320080268000,3.38926806640625,-4.087949697113037,-6.841880156707763,1.6310498809814453
1758273320090225700,3.3992255859375,-5.345953031921386,-6.509086125946045,1.419761584472656
1758273320100183800,3.409183837890625,-5.36899722290039,-5.940163956451416,1.1680711349487305
1758273320110141000,3.419140869140625,-5.054010066986084,-5.683086553192139,0.8572738319396972
1758273320120098800,3.429098876953125,-5.067776726531982,-5.413140316009521,0.44412440795898434
1758273320130056000,3.439055908203125,-5.045181448364257,-5.163993705749512,0.1605611488342285
1758273320140013600,3.449013671875,-4.957344174957275,-5.073014042663574,-0.027383681488037107
1758273320149971700,3.4589716796875,-5.046079273986816,-5.186888259124755,-0.2563292152404785
1758273320159928800,3.4689287109375,-5.270236404418945,-5.4613236244201655,-0.273238264465332
1758273320169886700,3.47888671875,-5.428403351593017,-5.6091655769348145,-0.20739771881103514
1758273320179844900,3.488844970703125,-5.3095910942077635,-5.6857800300598145,-0.014814122772216796
1758273320189801700,3.4988017578125,-5.22863715057373,-5.904849481964111,0.19213468322753904
1758273320199759600,3.508759521484375,-5.19661470336914,-6.202927588653564,0.2919429649353027
1758273320209716700,3.518716796875,-5.246743300628662,-6.399551399993896,0.3173813575744629
1758273320219675000,3.5286748046875,-5.466860215759277,-6.658424454498291,0.21113865890502928
1758273320229632800,3.5386328125,-5.684582929229736,-6.9168485961914055,0.20066402664184568
1758273320239589600,3.548589599609375,-5.837063647460937,-7.028029335784912,0.46417584686279295
1758273320249547800,3.5585478515625,-6.082020404815673,-7.211335400390625,0.6075286712646484
1758273320259505000,3.5685048828125,-6.381145974731445,-7.267449501800536,0.9038111267089843
1758273320269462800,3.578462890625,-6.650194386291504,-6.938246773529053,0.9183259742736816
1758273320279421000,3.5884208984375,-7.086836914062499,-6.5859998542785645,-0.2255038688659668
1758273320289377800,3.598377685546875,-8.099733853912353,-6.369923154449462,-1.368136611175537
1758273320299335700,3.608335693359375,-9.061454733276367,-6.316951442718506,-2.163460475158691
1758273320309293800,3.6182939453125,-9.605088147735595,-6.366930402374267,-2.3542484199523925
1758273320319251000,3.6282509765625,-9.610175826263427,-6.484395921325683,-1.9283797996520995
1758273320329208800,3.638208740234375,-9.103353262329101,-6.673088939666748,-1.3115735969543456
1758273320339165700,3.648165771484375,-8.270919272613526,-6.881085208892822,-0.9476549446105956
1758273320349123800,3.658123779296875,-7.217470542144775,-6.757783823394775,-0.41464580001831053
1758273320359081700,3.668081787109375,-5.754014777374267,-6.252008722686767,0.031872809600830075
1758273320369038800,3.678038818359375,-3.3738790519714352,-5.239560695648193,-0.020949264526367185
1758273320378996700,3.687996826171875,-0.39369653549194333,-4.581903427124023,-0.965910732269287
1758273320388955000,3.697954833984375,1.0854711776733397,-5.52207649154663,-2.8275521606445313
1758273320398911700,3.707911865234375,1.5315408744812011,-9.908702845764159,-5.760000281524658
1758273320408869600,3.71786962890625,1.2639888389587401,-17.93286970977783,-7.5725605758666985
1758273320418826800,3.72782666015625,-5.38231496963501,-23.6095218460083,-3.5826235092163086
1758273320431275000,3.74027490234375,-12.303802331542968,-20.171448262023926,6.248267782592773
1758273320441232600,3.750232666015625,-10.496928266143799,-14.078205036926269,8.110507761383056
1758273320451189800,3.760189697265625,-2.2680571601867676,-8.743325187683105,3.8461353294372556
1758273320461148000,3.77014794921875,2.3075614875793455,-3.7096658348083493,0.48722003784179685
1758273320471104800,3.780104736328125,-0.8505401397705078,0.11162965240478515,-1.4068927505493163
1758273320481063000,3.79006298828125,-5.163245517730712,0.6227917068481444,-1.9704279663085937
1758273320491020800,3.800020751953125,-6.126313135528564,-0.9747393508911132,-0.948103857421875
1758273320500977400,3.809977294921875,-1.8032827629089354,-3.6578912239074706,1.0408791717529295
1758273320510935600,3.819935546875,1.8133084823608396,-6.474519839477539,3.270030554962158
1758273320520893700,3.829893798828125,1.5753846923828123,-8.89386061706543,4.838831192779541
1758273320530850600,3.8398505859375,-0.8572738319396972,-11.269507214355468,4.752340657806396
1758273320540808400,3.849808349609375,-4.133289891052246,-12.359018607330322,4.92816484222412
1758273320550765600,3.859765625,-4.125059822845459,-11.879879000091552,6.009745442199707
1758273320560723500,3.869723388671875,-2.5430910758972165,-11.56818387145996,5.277269371795654
1758273320570681600,3.879681640625,-2.558204473876953,-11.178078638458251,3.4065000495910644
1758273320580638700,3.889638671875,-3.0837317382812497,-10.711807865142822,1.6084546028137205
1758273320590596400,3.899596435546875,-3.31342546005249,-10.04262850112915,1.4598644622802734
1758273320600554500,3.909554443359375,-3.24967984085083,-9.767594585418701,1.6482582054138182
1758273320610511600,3.91951171875,-2.528276953125,-9.932495224761963,1.6666636306762694
1758273320620469500,3.929469482421875,-1.8160019592285155,-10.315268215179442,1.6719009468078612
1758273320630426600,3.939426513671875,-2.3412299484252928,-11.048043560791015,1.8869301834106444
1758273320640384500,3.949384521484375,-1.7559972801208494,-11.83603518218994,3.2604537483215332
1758273320650342400,3.95934228515625,0.07466916427612304,-12.723086897277831,4.912303256225585
1758273320660299500,3.969299560546875,0.6625953094482422,-12.610858694458008,6.480654981231689
1758273320670257700,3.979257568359375,-0.934037922668457,-12.345401585388183,7.1960723648071285
1758273320680214500,3.989214599609375,-3.1892262489318846,-12.34734687423706,7.18888975982666
1758273320690172400,3.99917236328125,-4.650437449645996,-12.65395432434082,7.239317632293701
1758273320700130600,4.009130615234375,-5.225045848083496,-12.629713032531738,6.7924997474670405
1758273320710087400,4.01908740234375,-6.283582257080078,-12.277765388488769,6.198288822937012
1758273320720045600,4.029045654296875,-7.162553541564941,-11.633425866699218,6.49935968170166
1758273320730003700,4.039003662109375,-5.802796636199951,-10.83466033782959,8.06337191619873
1758273320739960300,4.048960205078125,-3.712209674072265,-10.356119281005858,10.344297910308837
1758273320749918500,4.05891845703125,-1.965041012573242,-11.243619908905028,10.586261915588379
1758273320759875600,4.06887548828125,-1.0917559570312498,-12.422764226531982,8.250119645690917
1758273320769833500,4.07883349609375,-1.0269628746032715,-11.656769332885741,8.295759114837645
1758273320779791600,4.08879150390625,-1.4167688323974608,-10.298808078765868,8.068160319519043
1758273320789748500,4.09874853515625,-3.008164748382568,-9.34696328125,6.699275520324707
1758273320799706400,4.108706298828125,-5.4990323005676265,-8.764723365020751,4.854842416381835
1758273320809663500,4.11866357421875,-8.297854041290282,-7.671919944763183,2.9343934097290036
1758273320819621600,4.12862158203125,-10.670208611297607,-7.567622534942626,0.9886556480407714
1758273320829579500,4.13857958984375,-10.212018268585204,-8.021473387145996,-1.1531073745727538
1758273320839536400,4.148536376953125,-6.686107411193848,-7.783250321960449,-2.9082068290710446
1758273320849494500,4.15849462890625,-4.005948290252685,-7.023540207672118,-3.7042788810729976
1758273320859451600,4.16845166015625,-3.942501946258545,-5.5653217590332025,-3.464260164642334
1758273320869409500,4.178409423828125,-3.6917093223571773,-3.469647118377685,-1.7143980262756346
1758273320879367700,4.18836767578125,-2.62374574432373,-2.0302830078125,0.4547486778259277
1758273320889324500,4.198324462890625,-2.962974192047119,-2.2854151222229,0.7558195365905761
1758273320899282400,4.208282470703125,-1.0070610733032226,-2.3406313980102538,1.3111246841430664
1758273320909240600,4.218240478515625,1.2942156349182128,-2.058414877319336,1.9078794479370116
1758273320919197400,4.228197509765625,1.4921861846923827,-2.507028413391113,1.434575707244873
1758273320929155600,4.238155517578125,0.19093758239746092,-4.644601583099365,1.0586860466003418
1758273320939112400,4.248112548828125,-1.1133037719726562,-6.816890676879883,1.281945351409912
1758273320949070300,4.2580703125,-1.6246154640197752,-7.860612963104248,2.2201731269836427
1758273320959028500,4.268028564453125,-1.9105729248046874,-9.161263014984131,3.4599206741333006
1758273320968985600,4.277985595703125,-3.3496377601623535,-11.492766519165038,4.5994110267639154
1758273320978943500,4.287943603515625,-5.377526566314697,-14.978724136352538,5.678148512268066
1758273320988900400,4.297900390625,-6.011690731048583,-19.424606981658936,6.127510236358642
1758273320998858500,4.3078583984375,-5.341314266204834,-23.165547075653073,5.505167442321777
1758273321008816400,4.31781640625,-4.693084166717529,-25.14809568786621,4.225616292572021
1758273321018773500,4.3277734375,-5.021089794158935,-24.945037459564208,3.0336031410217283
1758273321028731600,4.337731689453125,-4.613476961517334,-23.56388237686157,2.9372365242004395
1758273321038689500,4.347689453125,-4.988917709350585,-21.04862389526367,2.980631429290771
1758273321048646400,4.357646484375,-5.390844313049316,-18.769044639587403,3.4126351913452146
1758273321058604500,4.3676044921875,-3.497180437469482,-18.000655544281006,2.910750668334961
1758273321068561700,4.377561767578125,-3.2831986640930175,-16.161160481262208,0.4026747917175293
1758273321078519600,4.38751953125,-3.8832454551696776,-14.379874446105957,2.3766940605163573
1758273321088477700,4.397477783203125,-4.2497079467773435,-14.776563733673095,3.8316204818725583
1758273321098434600,4.4074345703125,-5.2545244560241695,-14.561833772277831,3.3605613052368164
1758273321108392400,4.417392333984375,-4.726602989959717,-13.983634071350096,4.32198290939331
1758273321118349600,4.427349609375,-4.3448774627685545,-13.658172283172606,2.6987141838073727
1758273321128307500,4.437307373046875,-3.4766800857543942,-12.623428253173827,0.32935236587524414
1758273321138265600,4.447265625,-2.526481301879883,-10.868777711486816,-1.0218751960754393
1758273321148222500,4.457222412109375,-1.6929998489379883,-8.479963005065917,-1.598578520965576
1758273321158180400,4.467180419921875,-1.0200795448303221,-6.424690517425537,-1.4570213478088379
1758273321168137500,4.477137451171875,-1.202787059020996,-4.351760792541504,-2.7635072662353513
1758273321178095600,4.487095703125,-0.7537246101379395,-1.8421885398864746,-4.2700586608886715
1758273321188053500,4.497053466796875,-1.0726023437499999,1.110161382293701,-5.3013610260009765
1758273321198010400,4.50701025390625,-0.8845078758239746,3.271826206207275,-5.4044613349914545
1758273321207968500,4.516968505859375,-0.6021417175292968,4.833294601440429,-5.1325698089599605
1758273321217925600,4.526925537109375,-1.383399646759033,4.29055901260376,-5.7329158752441405
1758273321227883500,4.536883544921875,-2.252494849395752,2.760514514160156,-6.196942084503173
1758273321237841700,4.546841552734375,-2.127846725463867,1.9840449882507323,-4.862773209381103
1758273321247798500,4.556798583984375,-1.7943045066833494,1.359158354949951,-3.4103906272888183
1758273321257756400,4.56675634765625,-1.1566986770629881,0.3321954803466797,-2.6978163581848142
1758273321267714600,4.576714599609375,-0.2376245147705078,-1.2437877624511717,-2.544737089538574
1758273321277671700,4.586671630859375,-0.0026934768676757813,-3.2836475769042965,-1.999607299041748
1758273321287629600,4.596629638671875,-0.6477811866760254,-5.43947653427124,-1.3135188858032225
1758273321297586400,4.60658642578125,-2.8936919815063473,-7.467066065216064,-0.47420156631469723
1758273321307544600,4.616544677734375,-5.531802935791015,-9.267356076049804,1.094898346710205
1758273321317502500,4.62650244140625,-8.251466384124756,-9.780014506530762,1.3265373573303223
1758273321327459600,4.63645947265625,-11.34522384185791,-8.584559690093993,0.5984007774353027
1758273321337417700,4.646417724609375,-9.04035583114624,-6.707056675720215,0.9427169036865234
1758273321347374300,4.656374267578125,0.9618705169677734,-5.368548310089111,0.9792284790039062
1758273321357332500,4.66633251953125,9.041852207183837,-9.2573303565979,-2.8865093765258787
1758273321367290600,4.67629052734375,12.469750434112548,-14.073865546417235,-5.200654918670654
1758273321377247500,4.68624755859375,5.384559533691406,-11.321880375671386,-2.962974192047119
1758273321387205600,4.69620556640625,-2.680009483337402,-9.724199680328368,-2.532466806030273
1758273321397162500,4.70616259765625,-12.41692835998535,-11.201571742248534,-2.1703438049316404
1758273321407120400,4.716120361328125,-3.975422219085693,-12.325649421691894,-1.868075845336914
1758273321417078500,4.72607861328125,-1.174056639099121,-10.848576634979247,-2.136675344085693
1758273321427035600,4.73603564453125,-2.6946739685058594,-9.76774422302246,-2.009333743286133
1758273321436993500,4.74599365234375,3.7110125732421873,-9.748141696929931,-0.001496376037597656
1758273321446950400,4.755950439453125,9.380931017303466,-9.569025485229492,3.070114716339111
1758273321456908500,4.765908447265625,11.265616636657715,-11.122413449859618,5.677998874664306
1758273321466866400,4.775866455078125,8.84837078552246,-15.517120234680174,5.33083963394165
1758273321476823600,4.785823486328125,4.101267443847656,-19.08882019882202,3.922450507354736
1758273321486781700,4.79578173828125,1.986289552307129,-20.128651907348633,4.0261493667602535
1758273321496739000,4.805739013671875,-0.6664858871459961,-19.87337015533447,4.675127654266357
1758273321506696200,4.8156962890625,-6.019172611236572,-20.95195800323486,6.654084963989257
1758273321516654300,4.825654296875,-9.664943189239501,-22.085911764526365,8.494926765441894
1758273321526611500,4.835611572265625,-5.980566109466553,-20.794539244079587,8.88144069595337
1758273321536569300,4.8455693359375,-3.253420780944824,-19.387047943115235,6.329820276641845
1758273321546527200,4.85552734375,-4.190301818084716,-19.22858172073364,4.950909757995605
1758273321556484000,4.865484130859375,-5.735609352111816,-18.628086016845703,4.576516473388671
1758273321566442200,4.875442138671875,-6.3509191787719725,-17.229273696899412,3.4299931533813472
1758273321576399400,4.8853994140625,-7.17557201309204,-16.225055738067628,1.568052449798584
1758273321586357200,4.895357177734375,-8.831611373901367,-14.405163201141356,0.8785223716735839
1758273321596315100,4.905315185546875,-8.617479962921141,-12.855815451812743,0.29014731369018554
1758273321606272300,4.915272216796875,-7.679102549743652,-11.186757619476317,1.05973350982666
1758273321616230100,4.925230224609375,-9.279775997161865,-9.056067779541015,1.1694178733825682
1758273321626187300,4.935187255859375,-8.977508037567139,-7.823502837371826,0.7200561492919921
1758273321636145400,4.9451455078125,-6.738181297302246,-5.419574732971191,1.6549918975830078
1758273321646103000,4.95510302734375,-4.087201509094238,-3.749469437408447,2.8495488883972167
1758273321656060200,4.96506005859375,-2.5451860023498534,-3.6029742233276365,2.462436407470703
1758273321666018300,4.975018310546875,-1.1110592079162598,-3.207332398986816,2.485929511260986
1758273321675975400,4.984975341796875,0.022146365356445312,-3.1815947311401365,2.366069790649414
1758273321685933300,4.994933349609375,0.2150292366027832,-1.6121955429077148,3.393780853271484
1758273321695891200,5.00489111328125,-0.1352723937988281,-0.31259295425415035,4.271704674530029
1758273321705848300,5.014848388671875,-1.8013374740600585,-0.8132803764343262,4.541201998901367
1758273321715806200,5.02480615234375,-4.6909892402648925,-0.9304466201782225,5.187786084747314
1758273321725763300,5.034763427734375,-7.989750215148925,-1.3233949676513672,3.991583080291748
1758273321735721500,5.044721435546875,-7.5335051612854,-3.0343513290405273,0.16220716247558592
1758273321745679000,5.05467919921875,-4.411765471649169,-3.1878795104980466,-3.6924575103759762
1758273321755636200,5.06463623046875,-2.7760768249511716,-1.8914193115234375,-4.6155718879699705
1758273321765594400,5.074594482421875,-2.3995886138916016,-1.7028759307861328,-5.065831437683105
1758273321775551200,5.08455126953125,-1.9451392112731933,-2.7884967460632324,-5.48406854019165
1758273321785509400,5.09450927734375,-0.6531681404113769,-5.289390017700195,-5.03066660079956
1758273321795467300,5.10446728515625,0.14021043472290037,-9.879523513031005,-4.601505953216552
1758273321805424000,5.114424072265625,-0.513256980895996,-16.20305901031494,-3.403956210327148
1758273321815382300,5.12438232421875,-3.3358711006164548,-21.24734263305664,-1.0869675537109373
1758273321825339400,5.13433935546875,-5.853224508666992,-23.71621345748901,1.3639467582702636
1758273321835297300,5.14429736328125,-6.037578036499023,-25.14600076141357,2.2156839988708494
1758273321845255200,5.154255126953125,-5.05655390625,-27.191696442413328,1.3085808448791503
1758273321855212300,5.16421240234375,-4.452466899871826,-26.859800237274168,0.8777741836547851
1758273321865170200,5.174170166015625,-3.3592145668029785,-24.475474658966064,-1.2165537185668944
1758273321875127300,5.184127197265625,-3.5959412559509274,-22.08965270462036,-3.5781343811035153
1758273321885085400,5.19408544921875,-6.771101570129394,-20.522348442840574,-4.384830702972412
1758273321895043000,5.20404296875,-7.869890494537353,-18.29125177078247,-2.89219560546875
1758273321905000200,5.214000244140625,-6.185868901824951,-17.796699490356445,-0.2784755805969238
1758273321914958300,5.223958251953125,-5.475239921569824,-17.517625359344482,1.0384849700927734
1758273321924915200,5.233915283203125,-5.894225212097168,-16.944962249755857,1.2080243751525879
1758273321934873300,5.243873291015625,-5.3296425331115715,-16.347758573150635,2.270900274658203
1758273321944831200,5.253831298828125,-3.9921816307067868,-15.550040507507322,1.0664672019958497
1758273321954788000,5.2637880859375,-1.8631378044128417,-14.959570523071289,-0.39549218673706055
1758273321964746200,5.273746337890625,0.31064766540527344,-13.699322624206543,-1.2633902885437012
1758273321974704400,5.283704345703125,1.9394529823303222,-11.578957778930663,-2.3042694602966307
1758273321984661200,5.2936611328125,3.1356559867858884,-7.8800658515930175,-4.462043706512451
1758273321994619100,5.303619140625,1.792808130645752,-1.2641384765625,-6.347327876281738
1758273322004576300,5.313576171875,0.8545803550720215,3.275866421508789,-6.779032363128661
1758273322014534100,5.3235341796875,1.8831892433166504,7.361421916961669,-6.8822823097229
1758273322024491300,5.3334912109375,1.3826514587402343,11.69552547225952,-6.362441274261474
1758273322034449400,5.343449462890625,-1.0072107109069823,12.769923467254637,-7.0278796981811515
1758273322044407000,5.353406982421875,-1.2662334030151365,9.30207200012207,-7.3457099685668945
1758273322054364200,5.3633642578125,0.1261444999694824,5.501576139831543,-4.463390444946289
1758273322064322300,5.373322265625,1.8088193542480469,2.843713021850586,-1.8321628204345701
1758273322074279400,5.383279541015625,3.872770822906494,0.13901333389282225,-1.0316016403198243
1758273322084237300,5.3932373046875,4.733785594940185,-2.427271570587158,-0.7368155609130859
1758273322094195200,5.4031953125,4.900781160736083,-5.205144046783447,-1.0957961723327636
1758273322104152300,5.41315234375,2.996941928100586,-7.919420541381835,-2.0081366424560545
1758273322114110200,5.423110107421875,-1.2885294059753418,-10.417919611358641,-1.6422727012634277
1758273322124067300,5.4330673828125,-5.380519318389892,-13.73912622680664,-1.5891513519287108
1758273322134025200,5.443025146484375,-8.600570913696288,-15.481207209777832,-1.5493477493286132
1758273322143983400,5.4529833984375,-13.524096990203857,-14.123545230865478,-0.8454524612426757
1758273322153940200,5.462940185546875,-17.036241188049317,-11.572523361968994,-0.29134441452026366
1758273322163898000,5.472898193359375,-6.545298426055908,-8.79779327545166,-0.41853637771606444
1758273322173855200,5.482855224609375,10.31721350402832,-6.898742446136474,-1.8507178833007811
1758273322183813400,5.4928134765625,18.30965719604492,-6.085462069702148,-1.3944728294372557
1758273322193771300,5.502771240234375,12.973430608367918,-2.402282090759277,-0.3628711891174316
1758273322203728100,5.51272802734375,6.013486382293701,-0.738012661743164,-2.776376100158691
1758273322213686300,5.522686279296875,1.0582371337890624,-3.218405581665039,-4.402787215423584
1758273322223643400,5.532643310546875,-5.290886393737793,-6.512527790832519,-5.531054747772217
1758273322233601300,5.542601318359375,-2.2711995498657225,-12.348693612670898,-5.8919806480407715
1758273322243559400,5.552559326171875,3.3391631278991696,-17.162984238433836,-2.3089082260131835
1758273322253516300,5.562516357421875,10.296862789916991,-18.61641428375244,3.1775545158386227
1758273322263474200,5.57247412109375,6.589441519165039,-19.730466243743894,6.90098701019287
1758273322273431300,5.582431396484375,-0.22430676803588867,-21.93657343597412,4.848856912231445
1758273322283389400,5.592389404296875,-3.0584429832458495,-22.104466827392578,2.1868039413452145
1758273322293347300,5.602347412109375,-4.947168817901611,-20.030340001678464,0.7318775199890136
1758273322303304200,5.61230419921875,-7.699902176666259,-19.335422969818115,1.4155717315673828
1758273322313262300,5.622262451171875,-10.03050785522461,-19.5734963973999,1.617732134246826
1758273322323219200,5.63221923828125,-7.564480145263672,-18.599056321716308,0.48766895065307614
1758273322333177300,5.64217724609375,-2.8200702804565427,-17.261296144104,1.0438719238281249
1758273322343135200,5.65213525390625,-2.4467244590759276,-18.48832449493408,-0.44143093109130854
1758273322353092000,5.662092041015625,-5.166537545013427,-20.488829619598388,-2.0573674140930174
1758273322363050200,5.67205029296875,-6.303035145568847,-21.186440128326414,-0.6836942115783691
1758273322373007400,5.68200732421875,-8.062025177764893,-20.202872158813474,1.050156703186035
1758273322382965200,5.69196533203125,-11.03188269958496,-18.460192625427243,0.8393173194885254
1758273322392923400,5.70192333984375,-12.054356446075438,-17.49892065887451,0.5277718284606934
1758273322402880300,5.71188037109375,-10.085275218200684,-13.0106903717041,2.5219921737670896
1758273322412838100,5.721838134765625,-7.972242615509033,-9.72943699645996,1.796549070739746
1758273322422795300,5.731795166015625,-8.781033863830565,-7.309348030853271,1.248725803375244
1758273322432753400,5.74175341796875,-8.10182878036499,-5.382464607238769,1.1161468864440918
1758273322442711300,5.751711181640625,-5.827636478424072,-4.673481640625,2.0382138008117674
1758273322452668200,5.761668212890625,-3.885490019226074,-3.6975451889038085,3.5878608253479003
1758273322462626300,5.771626220703125,-1.8987515541076658,-3.5787329315185543,3.1850363960266113
1758273322472583200,5.781583251953125,0.3284545402526855,-3.4961329742431637,2.3856723167419434
1758273322482541300,5.791541259765625,1.8641852676391601,-1.6048633003234862,3.310133432769775
1758273322492499500,5.80149951171875,0.7618050407409668,0.12285247268676758,3.6468180412292477
1758273322502456300,5.811456298828125,-1.7510592391967772,0.42227731781005856,2.9474118812561034
1758273322512414500,5.82141455078125,-6.359747797393799,1.1780968544006347,3.8703766212463377
1758273322522371600,5.83137158203125,-9.708338094329834,1.2478279777526855,4.31554849243164
1758273322532329500,5.84132958984375,-6.59512774810791,-1.0063128852844239,1.5569792671203613
1758273322542287600,5.85128759765625,-4.138976119995117,-3.0538042175292968,-2.2539912254333494
1758273322552244500,5.861244384765625,-1.7063175956726073,-2.328510752105713,-2.6397569679260253
1758273322562202400,5.871202392578125,-0.43140521163940426,-1.7220295440673827,-2.5954642372131347
1758273322572159500,5.881159423828125,-0.48886605148315426,-2.067991683959961,-3.07714768371582
1758273322582117600,5.89111767578125,-2.872443441772461,-2.636016027832031,-3.454683358001709
1758273322592075500,5.901075439453125,-5.431246466064453,-4.064456593322753,-4.311657914733886
1758273322602032400,5.911032470703125,-6.23779315032959,-8.313565989685058,-5.555445677185058
1758273322611990500,5.920990478515625,-4.460098417663574,-19.629760136413573,-7.971344789886474
1758273322621947600,5.93094775390625,-5.851279219818115,-29.82666500701904,-7.002740580749511
1758273322631905500,5.940905517578125,-8.72072990951538,-34.30471993713379,-3.5901053894042967
1758273322641863700,5.95086376953125,-8.974814560699462,-36.72974694366455,1.5511434005737303
1758273322651820500,5.960820556640625,-4.7110406791687005,-36.39141632156372,5.220855995178223
1758273322661778400,5.9707783203125,-2.9288568183898924,-28.54322327957153,4.4376527770996095
1758273322671735600,5.980735595703125,-6.147561675262451,-20.083610988616943,0.6634931350708008
1758273322681693400,5.990693359375,-7.710975359344482,-17.56416265411377,-1.4006079711914061
1758273322691651600,6.000651611328125,-4.646546871948242,-18.01098053894043,-1.3507786491394043
1758273322701608400,6.0106083984375,-1.9731214431762694,-18.248455416107177,-2.66205297088623
1758273322711566300,6.02056640625,-2.612522924041748,-17.325041763305663,0.679953271484375
1758273322721523500,6.0305234375,-2.2049100914001465,-17.7102089553833,3.656993398284912
1758273322731481600,6.040481689453125,-1.137096150970459,-18.160917417907715,3.8066310020446776
1758273322741438500,6.0504384765625,-0.419434203338623,-16.960225285339355,4.106504759979248
1758273322751396400,6.060396240234375,1.4975731384277342,-15.76297481765747,2.218527113342285
1758273322761354500,6.0703544921875,2.709338453674316,-13.785813159179687,-1.756446192932129
1758273322771311600,6.0803115234375,3.0521582038879393,-9.046191697692871,-4.890755441284179
1758273322781269500,6.09026953125,3.121290776824951,-2.484133860015869,-5.313930584716797
1758273322791226400,6.100226318359375,2.6581623931884764,3.1604958290100096,-7.562983769226074
1758273322801184500,6.1101845703125,0.9476549446105956,8.603114752960204,-9.419088606262207
1758273322811142400,6.120142333984375,1.073799444580078,13.058873680114745,-9.37853681564331
1758273322821099500,6.130099609375,1.871816785430908,13.401693430328368,-8.055441123199463
1758273322831057700,6.1400576171875,2.1206641204833985,9.92680899581909,-4.621108479309082
1758273322841014300,6.15001416015625,1.811213555908203,6.928221054077148,-1.16193599319458
1758273322850972400,6.159972412109375,2.2999299697875975,4.6155718879699705,1.1646294700622557
1758273322860930600,6.1699306640625,3.3215058906555175,2.194734734344482,1.8683751205444334
1758273322870887400,6.179887451171875,3.17935016708374,-0.3520972816467285,1.6952444129943847
1758273322880845600,6.189845458984375,2.6131214744567868,-3.2148142791748047,1.1397896278381348
1758273322890802400,6.199802490234375,0.23178864822387693,-6.528539014434814,1.0761936462402344
1758273322900760300,6.20976025390625,-3.7672763122558592,-10.615890161132812,1.9490297889709471
1758273322910718500,6.219718505859375,-7.7120228225708,-14.84883869628906,2.6228479187011717
1758273322920675600,6.229675537109375,-12.491298249053955,-17.98464432067871,1.756446192932129
1758273322930633500,6.239633544921875,-21.532701543426512,-17.2635407081604,0.4483142608642578
1758273322940590300,6.24959033203125,-25.788245356750487,-12.076053898620605,1.3564648780822752
1758273322950548500,6.259548583984375,-3.939658831787109,-3.2787095359802243,3.675398823547363
1758273322960506400,6.26950634765625,14.640393514251707,3.7657799362182613,4.575319372558593
1758273322970463500,6.27946337890625,26.62950796508789,6.555324145507812,5.297919361114501
1758273322980421600,6.289421630859375,36.4707242515564,5.124639015960693,1.6166846710205076
1758273322990378500,6.29937841796875,14.928894814300536,-1.0384849700927734,-5.097704247283935
1758273323000336400,6.30933642578125,-12.014253568267822,-11.881824288940429,-12.208632815551757
1758273323010293500,6.31929345703125,-44.540380947113036,-31.789311817932127,-20.718822616577146
1758273323020251400,6.32925146484375,16.34506509628296,-28.55160298538208,-5.909039334869385
1758273323030209500,6.33920947265625,20.814889958190918,-28.029367748260498,-3.2065842109680176
1758273323040166400,6.34916650390625,7.504924378967285,-17.29406677932739,9.447669388580321
1758273323050124300,6.359124267578125,-2.6349685646057126,-13.006201243591308,13.784316783142089
1758273323060081400,6.369081298828125,-3.920654856109619,-12.514791352844238,15.160683462524414
1758273323070039600,6.37903955078125,-1.4770727867126463,-13.314155432128905,8.68317087097168
1758273323079997400,6.38899755859375,0.0005985504150390625,-17.84443388595581,1.128716445159912
1758273323089954600,6.39895458984375,-1.025316860961914,-23.370700230407714,-0.23567922592163085
1758273323099912400,6.408912353515625,-4.854992053985596,-27.63193027267456,0.39145197143554683
1758273323109869600,6.41886962890625,-4.987870246124268,-25.82370946884155,2.8932430686950683
1758273323119827500,6.428827392578125,-4.229357232666016,-22.14741281967163,6.5291375648498535
1758273323129785600,6.43878564453125,-7.170185059356689,-21.36810017929077,7.5445783439636225
1758273323139742700,6.44874267578125,-12.218359259796141,-22.111799069976804,7.272537180328369
1758273323149700400,6.458700439453125,-13.920786277770995,-20.775684906005857,6.791601921844482
1758273323159657500,6.468657470703125,-13.5983172416687,-17.069161460876465,5.62502716293335
1758273323169615600,6.47861572265625,-13.696030596923828,-14.603433026123046,3.19236863861084
1758273323179573500,6.488573486328125,-11.937938390350341,-12.469750434112548,1.4176666580200195
1758273323189530600,6.498530517578125,-9.53745195083618,-10.08108536529541,1.4312836799621582
1758273323199488500,6.508488525390625,-7.247248425292969,-8.673294789123535,-0.4240729690551758
1758273323209445400,6.5184453125,-6.972364147186279,-6.6524389503479,-1.9758149200439452
1758273323219403500,6.528403564453125,-7.083395249176025,-4.661510632324219,-2.912695957183838
1758273323229360600,6.538360595703125,-6.496366929626465,-3.416974681854248,-3.878606689453125
1758273323239318500,6.548318603515625,-4.496909268188476,-2.4875755249023435,-2.961477816009521
1758273323249276400,6.5582763671875,-1.631199518585205,-2.6050410438537597,-0.9145850341796874
1758273323259233500,6.568233642578125,-1.5260042831420897,-2.280327443695068,0.44861353607177734
1758273323269191400,6.57819140625,-1.036090768432617,-0.9897031112670898,1.5650596977233886
1758273323279148500,6.5881484375,-0.8756792572021483,0.2680009483337402,3.290979819488525
1758273323289106700,6.598106689453125,-2.6795605705261227,0.42796354675292964,4.656722229003906
1758273323299064300,6.608064208984375,-3.42176308517456,0.29239187774658204,4.5039422355651855
1758273323309021400,6.618021484375,-3.8509237327575683,0.4745008415222168,2.5321675308227536
1758273323318979600,6.6279794921875,-2.845658310699463,-0.10115502014160156,-0.481384171295166
1758273323328936700,6.637936767578125,-0.9187748870849609,-0.8952817832946777,-2.172588368988037
1758273323338894600,6.64789453125,1.8032827629089354,-1.5485995613098145,-3.501968840789795
1758273323348852500,6.6578525390625,2.2569839775085447,-2.529922966766357,-6.171354054260253
1758273323358809300,6.667809326171875,-0.40836102066040036,-3.201197257232666,-6.998101815032959
1758273323368767500,6.677767578125,-2.1122844146728514,-3.763685009765625,-5.951087501525879
1758273323378724600,6.687724609375,-2.1580735214233395,-6.046556292724609,-5.420023645782471
1758273323388682500,6.6976826171875,-3.4983775382995606,-10.065523054504395,-3.8908769729614257
1758273323398639400,6.707639404296875,-5.633706143951415,-16.639252625274658,-1.776048719024658
1758273323408597500,6.717597412109375,-7.950694800567627,-25.64100195465088,-1.0046668716430665
1758273323418555400,6.727555419921875,-10.675595565032959,-33.34793709869385,0.08813654861450194
1758273323428512500,6.737512451171875,-10.976367148590088,-37.75700909347534,3.709965110015869
1758273323438470700,6.747470703125,-8.06322227859497,-33.713202489471435,5.843049151611328
1758273323448427500,6.757427490234375,-4.698620758056641,-24.94907767486572,2.225111167907715
1758273323458385400,6.767385498046875,-4.995801039123535,-18.962526061248777,-1.43008657913208
1758273323468343600,6.777343505859375,-6.086659170532227,-16.200215895843506,-2.4601918434143064
1758273323478300700,6.78730078125,-5.122993002319336,-18.00230155792236,-0.5799953521728515
1758273323488258600,6.797258544921875,-4.377648097991943,-19.506907663726807,2.3665187034606934
1758273323498215400,6.80721533203125,-5.208136798858642,-17.8749599571228,2.714575769805908
1758273323508173600,6.817173583984375,-3.857358149719238,-17.61937892990112,3.9891888786315914
1758273323518131500,6.82713134765625,-2.4247277313232423,-16.824055065917968,5.964255610656738
1758273323528088600,6.837088623046875,-0.709880792236328,-15.534627834320068,6.980594215393066
1758273323538046700,6.847046630859375,0.5199906730651855,-13.810054450988769,3.347093920898437
1758273323548003300,6.85700341796875,1.164479832458496,-10.238055211639404,0.5009866973876953
1758273323557961500,6.86696142578125,2.1526865676879883,-5.506514180755615,0.30256723480224607
1758273323567918600,6.876918701171875,3.184587483215332,-1.530942324066162,-1.581370196533203
1758273323577876500,6.88687646484375,3.088819416809082,2.105700360107422,-6.258892052459716
1758273323587834600,6.896834716796875,2.7246014892578123,6.08411533126831,-9.03362213897705
1758273323597791500,6.90679150390625,2.140117008972168,8.895805905914306,-8.997858751678466
1758273323607749400,6.916749267578125,1.2817957138061522,9.337685749816893,-7.025635134124755
1758273323617706500,6.92670654296875,0.9828197814941406,6.91400548171997,-4.170699291992188
1758273323627664600,6.93666455078125,1.5554828910827636,4.112190988922119,-1.9410989959716796
1758273323637622500,6.94662255859375,2.676268543243408,1.2116156776428222,-0.7875427085876464
1758273323647579400,6.956579345703125,4.21364528427124,-1.8798972160339353,-1.082777700805664
1758273323657537500,6.96653759765625,4.839878656005859,-4.424933580780029,-1.377713417816162
1758273323667494700,6.97649462890625,4.914098907470703,-6.5114803276062005,-1.6042647499084473
1758273323677452500,6.98645263671875,3.7729625411987304,-8.843283106994628,-1.6587328376770019
1758273323687410700,6.99641064453125,1.3883376876831053,-10.570101054382324,-0.8981248977661133
1758273323697367600,7.006367431640625,-2.562095051574707,-11.34492456665039,0.12105682144165038
1758273323707325400,7.016325439453125,-7.851634706878662,-12.41109249343872,-1.1982979309082031
1758273323717282600,7.026282470703125,-13.55971073989868,-11.615020441436767,-2.8583775070190427
1758273323727240400,7.036240478515625,-16.696863102722165,-7.719504702758789,-1.1876736610412597
1758273323737197300,7.046197265625,-5.575946028900146,-1.897404815673828,-0.061650692749023434
1758273323747155500,7.056155517578125,7.510311332702636,-0.7326257080078125,-2.747047129821777
1758273323757113300,7.06611328125,15.803227333068847,-6.26308190536499,-5.972036766052246
1758273323767070500,7.076070556640625,16.275483610534668,-9.788992762756347,-4.318541244506836
1758273323777028600,7.086028564453125,5.9570730056762695,-10.383203687286377,-2.443432431793213
1758273323786985500,7.0959853515625,-14.247445166778563,-11.681309899902343,1.1198878265380858
1758273323796943400,7.105943359375,-0.3724479957580566,-14.146888697052,9.482534950256348
1758273323806901500,7.115901611328125,11.24332063369751,-18.18755291137695,10.934019706726074
1758273323816858600,7.125858642578125,6.900089184570312,-15.43033042449951,9.705494979858399
1758273323826816500,7.13581640625,-1.284489190673828,-12.439224362945556,6.830058786010742
1758273323836773400,7.1457734375,-4.532074105072021,-13.30472826309204,3.770418701934814
1758273323846731500,7.1557314453125,2.363525951385498,-16.268899555969238,-0.8267477607727051
1758273323856688400,7.1656884765625,2.3382371963500974,-20.80561242675781,-0.7077858657836914
1758273323866646500,7.175646484375,-2.7033529495239255,-25.279028591156003,1.2219406723022461
1758273323876604700,7.185604736328125,-8.921842848968506,-25.164106911468505,3.416226493835449
1758273323886561300,7.195561279296875,-11.462090810394287,-23.456891490173337,5.091868380737305
1758273323896519400,7.20551953125,-7.5335051612854,-22.432921367645264,5.829432129669189
1758273323906476500,7.2154765625,-3.538929328918457,-22.456414471435547,5.168183558654785
1758273323916434400,7.225434326171875,-5.293130957794189,-22.117784574127196,3.8289270050048825
1758273323926392600,7.235392578125,-8.810662109374999,-19.373879833984375,2.7884967460632324
1758273323936349400,7.245349365234375,-12.639888389587401,-14.553902979278563,1.285835929107666
1758273323946307300,7.255307373046875,-16.45864003753662,-11.020959154510498,-1.7090110725402832
1758273323956264400,7.265264404296875,-13.93784496459961,-9.548375495910644,-3.867084593963623
1758273323966222600,7.27522265625,-7.7976155319213865,-8.053346196746826,-3.5290532470703124
1758273323976180500,7.285180419921875,-5.466860215759277,-6.9798460273742675,-2.242918042755127
1758273323986137300,7.295137451171875,-5.44546203842163,-6.424391242218017,-0.7891887222290038
1758273323996095500,7.305095458984375,-4.727351177978515,-5.700145240020752,1.6729484100341796
1758273324006052600,7.315052490234375,-1.7770961822509765,-4.755782322692871,3.9867946769714355
1758273324016010500,7.325010498046875,-0.5711667335510253,-4.403834678649902,4.682609534454345
1758273324025968600,7.33496875,-3.3583167411804196,-2.9810803421020506,4.023605527496338
1758273324035925500,7.344925537109375,-4.368370566558838,-1.1047744285583496,3.76024334487915
1758273324045883400,7.35488330078125,-2.870348515319824,-0.5705681831359863,4.229057957458496
1758273324055840500,7.364840576171875,-2.176329309082031,-0.6398503936767578,4.052485585021972
1758273324065798400,7.37479833984375,-3.3611598556518554,0.17178396911621094,3.685723818206787
1758273324075755500,7.384755615234375,-5.3573254898071285,1.2464812393188476,3.517082238769531
1758273324085713400,7.39471337890625,-6.065859543609619,1.5336358009338378,2.4595932929992674
1758273324095671300,7.40467138671875,-2.588281632232666,0.6004957038879394,-0.05746083984375
1758273324105628400,7.41462841796875,0.9124901077270507,-0.370951619720459,-2.4814403831481933
1758273324115586600,7.424586669921875,2.5219921737670896,-1.1801917808532714,-5.707926395416259
1758273324125543700,7.434543701171875,1.7037737564086912,-2.2840683837890623,-6.880037745666503
1758273324135501300,7.444501220703125,-0.8251017471313477,-3.69036258392334,-5.3938370651245116
1758273324145459500,7.45445947265625,-1.7949030570983886,-7.32296505279541,-4.161571398162842
1758273324155416600,7.46441650390625,-1.352275025177002,-19.372084182739258,-3.4632127014160154
1758273324165374500,7.47437451171875,0.6681319007873535,-30.622886696624754,-3.1651345947265623
1758273324175331600,7.48433154296875,1.6653168922424315,-31.014189030456542,-3.294421484375
1758273324185289500,7.49428955078125,-2.8516438148498535,-31.35925334472656,-4.100519255828857
1758273324195246300,7.504246337890625,-15.052196199798583,-34.62943353729248,-2.592920397949219
1758273324205204500,7.51420458984375,-13.266869949340819,-33.68417279434204,-1.374571028137207
1758273324215162600,7.52416259765625,-7.356483876037597,-26.83436184463501,1.2217910346984862
1758273324225119500,7.534119384765625,-4.114435552978516,-20.10321351470947,1.8583494010925292
1758273324235077400,7.544077392578125,-3.3481413841247556,-17.079636093139648,-0.2614168937683105
1758273324245034500,7.554034423828125,-3.9782653335571285,-17.328333790588378,2.3696610931396482
1758273324254992400,7.563992431640625,-3.282151200866699,-17.37098050765991,4.646696509552002
1758273324264950500,7.573950439453125,-4.318092331695556,-16.647781968688964,3.9221512321472165
1758273324274907600,7.58390771484375,-3.8447885910034176,-17.042974880218505,4.8519993019104
1758273324284865300,7.593865234375,-1.1469722328186034,-15.872509543609619,7.539191390228271
1758273324294822400,7.603822509765625,0.7392097625732421,-14.470105921173095,8.737190045928955
1758273324304780500,7.613780517578125,3.312677272033691,-12.936170845031738,5.839906761932372
1758273324314737700,7.623737548828125,3.6236242126464844,-7.670722843933105,3.023577421569824
1758273324324695600,7.633695556640625,4.075679413604736,-0.9910498497009277,1.6753426116943357
1758273324334653400,7.6436533203125,4.592527696990967,4.0909424491882325,-1.7133505630493162
1758273324344610600,7.653610595703125,1.082777700805664,8.81709652633667,-7.324012516021728
1758273324354568400,7.663568359375,-3.5048119552612302,11.4784013092041,-12.718597769165038
1758273324364525600,7.673525634765625,-5.331887097167969,11.948712297821045,-14.35892518157959
1758273324374483700,7.683483642578125,-6.293159063720703,10.090213259124756,-10.861445468902588
1758273324384441600,7.693441650390625,-4.154239155578613,7.375338214111328,-5.6383449096679685
1758273324394398500,7.7033984375,0.9603741409301757,5.017498491668701,-1.8133084823608396
1758273324404356400,7.7133564453125,5.331438184356689,2.3027730842590333,0.328155265045166
1758273324414313500,7.7233134765625,5.6115597785949705,-0.7570166374206543,1.0393827957153319
1758273324424271600,7.733271728515625,3.5797803947448728,-4.465784646606445,1.0660182891845702
1758273324434228500,7.743228515625,1.537975291442871,-8.99531491241455,1.4203601348876953
1758273324444186400,7.753186279296875,-0.608426496887207,-13.708151242828368,1.4873977813720702
1758273324454144500,7.76314453125,-2.231246309661865,-17.285836711120606,0.9398737892150878
1758273324464101600,7.7731015625,-4.189104717254638,-17.64616406097412,-0.049530046844482416
1758273324474059500,7.7830595703125,-6.450428185272217,-13.551929584503172,-1.6798317398071287
1758273324484016400,7.793016357421875,-7.819911534881592,-7.394192552185058,-1.6762404373168944
1758273324493974500,7.802974609375,-7.519289588928222,-2.4353520011901852,-1.7114052742004393
1758273324503932400,7.812932373046875,-1.516277838897705,2.0020015007019043,-0.6573579933166503
1758273324513889500,7.8228896484375,5.388599748992919,1.7108067237854003,-0.8212111694335937
1758273324523847700,7.83284765625,13.268665600585937,-5.307795442962647,-2.061557266998291
1758273324533804500,7.842804443359375,22.469283305358886,-10.94853455429077,0.25842414169311523
1758273324543762400,7.852762451171875,12.332532751464843,-11.437699880981445,0.8970774345397948
1758273324553719600,7.862719482421875,-9.005789544677734,-13.098826920318603,2.910601030731201
1758273324563677400,7.872677490234375,-12.396128733062744,-19.788226358795164,9.284265125274658
1758273324573635600,7.882635498046875,4.097975416564942,-23.457340402984617,4.046799356079101
1758273324583592700,7.8925927734375,3.526659045410156,-17.980753742980955,3.5531449012756346
1758273324593550300,7.90255029296875,-1.313967798614502,-11.641955210113524,5.06942274017334
1758273324603507500,7.912507568359375,3.0163948165893553,-9.567080196380614,2.460042205810547
1758273324613465600,7.922465576171875,4.635772964477539,-11.571475898742674,0.22340894241333006
1758273324623423500,7.932423583984375,3.7063738075256345,-18.044648999786375,-1.6793828269958495
1758273324633380600,7.942380615234375,-0.14006079711914063,-25.037663136291503,-1.7381904052734374
1758273324643338500,7.95233837890625,-11.673678382110594,-27.767352304077146,1.0313023651123046
1758273324653295600,7.962295654296875,-14.719851081848145,-26.51922505111694,5.557989516448974
1758273324663253500,7.97225341796875,-6.804620393371581,-24.562264469146726,9.226205735015869
1758273324673210600,7.982210693359375,-3.5015199279785154,-23.120655794525145,10.954220783233643
1758273324683168800,7.992168701171875,-5.234323379516601,-22.01393607711792,9.925611894989013
1758273324693126400,8.00212646484375,-10.434978298187255,-19.801693743133544,7.129034718322753
1758273324703083500,8.01208349609375,-13.238887717437743,-14.588020352935791,4.612130223083496
1758273324713041700,8.022041748046876,-12.126032858276366,-10.04217958831787,1.393724641418457
1758273324722998500,8.03199853515625,-7.458985634613037,-7.85941586227417,-1.6353893714904784
1758273324732956700,8.041956787109376,-4.440046978759765,-6.922534825134277,-2.1152771667480468
1758273324742914600,8.05191455078125,-6.285078633117675,-6.406734004974365,-2.2459107948303223
1758273324752871400,8.061871337890626,-4.24551809387207,-5.5912090644836425,-1.6898574592590332
1758273324762829600,8.07182958984375,-3.3354221878051757,-4.135833730316162,-2.0374656127929685
1758273324772786700,8.08178662109375,-3.665822016906738,-3.72852017288208,-3.2577602714538574
1758273324782744600,8.09174462890625,-2.0925322509765625,-4.008043216705322,-3.0623335609436033
1758273324792701400,8.101701416015626,-1.0627262619018554,-2.666242823791504,-0.14888941574096679
1758273324802659600,8.11165966796875,-2.101061594390869,-1.9604022468566893,1.405845287322998
1758273324812617500,8.121617431640624,-2.249651734924316,-1.2298714653015137,1.8824410552978514
1758273324822574600,8.13157470703125,-3.4000656326293943,-0.9304466201782225,2.807351084136963
1758273324832532700,8.14153271484375,-5.451447542572021,-0.6172551155090331,3.6929064231872557
1758273324842489600,8.151489501953124,-6.421847402954101,-0.1384147834777832,3.905391820526123
1758273324852447500,8.161447509765624,-7.012467024993896,-0.7589619262695312,2.324320899200439
1758273324862404600,8.171404541015624,-4.128800762939453,-2.0133739585876462,-0.8436568099975585
1758273324872362500,8.181362548828124,0.27174188842773433,-1.6775871757507324,-1.4673463424682616
1758273324882320600,8.191320556640624,2.5201965225219727,-1.7853262504577636,-0.8327332649230956
1758273324892277500,8.201277587890624,2.321477784729004,-2.4000375267028806,-1.1020809516906738
1758273324902235400,8.2112353515625,0.32935236587524414,-4.798429039764404,-2.0198083755493164
1758273324912192500,8.221192626953124,-0.7722796730041503,-9.642347911071777,-2.5629928771972654
1758273324922150700,8.231150634765624,-0.9615712417602539,-15.235801539611815,-2.7144261322021483
1758273324932108500,8.241108642578125,-0.5144540817260742,-19.766678543853757,-2.0591630653381348
1758273324942065400,8.2510654296875,-2.3943512977600094,-23.503129509735107,-0.6449380722045898
1758273324952023600,8.2610234375,-7.090428216552734,-25.253440560913084,0.9615712417602539
1758273324961980700,8.270980712890625,-9.76160908126831,-26.816255694580075,1.9638439117431639
1758273324971938600,8.2809384765625,-8.594286134338379,-27.052533470916746,2.8043583320617675
1758273324981895400,8.2908955078125,-6.503699172210693,-25.65910810470581,1.543661520385742
1758273324991853600,8.300853515625,-0.43574470214843747,-25.910798554229736,-3.60072965927124
1758273325001811500,8.3108115234375,-0.017657237243652344,-24.24114217147827,-4.887164138793945
1758273325011768600,8.3207685546875,-3.2517747673034667,-20.495563311767576,-4.069095359039307
1758273325021726700,8.330726806640625,-4.066401882171631,-17.820042956542967,-2.276586503601074
1758273325031683300,8.340683349609375,-3.6309564552307125,-17.255759552764893,0.40506899337768554
1758273325041641500,8.350641357421875,-3.342904067993164,-17.5807724281311,1.8327613708496093
1758273325051598600,8.3605986328125,-2.0519804603576657,-17.231667898559568,3.6638767280578612
1758273325061556500,8.370556396484375,-0.9539397239685058,-16.300473090362548,5.322310290527343
1758273325071514600,8.3805146484375,-0.5572504364013672,-15.758934602355955,6.1741971687316894
1758273325081471500,8.390471435546875,0.7951742263793945,-14.663138430023192,4.984129306030273
1758273325091429400,8.400429443359375,2.4563012657165526,-11.183166316986084,1.62147307434082
1758273325101386500,8.410386474609375,3.292326557922363,-4.446930308532715,-0.9157821350097656
1758273325111344600,8.4203447265625,4.696974744415283,1.2395979095458984,-2.038662713623047
1758273325121302500,8.430302490234375,4.37974302444458,5.291335306549072,-4.905270288848877
1758273325131259400,8.44025927734375,0.9382277755737304,7.9557824790954585,-9.221566969299316
1758273325141217500,8.450217529296875,-0.7697358337402344,9.631424365997313,-10.564863738250732
1758273325151174700,8.460174560546875,-1.9295769004821777,9.59521206588745,-8.161683821868897
1758273325161132500,8.470132568359375,-2.551919694519043,7.204152795410156,-4.525490050506591
1758273325171089700,8.480089599609375,-1.726369034576416,4.516212519073486,-1.7886182777404784
1758273325181047600,8.490047607421875,-0.3232172241210937,2.1308394775390624,-0.12823942642211913
1758273325191005400,8.50000537109375,0.9400234268188477,-0.5208884986877441,0.639700756072998
1758273325200962600,8.509962646484375,1.5055039314270018,-3.586813362121582,0.8233060958862304
1758273325210920400,8.51992041015625,1.0990881996154784,-6.988973921203613,0.9512462471008301
1758273325220877600,8.529877685546875,-1.9225439331054686,-10.707767649841308,0.7330746208190918
1758273325230835500,8.53983544921875,-6.5309332160949705,-15.179986713409424,0.8135796516418456
1758273325240792600,8.54979248046875,-10.74577560119629,-17.768417983245847,0.23253683624267577
1758273325250750500,8.55975048828125,-14.221857136535643,-15.417012677764891,-0.2888005752563476
1758273325260708600,8.56970849609375,-17.680730347442626,-11.316044509124755,0.6938695686340332
1758273325270665700,8.579665771484375,-7.021445281219482,-5.206939698028564,2.927061167144775
1758273325280623400,8.589623291015625,9.490316105651855,-1.1029787773132325,1.4223054237365722
1758273325290580500,8.59958056640625,19.4340341506958,-4.998045603179931,-3.6168905204772948
1758273325300538600,8.60953857421875,25.06474754257202,-6.9792474769592285,-3.104531365203857
1758273325310496500,8.61949658203125,11.241375344848633,-4.063708405303955,-1.3048399047851562
1758273325320453600,8.62945361328125,5.751321300506591,-7.525574368286132,-3.8839936431884765
1758273325330411500,8.63941162109375,-4.765508766937256,-11.194089862060546,-2.701856573486328
1758273325340368400,8.649368408203125,-11.135581558990477,-17.30798307647705,-3.174412126159668
1758273325350326500,8.659326416015626,7.850437606048583,-20.69218712310791,0.06479308242797852
1758273325360283600,8.66928369140625,4.750245731353759,-18.580800534057616,4.812494974517822
1758273325370241500,8.679241455078126,4.396652073669434,-17.470040601348877,5.0583495574951165
1758273325380199400,8.689199462890626,4.707449376678467,-17.095647316741942,3.4029087471008297
1758273325390156500,8.699156494140626,2.5815479400634764,-19.479075069427488,1.9572598571777342
1758273325400114400,8.709114501953126,0.7143699203491211,-22.299444625091553,1.3835492843627928
1758273325410071600,8.719071533203126,-2.929156093597412,-23.178565547180174,1.759588582611084
1758273325420029700,8.72902978515625,-9.931447761535644,-22.15444578704834,3.9502831016540525
1758273325429986600,8.738986572265626,-12.607566667175293,-20.477457161712646,6.987028632354736
1758273325439944400,8.7489443359375,-7.14384884109497,-19.615095651245117,10.188674802398682
1758273325449902600,8.758902587890624,-2.3499089294433593,-19.653253240203856,10.95571715927124
1758273325459859700,8.768859619140626,-5.472396807098388,-18.83323917160034,8.575282158660888
1758273325469817600,8.778817626953124,-12.148478498840332,-14.972289719390869,6.917147871398925
1758273325479774500,8.7887744140625,-16.499940016174314,-10.068964719390868,5.632209767913818
1758273325489732600,8.798732666015624,-14.059949249267577,-7.378929516601562,3.070413991546631
1758273325499689200,8.808689208984376,-8.498966980743408,-7.583184845733642,1.2662334030151365
1758273325509647400,8.8186474609375,-4.633827675628662,-8.001721223449707,1.1480196960449218
1758273325519605500,8.82860546875,-3.789572315216064,-6.984634430694579,1.513584362030029
1758273325529562400,8.838562255859374,-4.580706326293945,-6.239439163970947,2.403628829193115
1758273325539520300,8.848520263671874,-5.764190134429931,-7.192780337524414,1.11075993270874
1758273325549477400,8.858477294921874,-5.59943913269043,-7.213879239654541,-1.0935516082763672
1758273325559435300,8.868435302734374,-6.177489196014404,-5.185541520690918,-2.038513076019287
1758273325569392400,8.878392333984374,-4.342333623504638,-3.012204963684082,-1.4451999771118162
1758273325579350500,8.8883505859375,-1.1465233200073242,-0.847248112487793,0.5336076950073242
1758273325589308200,8.89830810546875,-1.1155483360290526,0.299424845123291,2.068590234375
1758273325599265300,8.908265380859374,-3.2782606231689453,1.6542437095642089,2.563292152404785
1758273325609223400,8.918223388671874,-4.891802904510498,2.255786876678467,1.258452247619629
1758273325619180500,8.9281806640625,-3.8052842636108397,1.11719434967041,-1.6898574592590332
1758273325629138400,8.938138427734375,-1.5708955642700195,-0.136619132232666,-3.918709567260742
1758273325639095300,8.94809521484375,-0.22744915771484372,-0.7864952453613281,-4.27110612411499
1758273325649053400,8.958053466796875,-0.6257844589233398,-2.061257991790771,-2.9535470230102536
1758273325659011300,8.96801123046875,-1.345092420196533,-3.812167593383789,-1.4953285743713378
1758273325668968400,8.977968505859375,-1.2205939338684082,-7.219415830993652,-0.40895957107543945
1758273325678926600,8.987926513671875,-0.8966285217285156,-13.187861294555663,0.3333925811767578
1758273325688883200,8.99788330078125,-0.36436756515502927,-20.02151138305664,1.3525743003845214
1758273325698841300,9.00784130859375,-2.3464672645568845,-24.155399824523926,1.9430442848205565
1758273325708798500,9.017798583984375,-6.791601921844482,-25.64549108276367,2.0278888061523435
1758273325718756400,9.02775634765625,-9.031826487731934,-28.19426838760376,1.1905167755126953
1758273325728714500,9.037714599609375,-8.6949922416687,-29.497761553955076,0.20470424194335937
1758273325738671400,9.04767138671875,-5.505765992736816,-27.469723110198974,-1.2452841384887694
1758273325748629200,9.057629150390625,-2.92391877746582,-24.11335165786743,-3.8112697677612304
1758273325758586400,9.06758642578125,-2.4109610717773435,-21.676204005432126,-5.638195272064209
1758273325768544500,9.07754443359375,-4.205564853668212,-20.09154178161621,-2.858227869415283
1758273325778502400,9.08750244140625,-4.822221418762207,-17.74357814102173,0.9002198242187499
1758273325788459300,9.097459228515625,-6.404489440917969,-16.49156031036377,4.141071046447753
1758273325798417400,9.10741748046875,-5.8183589469909665,-17.644368409729005,5.499780488586426
1758273325808374500,9.11737451171875,-3.1835400199890134,-18.139070327758787,5.8749219612121575
1758273325818332400,9.12733251953125,-1.152957736968994,-17.36514464111328,7.443124048614502
1758273325828289300,9.137289306640625,0.29403789138793945,-16.389806739807128,4.353257168579101
1758273325838247400,9.147247314453125,1.5640122344970702,-13.923779029846191,2.0546739372253415
1758273325848204300,9.157204345703125,3.2276831130981445,-10.054150596618651,-0.8080430603027343
1758273325858162400,9.167162353515625,3.1664813331604003,-4.409520907592773,-3.3352725502014158
1758273325868120300,9.177120361328125,4.085106582641601,-0.47285482788085936,-6.728305215454101
1758273325878077200,9.1870771484375,3.9618051971435544,4.02794501800537,-10.827328095245361
1758273325888035300,9.197035400390625,2.247856083679199,8.24248812789917,-12.094908236694335
1758273325897992400,9.206992431640625,1.1962030044555663,10.593893433380126,-9.847351428222655
1758273325907950300,9.216950439453125,-0.050427872467041016,9.74844097213745,-6.144269647979736
1758273325917908500,9.226908447265625,0.32306758651733397,6.810007347106933,-3.630058629608154
1758273325927865300,9.236865234375,1.2228384979248046,3.529951072692871,-2.0509329971313477
1758273325937823200,9.2468232421875,2.775777549743652,0.4460696968078613,-1.0057143348693847
1758273325947780400,9.2567802734375,4.524143312072754,-1.7127520126342772,-0.44367549514770505
1758273325957738500,9.266738525390625,5.322759203338623,-3.290381269073486,-0.16594810256958006
1758273325967695400,9.2766953125,4.368520204162597,-5.045929636383057,-0.07601590270996093
1758273325977653200,9.2866533203125,1.5716437522888183,-7.445967163085937,0.30181904678344723
1758273325987610400,9.2966103515625,-2.92391877746582,-10.097844776916503,2.164956851196289
1758273325997568300,9.306568359375,-10.047416904449463,-13.906869980621337,3.759046244049072
1758273326007526400,9.3165263671875,-17.94648673171997,-17.09026036300659,2.344222700500488
1758273326017483500,9.3264833984375,-20.580108557891844,-12.628665569305419,2.3683143547058103
1758273326027441200,9.336441162109375,-16.557251218414304,-5.4236149482727045,2.9797336036682127
1758273326037398300,9.346398193359375,-6.311414851379394,-0.09262567672729492,2.0581156021118163
1758273326047356400,9.3563564453125,4.958990188598633,4.803666355895996,3.0948049209594726
1758273326057314300,9.366314208984376,22.405986598968504,3.3738790519714352,0.9264064048767089
1758273326067271400,9.376271484375,33.560871408843994,-4.8880619644165035,-4.828506198120117
1758273326077229300,9.386229248046876,11.882722114562988,-10.91785884552002,-5.972036766052246
1758273326087186400,9.3961865234375,-3.217058843231201,-13.058574404907226,-5.116558585357666
1758273326097144300,9.406144287109376,-37.76269532241821,-20.12850226974487,-4.37959338684082
1758273326107101400,9.416101318359376,2.0239982284545897,-20.22965728988647,3.333925811767578
1758273326117059600,9.4260595703125,8.45272896118164,-20.501698453521726,4.472069425964356
1758273326127016200,9.43601611328125,-2.505083124542236,-15.464597435760497,6.173000067901611
1758273326136974300,9.445974365234376,-7.649175028991698,-12.016647769927978,5.709273133850098
1758273326146932500,9.455932373046876,6.3244333229064935,-11.374852087402344,5.647023890686035
1758273326156889300,9.465889404296876,9.963919121551513,-15.32259134979248,3.2516251296997067
1758273326166847500,9.475847412109376,4.9169420219421385,-20.270957268524167,1.0676643028259276
1758273326176804400,9.485804443359376,2.943670941162109,-24.505551817321777,1.27685767288208
1758273326186762200,9.49576220703125,0.7372644737243652,-26.571897487640378,1.399410870361328
1758273326196719400,9.50571923828125,-4.61602080078125,-25.25568512496948,2.309806051635742
1758273326206677500,9.515677490234374,-14.214225618743896,-21.49633960571289,6.1927522315979004
1758273326216635400,9.525635498046874,-9.339481401062011,-18.575263942718504,8.077437850952148
1758273326226592300,9.53559228515625,-3.2040403717041013,-18.223765211486814,6.7803791015625
1758273326236550400,9.54555029296875,-9.112331518554686,-17.50535507583618,5.230432801818847
1758273326246507500,9.555507568359374,-14.614057295989989,-14.066234028625487,4.13089568939209
1758273326256465400,9.56546533203125,-13.23394967651367,-11.264569173431395,2.0777181282043458
1758273326266422300,9.57542236328125,-9.560496141815184,-8.775197997283936,1.0691606788635253
1758273326276380400,9.58538037109375,-5.232527728271484,-7.7599068557739255,0.9039607643127441
1758273326286338300,9.59533837890625,-3.7933132553100584,-7.205050621032714,1.7360954788208007
1758273326296295400,9.60529541015625,-5.68862314453125,-6.477213316345215,1.0127473022460938
1758273326306253300,9.61525341796875,-7.26520493774414,-5.003432556915283,-0.2506429862976074
1758273326316210200,9.625210205078124,-5.702240166473389,-4.2606314918518065,-1.560271294403076
1758273326326168300,9.635168212890624,-3.5633202583312986,-4.249109396362305,-2.1474492515563965
1758273326336125400,9.64512548828125,-1.8423381774902343,-3.112911071014404,-0.5885246955871581
1758273326346083300,9.655083251953124,-1.1088146438598632,-1.2976572998046874,1.2478279777526855
1758273326356041500,9.66504150390625,-0.5078700271606446,0.10280103378295898,2.83458512802124
1758273326365998300,9.674998291015624,-0.33054946670532226,0.4025251541137695,4.94148258895874
1758273326375956200,9.684956298828125,-2.9638720176696776,0.6408978569030761,6.2684688591003415
1758273326385913300,9.694913330078125,-6.5123781532287595,1.1297639083862303,6.040421150970459
1758273326395871500,9.70487158203125,-7.028029335784912,-0.24136545486450195,3.169623722839355
1758273326405828400,9.714828369140625,-4.217984774780273,-2.3886650688171387,-1.2294225524902342
1758273326415786200,9.7247861328125,0.2424129180908203,-2.9517513717651367,-4.118475768280029
1758273326425744400,9.734744384765625,2.8206688308715817,-5.43319175491333,-6.906972514343261
1758273326435701200,9.744701171875,1.4480430915832518,-9.07836378250122,-4.902726449584961
1758273326445659400,9.754659423828125,0.5300163925170898,-12.414683795928955,-1.064821188354492
1758273326455616500,9.764616455078125,-1.0670657524108886,-16.390405290222166,-0.12000935821533203
1758273326465574100,9.77457421875,-1.7823334983825683,-20.841226176452636,-0.5029319862365722
1758273326475531300,9.78453125,-1.1233294914245604,-24.86049221343994,-2.5272294898986813
1758273326485489400,9.794489501953125,-4.749048630523681,-27.308563410949706,-4.20137500076294
1758273326495447300,9.804447265625,-10.250924045562744,-28.003181167602538,-3.262847949981689
1758273326505404700,9.81440478515625,-11.139771411895751,-26.075699193572998,-0.6503250259399413
1758273326515362800,9.82436279296875,-9.064297847747802,-23.935282909393308,1.4695909065246582
1758273326525319700,9.834319580078125,-2.2999299697875975,-24.111406369018553,0.5820902786254882
1758273326535277600,9.844277587890625,1.743427721405029,-23.425766868591307,3.7722143531799315
1758273326545234700,9.854234619140625,-0.8731354179382323,-18.198177181243896,5.889436808776855
1758273326555192800,9.86419287109375,-2.8202199180603027,-15.931616397094725,4.379144474029541
1758273326565150700,9.874150634765625,-4.036773636627197,-18.014721479034424,4.927715929412842
1758273326575107600,9.884107666015625,-5.200206005859375,-19.42161422958374,5.54796379699707
1758273326585065700,9.894065673828125,-3.65804086151123,-18.786701876831053,4.100070343017578
1758273326595022600,9.904022705078125,-0.07736264114379883,-17.105224123382566,5.944503446960449
1758273326604980700,9.913980712890625,2.261922018432617,-16.00508846054077,8.800337114715576
1758273326614937600,9.9239375,4.425083218383789,-13.728053044128417,4.854393503570557
1758273326624895500,9.9338955078125,4.785111293029785,-8.291569261932372,1.5358803649902344
1758273326634852600,9.9438525390625,5.805340475463867,-2.7091888160705566,2.048239520263672
1758273326644810800,9.953810791015625,6.265027194213867,1.650951682281494,-0.45819034271240233
1758273326654768600,9.9637685546875,4.63502477645874,6.158185945129394,-4.856488430023193
1758273326664725500,9.9737255859375,2.6774656440734863,9.107094202423095,-8.9125653175354
1758273326674683600,9.98368359375,1.0046668716430665,10.64252565460205,-10.663325281524658
1758273326684640800,9.993640869140625,-1.2499229042053221,9.6779616607666,-9.236231454467774
1758273326694598700,10.0035986328125,-2.136076793670654,7.104194876098632,-6.144269647979736
1758273326704555500,10.013555419921875,-1.6915034729003906,4.99864415359497,-3.630208267211914
1758273326714513700,10.023513671875,-0.39324762268066404,2.93035319442749,-2.5357588333129883
1758273326724471600,10.033471435546875,0.942267990875244,0.932691184234619,-1.7489643127441405
1758273326734428700,10.0434287109375,0.44502223358154297,-1.2814964385986327,-1.3311761230468748
1758273326744386600,10.053386474609376,-1.774253067779541,-4.255394175720214,-1.9829975250244138
1758273326754343400,10.063343505859375,-4.16845472793579,-8.014889332580566,-2.78355870513916
1758273326764301600,10.073301513671876,-6.268917771911621,-12.59724167251587,-2.9186814613342285
1758273326774258700,10.0832587890625,-8.047360692596435,-16.90456009674072,-3.111713970184326
1758273326784216600,10.093216552734376,-8.640374516296387,-17.48590218734741,-3.112162882995605
1758273326794174700,10.1031748046875,-8.094346900177001,-13.10675771331787,-0.43409868850708005
1758273326804131600,10.113131591796876,-3.3328783485412594,-7.914183225250244,2.25384158782959
1758273326814089500,10.12308935546875,0.2362777763366699,-2.3211785095214843,2.775927187347412
1758273326824046600,10.133046630859376,3.160795104217529,0.07945756759643555,1.343895319366455
1758273326834004700,10.143004638671876,9.562142155456542,-6.823025818634033,-4.083460569000244
1758273326843961600,10.152961669921876,14.587421802520751,-13.269713063812254,-2.284367658996582
1758273326853919500,10.16291943359375,7.407211023712158,-13.5983172416687,0.2380734275817871
1758273326863876600,10.172876708984376,-14.910938301849365,-13.755287088012695,2.790741310119629
1758273326873834500,10.18283447265625,4.8329953262329095,-12.848333571624755,11.07662434310913
1758273326883792600,10.192792724609374,14.005181886291503,-16.47150887145996,10.83451070022583
1758273326893749800,10.202749755859376,13.803620034027098,-16.1518829498291,6.841431243896484
1758273326903707400,10.212707275390626,7.18200643005371,-13.959991329956054,4.819677579498291
1758273326913664500,10.22266455078125,1.534084713745117,-12.122591193389892,4.129698588562012
1758273326923622700,10.23262255859375,4.444685744476318,-14.379425533294677,0.6844423995971679
1758273326933579800,10.242579833984376,4.002506625366211,-18.433856407165525,-2.5966613380432126
1758273326943537700,10.25253759765625,1.3144167114257812,-21.723938401031493,-4.891353991699218
1758273326953495600,10.26249560546875,-8.783428065490723,-23.791032259368894,-3.5978865447998043
1758273326963452700,10.27245263671875,-13.266869949340819,-23.834277526855466,0.22535423126220702
1758273326973410600,10.28241064453125,-7.569717461395263,-24.695741211700437,2.4352023635864257
1758273326983367700,10.29236767578125,-5.689072057342529,-23.668628699493407,6.016778409576416
1758273326993325800,10.302325927734374,0.09187748870849609,-19.71460465774536,9.936236164855956
1758273327003282400,10.312282470703124,-4.317643418884277,-19.386000479888914,6.572981382751465
1758273327013240600,10.322240478515624,-14.735712667846679,-19.321506672668455,2.3033716346740722
1758273327023198700,10.33219873046875,-15.885079102325438,-16.268151367950438,1.3397054664611816
1758273327033155600,10.342155517578124,-11.082759484863281,-12.469750434112548,2.050035171508789
1758273327043113700,10.35211376953125,-8.90044467163086,-9.396194052886962,1.3623007446289062
1758273327053070600,10.362070556640624,-7.562385218811035,-8.087912483215332,0.7739256866455078
1758273327063028500,10.372028564453124,-5.500079763793945,-7.395688928222656,1.2737152832031249
1758273327072985600,10.381985595703124,-5.397578005218506,-6.752546507263183,2.3665187034606934
1758273327082943700,10.39194384765625,-6.206818166351318,-5.245845475006103,2.7180174346923827
1758273327092900600,10.401900634765624,-5.312134933471679,-4.139724308013916,2.45181213760376
1758273327102858500,10.4118583984375,-4.2980408927917475,-4.124610910034179,1.801636749267578
1758273327112816600,10.421816650390625,-1.5150807380676268,-3.3180642257690427,2.895936545562744
1758273327122773800,10.431773681640625,0.6253355461120605,-3.2863410537719724,3.183839295196533
1758273327132731600,10.441731689453125,-1.7368436668395995,-2.121561946105957,2.5444378143310544
1758273327142688500,10.4516884765625,-5.798756420898437,-0.32830490264892576,2.7974750022888184
1758273327152646700,10.461646728515625,-7.475894683837891,0.2905962265014648,3.225139273834228
1758273327162603500,10.471603515625,-6.676530604553222,-0.20350714111328125,2.5145102935791015
1758273327172561700,10.481561767578125,-5.60527499923706,-0.2305915473937988,1.907580172729492
1758273327182519600,10.49151953125,-5.500079763793945,-0.5090671279907226,0.2292448089599609
1758273327192476400,10.501476318359375,-3.4385224967956542,-0.9285013313293456,-2.2336405113220215
1758273327202434600,10.5114345703125,-1.477970612335205,-1.3238438804626464,-3.955670055389404
1758273327212391700,10.5213916015625,-0.2744353652954101,-1.5553332534790039,-4.191648556518555
1758273327222349600,10.531349609375,0.35523967132568357,-2.374299858856201,-3.4228105484008786
1758273327232306700,10.541306640625,-1.2529156562805175,-5.604826086425781,-3.86229619064331
1758273327242264600,10.5512646484375,-2.5049334869384765,-11.769596086120604,-3.912275150299072
1758273327252221700,10.5612216796875,-1.568052449798584,-19.352032743835448,-1.3831003715515136
1758273327262179600,10.5711796875,-1.756446192932129,-25.68409758453369,1.885882720184326
1758273327272137700,10.5811376953125,-4.791396072387695,-29.96897036819458,3.4573768348693847
1758273327282094600,10.591094482421875,-7.0567597557067865,-31.386637026214597,3.244292887115478
1758273327292052500,10.601052490234375,-7.2623618232727045,-31.81280492172241,1.7917606674194335
1758273327302009600,10.611009521484375,-5.441721098327636,-26.364050856018064,2.155380044555664
1758273327311967500,10.620967529296875,-3.572448152160644,-21.299266881561277,-0.1527799934387207
1758273327321924600,10.630924560546875,-3.675847736358642,-19.289484225463866,-3.6840778045654297
1758273327331882800,10.6408828125,-2.1314380279541014,-19.584270304870603,-6.679373719024658
1758273327341840400,10.65084033203125,-1.5879542510986326,-20.65851866226196,-6.724265000152587
1758273327351797500,10.660797607421875,-4.134337354278564,-18.728792124176024,-2.958036151123047
1758273327361755600,10.670755615234375,-3.1649849571228024,-16.966809339904785,2.7486931434631345
1758273327371712800,10.680712646484375,-2.797624639892578,-16.499191828155517,5.2645501754760735
1758273327381670700,10.690670654296875,-2.7461493041992187,-16.702998244476316,6.165967100524902
1758273327391627500,10.70062744140625,-1.103876602935791,-16.007632299804687,7.688230443572998
1758273327401585700,10.710585693359375,-0.6141127258300781,-15.20183380355835,3.59444487991333
1758273327411542500,10.72054248046875,-0.26815058593749996,-11.450419077301024,0.6892308029174804
1758273327421500700,10.730500732421875,1.1296142707824706,-6.898742446136474,0.001496376037597656
1758273327431458800,10.740458740234375,2.2931962776184083,-3.277213159942627,-3.1051299156188965
1758273327441415400,10.75041552734375,3.186383134460449,0.6402993064880371,-7.087884377288818
1758273327451373600,10.76037353515625,3.0151977157592773,5.496338823699951,-10.206780952453613
1758273327461330700,10.77033056640625,1.34718734664917,9.874435834503172,-10.651204635620116
1758273327471288600,10.78028857421875,-0.3356371452331543,10.407145703887938,-8.29994896774292
1758273327481245400,10.790245361328125,-0.6832452987670898,8.786869730377196,-5.711966610717773
1758273327491203600,10.80020361328125,-1.6570868240356444,6.840683055877685,-3.7659295738220213
1758273327501161200,10.8101611328125,-2.0115783073425293,4.997746327972412,-2.1582231590270995
1758273327511118000,10.8201181640625,-0.7151181083679199,2.729240254974365,-1.518821678161621
1758273327521076200,10.830076171875,0.9109937316894531,-0.3799298759460449,-1.7431284461975096
1758273327531033300,10.840033447265625,1.3962684806823729,-3.40919352645874,-1.5779285316467284
1758273327540991200,10.8499912109375,0.7269394790649414,-6.600813977050781,-1.5803227333068848
1758273327550948400,10.8599482421875,-1.1555015762329102,-10.153509965515136,-0.9271545928955077
1758273327560906200,10.86990625,-3.771166889953613,-12.880356018829344,0.7930792999267577
1758273327570863400,10.87986328125,-5.7058314689636225,-13.952509449768066,0.9060556907653808
1758273327580821200,10.8898212890625,-9.356689725494384,-12.67325757522583,-0.501136334991455
1758273327590779400,10.899779296875,-15.025261431121825,-9.897031112670899,-0.25842414169311523
1758273327600736300,10.909736328125,-13.832051178741454,-6.316951442718506,2.176329309082031
1758273327610694100,10.919694091796876,1.0064625228881836,-4.241627516174316,1.3365630767822265
1758273327620651300,10.9296513671875,14.437634561157227,-8.547150289154052,-2.723554026031494
1758273327630609200,10.939609130859376,21.021689126586914,-13.344082952880859,1.0817302375793456
1758273327640566300,10.949566162109376,16.34910531158447,-9.751583361816406,4.386177441406249
1758273327650524400,10.9595244140625,0.34117373657226563,-8.341847496795653,0.044292730712890624
1758273327660481300,10.969481201171876,-8.643516905975341,-10.379013834381103,0.6132149002075195
1758273327670439200,10.979439208984376,4.479551306152343,-15.393968486785887,-0.23552958831787107
1758273327680397300,10.989397216796876,10.698190843200683,-17.350031243133543,-0.2258031440734863
1758273327690354400,10.9993544921875,2.650231600189209,-14.703540583038329,3.188328423309326
1758273327700312300,11.009312255859374,1.1231798538208007,-14.432397245025633,5.089474179077148
1758273327710269200,11.019269287109376,5.751022025299072,-17.64676261138916,3.9447465103149413
1758273327720227300,11.029227294921874,1.3186065643310547,-22.88677221984863,1.6371850227355955
1758273327730184200,11.03918408203125,-7.517344300079345,-26.132860758209226,-0.6278793853759765
1758273327740142300,11.049142333984374,-11.139771411895751,-24.54789925918579,0.6564601676940918
1758273327750100500,11.0591005859375,-9.905261180877686,-21.814020238494873,3.680486502075195
1758273327760057000,11.06905712890625,-8.071153071594237,-19.201946227264404,4.3162966804504395
1758273327770015200,11.07901513671875,-6.431573847198486,-17.37367398452759,5.149478858184814
1758273327779972400,11.088972412109374,-6.815095025634765,-17.48455544891357,5.244199461364746
1758273327789930200,11.09893017578125,-10.197802696228027,-17.97207476196289,2.035819599151611
1758273327799887000,11.10888720703125,-13.123367487335205,-17.157148371887207,-1.045667575073242
1758273327809845200,11.11884521484375,-11.711387058258056,-14.277971237945556,-1.4260463638305663
1758273327819802400,11.12880224609375,-8.380304360961913,-10.302549018859862,0.009427169036865234
1758273327829760300,11.13876025390625,-7.53978994064331,-8.047809605407714,0.8321347145080565
1758273327839718400,11.148718505859375,-7.086836914062499,-6.785616417694091,1.8453309295654297
1758273327849675300,11.15867529296875,-4.4479777717590325,-5.507711281585693,3.9264907226562498
1758273327859633200,11.168633056640624,-3.9802106224060054,-4.514416867828369,4.696974744415283
1758273327869590300,11.17859033203125,-4.4768578292846675,-3.571999239349365,3.621678923797607
1758273327879548400,11.18854833984375,-4.562600176239013,-3.436876483154297,1.7913117546081543
1758273327889505300,11.19850537109375,-3.589207563781738,-3.388842812347412,1.2859855667114257
1758273327899463200,11.208463134765625,-2.0124761329650878,-4.274847064208984,0.5250783515930175
1758273327909420300,11.218420166015624,-1.8912696739196777,-4.649090711212158,-0.21158757171630857
1758273327919378200,11.228378173828125,-2.1375731697082516,-3.24294614868164,0.11611878051757812
1758273327929336300,11.23833642578125,-1.8309657196044922,-1.5910966407775877,1.1879729362487792
1758273327939293400,11.24829345703125,-3.534739476013183,-0.7173626724243164,1.926135235595703
1758273327949251000,11.2582509765625,-6.684910310363769,-0.12434884872436523,2.088791310882568
1758273327959208200,11.268208251953125,-8.602366564941406,0.5143044441223145,1.9394529823303222
1758273327969166300,11.278166259765625,-6.195894621276855,0.15876549758911132,-0.3317465675354004
1758273327979123500,11.28812353515625,-0.5895721588134766,-0.9944915145874023,-4.3159974052429195
1758273327989081300,11.298081298828125,2.3792378997802732,-1.2075754623413084,-7.021295643615722
1758273327999038200,11.3080380859375,2.1709423553466793,-0.6854898628234863,-6.4469865203857415
1758273328008996400,11.317996337890625,0.18031331253051758,-1.0070610733032226,-2.91748436050415
1758273328018954200,11.327954345703125,-0.06254851837158203,-3.672256433868408,-0.8607154968261719
1758273328028911400,11.337911376953125,-0.7401075881958007,-10.99312656021118,-0.5731120223999023
1758273328038869500,11.347869384765625,-0.3194762840270996,-23.408408906555174,-0.4155436256408691
1758273328048826000,11.357826171875,0.3597287994384765,-30.9131836479187,-1.3799579818725585
1758273328058784300,11.3677841796875,0.23313538665771483,-29.760974098968504,-1.5412673187255859
1758273328068741400,11.377741455078125,-7.417087105560302,-29.55193036651611,0.22999299697875975
1758273328078699300,11.38769921875,-13.94981597290039,-28.930934310913084,2.29199917678833
1758273328088657400,11.397657470703125,-11.877634436035155,-25.792285572052002,3.6523546325683593
1758273328098614300,11.4076142578125,-5.755361515808105,-23.438785340118407,2.155080769348144
1758273328108572200,11.417572265625,0.2781763053894043,-22.22312944717407,-0.8681973770141601
1758273328118529300,11.427529296875,-1.7814356727600096,-19.47892543182373,-0.013617021942138671
1758273328128487400,11.4374873046875,-4.811896424102783,-17.282843959045408,-1.1595417915344237
1758273328138444300,11.4474443359375,-6.288969210815429,-16.735619242095947,2.4091654205322266
1758273328148402200,11.457402099609375,-4.763413840484619,-18.075773621368405,4.173243131256103
1758273328158359300,11.467359375,-2.6783634696960448,-18.747796099853513,4.491372676849365
1758273328168317400,11.4773173828125,-1.1614870803833006,-18.46273646469116,7.87782128753662
1758273328178275300,11.487275390625,0.2700958747863769,-17.924340366363523,7.681796026611328
1758273328188232200,11.497232177734375,2.4302643226623535,-16.68249789276123,4.025101903533935
1758273328198190300,11.5071904296875,3.829974468231201,-11.651831291961669,0.9463082061767577
1758273328208147200,11.517147216796875,4.343530724334716,-4.790348609161376,-1.4851532173156738
1758273328218105300,11.527105224609375,5.568613786315917,0.6741174049377441,-2.725499314880371
1758273328228062500,11.5370625,4.286069884490966,5.704185455322265,-5.136909299468994
1758273328238020000,11.54702001953125,0.8046013954162597,9.286659326934814,-8.572738319396972
1758273328247977200,11.556977294921875,-2.3129484413146972,11.245116284942627,-10.979659175872802
1758273328257935400,11.566935302734375,-3.593846329498291,10.486303996276854,-10.494234789276122
1758273328267893200,11.576893310546875,-2.93678761138916,8.339752570343016,-6.516717643737793
1758273328277850400,11.586850341796875,-1.865382368469238,6.029198330688476,-2.36217921295166
1758273328287808300,11.596808349609375,-0.5336076950073242,3.6439749267578123,0.1767220100402832
1758273328297765400,11.606765380859375,0.699705435180664,0.7029974624633789,0.9880570976257324
1758273328307723300,11.61672314453125,0.2910451393127441,-2.8706477905273435,1.4565724349975586
1758273328317680400,11.626680419921875,-1.2966098365783691,-7.453000130462646,0.7962216896057128
1758273328327638300,11.63663818359375,-2.9071593658447266,-12.324452320861816,-0.2947860794067383
1758273328337595100,11.64659521484375,-5.4524950057983395,-16.776470307922363,-0.40147769088745117
1758273328347553300,11.65655322265625,-9.304915114593506,-18.317737626647947,-0.6166565650939941
1758273328357511200,11.66651123046875,-12.892626302337646,-15.510536180114745,-0.6836942115783691
1758273328367468300,11.67646826171875,-11.984326047515868,-9.655665657806395,0.9579799392700195
1758273328377426400,11.686426513671876,-7.053767003631592,-5.710470234680176,0.5689221694946289
1758273328387383300,11.69638330078125,1.7980454467773437,-5.440075084686279,-1.9882348411560058
1758273328397341200,11.706341064453126,17.697938671875,-8.312668164062499,-2.8434137466430665
1758273328407298300,11.71629833984375,23.945009353637694,-6.5686418922424314,1.8703204093933103
1758273328417256400,11.72625634765625,15.065813221740722,-2.146252150726318,2.0786159538269042
1758273328427213300,11.73621337890625,2.2501006477355956,-4.045751892852783,-2.653373989868164
1758273328437171200,11.746171142578126,-14.668076470947264,-9.194033650207519,-2.244863331604004
1758273328447129300,11.75612939453125,-1.2891279563903808,-14.476540338134765,3.0352491546630858
1758273328457086200,11.766086181640626,9.67841057357788,-18.04704320144653,6.29510435256958
1758273328467044400,11.77604443359375,6.478709692382812,-17.62641189727783,10.132859976196288
1758273328477001200,11.786001220703126,6.233154384613036,-17.948731295776366,8.868571862030029
1758273328486959000,11.795958984375,5.318718988037109,-19.26150199356079,5.753416226959228
1758273328496916200,11.805916259765626,-0.10175357055664062,-20.860379789733887,2.0000562118530274
1758273328506874400,11.815874267578126,-5.213523752593994,-21.508011338806153,-1.4116811538696288
1758273328516832300,11.825832275390624,-8.991723609924316,-22.64376075134277,-0.9071031539916992
1758273328526789400,11.835789306640624,-10.78932014389038,-22.524499581146237,0.21877017669677734
1758273328536747500,11.84574755859375,-10.676194115447997,-20.79947728500366,0.6784568954467773
1758273328546704600,11.85570458984375,-8.065317205047608,-19.615544564056396,1.4981716888427734
1758273328556662300,11.865662353515624,-4.4470799461364745,-17.304242136383056,3.046621612548828
1758273328566619400,11.875619384765624,-5.661538738250732,-15.425691658782958,4.966172793579101
1758273328576577500,11.88557763671875,-8.447342007446288,-15.002815790557861,5.672761558532715
1758273328586534400,11.895534423828124,-9.309404242706298,-14.614506208801268,4.956745624542236
1758273328596492500,11.905492431640624,-9.0021982421875,-12.388946128082274,4.598962113952637
1758273328606450400,11.915450439453124,-8.986935206604004,-8.705167598724366,3.5351883888244626
1758273328616407300,11.9254072265625,-9.351751684570312,-7.100902848815918,0.19168577041625975
1758273328626365400,11.935365478515624,-8.876951567840576,-6.216095697784423,-2.101660144805908
1758273328636322600,11.945322509765624,-8.134898690795898,-5.288941104888916,-2.3144448173522947
1758273328646280400,11.955280517578124,-4.798578677368163,-3.0288147377014156,0.1693897674560547
1758273328656237300,11.9652373046875,-2.436848377227783,-2.2231658790588376,1.8589479515075682
1758273328666195500,11.975195556640625,-1.262193187713623,-3.848379893493652,-0.010773907470703125
1758273328676152600,11.985152587890624,-0.18854338073730467,-4.603900154876709,0.34671032791137696
1758273328686110500,11.9951103515625,0.567575431060791,-4.351162242126464,1.368735161590576
1758273328696068600,12.005068603515625,-0.9419687156677246,-3.219752320098877,1.4972738632202147
1758273328706025500,12.015025390625,-3.8027404243469234,-1.6473603797912597,1.7832313240051267
1758273328715983400,12.0249833984375,-6.817638864898681,-0.7496843948364257,2.007987004852295
1758273328725940500,12.0349404296875,-7.68029965057373,0.03441664886474609,2.2872107734680176
1758273328735898400,12.0448984375,-6.547842265319824,0.31214404144287106,1.4911387214660643
1758273328745855200,12.054855224609375,-4.772541734313965,-0.43350013809204097,-1.1127052215576172
1758273328755813400,12.0648134765625,-0.9988310050964355,-0.8617629600524902,-4.052335947418213
1758273328765770500,12.0747705078125,2.923320227050781,-1.5601216567993164,-5.876119062042236
1758273328775728400,12.084728271484375,2.401084989929199,-3.584269522857666,-4.5890860321044915
1758273328785686500,12.0946865234375,0.14739303970336914,-7.242310384368896,-2.9433716659545897
1758273328795643400,12.104643310546875,0.07541735229492187,-13.93111127243042,-1.6349404586791991
1758273328805601300,12.114601318359375,1.970128691101074,-21.29238355178833,0.30615853729248044
1758273328815558400,12.124558349609375,1.0076596237182616,-24.895058499908444,0.35718496017456053
1758273328825516500,12.1345166015625,-2.3994389762878416,-26.008212634277342,-0.28446108474731446
1758273328835473400,12.144473388671875,-8.490287999725341,-27.24107685165405,-0.6527192276000976
1758273328845431300,12.154431396484375,-9.458293658447266,-27.206510565185546,0.088735099029541
1758273328855388400,12.164388427734375,-10.691307513427734,-24.418163456726074,1.3842974723815917
1758273328865346300,12.17434619140625,-10.62367131652832,-22.58689846191406,1.1751041023254394
1758273328875304400,12.184304443359375,-3.1884780609130856,-21.606023969268797,-0.9353846611022949
1758273328885261300,12.19426123046875,-1.6594810256958006,-21.721544199371337,-2.1709423553466793
1758273328895219200,12.20421923828125,-1.2247837867736815,-20.7487501373291,0.5802946273803711
1758273328905176300,12.21417626953125,-4.27724126586914,-18.089540280914306,4.752191020202637
1758273328915134500,12.224134521484375,-4.812046061706543,-17.98449468307495,7.185298457336425
1758273328925091600,12.234091552734375,-3.142838591766357,-18.199523919677734,8.722675198364257
1758273328935049200,12.24404931640625,-1.8417396270751951,-17.39043339614868,7.258321607971191
1758273328945007400,12.25400732421875,-0.4068646446228027,-15.69339333190918,6.092943949890136
1758273328954964500,12.263964599609375,1.9629460861206054,-13.794342502593993,5.780500633239746
1758273328964922400,12.27392236328125,2.4027310035705565,-10.791714345550536,2.5975591636657716
1758273328974879500,12.28387939453125,2.9632734672546386,-6.618022301483154,-0.9105448188781737
1758273328984837600,12.293837646484375,3.816507083892822,-2.5761609863281247,-3.6082115394592282
1758273328994794500,12.30379443359375,4.248959758758545,1.066916114807129,-6.713640730285644
1758273329004752400,12.31375244140625,4.000860611724853,4.851101476287842,-9.540893615722656
1758273329014709500,12.32370947265625,2.479046181488037,8.163928385925292,-11.79219136428833
1758273329024667400,12.33366748046875,0.20859481964111326,9.208249222564696,-10.358513482666016
1758273329034625500,12.34362548828125,-0.8087912483215332,7.716212675476074,-7.0938698814392085
1758273329044582400,12.35358251953125,-1.6736965980529783,5.089773454284668,-4.918288760375976
1758273329054540300,12.363540283203125,-0.9169792358398436,2.8042086944580076,-3.13460852355957
1758273329064497400,12.373497314453125,2.618358790588379,0.1345242057800293,-1.9536685546875
1758273329074455600,12.38345556640625,5.278616110229492,-2.6605565948486327,-1.4297873039245605
1758273329084412400,12.393412353515625,4.9640778671264645,-4.8798318962097165,-0.8925883064270019
1758273329094370300,12.403370361328125,2.5164555824279784,-7.058705044555664,0.07511807708740234
1758273329104327400,12.413327392578125,-1.9425953720092772,-8.919448647308348,0.6304232246398925
1758273329114285600,12.42328564453125,-7.110180380249023,-9.30296982574463,-0.16280571289062498
1758273329124243500,12.433243408203126,-9.679607674407958,-9.101707248687744,-1.952920366668701
1758273329134200300,12.443200439453125,-10.852018299865723,-7.85866767425537,-3.4235587364196776
1758273329144158500,12.453158447265626,-11.614870803833007,-5.566369222259521,-3.0597897216796874
1758273329154115300,12.463115234375,-14.245948790740966,-5.982960311126709,-4.000860611724853
1758273329164073500,12.473073486328126,-10.46475618133545,-11.085153686523437,-5.128828868865966
1758273329174030300,12.4830302734375,6.503549534606933,-17.775450950622556,-3.744381758880615
1758273329183988200,12.49298828125,19.502268898010254,-15.643414372253417,8.659228854370117
1758273329193945300,12.5029453125,17.99796206741333,-5.1428948036193844,16.66379319229126
1758273329203903500,12.512903564453126,7.2441060356140135,-2.7570728492736816,10.338462043762206
1758273329213861400,12.522861328125,-2.433705987548828,-8.085219006347655,4.862773209381103
1758273329223818200,12.532818359375,0.74055650100708,-15.138686734771728,0.10863690032958984
1758273329233776400,12.5427763671875,-0.27727847976684566,-16.29852780151367,0.8680477394104004
1758273329243733500,12.5527333984375,-2.8016648551940917,-14.2112328666687,3.2282816635131835
1758273329253691400,12.56269140625,4.216488398742675,-13.482348098754882,4.486584273529052
1758273329263648500,12.5726484375,5.182997681427001,-17.362002251434326,4.068496808624268
1758273329273606400,12.5826064453125,2.695571794128418,-21.85846260681152,0.8607154968261719
1758273329283563300,12.592563232421876,-4.806060557556152,-22.998102597045897,-1.6231190879821777
1758273329293521400,12.602521484375,-9.75502502670288,-23.2004126373291,-0.8068459594726562
1758273329303479600,12.6124794921875,-8.845677308654786,-22.58689846191406,1.7440262718200683
1758273329313436400,12.6224365234375,-7.785045973205566,-20.49406693572998,3.6887165702819824
1758273329323394300,12.632394287109374,-5.26709401473999,-18.032378716278075,5.84783755493164
1758273329333351400,12.642351318359376,-4.075230500793457,-16.844405780029295,7.219266193389892
1758273329343309300,12.652309326171874,-6.227767430877686,-17.866879526519774,6.583904927825928
1758273329353266400,12.662266357421874,-8.838494703674316,-18.100613463592527,3.31985987701416
1758273329363224600,12.672224609375,-10.824335343170166,-16.383821235656736,0.596305850982666
1758273329373181400,12.682181396484374,-12.886940073394774,-14.037802883911132,-1.0703577796936035
1758273329383139300,12.692139404296874,-12.593949645233154,-11.030835236358643,-2.3235727111816407
1758273329393097500,12.702097412109374,-10.25990230178833,-8.177246132659912,-2.0011036750793454
1758273329403054600,12.7120546875,-7.880365126800537,-7.049277875518799,-1.7739537925720215
