time,seconds_elapsed,z,y,x
1758273316744459000,0.053458984375,-0.06603839248418808,0.06502526253461838,0.07821255922317505
1758273316754415900,0.063415771484375,-0.06903670728206635,0.08375663310289383,0.08080098778009415
1758273316764373800,0.073373779296875,-0.05415709316730499,0.11314647644758224,0.08370064198970795
1758273316774332000,0.083331787109375,-0.03749067336320877,0.11499442160129547,0.08235935866832733
1758273316784288800,0.093288818359375,-0.0019031190313398838,0.0888802632689476,0.04978356882929802
1758273316794247000,0.103246826171875,0.08240306377410889,0.039157964289188385,0.05708051100373268
1758273316804205000,0.113205078125,0.14308664202690125,0.021296674385666847,0.08868397772312164
1758273316814161700,0.12316162109375,0.10767068713903427,0.04137209802865982,0.07757394760847092
1758273316824119800,0.133119873046875,0.03905993700027466,0.05479975417256355,-0.0007890358101576567
1758273316834078000,0.143077880859375,-0.020096931606531143,0.04213963449001312,-0.07567872852087021
1758273316844034800,0.153034912109375,-0.04758980870246887,0.02839212864637375,-0.09853797405958176
1758273316853993000,0.162992919921875,-0.05271053686738014,0.04840083047747612,-0.07220429182052612
1758273316863949800,0.17294970703125,-0.05979720875620842,0.046389076858758926,-0.03155726566910744
1758273316873907700,0.18290771484375,-0.059392642229795456,0.03350922465324402,-0.06115642935037613
1758273316883865900,0.192865966796875,-0.03351976349949837,0.00017177569679915905,-0.06422146409749985
1758273316893823000,0.202822998046875,-0.041456352919340134,0.012917849235236645,0.1010877788066864
1758273316903780900,0.21278076171875,-0.0817776769399643,0.0049613891169428825,0.22287440299987793
1758273316913739000,0.222739013671875,-0.06442572921514511,-0.015160255134105682,0.27524155378341675
1758273316923695900,0.23269580078125,-0.046445660293102264,-0.009917822666466236,0.272348552942276
1758273316933653800,0.24265380859375,-0.042879194021224976,-0.000021404586732387543,0.26740872859954834
1758273316943612000,0.25261181640625,-0.05272090435028076,0.023065272718667984,0.1807987242937088
1758273316953569000,0.262569091796875,-0.07362643629312515,0.023726796731352806,0.07027927786111832
1758273316963527000,0.27252685546875,-0.0679192841053009,0.019586114212870598,0.016359852626919746
1758273316973484800,0.28248486328125,-0.061470285058021545,-0.002487529069185257,0.04196123406291008
1758273316983442000,0.29244189453125,-0.06778277456760406,0.003967174328863621,0.03440131992101669
1758273316993399800,0.30239990234375,-0.07758613675832748,-0.011701267212629318,0.016043616458773613
1758273317003358000,0.31235791015625,-0.08328796178102493,-0.014491194859147072,0.00047637498937547207
1758273317013315000,0.322315185546875,-0.06971509009599686,-0.03030862659215927,-0.014586001634597778
1758273317023272700,0.332272705078125,-0.05131424218416214,-0.04066406562924385,-0.0550207793712616
1758273317033230800,0.34223095703125,-0.039127085357904434,-0.03357473015785217,-0.08883892744779587
1758273317043188000,0.35218798828125,-0.01636611297726631,-0.031607452780008316,-0.07389593124389648
1758273317053145900,0.362145751953125,-0.0016789728542789817,-0.020988749340176582,-0.026299189776182175
1758273317063104000,0.37210400390625,-0.0014376904582604766,-0.01309380866587162,0.035969775170087814
1758273317073060900,0.382060791015625,0.0037472383119165897,-0.009761769324541092,0.0467740073800087
1758273317083018800,0.392018798828125,0.015230522491037846,-0.021699922159314156,0.04565947502851486
1758273317092977000,0.401976806640625,0.026112228631973267,-0.008015704341232777,0.051061779260635376
1758273317102933800,0.411933837890625,0.027123164385557175,0.008141427300870419,0.07388214766979218
1758273317112892000,0.421891845703125,0.04152549058198929,0.012760691344738007,0.08475062996149063
1758273317122850000,0.43185009765625,0.04479745030403137,0.01754346303641796,0.04676303640007973
1758273317132806700,0.441806640625,0.030281882733106613,0.0002798927016556263,0.025345440953969955
1758273317142764800,0.451764892578125,0.019582100212574005,0.004083152860403061,0.029361752793192863
1758273317152722000,0.461721923828125,0.013897640630602837,0.006390665657818317,0.013646500185132027
1758273317162679800,0.4716796875,0.01475864090025425,0.0021418582182377577,-0.03019419126212597
1758273317172638000,0.481637939453125,0.011838586069643497,0.004738684743642807,-0.059882041066884995
1758273317182594800,0.4915947265625,0.0023920873645693064,0.011414164677262306,-0.08718928694725037
1758273317192552700,0.501552734375,-0.0066946628503501415,0.013490536250174046,-0.09872179478406906
1758273317202510800,0.5115107421875,-0.02662363089621067,0.017230946570634842,-0.10217351466417313
1758273317212468000,0.521468017578125,-0.04223806783556938,0.013791056349873543,-0.09414174407720566
1758273317222425900,0.53142578125,-0.051094941794872284,0.004369858652353287,-0.08446701616048813
1758273317232384000,0.541384033203125,-0.06852669268846512,0.001515756594017148,-0.045892730355262756
1758273317242340900,0.5513408203125,-0.09148900210857391,0.01078648678958416,-0.029231727123260498
1758273317252298800,0.561298828125,-0.10707041621208191,0.0029092389158904552,-0.04760493338108063
1758273317262257000,0.5712568359375,-0.10757801681756973,0.01726447604596615,-0.06899517774581909
1758273317272214000,0.581214111328125,-0.12540484964847565,0.04597882181406021,-0.0831008106470108
1758273317282172000,0.591171875,-0.12729303538799286,0.05693453550338745,-0.10353951156139374
1758273317292129800,0.6011298828125,-0.12315083295106888,0.08539319038391113,-0.12280741333961487
1758273317302087000,0.6110869140625,-0.11925728619098663,0.11181174963712692,-0.12870018184185028
1758273317312044800,0.621044921875,-0.12386615574359894,0.15193040668964386,-0.11824967712163925
1758273317322003000,0.6310029296875,-0.12451490014791489,0.19209618866443634,-0.08952002227306366
1758273317331960000,0.6409599609375,-0.13106468319892883,0.2282286286354065,-0.04069256782531738
1758273317341917700,0.650917724609375,-0.15333163738250732,0.2630537152290344,0.010344517417252064
1758273317351875800,0.660875732421875,-0.17867031693458557,0.2841244041919708,0.06690473109483719
1758273317361833000,0.6708330078125,-0.20788998901844025,0.28580591082572937,0.14915139973163605
1758273317371790800,0.680790771484375,-0.21507057547569275,0.2776927351951599,0.24111813306808472
1758273317381748000,0.690748046875,-0.20741266012191772,0.2895672619342804,0.28208422660827637
1758273317391706000,0.7007060546875,-0.17435628175735474,0.2330022156238556,0.30350416898727417
1758273317401663700,0.710663818359375,-0.14714357256889343,0.21820488572120667,0.2510550618171692
1758273317411620900,0.720620849609375,-0.15514183044433594,0.2092408537864685,0.2044926881790161
1758273317421579000,0.7305791015625,-0.13505440950393677,0.1824696809053421,0.1368902027606964
1758273317431537000,0.740536865234375,-0.12068231403827667,0.11893622577190399,0.10321719944477081
1758273317441494000,0.750493896484375,-0.11685322225093842,0.0885186642408371,0.10908787697553635
1758273317451452000,0.760451904296875,-0.12864752113819122,0.12121232599020004,0.11430147290229797
1758273317461409800,0.770409912109375,-0.1259220391511917,0.07795193791389465,0.12708410620689392
1758273317471367000,0.780366943359375,-0.12624989449977875,0.07291776686906815,0.1435289829969406
1758273317481324800,0.79032470703125,-0.13473951816558838,0.11977128684520721,0.147271528840065
1758273317491283700,0.80028369140625,-0.12920640408992767,0.09424049407243729,0.12642331421375275
1758273317501240800,0.81024072265625,-0.11784084141254425,0.07422444224357605,0.07506958395242691
1758273317511198700,0.82019873046875,-0.1085570827126503,0.04142053425312042,0.023383421823382378
1758273317521156900,0.830156982421875,-0.10595010966062546,0.012761727906763554,-0.01897255703806877
1758273317531114000,0.840114013671875,-0.09124013036489487,-0.016343697905540466,-0.040741633623838425
1758273317541071600,0.850071533203125,-0.07148746401071548,-0.027784638106822968,-0.031067967414855957
1758273317551028700,0.86002880859375,-0.05889544263482094,-0.03516208007931709,0.002953898161649704
1758273317560987000,0.86998681640625,-0.04183363541960716,-0.04164927452802658,0.043152183294296265
1758273317570944800,0.87994482421875,-0.019586823880672455,-0.036118604242801666,0.06390655040740967
1758273317580902000,0.88990185546875,-0.0021825325675308704,0.02732721157371998,0.05110792815685272
1758273317590859800,0.89985986328125,0.017413334921002388,-0.024218225851655006,0.05652238801121712
1758273317600817700,0.909817626953125,0.03399071469902992,-0.015669744461774826,0.047548599541187286
1758273317610774800,0.91977490234375,0.0444311648607254,-0.002541335765272379,0.056888919323682785
1758273317620732700,0.929732666015625,0.051190003752708435,0.020122164860367775,0.0726790651679039
1758273317630690800,0.93969091796875,0.0667446181178093,0.033930517733097076,0.09779700636863708
1758273317640647700,0.949647705078125,0.06131363660097122,0.0633147731423378,0.10732978582382202
1758273317650605600,0.95960546875,0.058320071548223495,0.02333756349980831,0.09799327701330185
1758273317660563700,0.969563720703125,0.05631045252084732,-0.009960205294191837,0.07748400419950485
1758273317670520800,0.979520751953125,0.057404324412345886,-0.047929611057043076,0.05005951225757599
1758273317680478700,0.989478759765625,0.05021299049258232,-0.08612972497940063,0.031556665897369385
1758273317690436900,0.999436767578125,0.03931808844208717,-0.1021631509065628,0.014817168936133385
1758273317700393700,1.009393798828125,0.028632953763008118,-0.12162046879529953,-0.005161067005246878
1758273317710351600,1.0193515625,0.01496159192174673,-0.1500663161277771,-0.01578289270401001
1758273317720308700,1.029308837890625,0.00004629103932529688,-0.15973599255084991,-0.03824958577752113
1758273317730267000,1.039266845703125,-0.0007773240795359015,-0.1752164363861084,-0.06549611687660217
1758273317740224800,1.049224853515625,0.004717842675745487,-0.17805030941963196,-0.08468738943338394
1758273317750181600,1.059181640625,0.013626241125166416,-0.18209098279476166,-0.07670129835605621
1758273317760139800,1.069139892578125,0.018775461241602898,-0.18469449877738953,-0.056186702102422714
1758273317770097700,1.07909765625,-0.005327551160007715,-0.02349296770989895,-0.036470986902713776
1758273317780054800,1.0890546875,0.0038467724807560444,-0.1581389307975769,0.012195087037980556
1758273317790013000,1.099012939453125,0.05150566250085831,-0.1833253651857376,0.029341377317905426
1758273317799970800,1.108970703125,0.07650928199291229,-0.15796087682247162,0.054008375853300095
1758273317809927700,1.118927734375,0.09798446297645569,-0.13185842335224152,0.08165797591209412
1758273317819885800,1.1288857421875,0.11548329144716263,-0.10346753895282745,0.11021159589290619
1758273317829843700,1.13884375,0.13314299285411835,-0.09859064966440201,0.13330167531967163
1758273317839800800,1.14880078125,0.1514037549495697,-0.09274448454380035,0.15739396214485168
1758273317849759000,1.158759033203125,0.16147418320178986,-0.07240111380815506,0.17722851037979126
1758273317859715600,1.168715576171875,0.15397126972675323,-0.06217537447810173,0.1885879635810852
1758273317869673700,1.178673828125,0.13384027779102325,-0.06346170604228973,0.1960097849369049
1758273317879632000,1.1886318359375,0.10865369439125061,-0.06839361786842346,0.19164513051509857
1758273317889588700,1.198588623046875,0.09132053703069687,-0.06988482922315598,0.17588435113430023
1758273317899547000,1.208546875,0.07653812319040298,-0.0782649964094162,0.1575077474117279
1758273317909504800,1.2185048828125,0.06545290350914001,-0.0929776132106781,0.12971246242523193
1758273317919461600,1.228461669921875,0.06428404152393341,-0.09865707159042358,0.1019814983010292
1758273317929419800,1.238419677734375,0.052028000354766846,-0.08942907303571701,0.08185604959726334
1758273317939377700,1.248377685546875,0.03758727386593819,-0.08355893194675446,0.0750170573592186
1758273317949334800,1.258334716796875,0.026993686333298683,-0.07701505720615387,0.07239517569541931
1758273317959292700,1.268292724609375,0.019194087013602257,-0.07084611058235168,0.062245070934295654
1758273317969250600,1.27825048828125,0.014886981807649136,-0.07104489952325821,0.05222366005182266
1758273317979207700,1.288207763671875,0.005137415137141943,-0.06442800164222717,0.028487971052527428
1758273317989165800,1.298165771484375,-0.0002550285425968468,-0.051815953105688095,0.0014782599173486233
1758273317999123000,1.308123046875,-0.0029639960266649723,-0.03259964659810066,-0.008136017248034477
1758273318009080600,1.31808056640625,-0.014351939782500267,-0.01287840586155653,-0.010878540575504303
1758273318019038700,1.328038818359375,-0.02621445804834366,-0.017072618007659912,-0.00806011725217104
1758273318028995800,1.337995849609375,-0.04455292597413063,-0.023510660976171494,-0.01906183734536171
1758273318038953700,1.34795361328125,-0.05242869257926941,-0.033393386751413345,-0.03579900786280632
1758273318048912000,1.357911865234375,-0.0641852393746376,-0.043305404484272,-0.04913651570677757
1758273318058868700,1.36786865234375,-0.0711137130856514,-0.04346172884106636,-0.05707832798361778
1758273318068826600,1.37782666015625,-0.076246477663517,-0.04623715952038765,-0.05832076072692871
1758273318078784800,1.38778466796875,-0.07844918221235275,-0.025283141061663628,-0.067667655646801
1758273318088742000,1.397741943359375,-0.07454697787761688,-0.005383071023970842,-0.0860038548707962
1758273318098699800,1.40769970703125,-0.06658918410539627,-0.010574370622634888,-0.09804799407720566
1758273318108656600,1.41765673828125,-0.05784802883863449,-0.008554656989872456,-0.1169162318110466
1758273318118614800,1.42761474609375,-0.050880931317806244,-0.007029997184872627,-0.13144509494304657
1758273318128572700,1.43757275390625,-0.05272989347577095,-0.011193540878593922,-0.1411360800266266
1758273318138529800,1.44752978515625,-0.05525749921798706,-0.013547775335609913,-0.13747289776802063
1758273318148487700,1.45748779296875,-0.05592069774866104,-0.018747905269265175,-0.12720507383346558
1758273318158445800,1.46744580078125,-0.0623391829431057,-0.03137128800153732,-0.12568335235118866
1758273318168402700,1.477402587890625,-0.05982000380754471,-0.030067795887589455,-0.12491043657064438
1758273318178360600,1.487360595703125,-0.07612308114767075,-0.025431232526898384,-0.11675690114498138
1758273318188318700,1.497318603515625,-0.08536949753761292,-0.02276712656021118,-0.1154155358672142
1758273318198275800,1.50727587890625,-0.09364020824432373,-0.009089665487408638,-0.11662647873163223
1758273318208233700,1.517233642578125,-0.10460340231657028,0.010169095359742641,-0.12800836563110352
1758273318218190600,1.527190673828125,-0.1099691390991211,0.027384568005800247,-0.13188059628009796
1758273318228148700,1.537148681640625,-0.11977274715900421,0.03902539983391762,-0.1355879157781601
1758273318238106600,1.547106689453125,-0.12421196699142456,0.04325609654188156,-0.13147492706775665
1758273318248063700,1.557063720703125,-0.12749794125556946,0.05043904855847359,-0.1176380142569542
1758273318258022000,1.56702197265625,-0.12892405688762665,0.04847017303109169,-0.09823422133922577
1758273318267979800,1.576979736328125,-0.13068035244941711,0.05092985928058624,-0.07347521185874939
1758273318277936600,1.5869365234375,-0.12351752817630768,0.044389933347702026,-0.04892006516456604
1758273318287894800,1.596894775390625,-0.11391117423772812,0.03590508922934532,-0.027933292090892792
1758273318297852700,1.606852783203125,-0.10488145798444748,0.02861814573407173,-0.02040693163871765
1758273318307809800,1.616809814453125,-0.09078202396631241,0.030731871724128723,-0.012316788546741009
1758273318317768000,1.626767822265625,-0.07432475686073303,0.03720708191394806,-0.007273027673363686
1758273318327724800,1.636724853515625,-0.060324110090732574,0.04637184366583824,-0.007074881810694933
1758273318337682700,1.6466826171875,-0.05520924553275108,0.05348141863942146,-0.007912978529930115
1758273318347640800,1.656640869140625,-0.04195590317249298,0.057546231895685196,-0.015825629234313965
1758273318357598000,1.666597900390625,-0.03388546034693718,0.05220579728484154,-0.018214751034975052
1758273318367555800,1.676555908203125,-0.031111804768443108,0.05069269612431526,-0.016346609219908714
1758273318377513700,1.686513671875,-0.02475510537624359,0.04755629226565361,-0.018115215003490448
1758273318387470800,1.696470947265625,-0.018776090815663338,0.04499700292944908,-0.022051766514778137
1758273318397428700,1.7064287109375,-0.00505601754412055,0.03501414507627487,-0.038584403693675995
1758273318407387000,1.716386962890625,-0.013181805610656738,0.035730790346860886,-0.033252619206905365
1758273318417343700,1.72634375,-0.025154579430818558,0.034225571900606155,-0.027172891423106194
1758273318427301600,1.736301513671875,-0.03483615443110466,0.028224390000104904,-0.02755891904234886
1758273318437258800,1.7462587890625,-0.03376929461956024,0.019443947821855545,-0.03007960133254528
1758273318447216600,1.756216552734375,-0.03765533119440079,0.015596630983054638,-0.02097698114812374
1758273318457174800,1.7661748046875,-0.032348450273275375,0.0065064625814557076,-0.007102444767951965
1758273318467132000,1.7761318359375,-0.02442169189453125,-0.002330569550395012,0.005395837128162384
1758273318477089500,1.786089599609375,-0.03332038223743439,0.004555299878120422,0.016283905133605003
1758273318487047200,1.796047119140625,-0.04227495938539505,0.007323648780584335,0.015516648069024086
1758273318497004300,1.80600439453125,-0.036176055669784546,0.009210765361785889,0.015392545610666275
1758273318506962200,1.815962158203125,-0.024623746052384377,0.015708068385720253,0.02085695043206215
1758273318516920300,1.82592041015625,-0.01831684820353985,0.024929797276854515,0.01791495643556118
1758273318526877200,1.835877197265625,-0.011246426962316036,0.02848155051469803,0.015125629492104053
1758273318536835000,1.8458349609375,-0.003373590297996998,0.020653188228607178,0.016480112448334694
1758273318546792200,1.855792236328125,0.0014089193427935243,0.008284507319331169,0.023109719157218933
1758273318556750300,1.865750244140625,0.007293440401554108,0.0017088963650166988,0.03194848448038101
1758273318566708200,1.875708251953125,0.019354160875082016,-0.0020357875619083643,0.034553851932287216
1758273318576665000,1.8856650390625,0.03369715064764023,0.003466835943982005,0.041515886783599854
1758273318586623200,1.895623291015625,0.03699028491973877,0.011122118681669235,0.04194306209683418
1758273318596581000,1.9055810546875,0.03778896480798721,0.008722078055143356,0.0377054400742054
1758273318606538200,1.915538330078125,0.03848955035209656,0.0032041333615779877,0.033784136176109314
1758273318616496400,1.925496337890625,0.029753848910331726,-0.0037528425455093384,0.02977581135928631
1758273318626454300,1.935454345703125,0.02691894769668579,-0.00913802720606327,0.014632809907197952
1758273318636411100,1.9454111328125,0.02373434044420719,-0.015266227535903454,0.0002783718518912792
1758273318646369300,1.955369384765625,0.020342597737908363,-0.019327133893966675,-0.006864957045763731
1758273318656326400,1.965326416015625,0.019583065062761307,-0.03143918886780739,-0.011547859758138657
1758273318666284300,1.9752841796875,0.012846425175666809,-0.02839505486190319,-0.010201298631727695
1758273318676242400,1.985242431640625,0.009182448498904705,-0.03585536777973175,-0.011075614020228386
1758273318686199300,1.99519921875,0.010850748978555202,-0.04215562716126442,-0.010072402656078339
1758273318696157200,2.0051572265625,0.012981011532247066,-0.04824840649962425,-0.007585010025650263
1758273318706115300,2.015115234375,0.01303635723888874,-0.04231167957186699,-0.009950029663741589
1758273318716072400,2.025072509765625,0.01303688995540142,-0.04122244566679001,-0.008663189597427845
1758273318726030300,2.0350302734375,0.013538224622607231,-0.04496634379029274,-0.007618437055498362
1758273318735988200,2.04498828125,0.01244526356458664,-0.04792564734816551,-0.002956307027488947
1758273318745945000,2.054945068359375,0.0020964830182492733,-0.047724153846502304,0.006185331381857395
1758273318755903200,2.0649033203125,0.006401749327778816,-0.040557585656642914,0.00303960544988513
1758273318765860400,2.0748603515625,0.008563012816011906,-0.03917819634079933,0.007257719524204731
1758273318775818200,2.084818359375,0.005599980242550373,-0.0365603081882,0.020128775388002396
1758273318785776000,2.094776123046875,0.0036206368822604418,-0.018164508044719696,0.0251857191324234
1758273318795733200,2.104733154296875,0.004604941233992577,-0.013046978041529655,0.02668534591794014
1758273318805691100,2.114691162109375,0.00770010519772768,-0.009566128253936768,0.030036067590117455
1758273318815649300,2.124649169921875,0.012772628106176853,-0.010130718350410461,0.02357896789908409
1758273318825606400,2.1346064453125,0.01365896500647068,-0.016552884131669998,0.018580477684736252
1758273318835564000,2.14456396484375,0.014901862479746342,-0.024220656603574753,0.005655358545482159
1758273318845521200,2.154521240234375,0.012150497175753117,-0.027532342821359634,-0.0053023481741547585
1758273318855479300,2.164479248046875,0.005638269241899252,-0.02853342518210411,-0.0061276620253920555
1758273318865437200,2.174437255859375,0.0008116201497614384,-0.03126770630478859,-0.013609815388917923
1758273318875394300,2.184394287109375,0.005270817317068577,-0.03579108789563179,-0.021644573658704758
1758273318885352200,2.194352294921875,0.006502025760710239,-0.03972095623612404,-0.016529900953173637
1758273318895310000,2.20431005859375,0.003435129066929221,-0.0400083102285862,-0.012700541876256466
1758273318905267200,2.21426708984375,0.008058219216763973,-0.044286273419857025,-0.01665380410850048
1758273318915225300,2.224225341796875,0.014999481849372387,-0.03903692215681076,-0.026289919391274452
1758273318925183200,2.234183349609375,0.016076937317848206,-0.03589986264705658,-0.02903996780514717
1758273318935140000,2.24414013671875,0.016654841601848602,-0.031067024916410446,-0.036401212215423584
1758273318945098200,2.25409814453125,0.01864052750170231,-0.029590575024485588,-0.04177786782383919
1758273318955055400,2.264055419921875,0.020739629864692688,-0.02647094801068306,-0.040084365755319595
1758273318965013200,2.27401318359375,0.016877906396985054,-0.02859734743833542,-0.03391615301370621
1758273318974971400,2.283971435546875,0.01477960217744112,-0.03160432353615761,-0.03590420261025429
1758273318984928300,2.29392822265625,0.017301222309470177,-0.04693733900785446,-0.046276748180389404
1758273318994886100,2.30388623046875,0.025296565145254135,-0.05896630510687828,-0.0629100501537323
1758273319004844300,2.31384423828125,0.026368645951151848,-0.06141788512468338,-0.0748974084854126
1758273319014801200,2.32380126953125,0.022185884416103363,-0.056706752628088,-0.07696188986301422
1758273319024759300,2.33375927734375,0.01412891037762165,-0.05481854826211929,-0.06887692958116531
1758273319034717400,2.343717529296875,0.01003882847726345,-0.052722375839948654,-0.06436047703027725
1758273319044674000,2.353674072265625,0.00372983212582767,-0.052147138863801956,-0.0572250671684742
1758273319054632200,2.363632080078125,-0.0010598631342872977,-0.045768868178129196,-0.051438815891742706
1758273319064589300,2.37358935546875,0.001690360833890736,-0.042342547327280045,-0.059514120221138
1758273319074547200,2.383547119140625,0.008051853626966476,-0.04223868250846863,-0.07194336503744125
1758273319084505300,2.39350537109375,0.014428624883294106,-0.05162607878446579,-0.07684118300676346
1758273319094462200,2.403462158203125,0.015465394593775272,-0.05172674357891083,-0.07905959337949753
1758273319104420000,2.413420166015625,0.016866514459252357,-0.049322184175252914,-0.06993373483419418
1758273319114378200,2.423378173828125,0.014614546671509743,-0.033552009612321854,-0.05233397334814072
1758273319124335400,2.43333544921875,0.011670675128698349,-0.028168056160211563,-0.03631552681326866
1758273319134293200,2.443293212890625,0.007601364515721798,-0.023144003003835678,-0.040366195142269135
1758273319144250000,2.45325,0.008335127495229244,-0.01791713386774063,-0.04407777264714241
1758273319154208300,2.463208251953125,0.007720203138887882,-0.018897708505392075,-0.0421333983540535
1758273319164166100,2.473166259765625,0.012300982140004635,-0.024355728179216385,-0.0382457859814167
1758273319174123300,2.483123291015625,0.02452382631599903,-0.042942196130752563,-0.043862923979759216
1758273319184081400,2.493081298828125,0.027688270434737206,-0.04719165712594986,-0.05506371334195137
1758273319194039300,2.503039306640625,0.026289312168955803,-0.039821356534957886,-0.08992182463407516
1758273319203996200,2.51299609375,0.031043777242302895,-0.06459662318229675,-0.1423436850309372
1758273319213954300,2.522954345703125,0.03816640004515648,-0.0983753576874733,-0.21069903671741486
1758273319223911200,2.5329111328125,0.05611734464764595,-0.14311100542545319,-0.305542528629303
1758273319233869300,2.542869384765625,0.10019239783287048,-0.20603138208389282,-0.431290864944458
1758273319243827500,2.552827392578125,0.1517743468284607,-0.2514132559299469,-0.5802522301673889
1758273319253784000,2.5627841796875,0.18885353207588196,-0.30471083521842957,-0.7631882429122925
1758273319263742200,2.5727421875,0.22284194827079773,-0.3714204430580139,-0.957615852355957
1758273319273700400,2.582700439453125,0.27855923771858215,-0.4409928619861603,-1.1424275636672974
1758273319283657200,2.5926572265625,0.33268874883651733,-0.5127877593040466,-1.3490324020385742
1758273319293615400,2.602615478515625,0.3899640142917633,-0.6380133032798767,-1.5317553281784058
1758273319303573200,2.6125732421875,0.4549406170845032,-0.7688471078872681,-1.7028205394744873
1758273319313530000,2.622530029296875,0.5403218269348145,-0.8944819569587708,-1.8915225267410278
1758273319323488300,2.63248828125,0.6397093534469604,-1.0356417894363403,-2.054250955581665
1758273319333445400,2.6424453125,0.7266418933868408,-1.1655811071395874,-2.176018714904785
1758273319343403300,2.6524033203125,0.7980432510375977,-1.2650880813598633,-2.262620687484741
1758273319353361200,2.662361083984375,0.8636901378631592,-1.3701354265213013,-2.2701497077941895
1758273319363318300,2.672318359375,0.9096792936325073,-1.5212647914886475,-2.208662986755371
1758273319373276200,2.682276123046875,0.9850813746452332,-1.919635534286499,-2.1273791790008545
1758273319383234300,2.692234375,1.0820497274398804,-2.5598886013031006,-1.9911935329437256
1758273319393191400,2.70219140625,1.062320590019226,-3.1779115200042725,-1.892100214958191
1758273319403149000,2.712149169921875,0.9261506795883179,-3.7968692779541016,-1.861828327178955
1758273319413106200,2.722106201171875,0.6048767566680908,-3.6556806564331055,-1.9145716428756714
1758273319423064300,2.732064208984375,0.3311396837234497,-3.2004172801971436,-2.117377758026123
1758273319433022200,2.742022216796875,0.2605859041213989,-2.5561790466308594,-2.4267497062683105
1758273319442979300,2.751979248046875,0.26272326707839966,-1.4888341426849365,-2.55881404876709
1758273319452937500,2.7619375,0.268823504447937,-0.35194480419158936,-2.4147894382476807
1758273319462895000,2.77189501953125,0.37954646348953247,0.26826801896095276,-2.090937376022339
1758273319472852200,2.781852294921875,0.5850093960762024,-0.0060570091009140015,-1.8237805366516113
1758273319482810400,2.791810302734375,0.7107471823692322,-0.6668502688407898,-1.6444263458251953
1758273319492767700,2.801767822265625,0.6237941980361938,-0.8014621138572693,-1.3121541738510132
1758273319502726000,2.811725830078125,0.4716036021709442,-0.1977003514766693,-0.82260662317276
1758273319512683800,2.821683837890625,0.45642703771591187,0.24313296377658844,-0.4465310275554657
1758273319522640600,2.831640625,0.5667958855628967,-0.10361219942569733,-0.1464950293302536
1758273319532598800,2.841598876953125,0.8305186033248901,-0.21614113450050354,0.009874607436358929
1758273319542556700,2.851556640625,1.0936318635940552,-0.24287621676921844,0.10502422600984573
1758273319552513800,2.861513671875,1.215125322341919,-0.28217434883117676,0.09359553456306458
1758273319562472000,2.871471923828125,1.1689472198486328,-0.1845058798789978,0.05095352604985237
1758273319572428800,2.8814287109375,1.182844877243042,0.15303035080432892,-0.006245579570531845
1758273319582386700,2.89138671875,1.217997431755066,-0.21022306382656097,0.15142348408699036
1758273319592344800,2.9013447265625,1.2253484725952148,-0.061604298651218414,0.27710017561912537
1758273319602302000,2.911302001953125,1.2223552465438843,-0.0025645631831139326,0.263996958732605
1758273319612259800,2.921259765625,1.200081467628479,-0.027370844036340714,0.24138326942920685
1758273319622218000,2.931218017578125,1.0963003635406494,-0.20012891292572021,0.28921395540237427
1758273319632174800,2.9411748046875,1.015290379524231,-0.3600522577762604,0.3307981789112091
1758273319642132700,2.9511328125,0.9542832970619202,-0.4530254602432251,0.2746955454349518
1758273319652089900,2.96108984375,0.9559450745582581,-0.564208447933197,0.1023125946521759
1758273319662047700,2.9710478515625,0.9075343608856201,-0.7977027893066406,-0.01996731571853161
1758273319672006000,2.981005859375,0.6917546391487122,-1.1028954982757568,0.05880472809076309
1758273319681962800,2.990962646484375,0.39383915066719055,-1.2568236589431763,0.21065305173397064
1758273319691920600,3.000920654296875,0.2935468852519989,-1.1714144945144653,0.0029419329948723316
1758273319701878800,3.010878662109375,0.49131256341934204,-1.4939862489700317,-0.3692741096019745
1758273319711836000,3.0208359375,0.679955780506134,-1.9225724935531616,-0.44245246052742004
1758273319721793800,3.030793701171875,0.8265078067779541,-1.524250864982605,-0.2814328670501709
1758273319731750700,3.040750732421875,0.8532832264900208,-0.5884957909584045,-0.0996878370642662
1758273319741708800,3.050708740234375,0.7644287943840027,0.2193242609500885,-0.08959288150072098
1758273319751666700,3.060666748046875,0.72614985704422,0.3933951258659363,-0.18138912320137024
1758273319761623800,3.070623779296875,0.6808368563652039,0.15043553709983826,-0.22717136144638062
1758273319771582000,3.08058203125,0.40684983134269714,-0.24207472801208496,-0.1762581169605255
1758273319781539600,3.09053955078125,0.19990938901901245,-0.47521480917930603,-0.13223780691623688
1758273319791496700,3.10049658203125,0.08762358874082565,-0.6738448143005371,-0.12001335620880127
1758273319801454800,3.110454833984375,0.01790226809680462,-0.8193604946136475,-0.1323762834072113
1758273319811412700,3.120412841796875,-0.029062310233712196,-0.9769333004951477,-0.20478230714797974
1758273319821369900,3.130369873046875,-0.08460400253534317,-1.1415013074874878,-0.37576383352279663
1758273319831327700,3.14032763671875,-0.12798957526683807,-1.413017988204956,-0.5372232794761658
1758273319841284900,3.150284912109375,-0.1692291647195816,-1.602097988128662,-0.6955347657203674
1758273319851242800,3.16024267578125,-0.21814744174480438,-1.6167209148406982,-0.8403676152229309
1758273319861201000,3.170200927734375,-0.26758819818496704,-1.5651977062225342,-0.9615320563316345
1758273319871157800,3.18015771484375,-0.3264552652835846,-1.6075949668884277,-1.088785171508789
1758273319881115600,3.19011572265625,-0.38956964015960693,-1.598990797996521,-1.1891683340072632
1758273319891072800,3.20007275390625,-0.484794944524765,-1.2992310523986816,-1.1895341873168945
1758273319901030700,3.21003076171875,-0.6226350665092468,-1.0872833728790283,-1.0717413425445557
1758273319910988800,3.21998876953125,-0.873152494430542,-0.9221479296684265,-0.9481321573257446
1758273319920946000,3.22994580078125,-1.088783621788025,-0.9316478371620178,-0.79227215051651
1758273319930903600,3.239903564453125,-1.0608770847320557,-1.3817145824432373,-0.6163908839225769
1758273319940861700,3.24986181640625,-0.8367430567741394,-1.6506540775299072,-0.5321195125579834
1758273319950818800,3.25981884765625,-0.6569736003875732,-1.8910222053527832,-0.4451899230480194
1758273319960776700,3.269776611328125,-0.5467369556427002,-2.3390402793884277,-0.3882199227809906
1758273319970733800,3.27973388671875,-0.32984620332717896,-2.544485569000244,-0.48145371675491333
1758273319980691700,3.289691650390625,-0.25787410140037537,-2.672154188156128,-0.7251226305961609
1758273319990649600,3.299649658203125,-0.24104371666908264,-2.6167190074920654,-0.9247856736183167
1758273320000606700,3.309606689453125,-0.20156125724315643,-2.4528968334198,-0.9432281255722046
1758273320010564900,3.31956494140625,-0.21362963318824768,-2.2223265171051025,-0.9247026443481445
1758273320020522800,3.329522705078125,-0.2784368395805359,-2.092639207839966,-0.9136185050010681
1758273320030479600,3.339479736328125,-0.3737548589706421,-2.1404054164886475,-0.9326465129852295
1758273320040437800,3.349437744140625,-0.42588984966278076,-2.230182647705078,-1.0233018398284912
1758273320050395000,3.359394775390625,-0.3163204789161682,-2.405756950378418,-1.090332269668579
1758273320060352800,3.369352783203125,-0.0970539078116417,-2.4845497608184814,-0.9957908987998962
1758273320070311000,3.379310791015625,-0.1397334486246109,-2.2972517013549805,-0.9206160306930542
1758273320080268000,3.38926806640625,-0.17604215443134308,-2.321239709854126,-0.8520591855049133
1758273320090225700,3.3992255859375,-0.16672295331954956,-2.4647271633148193,-0.8245759010314941
1758273320100183800,3.409183837890625,-0.16513511538505554,-2.483184814453125,-0.8032689690589905
1758273320110141000,3.419140869140625,-0.13293376564979553,-2.2947018146514893,-0.7694761157035828
1758273320120098800,3.429098876953125,-0.07436724007129669,-1.9576301574707031,-0.7497137784957886
1758273320130056000,3.439055908203125,-0.028188025578856468,-1.6006402969360352,-0.699623167514801
1758273320140013600,3.449013671875,-0.003688385710120201,-1.3151721954345703,-0.6238993406295776
1758273320149971700,3.4589716796875,0.010169640183448792,-1.1397249698638916,-0.5169041752815247
1758273320159928800,3.4689287109375,-0.009706033393740654,-0.9809471368789673,-0.4194759130477905
1758273320169886700,3.47888671875,-0.0015061602462083101,-0.9169212579727173,-0.33736318349838257
1758273320179844900,3.488844970703125,0.006929214112460613,-0.802227258682251,-0.26177582144737244
1758273320189801700,3.4988017578125,-0.023762384429574013,-0.6686623096466064,-0.17811155319213867
1758273320199759600,3.508759521484375,-0.07673320174217224,-0.5796843767166138,-0.08960133045911789
1758273320209716700,3.518716796875,-0.12844514846801758,-0.5143714547157288,-0.004278713837265968
1758273320219675000,3.5286748046875,-0.16109365224838257,-0.48241323232650757,0.07825104892253876
1758273320229632800,3.5386328125,-0.19164970517158508,-0.44392523169517517,0.17345745861530304
1758273320239589600,3.548589599609375,-0.24183811247348785,-0.34650328755378723,0.293395459651947
1758273320249547800,3.5585478515625,-0.2653655409812927,-0.19405516982078552,0.4032769501209259
1758273320259505000,3.5685048828125,-0.31736278533935547,-0.02440662309527397,0.42514437437057495
1758273320269462800,3.578462890625,-0.35425636172294617,0.2476440668106079,0.38618019223213196
1758273320279421000,3.5884208984375,-0.3575456738471985,0.5202124714851379,0.30378901958465576
1758273320289377800,3.598377685546875,-0.3677058815956116,0.6938061118125916,0.23530292510986328
1758273320299335700,3.608335693359375,-0.376132994890213,0.6983333230018616,0.22697713971138
1758273320309293800,3.6182939453125,-0.35584476590156555,0.48020392656326294,0.30856573581695557
1758273320319251000,3.6282509765625,-0.28693848848342896,0.25816610455513,0.41128215193748474
1758273320329208800,3.638208740234375,-0.2083539217710495,0.20158962905406952,0.4455815255641937
1758273320339165700,3.648165771484375,-0.08951131999492645,0.25439146161079407,0.4119071364402771
1758273320349123800,3.658123779296875,-0.04598381742835045,0.39739176630973816,0.2967677712440491
1758273320359081700,3.668081787109375,-0.07044371217489243,0.6244269013404846,0.18429546058177948
1758273320369038800,3.678038818359375,-0.12042511999607086,1.022043228149414,0.19710686802864075
1758273320378996700,3.687996826171875,-0.09718338400125504,1.6414120197296143,0.30762726068496704
1758273320388955000,3.697954833984375,0.07463497668504715,2.3521599769592285,0.3335864245891571
1758273320398911700,3.707911865234375,0.6676543951034546,3.2213101387023926,0.4839165210723877
1758273320408869600,3.71786962890625,1.568065881729126,3.858185291290283,0.6734592914581299
1758273320418826800,3.72782666015625,1.8859301805496216,3.3624415397644043,0.19252969324588776
1758273320428785000,3.737784912109375,0.8968957662582397,1.8242970705032349,-0.5852802991867065
1758273320438742800,3.74774267578125,-0.14244188368320465,0.4631750285625458,-0.9870152473449707
1758273320448699600,3.75769970703125,-0.17050868272781372,0.7388809323310852,-0.6442171931266785
1758273320458657800,3.76765771484375,0.16379177570343018,1.5063334703445435,0.07624409347772598
1758273320468615000,3.777614990234375,0.4166509211063385,1.3834033012390137,0.48506247997283936
1758273320478572800,3.78757275390625,0.45654812455177307,0.7325449585914612,0.41506800055503845
1758273320488531000,3.797531005859375,0.4350617527961731,0.39076393842697144,0.28027504682540894
1758273320498487600,3.807487548828125,0.40365150570869446,0.9787977337837219,0.38885897397994995
1758273320508445400,3.817445556640625,0.36051124334335327,1.6032406091690063,0.7564130425453186
1758273320518403600,3.827403564453125,0.3641703128814697,1.7860150337219238,1.0719285011291504
1758273320528360700,3.837360595703125,0.5503017902374268,1.6292423009872437,1.052087426185608
1758273320538318600,3.847318603515625,0.6899936199188232,1.1927540302276611,0.8165101408958435
1758273320548275500,3.857275390625,0.5724858641624451,1.12709379196167,0.7160048484802246
1758273320558233600,3.867233642578125,0.4079890847206116,1.4668171405792236,0.8299692273139954
1758273320568191500,3.87719140625,0.32174208760261536,1.8514955043792725,0.9894278645515442
1758273320578148600,3.887148681640625,0.3786868155002594,2.202469825744629,1.0682263374328613
1758273320588106800,3.897106689453125,0.42241379618644714,2.538912057876587,1.0931847095489502
1758273320598064400,3.907064453125,0.43116194009780884,2.845435619354248,1.1872742176055908
1758273320608021500,3.917021484375,0.46724456548690796,3.0665695667266846,1.3766752481460571
1758273320617979600,3.926979736328125,0.5959154367446899,3.326908826828003,1.4421190023422241
1758273320627936500,3.9369365234375,0.8052835464477539,3.414853811264038,1.3271980285644531
1758273320637894700,3.946894775390625,1.0057905912399292,3.207674503326416,1.3857755661010742
1758273320647852500,3.9568525390625,1.0703972578048706,3.1042234897613525,1.6613181829452515
1758273320657809400,3.966809326171875,0.9525423049926758,3.0365219116210938,1.983792781829834
1758273320667767600,3.976767578125,0.7538686394691467,2.962019681930542,2.1721031665802
1758273320677724700,3.986724609375,0.6237814426422119,2.589662790298462,2.2820119857788086
1758273320687682600,3.9966826171875,0.4697532653808594,2.1490957736968994,2.3904101848602295
1758273320697640400,4.006640380859375,0.37329819798469543,1.9386565685272217,2.560002326965332
1758273320707597600,4.01659765625,0.44150039553642273,2.099919319152832,2.6740617752075195
1758273320717555500,4.026555419921875,0.5511704683303833,2.5630381107330322,2.6745338439941406
1758273320727513600,4.036513671875,0.527874231338501,3.335564613342285,2.520296573638916
1758273320737470700,4.046470703125,0.2303408831357956,3.6227781772613525,2.3581080436706543
1758273320747428600,4.0564287109375,0.03138704225420952,2.9471733570098877,2.304389715194702
1758273320757385500,4.066385498046875,0.22604212164878845,1.7699371576309204,2.175607204437256
1758273320767343600,4.076343505859375,0.2923186123371124,0.7745684385299683,2.1478700637817383
1758273320777301500,4.086301513671875,0.24758732318878174,-0.10250023007392883,2.3534421920776367
1758273320787258600,4.096258544921875,0.15778499841690063,-0.819588840007782,2.4751908779144287
1758273320797216800,4.106216796875,0.061258699744939804,-1.3889133930206299,2.2453596591949463
1758273320807173400,4.11617333984375,-0.040439434349536896,-1.8716055154800415,1.6897863149642944
1758273320817131500,4.126131591796875,-0.12944504618644714,-2.507709264755249,1.0956467390060425
1758273320827089700,4.136089599609375,-0.08745364099740982,-2.7717769145965576,0.5791061520576477
1758273320837046500,4.146046630859375,0.1348545402288437,-2.3523638248443604,0.019243458285927773
1758273320847004700,4.156004638671875,0.4781580865383148,-1.5545032024383545,-0.6292181611061096
1758273320856961500,4.16596142578125,0.7849818468093872,-0.9840309619903564,-1.2717849016189575
1758273320866919400,4.17591943359375,0.8498572707176208,-0.7665923833847046,-1.7301346063613892
1758273320876877600,4.185877685546875,0.6185370087623596,-0.7696910500526428,-2.037466049194336
1758273320886834700,4.195834716796875,0.36261817812919617,-0.9774418473243713,-2.436527967453003
1758273320896792600,4.20579248046875,0.07537466287612915,-1.0071966648101807,-2.615952491760254
1758273320906750500,4.21575048828125,-0.20708845555782318,-0.9448300004005432,-2.502692937850952
1758273320916707600,4.22570751953125,-0.325144499540329,-1.0531598329544067,-2.3724372386932373
1758273320926665500,4.23566552734375,-0.26488834619522095,-1.428229570388794,-2.4562599658966064
1758273320936622600,4.24562255859375,-0.10083802789449692,-1.9177035093307495,-2.7393155097961426
1758273320946580700,4.255580810546875,0.0540788471698761,-2.4345078468322754,-3.038015127182007
1758273320956538400,4.265538330078125,0.18023382127285004,-2.9499242305755615,-3.295969009399414
1758273320966495500,4.27549560546875,0.2901661992073059,-3.5564870834350586,-3.5720367431640625
1758273320976453600,4.28545361328125,0.4247719645500183,-4.188721656799316,-3.80354642868042
1758273320986410500,4.295410400390625,0.6950921416282654,-4.396017551422119,-3.8512651920318604
1758273320996368600,4.30536865234375,1.1183273792266846,-3.8360652923583984,-3.7354235649108887
1758273321006326500,4.315326416015625,1.5956923961639404,-2.6611671447753906,-3.591956377029419
1758273321016283400,4.325283447265625,1.9509239196777344,-1.5216726064682007,-3.5096371173858643
1758273321026241500,4.335241455078125,2.007375955581665,-0.9627857208251953,-3.3958137035369873
1758273321036199700,4.34519970703125,1.7590659856796265,-0.9435881972312927,-3.5263712406158447
1758273321046156500,4.355156494140625,1.2771639823913574,-1.2879748344421387,-3.6513869762420654
1758273321056114400,4.365114501953125,0.8364399671554565,-1.4507814645767212,-3.5956053733825684
1758273321066071600,4.375071533203125,0.7812501788139343,-2.010185718536377,-3.3716721534729004
1758273321076029400,4.385029541015625,0.4574474096298218,-2.865891933441162,-2.994223117828369
1758273321085987600,4.394987548828125,0.1307651698589325,-3.6043426990509033,-2.6483068466186523
1758273321095944700,4.40494482421875,-0.23219707608222961,-3.9264726638793945,-2.3767588138580322
1758273321105902300,4.41490234375,-0.8205125331878662,-4.011749267578125,-2.001573324203491
1758273321115859500,4.424859375,-1.3102569580078125,-3.991969347000122,-1.5819053649902344
1758273321125817600,4.434817626953125,-1.532221794128418,-4.047785758972168,-1.1012663841247559
1758273321135775500,4.444775390625,-1.5546553134918213,-3.951676845550537,-0.7191243767738342
1758273321145732600,4.454732666015625,-1.602824091911316,-3.5349137783050537,-0.36052921414375305
1758273321155690500,4.4646904296875,-1.7350724935531616,-2.6493639945983887,0.06893541663885117
1758273321165647600,4.474647705078125,-1.6525624990463257,-1.8044298887252808,0.3862164616584778
1758273321175605500,4.48460546875,-1.781214714050293,-0.802001416683197,0.843558669090271
1758273321185563600,4.494563720703125,-1.803489089012146,-0.06289081275463104,1.3176037073135376
1758273321195520500,4.5045205078125,-1.6914284229278564,0.46925538778305054,1.8137749433517456
1758273321205478400,4.514478515625,-1.5295822620391846,1.131156086921692,2.315288543701172
1758273321215435500,4.524435546875,-1.2996931076049805,1.4155021905899048,2.6736409664154053
1758273321225393400,4.534393310546875,-0.9433565735816956,1.3933066129684448,2.7607851028442383
1758273321235351600,4.5443515625,-0.6216989755630493,1.4395318031311035,2.6005332469940186
1758273321245308700,4.55430859375,-0.3649292588233948,1.880414366722107,2.3565993309020996
1758273321255266300,4.564266357421875,-0.17757360637187958,2.592484951019287,2.1872737407684326
1758273321265224400,4.574224365234375,0.014380916953086853,3.2987349033355713,2.067540168762207
1758273321275181600,4.584181640625,0.13960102200508118,3.544893980026245,1.7859809398651123
1758273321285139500,4.594139404296875,0.17920967936515808,3.2751011848449707,1.1758571863174438
1758273321295096600,4.6040966796875,0.1322648972272873,2.544428825378418,0.2553212642669678
1758273321305054500,4.614054443359375,0.020872579887509346,1.554570198059082,-0.6769970655441284
1758273321315012400,4.624012451171875,0.04281887784600258,0.682614266872406,-1.6005107164382935
1758273321324969500,4.633969482421875,0.11028287559747696,0.0904095321893692,-2.6024558544158936
1758273321334927600,4.643927734375,0.08123374730348587,0.3345176875591278,-2.9765591621398926
1758273321344884700,4.653884765625,0.05511853098869324,1.3643358945846558,-1.8789082765579224
1758273321354842400,4.66384228515625,0.5787361860275269,3.514789342880249,-0.4389873743057251
1758273321364800500,4.673800537109375,1.5512174367904663,5.299327373504639,0.6129705905914307
1758273321374757600,4.683757568359375,1.393446922302246,3.6907522678375244,0.9762661457061768
1758273321384715500,4.693715576171875,0.8986238837242126,0.3274138271808624,0.9714298248291016
1758273321394672600,4.703672607421875,0.7377621531486511,-2.431407928466797,0.06106278672814369
1758273321404630500,4.713630615234375,1.0794230699539185,-2.4508626461029053,-0.22940073907375336
1758273321414588400,4.72358837890625,1.4189226627349854,-2.1903176307678223,-0.23098145425319672
1758273321424545500,4.733545654296875,1.5446009635925293,-2.1738340854644775,-0.1186932772397995
1758273321434503700,4.743503662109375,1.4031851291656494,-0.5210039615631104,0.5138987302780151
1758273321444460500,4.75346044921875,0.939583420753479,2.314776659011841,1.6264978647232056
1758273321454418400,4.76341845703125,0.48454904556274414,5.305234909057617,2.9021384716033936
1758273321464376600,4.77337646484375,0.595428466796875,7.316804885864258,3.7424845695495605
1758273321474333400,4.78333349609375,1.0195120573043823,7.1997551918029785,4.25739860534668
1758273321484291600,4.79329150390625,1.2682470083236694,6.088339805603027,4.674689769744873
1758273321494249200,4.803249267578125,1.356067419052124,5.047207355499268,4.749345779418945
1758273321504206000,4.8132060546875,1.1510820388793945,3.4607291221618652,4.321564197540283
1758273321514164200,4.823164306640625,0.6926778554916382,1.3605093955993652,3.766200065612793
1758273321524121300,4.833121337890625,0.21044941246509552,0.016536111012101173,3.6778526306152344
1758273321534079200,4.843079345703125,0.1404499113559723,-0.33234545588493347,3.6358447074890137
1758273321544037400,4.853037353515625,0.26974985003471375,-0.19943268597126007,3.3565666675567627
1758273321553994200,4.862994140625,0.4033057689666748,-0.0007771146483719349,3.0737850666046143
1758273321563952000,4.8729521484375,0.3753921091556549,0.1580231934785843,3.029721736907959
1758273321573909200,4.8829091796875,0.3845219910144806,0.2744032144546509,2.9684410095214844
1758273321583867400,4.892867431640625,0.3980841338634491,0.1832578480243683,2.488264322280884
1758273321593825300,4.9028251953125,0.45617103576660156,0.07557003200054169,1.9109623432159424
1758273321603782100,4.9127822265625,0.4570179283618927,0.05549804866313934,1.6182937622070312
1758273321613740300,4.922740234375,0.4956640601158142,-0.14194129407405853,1.4227304458618164
1758273321623697400,4.932697509765625,0.5969344973564148,0.06387072801589966,1.216243863105774
1758273321633655300,4.9426552734375,0.5127795338630676,0.8674513697624207,1.0342581272125244
1758273321643613400,4.952613525390625,0.3237941563129425,1.9797767400741577,0.9112153053283691
1758273321653570000,4.962570068359375,0.1864422857761383,2.874368906021118,0.7189109921455383
1758273321663528200,4.972528076171875,0.0053625041618943214,2.9889302253723145,0.6311353445053101
1758273321673485300,4.9824853515625,-0.1538831740617752,2.047884702682495,0.691541314125061
1758273321683443200,4.992443115234375,-0.4278889000415802,0.9646952152252197,0.7728175520896912
1758273321693401300,5.0024013671875,-0.7195820212364197,0.47335609793663025,0.5232070684432983
1758273321703358200,5.012358154296875,-1.0135982036590576,0.32899653911590576,-0.14043699204921722
1758273321713316000,5.022316162109375,-1.353602409362793,0.033627722412347794,-1.1703096628189087
1758273321723273200,5.032273193359375,-1.5906034708023071,-0.6248162388801575,-2.39646053314209
1758273321733231400,5.0422314453125,-1.3744410276412964,-1.457610011100769,-3.2781567573547363
1758273321743189200,5.052189208984375,-0.8510259389877319,-2.2737839221954346,-3.6014037132263184
1758273321753146000,5.06214599609375,-0.35281136631965637,-3.1928083896636963,-3.530714750289917
1758273321763104300,5.072104248046875,0.15305687487125397,-4.313940048217773,-3.325448751449585
1758273321773061400,5.082061279296875,0.7756346464157104,-5.017910003662109,-3.3356575965881348
1758273321783019300,5.092019287109375,1.5233900547027588,-4.900399684906006,-3.549598217010498
1758273321792977400,5.101977294921875,2.372220277786255,-4.041160583496094,-3.8182241916656494
1758273321802934300,5.111934326171875,3.0718038082122803,-2.9116275310516357,-4.1249871253967285
1758273321812892200,5.12189208984375,3.339986562728882,-2.1197140216827393,-4.62309455871582
1758273321822849300,5.131849365234375,2.97263765335083,-1.768747091293335,-5.08054256439209
1758273321832807400,5.141807373046875,2.2923059463500977,-1.6486915349960327,-4.957932949066162
1758273321842765300,5.151765380859375,1.6414200067520142,-1.7230051755905151,-4.229488849639893
1758273321852722200,5.16172216796875,0.925690233707428,-1.5724047422409058,-3.611576557159424
1758273321862680300,5.171680419921875,0.6518858671188354,-0.5196401476860046,-3.53715443611145
1758273321872637200,5.18163720703125,0.8933122754096985,-0.08483128249645233,-3.554243564605713
1758273321882595300,5.19159521484375,1.220598816871643,-1.2781471014022827,-3.4576096534729004
1758273321892553200,5.20155322265625,1.2641011476516724,-2.7359261512756348,-3.2455599308013916
1758273321902510000,5.211510009765625,0.819872260093689,-3.278554916381836,-2.977015495300293
1758273321912468200,5.22146826171875,0.11665676534175873,-3.1542065143585205,-2.7945027351379395
1758273321922425300,5.23142529296875,-0.4337097108364105,-3.2227203845977783,-2.5212185382843018
1758273321932383200,5.24138330078125,-0.9062837362289429,-3.3310770988464355,-2.1389200687408447
1758273321942341400,5.25134130859375,-1.0284075736999512,-3.6410160064697266,-1.6726800203323364
1758273321952298200,5.26129833984375,-1.0204840898513794,-4.003961563110352,-1.2600005865097046
1758273321962256100,5.271256103515625,-1.0359584093093872,-3.949516773223877,-1.0323338508605957
1758273321972214300,5.28121435546875,-1.1555660963058472,-3.4012515544891357,-0.8165781497955322
1758273321982171400,5.29117138671875,-1.56862211227417,-2.1371755599975586,-0.5788313746452332
1758273321992129300,5.30112939453125,-2.1108007431030273,-1.579985499382019,-0.15380100905895233
1758273322002086100,5.311086181640625,-2.347379446029663,-1.6193872690200806,0.5729151964187622
1758273322012044300,5.321044189453125,-2.0699896812438965,-0.8134799599647522,1.323879361152649
1758273322022001200,5.331001220703125,-1.782743215560913,0.5470855832099915,1.8516101837158203
1758273322031959300,5.340959228515625,-1.4977130889892578,1.0197322368621826,1.9601943492889404
1758273322041917400,5.35091748046875,-1.219966173171997,0.9903697967529297,1.8270277976989746
1758273322051874000,5.3608740234375,-1.0011959075927734,1.2400100231170654,1.8158280849456787
1758273322061832200,5.370832275390625,-0.7106958031654358,1.5264354944229126,2.0714423656463623
1758273322071789300,5.380789306640625,-0.3765992522239685,1.7883607149124146,2.5102791786193848
1758273322081747200,5.390747314453125,-0.147218257188797,2.0262584686279297,2.813478469848633
1758273322091705300,5.400705322265625,-0.004700157791376114,2.491922616958618,2.8104195594787598
1758273322101662200,5.410662109375,0.1560884714126587,3.099895477294922,2.2496678829193115
1758273322111620000,5.4206201171875,0.16101840138435364,3.237875461578369,1.0726031064987183
1758273322121577200,5.4305771484375,0.1350102424621582,2.6304330825805664,-0.28367501497268677
1758273322131535400,5.440535400390625,0.15900753438472748,1.4787940979003906,-1.5241256952285767
1758273322141493200,5.4504931640625,0.2896273136138916,0.11360418051481247,-3.057995557785034
1758273322151450000,5.4604501953125,0.4748947322368622,-0.5826804637908936,-4.791119575500488
1758273322161408300,5.470408203125,0.7996512651443481,0.1545213907957077,-4.398820877075195
1758273322171365400,5.480365478515625,1.2727340459823608,2.394946575164795,-2.427062511444092
1758273322181323300,5.4903232421875,1.6703256368637085,4.59311056137085,-0.2191527783870697
1758273322191281400,5.500281494140625,1.40137779712677,3.5688934326171875,1.2578099966049194
1758273322201238300,5.51023828125,0.9957259297370911,1.3067020177841187,1.7085055112838745
1758273322211196200,5.520196044921875,0.9139785766601562,-0.7900504469871521,1.580755591392517
1758273322221153300,5.5301533203125,0.9307921528816223,-2.315882682800293,0.8834940791130066
1758273322231111200,5.540111083984375,1.1264948844909668,-2.163145065307617,0.6937627196311951
1758273322241069300,5.5500693359375,1.1639221906661987,-1.0220638513565063,1.3453083038330078
1758273322251026200,5.560026123046875,0.7335459589958191,1.4310235977172852,2.7892093658447266
1758273322260984000,5.569984130859375,0.0012592030689120293,3.8758795261383057,3.554252862930298
1758273322270941200,5.579941162109375,-0.17983923852443695,5.016524791717529,3.7138304710388184
1758273322280899300,5.5898994140625,-0.25154218077659607,4.5044684410095215,3.8175463676452637
1758273322290857200,5.599857177734375,-0.4823421537876129,3.438117742538452,3.812748670578003
1758273322300814000,5.60981396484375,-1.1549793481826782,1.7237786054611206,4.0250067710876465
1758273322310772200,5.619772216796875,-1.7622543573379517,-0.12639760971069336,4.400102138519287
1758273322320729300,5.629729248046875,-1.8856309652328491,-0.6014631986618042,4.826193809509277
1758273322330687200,5.639687255859375,-1.875908374786377,0.07797547429800034,5.417630195617676
1758273322340645400,5.649645263671875,-1.5274404287338257,1.1882435083389282,5.621558666229248
1758273322350602200,5.659602294921875,-0.9357467889785767,2.2779793739318848,5.080695152282715
1758273322360560000,5.66956005859375,-0.4709138870239258,3.213545560836792,3.9725866317749023
1758273322370517200,5.679517333984375,-0.16200973093509674,3.2719216346740723,2.9334335327148438
1758273322380475400,5.689475341796875,0.2838905155658722,2.0495026111602783,2.326443910598755
1758273322390433300,5.699433349609375,0.6166080236434937,0.0701252743601799,2.1562399864196777
1758273322400390100,5.70939013671875,0.5568802356719971,-1.4206236600875854,2.2390296459198
1758273322410348300,5.719348388671875,0.6220342516899109,-1.7114057540893555,2.0846173763275146
1758273322420305200,5.72930517578125,0.6550760865211487,-1.1717911958694458,1.5034840106964111
1758273322430263300,5.73926318359375,0.6205111742019653,0.09225694090127945,0.8652423620223999
1758273322440221200,5.74922119140625,0.48053303360939026,1.806878924369812,0.47641927003860474
1758273322450178000,5.759177978515625,0.09268742054700851,3.296144485473633,0.3689139187335968
1758273322460136200,5.76913623046875,-0.32752424478530884,3.7106401920318604,0.5176765322685242
1758273322470093300,5.77909326171875,-0.6555910706520081,3.054001808166504,0.7935722470283508
1758273322480051200,5.78905126953125,-1.0215790271759033,1.8784929513931274,1.0615131855010986
1758273322490009300,5.79900927734375,-1.318161129951477,0.7886438369750977,0.9337028861045837
1758273322499966500,5.808966552734375,-1.4853812456130981,-0.048236921429634094,0.275985985994339
1758273322509924400,5.81892431640625,-1.7791603803634644,-1.2457208633422852,-0.9730415940284729
1758273322519881500,5.828881591796875,-2.0847742557525635,-2.643563985824585,-2.4367895126342773
1758273322529839600,5.838839599609375,-1.8951828479766846,-3.3701171875,-3.4028420448303223
1758273322539797500,5.848797607421875,-1.2060011625289917,-3.763617515563965,-3.9240987300872803
1758273322549754400,5.85875439453125,-0.6212302446365356,-3.7844955921173096,-4.155077934265137
1758273322559712500,5.86871240234375,-0.14468050003051758,-3.850369930267334,-4.114230632781982
1758273322569669400,5.87866943359375,0.33265870809555054,-4.102621555328369,-3.975949287414551
1758273322579627500,5.88862744140625,0.8593957424163818,-4.759061336517334,-4.081355571746826
1758273322589585700,5.898585693359375,1.1920840740203857,-5.979107856750488,-4.2536163330078125
1758273322599542300,5.908542236328125,0.8293769359588623,-7.250268459320068,-4.135249137878418
1758273322609500400,5.91850048828125,0.26143306493759155,-7.744079113006592,-3.6932425498962402
1758273322619457500,5.92845751953125,0.5951180458068848,-7.647964000701904,-3.76975154876709
1758273322629415400,5.93841552734375,1.7964800596237183,-6.7786149978637695,-4.29709529876709
1758273322639373600,5.94837353515625,2.6573598384857178,-4.862694263458252,-4.428584098815918
1758273322649330400,5.958330322265625,2.64074969291687,-1.458473801612854,-3.732957601547241
1758273322659288300,5.968288330078125,1.9968793392181396,1.6670074462890625,-3.1599137783050537
1758273322669245400,5.978245361328125,1.6125093698501587,2.459223508834839,-2.9309163093566895
1758273322679203600,5.98820361328125,1.3085960149765015,1.0044207572937012,-2.6386938095092773
1758273322689161500,5.998161376953125,0.8882631659507751,-0.973742663860321,-2.1355888843536377
1758273322699118600,6.00811865234375,0.6886458992958069,-3.0135557651519775,-1.561089277267456
1758273322709076500,6.018076416015625,0.13032518327236176,-4.433443546295166,-1.4176641702651978
1758273322719033600,6.02803369140625,-0.5916711091995239,-3.966703176498413,-1.6201331615447998
1758273322728991500,6.037991455078125,-1.1816855669021606,-3.5813043117523193,-1.521599292755127
1758273322738948600,6.047948486328125,-1.5743372440338135,-3.8589296340942383,-1.1178920269012451
1758273322748906500,6.057906494140625,-1.4468551874160767,-3.7101030349731445,-0.7966176867485046
1758273322758864400,6.067864501953125,-1.0559651851654053,-2.635596990585327,-0.746522843837738
1758273322768821500,6.077821533203125,-0.7170698046684265,-0.7699088454246521,-0.7680007219314575
1758273322778779400,6.087779296875,-1.188250184059143,0.5869864225387573,-0.3681260347366333
1758273322788736500,6.097736572265625,-1.597532033920288,1.2243266105651855,0.6801758408546448
1758273322798694700,6.107694580078125,-1.695502519607544,1.0558723211288452,1.3554059267044067
1758273322808652300,6.11765234375,-1.6483159065246582,1.0074893236160278,1.4322346448898315
1758273322818609400,6.127609375,-1.4303431510925293,1.2694369554519653,1.1971150636672974
1758273322828567600,6.137567626953125,-1.2987089157104492,1.779800295829773,1.0810400247573853
1758273322838524700,6.147524658203125,-1.1917906999588013,2.1183621883392334,1.175154209136963
1758273322848482600,6.157482666015625,-0.9402593970298767,2.275614023208618,1.4581788778305054
1758273322858440400,6.1674404296875,-0.5809403657913208,2.4469916820526123,1.8089931011199951
1758273322868397600,6.1773974609375,-0.31711864471435547,2.536555290222168,1.9963314533233643
1758273322878355500,6.18735546875,-0.15711139142513275,2.6532652378082275,1.9244303703308105
1758273322888312600,6.1973125,-0.021567540243268013,2.643434762954712,1.5257000923156738
1758273322898270700,6.207270751953125,0.06540091335773468,2.3771238327026367,0.7339670658111572
1758273322908228400,6.217228271484375,0.12835824489593506,1.7668806314468384,-0.346713125705719
1758273322918185500,6.227185546875,0.3544217646121979,0.4288482666015625,-1.5158610343933105
1758273322928143600,6.2371435546875,0.8129774332046509,-2.0483481884002686,-3.3908913135528564
1758273322938100500,6.2471005859375,1.079321026802063,-3.847829818725586,-5.49444055557251
1758273322948058600,6.25705859375,0.8296267986297607,-3.4278926849365234,-4.595616817474365
1758273322958016500,6.2670166015625,0.31546756625175476,-1.6804897785186768,-2.4575276374816895
1758273322967973400,6.276973388671875,-0.19719724357128143,2.8637924194335938,-0.2617745101451874
1758273322977931500,6.286931640625,0.08231215924024582,8.976541519165039,2.188633441925049
1758273322987888600,6.296888671875,0.9649775624275208,9.90457820892334,2.3367111682891846
1758273322997846500,6.306846435546875,1.4205604791641235,4.416629791259766,0.9414837956428528
1758273323007803400,6.316803466796875,1.656474232673645,-7.334291934967041,-1.9644560813903809
1758273323017761500,6.326761474609375,0.4659169316291809,-6.620144844055176,-0.17281685769557953
1758273323027719400,6.336719482421875,0.981793224811554,-2.8301491737365723,2.058454751968384
1758273323037676500,6.346676513671875,0.2433609962463379,-0.30544888973236084,2.967341184616089
1758273323047634700,6.356634765625,-0.7336028814315796,2.222587823867798,2.922395944595337
1758273323057591600,6.366591552734375,-1.7206119298934937,5.571646690368652,3.062816619873047
1758273323067549400,6.376549560546875,-1.8728468418121338,6.939526557922363,3.3348135948181152
1758273323077507600,6.386507568359375,-1.238486409187317,6.935214996337891,3.725813627243042
1758273323087464400,6.39646435546875,-0.7383965253829956,5.573877334594727,4.236142158508301
1758273323097422600,6.406422607421875,-0.630107581615448,3.8477747440338135,4.425123691558838
1758273323107379500,6.41637939453125,-0.7934600710868835,2.7302417755126953,4.43531608581543
1758273323117337300,6.42633740234375,-1.1818045377731323,2.0413403511047363,4.582711219787598
1758273323127295500,6.43629541015625,-1.468923568725586,1.4074841737747192,4.704250812530518
1758273323137252600,6.446252685546875,-1.43134343624115,0.6559393405914307,4.54973840713501
1758273323147210500,6.45621044921875,-1.159851312637329,0.46414101123809814,4.190608978271484
1758273323157167400,6.46616748046875,-0.8127473592758179,0.9211031794548035,3.670994520187378
1758273323167125500,6.47612548828125,-0.3691745102405548,1.3173235654830933,3.189986228942871
1758273323177083400,6.48608349609375,-0.08585891872644424,1.6023966073989868,2.76945424079895
1758273323187040500,6.49604052734375,-0.11440743505954742,1.8099560737609863,2.1880669593811035
1758273323196998700,6.50599853515625,-0.05454596132040024,1.8531321287155151,1.8133952617645264
1758273323206955500,6.51595556640625,0.12137463688850403,1.7508611679077148,1.4536466598510742
1758273323216913400,6.525913330078125,0.25623899698257446,1.7641335725784302,1.2222036123275757
1758273323226870500,6.53587060546875,0.36779049038887024,2.1048927307128906,1.0925817489624023
1758273323236828700,6.54582861328125,0.4030829668045044,2.761688709259033,0.840946614742279
1758273323246786600,6.55578662109375,0.3901059627532959,3.313544273376465,0.38538414239883423
1758273323256743400,6.565743408203125,0.3268074095249176,3.195526599884033,-0.1276290863752365
1758273323266701600,6.57570166015625,0.18465590476989746,2.5847713947296143,-0.3832148015499115
1758273323276658400,6.585658447265625,-0.09651903808116913,1.7224416732788086,-0.6134094595909119
1758273323286616600,6.595616455078125,-0.4429815709590912,0.7260686755180359,-1.13430917263031
1758273323296574700,6.60557470703125,-0.7175062894821167,-0.554893434047699,-1.7205713987350464
1758273323306531300,6.61553125,-0.7740883231163025,-1.7903640270233154,-2.3452277183532715
1758273323316489500,6.625489501953125,-0.4848346710205078,-2.5955123901367188,-2.8307573795318604
1758273323326446600,6.635446533203125,-0.08867493271827698,-2.88179612159729,-3.1000330448150635
1758273323336404500,6.645404541015625,0.3943505883216858,-2.8153698444366455,-3.0611813068389893
1758273323346362600,6.655362548828125,1.105148196220398,-3.039462089538574,-2.918604612350464
1758273323356319500,6.665319580078125,1.7755622863769531,-3.7605724334716797,-2.9801061153411865
1758273323366277400,6.67527734375,2.035292625427246,-4.51852560043335,-3.1995956897735596
1758273323376234500,6.685234375,1.868371605873108,-5.036774158477783,-3.405479669570923
1758273323386192600,6.695192626953125,1.147553563117981,-5.443108558654785,-3.7531938552856445
1758273323396149500,6.7051494140625,0.36960136890411377,-5.776963233947754,-4.367967128753662
1758273323406107400,6.715107421875,0.3962307274341583,-6.318901062011719,-5.105340957641602
1758273323416065500,6.7250654296875,1.2733798027038574,-6.8817925453186035,-5.184062480926514
1758273323426022700,6.735022705078125,1.8868602514266968,-6.146568775177002,-4.065954208374023
1758273323435980500,6.74498046875,1.593567967414856,-2.9198880195617676,-3.0254030227661133
1758273323445937400,6.7549375,1.631034016609192,0.9089489579200745,-2.924252510070801
1758273323455895300,6.764895263671875,1.8475165367126465,2.770556926727295,-3.109046697616577
1758273323465853400,6.774853515625,1.7192691564559937,2.3354501724243164,-2.9413676261901855
1758273323475810600,6.784810546875,0.8953313231468201,0.19887419044971466,-2.185663938522339
1758273323485768400,6.7947685546875,-0.020598115399479866,-2.878303050994873,-1.334896445274353
1758273323495725300,6.804725341796875,-0.2606719434261322,-4.649033069610596,-1.0660525560379028
1758273323505683500,6.814683349609375,-0.5642328858375549,-5.386061668395996,-0.9858629107475281
1758273323515641300,6.824641357421875,-0.9697843790054321,-5.368847846984863,-0.8279600739479065
1758273323525598500,6.834598388671875,-1.2641305923461914,-5.203032493591309,-0.5667293667793274
1758273323535556600,6.844556640625,-0.9255198240280151,-4.369113445281982,-0.6105743050575256
1758273323545513500,6.854513427734375,-0.5761265754699707,-2.9659371376037598,-0.6346562504768372
1758273323555471400,6.864471435546875,-0.6977696418762207,-1.6607396602630615,-0.39294564723968506
1758273323565428500,6.874428466796875,-1.312307596206665,-0.6876781582832336,0.1286388337612152
1758273323575386600,6.88438671875,-1.7750009298324585,-0.1643688678741455,0.8571186065673828
1758273323585344500,6.894344482421875,-1.8403071165084839,-0.024068497121334076,1.3623677492141724
1758273323595301400,6.90430126953125,-1.6129940748214722,0.16940855979919434,1.4480392932891846
1758273323605259500,6.914259521484375,-1.3847821950912476,0.30548331141471863,1.3100364208221436
1758273323615216400,6.92421630859375,-1.2633140087127686,0.5662299990653992,1.1477925777435303
1758273323625174500,6.934174560546875,-1.1733450889587402,1.1417112350463867,1.1116877794265747
1758273323635132700,6.944132568359375,-1.119117021560669,2.000067949295044,1.3219568729400635
1758273323645089300,6.95408935546875,-1.0171079635620117,2.928009271621704,1.7619876861572266
1758273323655047400,6.96404736328125,-0.8494143486022949,3.6790077686309814,2.1014976501464844
1758273323665004500,6.974004638671875,-0.6694424152374268,4.6176252365112305,1.967619776725769
1758273323674962400,6.98396240234375,-0.43259018659591675,5.563433647155762,1.318630337715149
1758273323684920600,6.993920654296875,-0.22148536145687103,5.808416843414307,0.3655918538570404
1758273323694877400,7.00387744140625,-0.13098396360874176,4.846226692199707,-0.7231477499008179
1758273323704835300,7.01383544921875,0.10866554081439972,2.7688043117523193,-1.8003360033035278
1758273323714792400,7.02379248046875,0.4982588291168213,-0.07363671064376831,-2.7837319374084473
1758273323724750600,7.03375048828125,0.5606454610824585,-3.045156955718994,-3.5670294761657715
1758273323734707700,7.043707763671875,0.530121386051178,-3.631702423095703,-3.2055089473724365
1758273323744665300,7.053665283203125,0.9783662557601929,-1.44157075881958,-2.4978530406951904
1758273323754623500,7.06362353515625,1.8100829124450684,2.6674835681915283,-1.4844721555709839
1758273323764580600,7.07358056640625,1.9951251745224,4.2839860916137695,-0.3363680839538574
1758273323774538500,7.08353857421875,1.5025887489318848,2.1543962955474854,0.8264575600624084
1758273323784495600,7.09349560546875,0.5673707127571106,-3.608290672302246,0.28226417303085327
1758273323794453500,7.10345361328125,-0.36165276169776917,-3.6859257221221924,1.287031888961792
1758273323804411400,7.113411376953125,-0.4430138170719147,0.05813930928707123,3.0824689865112305
1758273323814368500,7.123368408203125,-0.3142438530921936,3.0754170417785645,4.000605583190918
1758273323824326400,7.133326416015625,-0.3079812824726105,4.408872127532959,3.4241416454315186
1758273323834283500,7.143283447265625,-0.22635939717292786,4.958087921142578,2.585524559020996
1758273323844241400,7.153241455078125,0.15607766807079315,4.608736038208008,2.9199233055114746
1758273323854198500,7.163198486328125,-0.2111693024635315,3.7294089794158936,3.5875725746154785
1758273323864156400,7.173156494140625,-1.0904878377914429,2.3335821628570557,4.068343162536621
1758273323874114600,7.183114501953125,-1.627170443534851,0.8914000391960144,4.073039531707764
1758273323884071700,7.19307177734375,-1.8250913619995117,-0.24791808426380157,4.066500186920166
1758273323894029300,7.203029296875,-1.9261372089385986,-0.17852090299129486,4.442185878753662
1758273323903986400,7.212986328125,-1.8146716356277466,1.463364839553833,4.545769214630127
1758273323913944600,7.222944580078125,-1.5110379457473755,3.1735267639160156,4.010664939880371
1758273323923902500,7.23290234375,-1.149579405784607,3.967756748199463,3.170060157775879
1758273323933859600,7.242859619140625,-0.7472844123840332,3.569019079208374,2.4861133098602295
1758273323943817500,7.2528173828125,-0.26832738518714905,1.8454809188842773,2.1642019748687744
1758273323953774300,7.2627744140625,0.2198638767004013,0.4547465443611145,1.9229791164398193
1758273323963732500,7.272732421875,0.5606112480163574,0.4472789168357849,1.5777040719985962
1758273323973690600,7.282690673828125,0.9376461505889893,1.027387022972107,1.0845955610275269
1758273323983647500,7.2926474609375,1.157127022743225,1.606653094291687,0.5524901747703552
1758273323993605600,7.302605712890625,1.0685009956359863,2.3268673419952393,0.1345805525779724
1758273324003562500,7.3125625,0.5834406018257141,3.0930206775665283,0.23164208233356476
1758273324013520400,7.322520263671875,0.012663125060498714,3.434262752532959,0.5600894689559937
1758273324023478500,7.332478515625,-0.4654083847999573,2.8336710929870605,0.6819462776184082
1758273324033435600,7.342435546875,-0.7786640524864197,1.851618766784668,0.43396660685539246
1758273324043393500,7.3523935546875,-0.9418631196022034,1.4171682596206665,-0.06532230228185654
1758273324053350400,7.362350341796875,-1.0199792385101318,1.3345048427581787,-0.6696548461914062
1758273324063308500,7.37230859375,-1.173034906387329,0.9239361882209778,-1.2613929510116577
1758273324073265700,7.382265625,-1.4022910594940186,-0.24552978575229645,-1.7999149560928345
1758273324083223600,7.3922236328125,-1.5393767356872559,-1.7804241180419922,-2.2186853885650635
1758273324093181700,7.402181640625,-1.3680070638656616,-2.6670658588409424,-2.37046480178833
1758273324103138600,7.412138671875,-0.9077573418617249,-2.8092446327209473,-2.3162429332733154
1758273324113096400,7.422096435546875,-0.05846652761101723,-2.5864806175231934,-2.154416561126709
1758273324123053600,7.432053466796875,0.878869891166687,-2.7063047885894775,-2.1118693351745605
1758273324133011500,7.442011474609375,1.6053427457809448,-3.372195243835449,-2.3128645420074463
1758273324142969600,7.451969482421875,2.19227933883667,-4.114058494567871,-2.7172470092773438
1758273324152926500,7.461926513671875,2.411900281906128,-4.938239097595215,-3.4604082107543945
1758273324162884400,7.47188427734375,1.6037917137145996,-5.252670764923096,-4.4404988288879395
1758273324172841500,7.481841552734375,0.5184826850891113,-5.280911922454834,-4.987801551818848
1758273324182799600,7.491799560546875,0.3723641037940979,-6.211409091949463,-5.231572151184082
1758273324192756500,7.501756591796875,0.8642776608467102,-9.682822227478027,-5.372714042663574
1758273324202714400,7.51171435546875,1.826141357421875,-11.732361793518066,-4.1321635246276855
1758273324212672500,7.521672607421875,2.3874175548553467,-8.938450813293457,-2.4669928550720215
1758273324222629600,7.531629638671875,2.6342999935150146,-2.0214617252349854,-1.7708758115768433
1758273324232587500,7.54158740234375,2.6288254261016846,2.2099881172180176,-1.9581708908081055
1758273324242544400,7.55154443359375,1.7348425388336182,2.7493109703063965,-1.7629941701889038
1758273324252502500,7.56150244140625,0.5461443066596985,1.9375556707382202,-1.3229446411132812
1758273324262460400,7.57146044921875,-0.2721746265888214,-0.30394700169563293,-0.8531470894813538
1758273324272417500,7.58141748046875,-0.7992568016052246,-2.683115243911743,-0.4728460907936096
1758273324282375700,7.591375732421875,-1.5414170026779175,-4.34311056137085,-0.24670842289924622
1758273324292332300,7.601332275390625,-1.9971171617507935,-5.290722370147705,-0.20277690887451172
1758273324302290400,7.61129052734375,-1.5424643754959106,-4.278321266174316,-0.6420549154281616
1758273324312247600,7.62124755859375,-0.8706260919570923,-2.7633554935455322,-0.833452045917511
1758273324322205400,7.631205322265625,-0.6952860355377197,-0.8787600994110107,-0.5601187348365784
1758273324332163600,7.64116357421875,-1.1906875371932983,1.1162341833114624,0.4831447899341583
1758273324342120400,7.651120361328125,-1.9791890382766724,1.95850670337677,1.6766644716262817
1758273324352078300,7.661078369140625,-2.2172327041625977,1.4765126705169678,1.881429672241211
1758273324362035500,7.671035400390625,-1.8795377016067505,0.7719030976295471,1.442852258682251
1758273324371993600,7.68099365234375,-1.402358889579773,0.3881746232509613,0.8826254606246948
1758273324381951500,7.690951416015625,-1.0564894676208496,-0.2014721781015396,0.6059825420379639
1758273324391908400,7.700908447265625,-0.8094453811645508,-0.7051382660865784,0.6126668453216553
1758273324401866500,7.710866455078125,-0.6850823760032654,-0.36791813373565674,0.9990257024765015
1758273324411823600,7.72082373046875,-0.5559752583503723,0.7396976947784424,1.3139992952346802
1758273324421781500,7.730781494140625,-0.24953950941562653,2.1386187076568604,1.2691986560821533
1758273324431738600,7.740738525390625,0.0935821607708931,3.5509791374206543,0.9333710670471191
1758273324441696500,7.750696533203125,0.35605117678642273,4.493592739105225,0.297478049993515
1758273324451654400,7.760654296875,0.43179628252983093,4.597127914428711,-0.51752108335495
1758273324461611500,7.770611572265625,0.38849204778671265,3.412085771560669,-1.2769701480865479
1758273324471569700,7.780569580078125,0.45207738876342773,1.250440239906311,-1.770723581314087
1758273324481526500,7.790526611328125,0.4791041612625122,-0.8075845837593079,-2.0878849029541016
1758273324491484400,7.800484375,0.6094725728034973,-2.4617950916290283,-2.4403626918792725
1758273324501442600,7.810442626953125,0.6584703922271729,-2.8983144760131836,-2.3917243480682373
1758273324511399400,7.8203994140625,0.6957727670669556,-1.3921669721603394,-2.1668198108673096
1758273324521357600,7.830357666015625,0.9707180857658386,1.72763192653656,-1.6921765804290771
1758273324531314700,7.840314697265625,0.8631806969642639,4.433011531829834,-0.3265661895275116
1758273324541272600,7.8502724609375,0.29219216108322144,3.709190607070923,1.0728222131729126
1758273324551229400,7.8602294921875,-0.4955008327960968,0.5415495038032532,0.8651400804519653
1758273324561187600,7.8701875,-0.8793383240699768,-0.6171179413795471,1.1873112916946411
1758273324571145500,7.8801455078125,0.10728215426206589,0.8760831952095032,2.540205955505371
1758273324581102600,7.8901025390625,0.5467343330383301,2.178929567337036,2.871690511703491
1758273324591060700,7.900060791015625,0.2799838185310364,2.9000296592712402,2.2193782329559326
1758273324601017600,7.910017578125,0.054938916116952896,3.6649887561798096,2.135910987854004
1758273324610975500,7.9199755859375,-0.1442013531923294,4.174875259399414,2.618680000305176
1758273324620933600,7.92993359375,-0.6023970246315002,4.26017427444458,3.278521776199341
1758273324630890500,7.939890380859375,-1.1116389036178589,3.7295610904693604,3.856900691986084
1758273324640848600,7.9498486328125,-1.2609201669692993,2.070899248123169,3.90439510345459
1758273324650805500,7.959805419921875,-1.3247036933898926,0.5892691016197205,4.078773021697998
1758273324660763400,7.969763427734375,-1.4986743927001953,0.7341009974479675,4.6668596267700195
1758273324670720500,7.979720458984375,-1.8415571451187134,2.113473653793335,5.023287296295166
1758273324680678700,7.9896787109375,-1.9969183206558228,3.4344136714935303,4.647202014923096
1758273324690636500,7.999636474609375,-1.6954314708709717,3.647639513015747,3.721782684326172
1758273324700593400,8.009593505859375,-1.1903603076934814,3.009333610534668,2.847869396209717
1758273324710551600,8.019551513671875,-0.6648879647254944,1.9961117506027222,2.369471549987793
1758273324720508700,8.0295087890625,-0.19151781499385834,1.4161536693572998,2.274716377258301
1758273324730466600,8.039466552734375,0.05545681715011597,1.1490558385849,2.0990793704986572
1758273324740424700,8.0494248046875,0.3737005591392517,0.3432892858982086,1.6961208581924438
1758273324750381600,8.059381591796875,0.4838470220565796,0.11111089587211609,1.5138075351715088
1758273324760339500,8.06933935546875,0.41151440143585205,0.33831995725631714,1.401131272315979
1758273324770296600,8.079296630859375,0.43933138251304626,1.0416817665100098,1.149111270904541
1758273324780254700,8.089254638671875,0.4981912672519684,2.3495919704437256,0.805429995059967
1758273324790211300,8.09921142578125,0.27608948945999146,3.451815366744995,0.48685145378112793
1758273324800169500,8.10916943359375,0.04562489688396454,3.534524917602539,0.2816438674926758
1758273324810127600,8.119127685546875,-0.1373918056488037,3.019221782684326,0.21220645308494568
1758273324820084500,8.12908447265625,-0.28069984912872314,2.230689287185669,-0.18973106145858765
1758273324830042600,8.139042724609375,-0.49793094396591187,1.3287651538848877,-0.9697828888893127
1758273324839999500,8.14899951171875,-0.7839424014091492,0.22442534565925598,-1.8511582612991333
1758273324849957400,8.158957275390625,-0.8521957397460938,-1.0651342868804932,-2.6816329956054688
1758273324859914500,8.16891455078125,-0.505868136882782,-1.8826367855072021,-3.1628050804138184
1758273324869872600,8.17887255859375,-0.09637755155563354,-2.0415375232696533,-3.2367491722106934
1758273324879830500,8.18883056640625,0.19811899960041046,-2.1322946548461914,-3.1137540340423584
1758273324889787400,8.198787353515625,0.43245989084243774,-2.6544008255004883,-2.9726247787475586
1758273324899745500,8.20874560546875,0.7545719742774963,-3.6562235355377197,-2.9948647022247314
1758273324909702700,8.21870263671875,1.2074904441833496,-4.814724922180176,-3.1196107864379883
1758273324919660500,8.22866064453125,1.7207491397857666,-5.784543514251709,-3.2480573654174805
1758273324929618700,8.23861865234375,2.145312547683716,-6.298455715179443,-3.558572769165039
1758273324939575600,8.248575439453125,2.224961280822754,-6.7184834480285645,-4.193720817565918
1758273324949533400,8.258533447265625,1.8672497272491455,-7.5324883460998535,-4.684511184692383
1758273324959490600,8.268490478515625,1.301758050918579,-8.434338569641113,-4.57391881942749
1758273324969448400,8.278448486328125,0.7321353554725647,-8.174050331115723,-3.914224147796631
1758273324979405600,8.288405517578125,0.7364856004714966,-6.348560810089111,-3.4133710861206055
1758273324989363500,8.298363525390625,1.733494520187378,-2.7541236877441406,-2.829068899154663
1758273324999321300,8.3083212890625,2.6153719425201416,0.6981056928634644,-2.5609874725341797
1758273325009278500,8.318278564453125,2.768120288848877,2.2108266353607178,-2.4403326511383057
1758273325019236600,8.328236572265626,2.1472342014312744,2.200122356414795,-2.2787890434265137
1758273325029193700,8.33819384765625,1.218906283378601,1.291956901550293,-1.9471356868743896
1758273325039151400,8.3481513671875,0.535872220993042,-0.41140344738960266,-1.528127908706665
1758273325049108500,8.3581083984375,-0.048054859042167664,-1.3568975925445557,-1.2364842891693115
1758273325059066600,8.368066650390626,-0.69366854429245,-2.485210418701172,-0.826577365398407
1758273325069024500,8.3780244140625,-1.1608575582504272,-3.523160934448242,-0.6084389090538025
1758273325078981600,8.387981689453126,-1.1970174312591553,-3.2660319805145264,-0.6386839747428894
1758273325088939500,8.397939453125,-0.8036649823188782,-2.1043429374694824,-0.8038955330848694
1758273325098896400,8.407896484375,-0.7641449570655823,-1.0758931636810303,-0.6073909401893616
1758273325108854500,8.4178544921875,-1.1344313621520996,0.19788560271263123,0.1958051323890686
1758273325118812700,8.427812744140626,-1.9175856113433838,1.2142225503921509,1.4697836637496948
1758273325128769500,8.43776953125,-2.0190696716308594,1.150152564048767,2.02524733543396
1758273325138727400,8.4477275390625,-1.6388486623764038,0.9903393983840942,1.8283870220184326
1758273325148684500,8.4576845703125,-1.200764536857605,1.0280202627182007,1.4729855060577393
1758273325158642400,8.467642333984376,-0.9710760712623596,0.9643228650093079,1.2654074430465698
1758273325168599600,8.477599609375,-0.8190532326698303,1.022587537765503,1.173783540725708
1758273325178557700,8.4875576171875,-0.6097556352615356,1.2084158658981323,1.2312073707580566
1758273325188515300,8.497515380859374,-0.4351864755153656,1.5971870422363281,1.4172708988189697
1758273325198472400,8.507472412109376,-0.31516146659851074,2.255764961242676,1.5910236835479736
1758273325208430600,8.5174306640625,-0.184536874294281,3.099259376525879,1.5781906843185425
1758273325218387700,8.5273876953125,0.06455954909324646,3.822521686553955,0.9881228804588318
1758273325228345600,8.537345703125,0.2859824597835541,3.6959733963012695,-0.15102505683898926
1758273325238302500,8.547302490234374,0.5219220519065857,2.1285035610198975,-1.3947389125823975
1758273325248260600,8.557260498046874,0.7490500211715698,-0.68132084608078,-2.7617533206939697
1758273325258218500,8.567218505859374,0.901148796081543,-3.78511381149292,-4.430665493011475
1758273325268175600,8.577175537109374,0.7204477190971375,-4.812941074371338,-4.51386833190918
1758273325278133500,8.587133544921874,0.7178826332092285,-2.7145040035247803,-3.2755677700042725
1758273325288090400,8.59709033203125,1.4442965984344482,1.719641923904419,-1.7026937007904053
1758273325298048500,8.607048583984374,1.7452479600906372,4.728366851806641,0.1852627843618393
1758273325308006400,8.61700634765625,0.955694317817688,3.5478899478912354,1.3341249227523804
1758273325317963500,8.626963623046874,0.25810736417770386,1.6407649517059326,2.1747329235076904
1758273325327921700,8.636921630859375,-0.12774738669395447,-1.6489036083221436,1.9417155981063843
1758273325337878500,8.64687841796875,-0.10645173490047455,-4.157752513885498,1.8959808349609375
1758273325347836400,8.65683642578125,0.2298346757888794,-1.4558035135269165,2.5740387439727783
1758273325357793500,8.66679345703125,0.3518534302711487,2.1538641452789307,2.751345157623291
1758273325367751700,8.676751708984375,0.32631877064704895,5.250910758972168,2.701758861541748
1758273325377709600,8.68670947265625,-0.03177563473582268,6.705636501312256,2.980008363723755
1758273325387666400,8.69666650390625,-0.7208338975906372,6.959500312805176,3.4801323413848877
1758273325397624600,8.70662451171875,-1.2485827207565308,6.597112655639648,4.025239944458008
1758273325407581400,8.71658154296875,-1.1387300491333008,5.8777971267700195,4.400691509246826
1758273325417539600,8.72653955078125,-0.8243688344955444,3.902083396911621,4.817588806152344
1758273325427496400,8.736496337890625,-0.7407416105270386,1.7687714099884033,5.075703144073486
1758273325437454300,8.746454345703125,-1.1714427471160889,1.1623965501785278,5.113502025604248
1758273325447412500,8.75641259765625,-1.7252459526062012,1.9784801006317139,4.825231075286865
1758273325457369600,8.76636962890625,-1.7059115171432495,2.720184564590454,4.107785701751709
1758273325467327500,8.776327392578125,-1.259064793586731,2.8466317653656006,3.2212750911712646
1758273325477284400,8.786284423828125,-0.6905625462532043,2.2686634063720703,2.831690788269043
1758273325487242500,8.796242431640625,-0.2340162992477417,1.9181703329086304,2.7248177528381348
1758273325497199400,8.806199462890625,-0.0029622160363942385,2.0206265449523926,2.3375661373138428
1758273325507157200,8.8161572265625,0.17632098495960236,2.222510576248169,1.776113510131836
1758273325517115400,8.826115478515625,0.31908756494522095,2.273585796356201,1.2461968660354614
1758273325527072500,8.836072509765625,0.3155530095100403,1.8574185371398926,0.8779993653297424
1758273325537030400,8.846030517578125,0.40190520882606506,1.092803955078125,0.574790894985199
1758273325546987300,8.8559873046875,0.4923171103000641,0.4182303249835968,0.15444344282150269
1758273325556945400,8.8659453125,0.4261420667171478,-0.18670722842216492,-0.5062211751937866
1758273325566902300,8.87590234375,0.28674715757369995,-0.33995404839515686,-1.044538974761963
1758273325576860400,8.8858603515625,0.04919338971376419,-0.13713929057121277,-1.353584885597229
1758273325586818600,8.895818603515625,-0.2566157877445221,0.11540002375841141,-1.7133212089538574
1758273325596775200,8.905775146484375,-0.588956356048584,-0.06985104084014893,-2.2067301273345947
1758273325606733300,8.9157333984375,-0.7331332564353943,-0.6985727548599243,-2.7342872619628906
1758273325616690400,8.9256904296875,-0.5137119293212891,-1.425502061843872,-3.0427887439727783
1758273325626648300,8.9356484375,-0.027514010667800903,-2.070448398590088,-3.0254335403442383
1758273325636605200,8.945605224609375,0.4543016850948334,-2.688168525695801,-2.8525755405426025
1758273325646563300,8.955563232421875,0.7300328612327576,-3.3665401935577393,-2.8199679851531982
1758273325656521200,8.965521240234375,0.8716654777526855,-4.038893699645996,-2.9605660438537598
1758273325666478300,8.975478271484375,1.0240161418914795,-4.438623428344727,-3.1370840072631836
1758273325676436500,8.9854365234375,1.2169654369354248,-4.5098090171813965,-3.30963134765625
1758273325686393300,8.995393310546875,1.425188422203064,-4.214879989624023,-3.6377222537994385
1758273325696351200,9.005351318359375,1.6262011528015137,-3.8921990394592285,-4.416897296905518
1758273325706308400,9.015308349609375,1.7246116399765015,-4.169754981994629,-5.083968162536621
1758273325716266500,9.0252666015625,1.6208504438400269,-4.946096897125244,-4.938080787658691
1758273325726224400,9.035224365234376,1.060157299041748,-5.506749153137207,-4.082224369049072
1758273325736181200,9.04518115234375,0.6932591795921326,-4.63020658493042,-3.290750503540039
1758273325746139400,9.055139404296876,1.1685961484909058,-2.5117056369781494,-2.990370750427246
1758273325756096300,9.06509619140625,1.935684084892273,-0.4409051537513733,-2.883110761642456
1758273325766054400,9.075054443359376,1.927089810371399,0.7247170209884644,-2.8274335861206055
1758273325776012500,9.085012451171876,1.1911320686340332,0.5719595551490784,-2.4689977169036865
1758273325785969200,9.09496923828125,0.15142887830734253,-1.0160671472549438,-1.9416288137435913
1758273325795927300,9.10492724609375,-0.5988443493843079,-2.5875916481018066,-1.5553747415542603
1758273325805884400,9.114884521484376,-1.194994568824768,-3.8132410049438477,-1.084153413772583
1758273325815842300,9.12484228515625,-1.7326433658599854,-4.830509662628174,-0.6141282320022583
1758273325825799400,9.13479931640625,-1.5822356939315796,-4.787283420562744,-0.48619019985198975
1758273325835757300,9.14475732421875,-0.9231973886489868,-3.833872079849243,-0.6221284866333008
1758273325845714400,9.15471435546875,-0.16919152438640594,-2.26375412940979,-0.9352749586105347
1758273325855672300,9.16467236328125,-0.01737639494240284,-1.1136019229888916,-0.9805122017860413
1758273325865630500,9.17463037109375,-0.5790621042251587,-0.06803690642118454,-0.38497135043144226
1758273325875587600,9.184587646484376,-1.1580696105957031,0.6233876943588257,0.9680126309394836
1758273325885545200,9.194545166015626,-1.3969522714614868,0.8966965079307556,1.9704509973526
1758273325895502300,9.20450244140625,-1.3017990589141846,1.1297036409378052,2.248288154602051
1758273325905460500,9.21446044921875,-1.225988745689392,1.2458736896514893,2.0043907165527344
1758273325915418400,9.22441845703125,-1.2496377229690552,1.7061749696731567,1.832706332206726
1758273325925375500,9.23437548828125,-1.2917550802230835,2.1592838764190674,1.9797415733337402
1758273325935333400,9.24433349609375,-1.2506585121154785,2.5004539489746094,2.3551697731018066
1758273325945290200,9.254290283203124,-1.154002070426941,2.954636335372925,2.687094211578369
1758273325955248400,9.264248291015624,-1.0007145404815674,3.7857377529144287,2.730512857437134
1758273325965205500,9.27420556640625,-0.7225039601325989,4.718096733093262,2.3442440032958984
1758273325975163400,9.284163330078124,-0.2812744081020355,5.378257751464844,1.4825013875961304
1758273325985120300,9.294120361328124,0.04259846732020378,5.260267734527588,0.20848989486694336
1758273325995078400,9.304078369140624,0.13239185512065887,3.920245885848999,-1.216546654701233
1758273326005036300,9.314036376953124,0.3420705199241638,1.390668272972107,-2.271833896636963
1758273326014993400,9.323993408203124,0.39489156007766724,-1.460383415222168,-2.8819637298583984
1758273326024951600,9.33395166015625,0.357555627822876,-3.263990879058838,-3.4233429431915283
1758273326034908400,9.343908447265624,0.3611201047897339,-3.600090265274048,-3.4175477027893066
1758273326044866300,9.3538662109375,0.22824354469776154,-2.7745771408081055,-2.7746315002441406
1758273326054824400,9.363824462890625,0.3547232449054718,1.2219618558883667,-0.9853452444076538
1758273326064781300,9.37378125,1.3174192905426025,7.110363483428955,1.2602715492248535
1758273326074739500,9.383739501953125,1.903943657875061,7.0536017417907715,1.5316295623779297
1758273326084696300,9.3936962890625,1.6407148838043213,3.0551962852478027,1.2235782146453857
1758273326094654200,9.403654296875,0.9303589463233948,-6.719967842102051,-1.704827070236206
1758273326104611300,9.413611328125,0.4447539448738098,-7.383432865142822,0.13720956444740295
1758273326114569500,9.423569580078125,0.5557292103767395,-4.34381628036499,2.2969210147857666
1758273326124526300,9.4335263671875,0.22883661091327667,-1.3847883939743042,2.7511494159698486
1758273326134484200,9.443484130859375,-0.2554623782634735,1.4494251012802124,2.2434253692626953
1758273326144442400,9.4534423828125,-0.8685050010681152,5.368524551391602,2.8631136417388916
1758273326154399500,9.4633994140625,-1.2744183540344238,8.050724983215332,3.827871799468994
1758273326164357400,9.473357421875,-1.5463612079620361,8.89828109741211,4.508623123168945
1758273326174314200,9.483314208984375,-1.534475326538086,8.463748931884766,5.018082141876221
1758273326184272400,9.4932724609375,-1.1873074769973755,7.468995571136475,5.233513355255127
1758273326194229200,9.503229248046875,-0.7438563704490662,5.403329372406006,5.155824661254883
1758273326204187400,9.5131875,-0.6896706223487854,1.5126612186431885,4.509233474731445
1758273326214145500,9.5231455078125,-0.8924943804740906,-0.9788110256195068,4.039421081542969
1758273326224102100,9.53310205078125,-0.9429434537887573,-1.543066382408142,3.894765853881836
1758273326234060300,9.543060302734375,-0.6390416026115417,-1.9341659545898438,3.5668275356292725
1758273326244017400,9.553017333984375,-0.2121715247631073,-2.039519786834717,3.238577127456665
1758273326253975300,9.562975341796875,0.20878727734088898,-1.0277998447418213,2.8352537155151367
1758273326263932400,9.572932373046875,0.43433836102485657,0.7326637506484985,2.1618154048919678
1758273326273890300,9.582890380859375,0.6734690070152283,2.356673002243042,1.604665756225586
1758273326283848200,9.59284814453125,0.8017332553863525,3.13816499710083,1.2920329570770264
1758273326293805300,9.602805419921875,0.9003216028213501,2.8996798992156982,1.0634602308273315
1758273326303763500,9.612763427734375,0.9354692101478577,2.07426381111145,0.8478747010231018
1758273326313720600,9.622720458984375,0.9068435430526733,1.7002065181732178,0.5534731149673462
1758273326323678200,9.63267822265625,0.763938844203949,1.8771599531173706,0.15390253067016602
1758273326333635300,9.64263525390625,0.3994024395942688,1.969606876373291,-0.11248176544904709
1758273326343593500,9.652593505859375,0.025059470906853676,1.2159972190856934,-0.08075260370969772
1758273326353551400,9.66255126953125,-0.30425313115119934,0.41319841146469116,-0.08074556291103363
1758273326363508500,9.672508544921875,-0.6689453721046448,0.18245016038417816,-0.34248581528663635
1758273326373466400,9.68246630859375,-1.0830925703048706,-0.18838343024253845,-0.8849034905433655
1758273326383423200,9.69242333984375,-1.4899929761886597,-1.2075607776641846,-1.6092580556869507
1758273326393381400,9.70238134765625,-1.5397984981536865,-2.400120735168457,-2.2579803466796875
1758273326403338500,9.71233837890625,-1.1312965154647827,-3.2589938640594482,-2.5859172344207764
1758273326413296400,9.72229638671875,-0.4405326545238495,-3.422494888305664,-2.5313401222229004
1758273326423254500,9.732254638671876,0.6145265698432922,-3.1806888580322266,-2.287769079208374
1758273326433211400,9.74221142578125,1.4031859636306763,-3.118993043899536,-2.2156143188476562
1758273326443169300,9.752169189453125,1.6565015316009521,-3.12827730178833,-2.4246764183044434
1758273326453126400,9.76212646484375,1.4961408376693726,-3.458310127258301,-3.162693977355957
1758273326463084500,9.77208447265625,0.9581465721130371,-4.0091400146484375,-4.007166385650635
1758273326473041400,9.78204150390625,0.5376937389373779,-4.483643054962158,-4.428199291229248
1758273326482999300,9.791999267578126,0.5913801789283752,-5.646997928619385,-4.568325042724609
1758273326492957400,9.80195751953125,0.9619315266609192,-7.510228633880615,-4.473036289215088
1758273326502914600,9.81191455078125,1.327722430229187,-8.58533000946045,-4.3122029304504395
1758273326512872700,9.821872802734376,1.665026068687439,-7.753552436828613,-4.0738019943237305
1758273326522829600,9.83182958984375,2.328871965408325,-4.338833808898926,-3.3913073539733887
1758273326532787500,9.841787353515626,2.383981704711914,0.4645705223083496,-2.858990430831909
1758273326542744600,9.85174462890625,1.8788483142852783,3.4736032485961914,-2.6740071773529053
1758273326552702700,9.86170263671875,1.145011067390442,4.1461663246154785,-2.4105136394500732
1758273326562660600,9.87166064453125,0.17649264633655548,2.2843005657196045,-1.7532322406768799
1758273326572617500,9.881617431640626,-0.6803907155990601,-1.4128773212432861,-1.0339304208755493
1758273326582575600,9.89157568359375,-1.0103912353515625,-4.721652984619141,-0.4941054880619049
1758273326592532700,9.90153271484375,-1.4553247690200806,-5.965592384338379,-0.16728612780570984
1758273326602490600,9.91149072265625,-1.7836676836013794,-5.982066631317139,-0.16808055341243744
1758273326612447700,9.92144775390625,-1.5220389366149902,-4.991480350494385,-0.5183252692222595
1758273326622405600,9.931405517578124,-1.185055136680603,-4.341857433319092,-0.54638671875
1758273326632362500,9.941362548828126,-1.1838030815124512,-3.753788709640503,-0.2510937452316284
1758273326642320600,9.951320556640624,-1.7771114110946655,-2.4701476097106934,0.3117392361164093
1758273326652278800,9.96127880859375,-2.2507858276367188,-0.9628008604049683,0.8767260909080505
1758273326662235600,9.971235595703124,-2.2733449935913086,0.5803329348564148,1.114338994026184
1758273326672193500,9.981193603515624,-2.048368215560913,1.964086890220642,1.1135607957839966
1758273326682150700,9.991150634765624,-1.7567410469055176,2.600182056427002,0.9605777263641357
1758273326692108500,10.001108642578124,-1.5842992067337036,2.636467456817627,0.9501514434814453
1758273326702065700,10.011065673828124,-1.4744014739990234,2.4879403114318848,1.062540054321289
1758273326712023800,10.02102392578125,-1.3231406211853027,2.7701756954193115,1.198896884918213
1758273326721981400,10.0309814453125,-1.1835975646972656,3.380409002304077,1.276974081993103
1758273326731938600,10.0409384765625,-1.0095515251159668,3.754171848297119,1.1597740650177002
1758273326741896700,10.050896728515625,-0.7215466499328613,3.718200206756592,0.7263800501823425
1758273326751853800,10.060853759765624,-0.36904311180114746,3.441549777984619,0.039091404527425766
1758273326761811700,10.070811767578125,-0.02808208391070366,2.7304131984710693,-0.7601669430732727
1758273326771768600,10.0807685546875,0.2771754264831543,1.4962158203125,-1.446748971939087
1758273326781726700,10.090726806640625,0.4362865090370178,-0.21138662099838257,-1.9250619411468506
1758273326791684600,10.1006845703125,0.546497106552124,-1.9517414569854736,-2.5753118991851807
1758273326801641700,10.110641845703125,0.7279343008995056,-2.646238088607788,-3.120211601257324
1758273326811599600,10.120599609375,0.8249312043190002,-2.789199113845825,-3.148214817047119
1758273326821556500,10.130556396484375,0.8520675301551819,-1.6537941694259644,-2.6919281482696533
1758273326831514600,10.1405146484375,1.5222934484481812,1.5006804466247559,-2.0520238876342773
1758273326841471700,10.1504716796875,1.8496776819229126,3.6149964332580566,-0.7470433115959167
1758273326851429600,10.1604296875,1.3669095039367676,2.193077802658081,0.1471129059791565
1758273326861386500,10.170386474609375,0.5330258011817932,-2.2413887977600098,-0.5801082253456116
1758273326871344600,10.1803447265625,-0.2700951099395752,-1.357512354850769,0.7878236174583435
1758273326881302500,10.190302490234375,-0.11101704090833664,2.50473690032959,2.4267308712005615
1758273326891259600,10.200259765625,0.16553068161010742,5.515794277191162,3.0988967418670654
1758273326901217800,10.2102177734375,0.013156586326658726,6.197962760925293,3.0614869594573975
1758273326911174700,10.220174560546875,-0.28095749020576477,6.478282451629639,2.6959025859832764
1758273326921132500,10.230132568359375,-0.18022902309894562,5.805584907531738,3.272355079650879
1758273326931089700,10.240089599609375,0.0587267242372036,4.7952961921691895,3.9091715812683105
1758273326941047600,10.250047607421875,0.08953097462654114,3.8738529682159424,3.93707537651062
1758273326951005700,10.260005615234375,-0.1053353101015091,1.930624008178711,2.6193439960479736
1758273326960962600,10.269962646484375,-0.39531999826431274,-0.012839844450354576,1.2529603242874146
1758273326970920400,10.27992041015625,-0.4212006628513336,-1.3536279201507568,1.0407907962799072
1758273326980877600,10.289877685546875,-0.7646541595458984,-2.0666513442993164,2.413567066192627
1758273326990835700,10.299835693359375,-1.595615267753601,-0.3007320761680603,4.967209339141846
1758273327000792600,10.30979248046875,-1.8331881761550903,1.5942803621292114,5.547898769378662
1758273327010750500,10.31975048828125,-1.4498543739318848,2.547654151916504,4.332259654998779
1758273327020708600,10.32970849609375,-0.8668510913848877,3.1347455978393555,2.6587905883789062
1758273327030665700,10.339665771484375,-0.36758580803871155,3.4783127307891846,1.9749925136566162
1758273327040623600,10.34962353515625,-0.00855388306081295,3.05364727973938,2.277651786804199
1758273327050580700,10.359580810546875,0.17246489226818085,2.3083443641662598,2.532850980758667
1758273327060538600,10.36953857421875,0.2259027361869812,1.8681862354278564,2.2786481380462646
1758273327070495500,10.37949560546875,0.27686065435409546,1.414870023727417,1.7371437549591064
1758273327080453600,10.38945361328125,0.29957103729248047,0.9202688336372375,1.3476974964141846
1758273327090410800,10.39941064453125,0.21478138864040375,0.9607371091842651,1.3567423820495605
1758273327100368600,10.40936865234375,0.14988601207733154,1.8129392862319946,1.3361753225326538
1758273327110326500,10.419326416015625,0.025050010532140732,3.307210683822632,1.068787932395935
1758273327120283600,10.42928369140625,-0.09616216272115707,4.305427551269531,0.822155237197876
1758273327130241500,10.439241455078125,-0.2556217908859253,3.9369633197784424,0.6558286547660828
1758273327140198700,10.44919873046875,-0.48891258239746094,2.5324089527130127,0.25708845257759094
1758273327150156800,10.45915673828125,-0.7196410894393921,0.8003888726234436,-0.4327664375305176
1758273327160113700,10.46911376953125,-0.8567371368408203,-0.6297723054885864,-1.2144278287887573
1758273327170071600,10.479071533203125,-0.9351288676261902,-1.7154340744018555,-1.9856799840927124
1758273327180029700,10.48902978515625,-0.7684049010276794,-2.735806941986084,-2.6788437366485596
1758273327189986800,10.49898681640625,-0.30938342213630676,-3.3773586750030518,-3.141171455383301
1758273327199944700,10.50894482421875,0.35573306679725647,-3.6537506580352783,-3.4041388034820557
1758273327209901600,10.518901611328126,0.9831672310829163,-3.794167995452881,-3.4630544185638428
1758273327219859700,10.528859619140626,1.4389206171035767,-3.929215431213379,-3.407194137573242
1758273327229816600,10.538816650390626,1.9931224584579468,-4.3695807456970215,-3.4423725605010986
1758273327239774700,10.548774658203126,2.483004331588745,-4.942099571228027,-3.491762161254883
1758273327249731600,10.558731689453126,2.2427213191986084,-5.033932209014893,-3.494245767593384
1758273327259689500,10.568689453125,1.3761762380599976,-4.885494709014893,-4.022580623626709
1758273327269647600,10.578647705078126,1.076218843460083,-4.99479341506958,-4.7981743812561035
1758273327279604700,10.588604736328126,1.3646399974822998,-5.346543312072754,-5.018717288970947
1758273327289562600,10.598562744140626,1.5360063314437866,-5.386390686035156,-4.604997634887695
1758273327299519500,10.60851953125,1.266257643699646,-4.596017360687256,-3.9788949489593506
1758273327309477600,10.6184775390625,1.288120985031128,-3.17748761177063,-3.535551071166992
1758273327319434800,10.628434814453126,1.7224838733673096,-2.0239686965942383,-3.3136215209960938
1758273327329392600,10.638392578125,2.2453877925872803,-0.7487658262252808,-3.0925111770629883
1758273327339350800,10.648350830078124,2.2813408374786377,0.6612243056297302,-3.0940144062042236
1758273327349307600,10.6583076171875,1.7682126760482788,0.5989424586296082,-2.971858024597168
1758273327359265500,10.668265625,0.8119395971298218,-0.8044310808181763,-2.3738925457000732
1758273327369222700,10.67822265625,-0.032632194459438324,-3.520566940307617,-1.2963112592697144
1758273327379180500,10.6881806640625,-0.6231868267059326,-5.148384094238281,-0.6466195583343506
1758273327389137400,10.698137451171876,-0.9838034510612488,-4.903807163238525,-0.4733179807662964
1758273327399095600,10.708095458984374,-0.6426237225532532,-3.5311121940612793,-0.6230776906013489
1758273327409052700,10.718052734375,-0.40917864441871643,-2.612604856491089,-0.5443319082260132
1758273327419010600,10.728010498046874,-0.6398544311523438,-1.8985596895217896,-0.2481897473335266
1758273327428968700,10.73796875,-0.9488822817802429,-0.9668018817901611,0.19893711805343628
1758273327438925600,10.747925537109374,-1.3443715572357178,0.1310197114944458,1.042511224746704
1758273327448883500,10.757883544921874,-1.7192151546478271,1.2064893245697021,1.9843794107437134
1758273327458840600,10.767840576171874,-1.904597282409668,1.7685776948928833,2.465698480606079
1758273327468798700,10.777798828125,-1.8421252965927124,1.8605180978775024,2.331300973892212
1758273327478755800,10.787755859375,-1.6195205450057983,1.948279619216919,2.0018374919891357
1758273327488713500,10.79771337890625,-1.4004456996917725,2.137899398803711,1.674599051475525
1758273327498671400,10.80767138671875,-1.1940523386001587,2.3299503326416016,1.4475648403167725
1758273327508628500,10.81762841796875,-0.9578106999397278,2.6258318424224854,1.368566632270813
1758273327518586400,10.82758642578125,-0.6549424529075623,3.102782726287842,1.4035537242889404
1758273327528543200,10.837543212890624,-0.33709976077079773,3.6285290718078613,1.3440847396850586
1758273327538501400,10.84750146484375,-0.01636728271842003,4.276459693908691,0.9920412302017212
1758273327548458200,10.857458251953124,0.26730334758758545,4.530350685119629,0.2893734872341156
1758273327558416400,10.86741650390625,0.45335710048675537,4.054588317871094,-0.5764033794403076
1758273327568373200,10.877373291015624,0.660588800907135,2.662525177001953,-1.1388556957244873
1758273327578331100,10.8873310546875,0.9867038130760193,0.24098001420497894,-1.673181176185608
1758273327588289300,10.897289306640625,1.3903700113296509,-2.807079553604126,-2.853477954864502
1758273327598246400,10.907246337890625,1.536384105682373,-4.205943584442139,-3.918501615524292
1758273327608204300,10.917204345703125,1.7988539934158325,-2.5276753902435303,-3.1862645149230957
1758273327618161200,10.9271611328125,2.3538970947265625,2.086254596710205,-2.004384994506836
1758273327628119300,10.937119384765625,2.227534055709839,5.663956642150879,-0.2841876745223999
1758273327638076400,10.947076416015625,1.1215871572494507,5.076629161834717,1.3922210931777954
1758273327648034300,10.957034423828125,0.43113937973976135,1.8094196319580078,1.69173264503479
1758273327657991200,10.9669912109375,0.1522212028503418,-1.1725291013717651,1.0688962936401367
1758273327667949300,10.97694921875,0.5929473638534546,-0.8554314970970154,1.5972262620925903
1758273327677907200,10.9869072265625,1.1290802955627441,0.6247068047523499,2.524369716644287
1758273327687864300,10.9968642578125,1.009590744972229,1.0587012767791748,2.5084705352783203
1758273327697822200,11.006822265625,0.5379822254180908,1.8497315645217896,2.456563711166382
1758273327707779000,11.016779052734375,0.05803414806723595,3.106645345687866,2.8821446895599365
1758273327717737200,11.0267373046875,-0.4248496890068054,3.299086809158325,3.430842638015747
1758273327727694300,11.0366943359375,-0.8032068610191345,2.2340915203094482,3.5793564319610596
1758273327737652200,11.04665234375,-1.1386677026748657,0.9515915513038635,3.66593861579895
1758273327747610400,11.0566103515625,-1.570786714553833,0.4464293122291565,4.010915279388428
1758273327757567500,11.0665673828125,-1.908871054649353,0.8695278167724609,4.471574306488037
1758273327767525000,11.076525146484375,-2.1647274494171143,2.0730884075164795,4.791576862335205
1758273327777482200,11.086482177734375,-2.186422824859619,3.3371126651763916,4.700719356536865
1758273327787440400,11.0964404296875,-1.7824926376342773,3.67248797416687,4.073643684387207
1758273327797397200,11.106397216796875,-1.106127142906189,2.8977534770965576,3.189537763595581
1758273327807355400,11.11635546875,-0.49538344144821167,2.099320650100708,2.5780229568481445
1758273327817312300,11.126312255859375,-0.06529942899942398,1.7925481796264648,2.470705270767212
1758273327827270100,11.136270263671875,0.24251459538936615,1.507703423500061,2.370372772216797
1758273327837228300,11.146228271484375,0.3547537922859192,1.33950936794281,1.920048713684082
1758273327847185400,11.156185302734375,0.12472610175609589,1.503116250038147,1.6110318899154663
1758273327857143300,11.166143310546875,-0.09463049471378326,1.5571503639221191,1.554432988166809
1758273327867100200,11.17610009765625,-0.2412717342376709,1.5562129020690918,1.6620358228683472
1758273327877058300,11.186058349609375,-0.18436050415039062,1.8708912134170532,1.5634642839431763
1758273327887015400,11.196015380859375,-0.20236818492412567,2.709773063659668,1.1697760820388794
1758273327896973300,11.205973388671875,-0.22887836396694183,3.454030990600586,0.7713032960891724
1758273327906930200,11.21593017578125,-0.29215338826179504,3.4474680423736572,0.5331535935401917
1758273327916888300,11.225888427734375,-0.44431495666503906,2.8909308910369873,0.49303996562957764
1758273327926846200,11.23584619140625,-0.6237271428108215,2.211416244506836,0.49105608463287354
1758273327936803300,11.24580322265625,-0.8127527236938477,1.3556793928146362,0.14496952295303345
1758273327946761500,11.255761474609375,-1.045557975769043,0.043953634798526764,-0.5871903300285339
1758273327956718000,11.265718017578125,-1.2605032920837402,-1.5693883895874023,-1.5350698232650757
1758273327966676200,11.27567626953125,-1.1525324583053589,-2.6315455436706543,-2.3251259326934814
1758273327976633300,11.28563330078125,-0.5170490741729736,-2.6446216106414795,-2.6467864513397217
1758273327986591200,11.29559130859375,0.42152607440948486,-2.173999309539795,-2.660233497619629
1758273327996548000,11.305548095703125,1.2507535219192505,-1.9740725755691528,-2.6161162853240967
1758273328006506200,11.31550634765625,1.5800687074661255,-2.448413610458374,-2.7645626068115234
1758273328016464100,11.325464111328126,1.7032159566879272,-2.9115469455718994,-3.020948648452759
1758273328026421200,11.335421142578125,1.525757908821106,-3.567840814590454,-3.6195638179779053
1758273328036379400,11.34537939453125,1.0131486654281616,-4.3695454597473145,-4.618965148925781
1758273328046336300,11.355336181640626,0.9629175066947937,-5.227168560028076,-5.41641092300415
1758273328056294100,11.365294189453126,1.3742486238479614,-5.828605651855469,-5.537570476531982
1758273328066251300,11.375251220703126,1.5113775730133057,-7.889624118804932,-5.481996059417725
1758273328076209400,11.38520947265625,1.4464707374572754,-10.83884334564209,-4.8539299964904785
1758273328086167300,11.395167236328126,1.388919711112976,-11.899532318115234,-3.743422746658325
1758273328096124200,11.405124267578126,1.8953354358673096,-8.309947967529297,-2.3644700050354004
1758273328106082300,11.415082275390626,2.6873888969421387,-1.7036964893341064,-1.7650119066238403
1758273328116039200,11.4250390625,2.6540915966033936,2.538421630859375,-2.2764368057250977
1758273328125997300,11.434997314453126,2.215196371078491,4.166508674621582,-2.9134883880615234
1758273328135954400,11.444954345703126,1.2257298231124878,2.636150598526001,-2.765392780303955
1758273328145912000,11.454912109375,0.5595203638076782,0.24091172218322754,-2.133018732070923
1758273328155869200,11.464869140625,-0.09591130167245865,-2.5224990844726562,-1.219543218612671
1758273328165827300,11.474827392578124,-1.0493555068969727,-4.302216529846191,-0.5800954699516296
1758273328175785200,11.48478515625,-1.7569496631622314,-4.99149227142334,-0.27824240922927856
1758273328185742300,11.494742431640624,-1.6347260475158691,-4.144453525543213,-0.22329725325107574
1758273328195700500,11.504700439453124,-1.1746684312820435,-3.18822979927063,-0.35546591877937317
1758273328205657300,11.5146572265625,-1.2787407636642456,-2.2996671199798584,-0.19784286618232727
1758273328215615200,11.524615234375,-1.8592156171798706,-0.8018057346343994,0.4562486708164215
1758273328225572400,11.534572265625,-2.659041404724121,1.1646654605865479,1.3072446584701538
1758273328235530500,11.544530517578124,-2.933002233505249,2.466479539871216,1.6297519207000732
1758273328245487000,11.554487060546874,-2.5763792991638184,2.580197334289551,1.4761167764663696
1758273328255445200,11.5644453125,-1.9326269626617432,2.259981632232666,1.2757019996643066
1758273328265403400,11.5744033203125,-1.492562174797058,1.902540683746338,1.2702455520629883
1758273328275360300,11.5843603515625,-1.330182433128357,1.9235622882843018,1.2544316053390503
1758273328285318400,11.594318359375,-1.1433136463165283,2.0913450717926025,1.3047467470169067
1758273328295275300,11.604275146484374,-0.7904127836227417,2.3943424224853516,1.3669401407241821
1758273328305233200,11.614233154296874,-0.47160840034484863,2.7207772731781006,1.2474526166915894
1758273328315190300,11.624190185546874,-0.175144761800766,3.1502678394317627,0.8731920123100281
1758273328325148400,11.6341484375,0.14965251088142395,3.3848023414611816,0.3284268081188202
1758273328335105300,11.644105224609374,0.47574034333229065,2.7974722385406494,-0.40921634435653687
1758273328345063200,11.654063232421874,0.70766282081604,0.9541916251182556,-1.2823688983917236
1758273328355021300,11.664021240234375,0.9082038998603821,-2.048227310180664,-2.325798511505127
1758273328364978400,11.673978515625,1.0544588565826416,-4.396105766296387,-3.5899083614349365
1758273328374936300,11.683936279296875,1.3040056228637695,-5.137546062469482,-4.243412971496582
1758273328384893200,11.69389306640625,1.6824461221694946,-3.4307665824890137,-3.6008477210998535
1758273328394851300,11.703851318359375,1.9300175905227661,1.5266649723052979,-2.1449949741363525
1758273328404808200,11.71380810546875,1.3770838975906372,4.79920768737793,-0.2067008912563324
1758273328414766300,11.723766357421875,0.43654996156692505,3.892141580581665,1.5761597156524658
1758273328424723500,11.733723388671875,0.1312536597251892,0.864848256111145,2.249650239944458
1758273328434681000,11.74368115234375,0.010136828757822514,-3.4104132652282715,1.186567783355713
1758273328444639200,11.75363916015625,-0.18943633139133453,-3.2756340503692627,1.3464030027389526
1758273328454596400,11.763596435546875,-0.12172040343284607,-0.5364789366722107,2.343003034591675
1758273328464554200,11.77355419921875,-0.22223550081253052,2.3680801391601562,2.727937698364258
1758273328474511400,11.783511474609375,-0.05421985313296318,5.075747013092041,3.0225489139556885
1758273328484469200,11.79346923828125,0.2007724791765213,6.660792827606201,3.288886785507202
1758273328494426400,11.80342626953125,0.5148033499717712,6.889834403991699,3.255967855453491
1758273328504384500,11.813384521484375,0.3813251554965973,5.388646125793457,3.104281425476074
1758273328514342400,11.82334228515625,-0.6614723205566406,3.1116995811462402,2.7987310886383057
1758273328524299300,11.83329931640625,-1.466417908668518,0.3187538981437683,2.684129476547241
1758273328534257400,11.84325732421875,-1.4351203441619873,-2.5527377128601074,3.118692636489868
1758273328544214500,11.853214599609375,-1.2614465951919556,-4.202935218811035,4.241965293884277
1758273328554172400,11.86317236328125,-1.3729408979415894,-3.2042717933654785,5.224138259887695
1758273328564129300,11.87312939453125,-1.6065170764923096,-0.6102151274681091,5.022408485412598
1758273328574087400,11.88308740234375,-1.6929666996002197,2.072218179702759,3.9521005153656006
1758273328584044500,11.89304443359375,-1.4179331064224243,3.9196460247039795,2.738353729248047
1758273328594002400,11.90300244140625,-1.0354735851287842,4.547449111938477,2.025510549545288
1758273328603960600,11.912960693359375,-0.7667144536972046,4.020392417907715,1.8669294118881226
1758273328613917400,11.92291748046875,-0.4728013277053833,2.619105815887451,1.9964394569396973
1758273328623875300,11.932875244140625,-0.13311783969402313,0.9795863032341003,2.0753839015960693
1758273328633832400,11.94283251953125,0.14448367059230804,-0.12064408510923386,1.7822344303131104
1758273328643790600,11.95279052734375,0.14287644624710083,0.10120176523923874,1.4377851486206055
1758273328653747200,11.962747314453125,-0.11679133772850037,1.3286389112472534,1.1203606128692627
1758273328663705300,11.972705322265625,-0.2787051796913147,3.114245891571045,0.7698286771774292
1758273328673662500,11.982662353515625,-0.45816361904144287,4.514176368713379,0.430138498544693
1758273328683620400,11.992620361328125,-0.7100855708122253,5.1561713218688965,0.2797924876213074
1758273328693578500,12.00257861328125,-0.9356175065040588,4.9322028160095215,0.22607360780239105
1758273328703535400,12.012535400390625,-1.0723066329956055,3.9025840759277344,-0.013508369214832783
1758273328713493200,12.0224931640625,-1.2015691995620728,2.252713918685913,-0.6072713136672974
1758273328723450400,12.032450439453125,-1.39732027053833,0.47391819953918457,-1.3229337930679321
1758273328733408500,12.042408447265625,-1.491972804069519,-1.0291520357131958,-2.0239827632904053
1758273328743365600,12.05236572265625,-1.1981308460235596,-2.1899635791778564,-2.6386852264404297
1758273328753323300,12.0623232421875,-0.4930402934551239,-2.6237056255340576,-2.951198101043701
1758273328763280400,12.0722802734375,0.43466320633888245,-2.4647974967956543,-2.911076784133911
1758273328773238500,12.082238525390625,1.1817145347595215,-2.721386432647705,-2.8936355113983154
1758273328783196400,12.092196533203126,1.733231782913208,-3.260195255279541,-3.0758233070373535
1758273328793153500,12.102153564453126,1.992181420326233,-4.092212200164795,-3.3599629402160645
1758273328803111400,12.112111328125,1.788877248764038,-4.880593776702881,-3.6854631900787354
1758273328813068300,12.122068359375,1.3112939596176147,-5.421016693115234,-4.134045124053955
1758273328823026400,12.1320263671875,0.9520646333694458,-6.5027995109558105,-4.303427219390869
1758273328832983600,12.141983642578126,0.8946937322616577,-8.87032699584961,-4.131791591644287
1758273328842941400,12.15194140625,1.0117900371551514,-10.933066368103027,-3.4756782054901123
1758273328852898300,12.161898193359375,1.147960901260376,-11.403854370117188,-3.0154483318328857
1758273328862856400,12.1718564453125,1.6123378276824951,-7.768150806427002,-3.039381742477417
1758273328872814300,12.181814453125,2.294560432434082,-1.861230492591858,-3.135331630706787
1758273328882771500,12.191771484375,2.653059959411621,1.8555313348770142,-3.1653077602386475
1758273328892729600,12.2017294921875,2.277836799621582,3.319601535797119,-2.8256547451019287
1758273328902686500,12.2116865234375,1.2526977062225342,2.904405355453491,-2.5407423973083496
1758273328912644400,12.221644287109376,0.22133640944957733,1.6131800413131714,-2.1690900325775146
1758273328922601500,12.2316015625,-0.7018836140632629,-1.5441763401031494,-1.2253433465957642
1758273328932559600,12.2415595703125,-1.2367701530456543,-4.959785461425781,-0.270151823759079
1758273328942517500,12.251517578125,-1.574391484260559,-6.038220405578613,-0.09806801378726959
1758273328952474400,12.261474365234376,-1.3862847089767456,-4.7432541847229,-0.5304998159408569
1758273328962432500,12.2714326171875,-0.9331855177879333,-3.3752777576446533,-0.992628276348114
1758273328972389400,12.281389404296876,-0.685512363910675,-2.3718795776367188,-0.992621660232544
1758273328982347500,12.291347412109374,-0.8086975812911987,-1.1428881883621216,-0.7845563888549805
1758273328992304400,12.301304443359374,-1.2586913108825684,0.04062362387776375,-0.11007114499807358
1758273329002262300,12.31126220703125,-1.7335304021835327,0.7574487328529358,1.0287811756134033
1758273329012219400,12.321219482421874,-1.8142518997192383,1.1919056177139282,1.7237303256988525
1758273329022177500,12.331177490234374,-1.663479208946228,1.2540303468704224,1.5541510581970215
1758273329032135400,12.341135498046874,-1.4404724836349487,1.2537888288497925,1.132494568824768
1758273329042092300,12.35109228515625,-1.2484873533248901,1.2041122913360596,0.7991463541984558
1758273329052050400,12.361050537109374,-1.129319429397583,1.307868242263794,0.7069783806800842
1758273329062007600,12.371007568359374,-1.057813048362732,1.9203945398330688,1.0149824619293213
1758273329071965400,12.38096533203125,-0.9238888621330261,2.776273012161255,1.4167139530181885
1758273329081922600,12.390922607421874,-0.6062776446342468,3.3186826705932617,1.4806795120239258
1758273329091880400,12.40088037109375,-0.26380282640457153,3.6093080043792725,0.955597996711731
1758273329101837300,12.41083740234375,-0.07448826730251312,3.832073211669922,0.0071911620907485485
1758273329111795500,12.42079541015625,0.04987895488739014,3.5779523849487305,-0.8071803450584412
1758273329121753300,12.43075341796875,0.32259413599967957,2.791724443435669,-1.297057867050171
1758273329131710500,12.44071044921875,0.7080743908882141,0.8866611123085022,-1.5427275896072388
1758273329141668400,12.45066845703125,1.214252233505249,-1.5278644561767578,-2.0996861457824707
1758273329151625500,12.46062548828125,2.0495598316192627,-3.6476476192474365,-3.536961078643799
