time,seconds_elapsed,z,y,x
1757491444283041000,0.073041015625,9.44183349609375,1.0465654134750366,-1.1834838390350342
1757491444293102300,0.083102294921875,9.45410442352295,1.0446949005126953,-1.0475380420684814
1757491444303146800,0.093146728515625,10.292223930358887,1.091755986213684,-1.39716637134552
1757491444313177900,0.103177734375,10.225485801696777,1.3889362812042236,-1.8519150018692017
1757491444323223800,0.113223876953125,9.596260070800781,1.5905729532241821,-1.8834136724472046
1757491444333246000,0.123245849609375,8.957531929016113,1.6997336149215698,-1.9942203760147095
1757491444343309600,0.1333095703125,8.93373966217041,1.6164602041244507,-1.8157026767730713
1757491444353350700,0.1433505859375,8.932168006896973,1.4138509035110474,-1.643993616104126
1757491444363384300,0.15338427734375,9.395371437072754,1.3896095752716064,-1.458966612815857
1757491444373419300,0.163419189453125,9.533561706542969,1.3730746507644653,-1.528922200202942
1757491444383427300,0.17342724609375,9.578303337097168,1.2431892156600952,-1.5980547666549683
1757491444393510400,0.183510498046875,9.817723274230957,1.1955296993255615,-1.694945216178894
1757491444403552000,0.193552001953125,9.946710586547852,1.208398461341858,-1.6739211082458496
1757491444413569000,0.203569091796875,10.053851127624512,1.183034896850586,-1.4431798458099365
1757491444423631000,0.213631103515625,10.105626106262207,1.1097124814987183,-1.1073931455612183
1757491444433676000,0.223676025390625,10.080636978149414,1.0745476484298706,-0.9977087378501892
1757491444443716400,0.23371630859375,10.075998306274414,1.1429320573806763,-1.05569326877594
1757491444453734000,0.24373388671875,9.743054389953613,1.3362637758255005,-1.427542805671692
1757491444463798000,0.253798095703125,9.704896926879883,1.4651018381118774,-1.641300082206726
1757491444473838600,0.263838623046875,9.484106063842773,1.5147814750671387,-1.739013433456421
1757491444483853600,0.273853515625,9.434426307678223,1.5295207500457764,-1.5536872148513794
1757491444493919500,0.28391943359375,9.5809965133667,1.343820571899414,-1.2000187635421753
1757491444503960800,0.2939609375,9.787422180175781,1.2820202112197876,-1.0689362287521362
1757491444514001400,0.30400146484375,9.986963272094727,1.2690017223358154,-0.9065046310424805
1757491444524017000,0.314016845703125,9.925237655639648,1.2624925374984741,-0.778564453125
1757491444534082800,0.324082763671875,9.837176322937012,1.2920459508895874,-0.6896049380302429
1757491444544123400,0.334123291015625,9.643245697021484,1.4284405708312988,-0.6890063285827637
1757491444554148000,0.344148193359375,9.493309020996094,1.5071499347686768,-0.6245125532150269
1757491444564205300,0.354205322265625,9.399486541748047,1.5473276376724243,-0.5068973898887634
1757491444574222600,0.36422265625,9.515006065368652,1.5842881202697754,-0.5059247612953186
1757491444584287500,0.37428759765625,9.591246604919434,1.5628151893615723,-0.5303156971931458
1757491444594323500,0.384323486328125,9.759289741516113,1.5089455842971802,-0.5481973886489868
1757491444604342500,0.394342529296875,9.94401741027832,1.4199860095977783,-0.4804115295410156
1757491444614408400,0.404408447265625,10.016666412353516,1.357587218284607,-0.44419923424720764
1757491444624429600,0.4144296875,10.316764831542969,1.0864437818527222,-0.25169044733047485
1757491444634486500,0.424486572265625,9.924116134643555,1.423951506614685,-0.31446343660354614
1757491444644527400,0.43452734375,9.738265991210938,1.4946552515029907,-0.3131166994571686
1757491444654572500,0.444572509765625,9.729960441589355,1.418190360069275,-0.33511340618133545
1757491444664608500,0.4546083984375,9.796324729919434,1.4537293910980225,-0.04519055783748627
1757491444674620200,0.4646201171875,9.931897163391113,1.5517419576644897,0.13863924145698547
1757491444684693500,0.474693603515625,9.839421272277832,1.5951368808746338,0.33264440298080444
1757491444694734300,0.484734375,9.60067367553711,1.4404115676879883,0.5451297760009766
1757491444704755700,0.494755615234375,9.49929428100586,1.4718354940414429,0.49567458033561707
1757491444714812200,0.504812255859375,9.063923835754395,1.9273324012756348,-0.23433248698711395
1757491444724834600,0.51483447265625,8.530091285705566,2.682403802871704,-1.1623101234436035
1757491444734893300,0.524893310546875,8.481833457946777,1.8584243059158325,-0.32867899537086487
1757491444744938200,0.534938232421875,8.814553260803223,1.6725744009017944,0.47637131810188293
1757491444754978800,0.544978759765625,8.730082511901855,1.7753753662109375,0.9798270463943481
1757491444765019100,0.55501904296875,8.748188972473145,1.9204490184783936,0.8363993763923645
1757491444775053600,0.565053466796875,9.130213737487793,1.986962914466858,0.8099883794784546
1757491444785101000,0.57510107421875,9.22987174987793,1.8712183237075806,0.7621791362762451
1757491444795116000,0.585115966796875,9.233163833618164,1.9031659364700317,0.5726631283760071
1757491444805182200,0.59518212890625,9.282843589782715,1.8102409839630127,0.5133318305015564
1757491444815199700,0.60519970703125,9.364471435546875,1.809118628501892,0.7038952708244324
1757491444825238000,0.615238037109375,8.864157676696777,1.9610756635665894,0.7919570207595825
1757491444835304000,0.625303955078125,8.669703483581543,1.9660885334014893,0.8036287426948547
1757491444845320200,0.6353203125,8.832210540771484,1.9712510108947754,0.9198223948478699
1757491444855387000,0.645386962890625,9.080159187316895,2.009932279586792,0.7530512809753418
1757491444865421800,0.655421875,9.407716751098633,2.038438320159912,0.43671736121177673
1757491444875464000,0.6654638671875,9.865233421325684,2.0306570529937744,0.17799393832683563
1757491444885504000,0.67550390625,10.315268516540527,1.973196268081665,-0.18128596246242523
1757491444895519500,0.68551953125,10.804883003234863,1.7652748823165894,-0.3042880594730377
1757491444905564000,0.69556396484375,11.186159133911133,1.6082301139831543,-0.2976292073726654
1757491444915604700,0.705604736328125,11.109694480895996,1.5435118675231934,-0.22131401300430298
1757491444925645300,0.715645263671875,10.883591651916504,1.7206828594207764,-0.24892215430736542
1757491444935713000,0.725713134765625,10.701108932495117,1.7052701711654663,-0.22191256284713745
1757491444945733400,0.7357333984375,10.37459945678711,1.7817349433898926,-0.133925661444664
1757491444955793700,0.745793701171875,10.014571189880371,1.7757494449615479,-0.015412673354148865
1757491444965829600,0.75582958984375,9.686640739440918,1.8299931287765503,-0.030226796865463257
1757491444975849000,0.765848876953125,9.679308891296387,1.810091257095337,-0.12577040493488312
1757491444985915600,0.77591552734375,9.768417358398438,1.7833061218261719,-0.28146833181381226
1757491444995932400,0.785932373046875,9.84271240234375,1.606958270072937,-0.3927987217903137
1757491445005965800,0.7959658203125,10.038887977600098,1.567304253578186,-0.6397755742073059
1757491445016013600,0.806013671875,10.145729064941406,1.4888942241668701,-0.7529764175415039
1757491445026052900,0.816052978515625,10.388814926147461,1.34359610080719,-0.6560860872268677
1757491445036093000,0.826093017578125,10.37220573425293,1.273565649986267,-0.4941782057285309
1757491445046155500,0.836155517578125,10.283246040344238,1.3291560411453247,-0.3489548861980438
1757491445056189400,0.846189453125,9.872864723205566,1.4215573072433472,-0.29388827085494995
1757491445066238000,0.856238037109375,9.32317066192627,1.535880446434021,-0.31685763597488403
1757491445076277500,0.866277587890625,9.101258277893066,1.5374516248703003,-0.3265840709209442
1757491445086323500,0.876323486328125,9.071630477905273,1.5911715030670166,-0.3188777267932892
1757491445096337700,0.886337646484375,9.189544677734375,1.50123929977417,-0.27473464608192444
1757491445106382300,0.89638232421875,9.43143367767334,1.4665981531143188,-0.34528878331184387
1757491445116418600,0.90641845703125,9.752032279968262,1.464503288269043,-0.49238255620002747
1757491445126493400,0.916493408203125,9.823484420776367,1.4106336832046509,-0.494253009557724
1757491445136549400,0.92654931640625,9.78869342803955,1.3472621440887451,-0.45991119742393494
1757491445146579200,0.9365791015625,9.893888473510742,1.403226613998413,-0.45407530665397644
1757491445156580400,0.946580322265625,9.839345932006836,1.4398130178451538,-0.3461866080760956
1757491445166648800,0.95664892578125,9.779939651489258,1.3960440158843994,-0.1743278056383133
1757491445176689000,0.96668896484375,9.65843391418457,1.417517066001892,-0.12711714208126068
1757491445186693000,0.976693115234375,9.629928588867188,1.5376012325286865,-0.2585737705230713
1757491445196770300,0.986770263671875,9.598729133605957,1.4381669759750366,-0.18749591708183289
1757491445206816500,0.99681640625,9.638008117675781,1.3973908424377441,-0.16056114435195923
1757491445216848000,1.006847900390625,9.633444786071777,1.4180407524108887,-0.27495908737182617
1757491445226871800,1.016871826171875,9.658807754516602,1.549871563911438,-0.37327101826667786
1757491445236893000,1.026892822265625,9.727866172790527,1.3838485479354858,-0.13602058589458466
1757491445246974000,1.036973876953125,9.801861763000488,1.3187562227249146,-0.03538929298520088
1757491445257014500,1.0470146484375,9.790115356445312,1.415871024131775,-0.11581950634717941
1757491445267051300,1.05705126953125,9.625438690185547,1.4186393022537231,-0.1388636976480484
1757491445277092000,1.067092041015625,9.51081657409668,1.4092869758605957,-0.1455973982810974
1757491445287114500,1.077114501953125,9.51089096069336,1.488669753074646,-0.2668038606643677
1757491445297143000,1.08714306640625,9.664568901062012,1.486275553703308,-0.3056347966194153
1757491445307192600,1.097192626953125,9.794529914855957,1.4296376705169678,-0.24099136888980865
1757491445317258800,1.1072587890625,9.767220497131348,1.4306102991104126,-0.18480244278907776
1757491445327308800,1.117308837890625,9.683947563171387,1.5456815958023071,-0.25169044733047485
1757491445337336300,1.12733642578125,9.454777717590332,1.5065513849258423,-0.23418284952640533
1757491445347377200,1.137377197265625,9.393799781799316,1.4648773670196533,-0.24009354412555695
1757491445357383000,1.1473828125,9.625214576721191,1.4465467929840088,-0.22340895235538483
1757491445367458800,1.157458740234375,9.850568771362305,1.3778630495071411,-0.15689502656459808
1757491445377499600,1.167499755859375,10.043526649475098,1.324068307876587,-0.21188685297966003
1757491445387540700,1.177540771484375,10.166154861450195,1.2740145921707153,-0.25573065876960754
1757491445397559300,1.187559326171875,10.157999038696289,1.302520513534546,-0.228047713637352
1757491445407608000,1.197608154296875,10.094852447509766,1.2891279458999634,-0.15981295704841614
1757491445417665800,1.207665771484375,9.970952033996582,1.3213748931884766,-0.11372458189725876
1757491445427686700,1.217686767578125,9.792060852050781,1.357512354850769,-0.13407529890537262
1757491445437747500,1.22774755859375,9.714248657226562,1.2909235954284668,-0.16639702022075653
1757491445447788300,1.237788330078125,9.819892883300781,1.143904685974121,-0.1595136821269989
1757491445457799000,1.247798828125,10.234613418579102,1.090334415435791,-0.020949264988303185
1757491445467869400,1.257869384765625,10.233266830444336,0.4266168177127838,0.4411316514015198
1757491445477869600,1.26786962890625,9.299378395080566,1.5208418369293213,-0.13901333510875702
1757491445487951000,1.277951171875,9.050980567932129,1.7247978448867798,-0.023119010031223297
1757491445497991700,1.28799169921875,9.275136947631836,1.2186486721038818,-0.3473837077617645
1757491445508007200,1.298007080078125,8.942941665649414,0.6636427640914917,1.4415339231491089
1757491445518073600,1.308073486328125,9.398737907409668,1.839495062828064,0.6096984148025513
1757491445528074800,1.31807470703125,9.02830982208252,1.2623428106307983,1.3031939268112183
1757491445538140000,1.328139892578125,9.443255424499512,1.3258639574050903,1.3218985795974731
1757491445548192800,1.33819287109375,9.298405647277832,1.035866379737854,1.5855600833892822
1757491445558255600,1.348255615234375,9.001225471496582,1.0354174375534058,1.5153051614761353
1757491445568277200,1.35827734375,8.90029525756836,0.946532666683197,1.9113959074020386
1757491445578312700,1.368312744140625,9.574112892150879,1.502586007118225,2.5313446521759033
1757491445588358100,1.378358154296875,9.021651268005371,1.2591255903244019,2.9189059734344482
1757491445598404900,1.38840478515625,8.875081062316895,0.9893290400505066,3.448772668838501
1757491445608435200,1.398435302734375,9.73781681060791,1.277156949043274,4.165013313293457
1757491445618476500,1.4084765625,10.21463680267334,2.1029322147369385,4.885592937469482
1757491445628496000,1.418495849609375,9.20555591583252,0.3809773325920105,6.217592239379883
1757491445638557700,1.4285576171875,7.401225566864014,-2.2689549922943115,7.086388111114502
1757491445648580600,1.43858056640625,6.0084733963012695,-3.2236430644989014,7.389554023742676
1757491445658618000,1.4486181640625,5.8931779861450195,-2.772111415863037,7.377583026885986
1757491445668680200,1.45868017578125,6.293159008026123,-2.6518776416778564,7.33239221572876
1757491445678724600,1.468724609375,5.438952922821045,-3.3413329124450684,7.939097881317139
1757491445688765400,1.478765380859375,4.603077411651611,-4.091989994049072,8.862735748291016
1757491445698780400,1.488780517578125,4.95120906829834,-3.977442502975464,8.695964813232422
1757491445708842800,1.4988427734375,6.325331211090088,-3.1557822227478027,7.751227855682373
1757491445718887400,1.508887451171875,7.30538272857666,-2.6797850131988525,6.069675445556641
1757491445728902700,1.518902587890625,8.138340950012207,-2.316988706588745,3.864241600036621
1757491445738969000,1.528968994140625,8.690503120422363,-1.6582090854644775,1.533186912536621
1757491445748984300,1.538984375,8.588226318359375,-1.2256816625595093,-0.7270891070365906
1757491445759050500,1.549050537109375,7.0995564460754395,-2.486603021621704,-1.285910725593567
1757491445769073000,1.559072998046875,6.673762321472168,-3.711611270904541,-1.4115315675735474
1757491445779128000,1.569128173828125,6.948048114776611,-3.278709650039673,-2.2988076210021973
1757491445789150000,1.57914990234375,7.3255839347839355,-3.0690672397613525,-3.5401265621185303
1757491445799209200,1.589209228515625,7.230489253997803,-3.6030490398406982,-4.699593544006348
1757491445809254100,1.599254150390625,6.5360212326049805,-4.543147563934326,-5.413888454437256
1757491445819280000,1.60927978515625,4.294300079345703,-6.090998649597168,-3.910329818725586
1757491445829335300,1.619335205078125,0.9454852342605591,-7.533056259155273,0.24338556826114655
1757491445839375600,1.629375732421875,2.5154829025268555,-7.494075775146484,4.077624797821045
1757491445849391000,1.63939111328125,5.328670024871826,-6.393042087554932,6.69837760925293
1757491445859453400,1.649453369140625,6.160580158233643,-6.093467712402344,7.966182231903076
1757491445869475600,1.6594755859375,6.791003704071045,-6.309020519256592,9.144353866577148
1757491445879537400,1.669537353515625,8.378358840942383,-6.147112846374512,10.263343811035156
1757491445889579500,1.67957958984375,10.576460838317871,-6.011391639709473,9.692028045654297
1757491445899642400,1.689642333984375,11.534067153930664,-6.068104267120361,11.274295806884766
1757491445909661200,1.6996611328125,12.40540599822998,-5.54549503326416,12.834567070007324
1757491445919711500,1.70971142578125,13.003807067871094,-5.4485297203063965,14.102147102355957
1757491445929741600,1.719741455078125,12.183343887329102,-5.494617938995361,15.48150634765625
1757491445939751000,1.7297509765625,11.196708679199219,-5.395109176635742,15.945009231567383
1757491445949824000,1.739823974609375,9.508197784423828,-5.006275653839111,16.29673194885254
1757491445959864800,1.74986474609375,6.350994110107422,-4.075305461883545,16.80572509765625
1757491445969885000,1.759885009765625,3.122936725616455,-2.9735236167907715,16.825700759887695
1757491445979946000,1.769946044921875,2.103754997253418,-2.5575311183929443,16.537275314331055
1757491445989982500,1.779982421875,0.40057986974716187,-1.921122431755066,16.295310974121094
1757491446000027600,1.790027587890625,-1.5741127729415894,-1.483656883239746,16.040103912353516
1757491446010042600,1.800042724609375,-1.8422633409500122,-1.1362731456756592,16.13078498840332
1757491446020131000,1.810131103515625,-3.2335939407348633,-0.6994810104370117,17.289278030395508
1757491446030149600,1.820149658203125,-5.4170308113098145,-1.2630162239074707,18.171541213989258
1757491446040164900,1.830164794921875,-6.851531982421875,-1.0704326629638672,18.78213882446289
1757491446050206700,1.840206787109375,-7.943212985992432,-0.9203460812568665,17.937358856201172
1757491446060271900,1.85027197265625,-11.827281951904297,-0.661697506904602,14.9583740234375
1757491446070312700,1.860312744140625,-16.98805809020996,-2.163759708404541,9.274239540100098
1757491446080349400,1.870349365234375,-15.167491912841797,-14.26196002960205,0.8636334538459778
1757491446090369300,1.880369384765625,-8.293889045715332,-20.64565086364746,-4.559532642364502
1757491446100430600,1.8904306640625,2.734328031539917,-3.0491654872894287,5.071816921234131
1757491446110484700,1.900484619140625,-3.297189950942993,-3.70742130279541,8.168118476867676
1757491446120512500,1.910512451171875,-5.664007663726807,-3.9905357360839844,7.646182537078857
1757491446130555400,1.920555419921875,-3.1000423431396484,-2.4946086406707764,9.659855842590332
1757491446140572700,1.93057275390625,-1.8858827352523804,-0.6746411323547363,11.489773750305176
1757491446150634200,1.94063427734375,-4.841075897216797,-2.552443504333496,13.517064094543457
1757491446160669400,1.95066943359375,-4.639588832855225,-2.1091420650482178,14.389077186584473
1757491446170694100,1.960694091796875,-0.19407998025417328,-1.0619032382965088,15.534104347229004
1757491446180756200,1.970756103515625,1.7045220136642456,-4.078073501586914,15.740155220031738
1757491446190776000,1.980776123046875,4.040888786315918,-4.404059410095215,15.295132637023926
1757491446200842000,1.990842041015625,6.219911575317383,-4.228683948516846,14.677578926086426
1757491446210882600,2.000882568359375,4.27858829498291,-4.232050895690918,13.470602035522461
1757491446220925700,2.01092578125,-0.7600094079971313,-3.113734245300293,10.338088035583496
1757491446230941400,2.02094140625,-0.23956981301307678,-0.3612251877784729,10.876858711242676
1757491446241000400,2.03100048828125,-1.371578335762024,-1.5031098127365112,11.790919303894043
1757491446291182600,2.0811826171875,1.7781436443328857,-13.11566162109375,0.303390234708786
1757491446311272700,2.101272705078125,-1.9142390489578247,-12.297741889953613,2.38926362991333
1757491446351413200,2.141413330078125,-1.144802451133728,-6.677877426147461,9.196578025817871
1757491446361476600,2.1514765625,-0.3082534670829773,-5.292607307434082,8.668656349182129
1757491446371496700,2.16149658203125,0.28535890579223633,-3.63110613822937,7.866823196411133
1757491446381548300,2.17154833984375,0.6721721291542053,-2.202889919281006,6.724265098571777
1757491446391591200,2.181591064453125,-0.6149357557296753,-1.256955862045288,5.798681735992432
1757491446401631000,2.191630859375,-2.4170961380004883,-1.0406547784805298,4.559083938598633
1757491446411671600,2.201671630859375,-2.59853196144104,-1.5616180896759033,3.7020344734191895
1757491446421727200,2.211727294921875,-2.341529369354248,-2.438793659210205,3.7939867973327637
1757491446431752200,2.221752197265625,-0.5402665734291077,-4.070442199707031,5.871330738067627
1757491446441782300,2.2317822265625,-0.09187749028205872,-3.2024691104888916,8.238971710205078
1757491446451840300,2.24184033203125,0.8518868684768677,-3.07879376411438,10.29746150970459
1757491446461884400,2.251884521484375,-2.7195138931274414,-3.9299323558807373,14.301090240478516
1757491446471903700,2.26190380859375,-4.042684555053711,-3.2119712829589844,13.623531341552734
1757491446481957000,2.27195703125,-2.725050449371338,-4.005649089813232,10.678962707519531
1757491446492024600,2.282024658203125,-2.3546226024627686,-8.016610145568848,8.12285327911377
1757491446502037000,2.292037109375,-3.7508909702301025,-12.348394393920898,6.29480504989624
1757491446512104700,2.302104736328125,-2.195333242416382,-14.066234588623047,6.261660575866699
1757491446522200600,2.31220068359375,2.8808979988098145,-13.738378524780273,5.5971198081970215
1757491446532202800,2.32220263671875,3.3477673530578613,-13.167137145996094,5.366079330444336
1757491446542225700,2.3322255859375,2.4869022369384766,-12.349217414855957,5.364882469177246
1757491446552267000,2.34226708984375,2.0202572345733643,-11.11755084991455,6.6186957359313965
1757491446562303700,2.3523037109375,0.13833996653556824,-10.978761672973633,7.8622589111328125
1757491446572348700,2.3623486328125,-1.5467290878295898,-9.353023529052734,7.710376739501953
1757491446582391300,2.372391357421875,-1.069684386253357,-8.064419746398926,7.303961277008057
1757491446592425000,2.382425048828125,-0.16175825893878937,-7.585055351257324,5.9211602210998535
1757491446602467000,2.392467041015625,2.6552445888519287,-5.355155944824219,3.949310541152954
1757491446612508200,2.402508056640625,3.376572608947754,-3.7351791858673096,3.810072660446167
1757491446622549800,2.4125498046875,6.824073314666748,-4.621407985687256,5.070919036865234
1757491446632588300,2.42258837890625,6.612560749053955,-8.923788070678711,3.7136313915252686
1757491446642633000,2.432633056640625,9.836203575134277,-10.907383918762207,0.8334066271781921
1757491446652674600,2.442674560546875,3.944671869277954,-15.767763137817383,-1.7387142181396484
1757491446662711000,2.4527109375,-18.44575309753418,-11.327117919921875,-2.103754997253418
1757491446672755500,2.46275537109375,-15.719954490661621,-11.257761001586914,-0.7054665088653564
1757491446682796500,2.472796630859375,-6.659172534942627,-8.690728187561035,2.6085574626922607
1757491446692832300,2.482832275390625,-1.7960253953933716,-6.927173614501953,3.652728796005249
1757491446702877700,2.492877685546875,-1.898078203201294,-5.603778839111328,2.8422915935516357
1757491446712918800,2.502918701171875,-2.3591864109039307,-3.7656302452087402,5.102567672729492
1757491446722959000,2.512958984375,10.127548217773438,-6.859687328338623,4.70879602432251
1757491446732999700,2.522999755859375,10.062455177307129,-10.783708572387695,9.303119659423828
1757491446743039700,2.533039794921875,-3.0054712295532227,-14.7317476272583,10.825383186340332
1757491446753077800,2.543077880859375,-10.141240119934082,-15.609296798706055,7.204676628112793
1757491446763122000,2.553121826171875,-5.7200469970703125,-10.53942584991455,1.9128174781799316
1757491446773162200,2.563162353515625,-0.7303811311721802,-5.163694381713867,0.8768763542175293
1757491446783203000,2.573203125,-0.5734861493110657,-4.684255599975586,3.186009168624878
1757491446793243400,2.583243408203125,0.9020155072212219,-7.485546588897705,3.7737107276916504
1757491446803284500,2.593284423828125,3.06412935256958,-9.469067573547363,4.4292731285095215
1757491446813325600,2.60332568359375,0.29201778769493103,-9.569998741149902,4.880654811859131
1757491446823362600,2.613362548828125,-1.0348188877105713,-8.443825721740723,4.752415657043457
1757491446833409300,2.6234091796875,-0.4265419840812683,-7.287201881408691,4.399345397949219
1757491446843443000,2.63344287109375,-0.20477905869483948,-6.289941787719727,3.7928643226623535
1757491446853485000,2.643485107421875,-0.750731885433197,-6.049100399017334,3.0261213779449463
1757491446863527700,2.653527587890625,-0.578947901725769,-6.6566290855407715,2.935366153717041
1757491446873575200,2.6635751953125,0.3056347966194153,-7.152527809143066,3.995922565460205
1757491446883606300,2.673606201171875,0.5030068159103394,-8.038532257080078,5.178732872009277
1757491446893646600,2.683646484375,-0.7155670523643494,-10.520795822143555,5.764339923858643
1757491446903691800,2.69369189453125,-2.3658454418182373,-12.726827621459961,6.37650728225708
1757491446913732600,2.703732666015625,-2.923095703125,-13.549460411071777,6.032266139984131
1757491446923773200,2.713773193359375,-2.6875662803649902,-13.231705665588379,5.184868335723877
1757491446933813800,2.723813720703125,-0.8547300100326538,-10.79044246673584,4.009016036987305
1757491446943854300,2.733854248046875,0.5806687474250793,-9.59947681427002,3.2252142429351807
1757491446953895700,2.743895751953125,0.1611597090959549,-8.375441551208496,3.062333583831787
1757491446963932000,2.753931884765625,-0.8462006449699402,-8.74257755279541,3.4822168350219727
1757491446973976800,2.763976806640625,-1.8885762691497803,-8.604985237121582,3.9760208129882812
1757491446984017400,2.774017333984375,-1.9574843645095825,-8.573038101196289,3.5779848098754883
1757491446994057200,2.78405712890625,-1.5479261875152588,-8.446444511413574,2.955267906188965
1757491447004099000,2.79409912109375,0.7307552695274353,-8.064719200134277,2.8517935276031494
1757491447014135600,2.804135498046875,0.9799018502235413,-7.290643215179443,3.7054760456085205
1757491447024180700,2.8141806640625,-0.28139352798461914,-7.318775177001953,4.209904193878174
1757491447034216400,2.824216552734375,0.31034839153289795,-6.697854042053223,4.276942253112793
1757491447044261400,2.834261474609375,0.39474400877952576,-4.106579780578613,3.710488796234131
1757491447054303000,2.844302978515625,-1.3782371282577515,-4.043582439422607,3.549703359603882
1757491447064343300,2.85434326171875,-1.3100024461746216,-1.8935891389846802,2.8633155822753906
1757491447074384100,2.864384033203125,-0.3455132246017456,-1.929801344871521,3.1700727939605713
1757491447084420900,2.8744208984375,1.1979238986968994,-2.2245125770568848,2.909104585647583
1757491447094461000,2.8844609375,1.7687913179397583,-3.0848541259765625,2.3780407905578613
1757491447104501800,2.894501708984375,2.3132476806640625,-2.1936872005462646,1.6368857622146606
1757491447114545400,2.90454541015625,2.094926595687866,-1.3547440767288208,0.7939023375511169
1757491447124583400,2.91458349609375,1.917231798171997,-1.4397382736206055,0.4051438271999359
1757491447134628000,2.924628173828125,2.7164463996887207,-0.0537199005484581,-0.2908954918384552
1757491447144669000,2.9346689453125,2.8657846450805664,0.44913727045059204,-1.12235689163208
1757491447154710000,2.9447099609375,3.9250693321228027,0.9029881358146667,-1.9571102857589722
1757491447164750000,2.95475,5.013009548187256,-1.1688941717147827,-2.4713399410247803
1757491447174791200,2.964791259765625,2.7899184226989746,-4.650063514709473,-2.4438066482543945
1757491447184831500,2.97483154296875,-0.1637783646583557,-8.113874435424805,-2.0739023685455322
1757491447204913200,2.9949130859375,-1.0693103075027466,-13.757157325744629,-2.7257986068725586
1757491447214953700,3.00495361328125,-6.422146797180176,-20.49391746520996,-1.871517539024353
1757491447224994800,3.014994873046875,-5.719972133636475,-29.57422637939453,-0.8642320036888123
1757491447235035000,3.025034912109375,1.272144079208374,-29.840730667114258,-0.6454617977142334
1757491447245076000,3.035075927734375,12.525116920471191,-6.98740291595459,-1.9390789270401
1757491447255116500,3.045116455078125,10.17752742767334,-23.93700408935547,-1.4037504196166992
1757491447265153300,3.0551533203125,1.778891921043396,-24.73180389404297,-1.484629511833191
1757491447275198500,3.065198486328125,-2.2013936042785645,-21.14109992980957,-0.8692448735237122
1757491447285239000,3.075239013671875,-3.413233757019043,-19.218631744384766,-0.02371755987405777
1757491447295278600,3.085278564453125,-1.421033501625061,-16.06838607788086,0.7817816734313965
1757491447305320400,3.095320556640625,0.9467571377754211,-12.576217651367188,-0.36571431159973145
1757491447315361300,3.105361328125,0.8446294665336609,-10.4589204788208,-3.1361050605773926
1757491447325406500,3.115406494140625,0.8268225789070129,-10.674473762512207,-4.9799394607543945
1757491447335438000,3.12543798828125,0.30032268166542053,-12.355278015136719,-5.151124954223633
1757491447345479000,3.13547900390625,-0.1652747392654419,-13.52462100982666,-4.441992282867432
1757491447355520800,3.145520751953125,0.1646013706922531,-14.558542251586914,-3.5614497661590576
1757491447365574100,3.15557421875,0.1910123974084854,-13.638120651245117,-2.7857284545898438
1757491447375605200,3.165605224609375,0.16475100815296173,-12.66547679901123,-2.181267499923706
1757491447385646000,3.17564599609375,-0.15188217163085938,-11.281478881835938,-1.8542344570159912
1757491447395686400,3.185686279296875,-0.5869535207748413,-9.023447036743164,-1.506476640701294
1757491447405723000,3.195722900390625,0.11933599412441254,-5.961711883544922,-1.017835021018982
1757491447415767600,3.205767578125,1.6071827411651611,-3.9357683658599854,0.08910919725894928
1757491447425808400,3.215808349609375,2.6937012672424316,-3.7292683124542236,1.28231942653656
1757491447435849700,3.225849609375,1.4003087282180786,-6.9602437019348145,2.1472249031066895
1757491447445889800,3.235889892578125,0.3935469090938568,-10.576684951782227,2.1348049640655518
1757491447455931000,3.245930908203125,0.6527940630912781,-12.002283096313477,1.303044319152832
1757491447465945900,3.25594580078125,0.6892307996749878,-11.679439544677734,-0.03628711774945259
1757491447475986400,3.265986328125,0.973242998123169,-10.860174179077148,-1.399560570716858
1757491447486027300,3.27602734375,0.5396680235862732,-10.07509994506836,-2.393453598022461
1757491447496110000,3.286110107421875,0.7181856632232666,-9.081131935119629,-2.5642647743225098
1757491447506115800,3.29611572265625,0.689530074596405,-8.642169952392578,-2.21388840675354
1757491447516170800,3.306170654296875,0.6072294116020203,-8.581043243408203,-1.7441011667251587
1757491447526212000,3.316212158203125,0.931119978427887,-8.67553997039795,-1.3047651052474976
1757491447536254000,3.32625390625,1.3472621440887451,-8.959626197814941,-0.9410709142684937
1757491447546295300,3.33629541015625,1.646312952041626,-9.32534122467041,-0.7707085013389587
1757491447556338200,3.346338134765625,1.9328689575195312,-9.594239234924316,-0.7965209484100342
1757491447566374400,3.35637451171875,2.0468928813934326,-9.699285507202148,-0.8395417928695679
1757491447576416800,3.366416748046875,2.100912094116211,-9.63987922668457,-0.7928548455238342
1757491447586456000,3.3764560546875,2.1680991649627686,-9.255834579467773,-0.7190086841583252
1757491447596497000,3.386496826171875,2.2566099166870117,-8.918551445007324,-0.6180781126022339
1757491447606539300,3.396539306640625,2.307636260986328,-8.71369743347168,-0.5274725556373596
1757491447616582000,3.406581787109375,2.3287353515625,-8.5711669921875,-0.381052166223526
1757491447626623000,3.416623046875,2.5557355880737305,-8.35800838470459,-0.0834977850317955
1757491447636659500,3.426659423828125,2.446500062942505,-8.451756477355957,0.31850364804267883
1757491447646700000,3.436699951171875,3.100416421890259,-8.378583908081055,0.8111854791641235
1757491447656745200,3.4467451171875,3.077596664428711,-8.651522636413574,1.2068272829055786
1757491447666785300,3.456785400390625,3.3568203449249268,-9.608305931091309,1.6907553672790527
1757491447676826400,3.466826416015625,3.403432607650757,-10.35058307647705,1.854982614517212
1757491447686867500,3.476867431640625,2.6907835006713867,-11.391386985778809,1.736694097518921
1757491447696907300,3.4869072265625,2.0737528800964355,-11.988965034484863,1.5267524719238281
1757491447706944800,3.49694482421875,1.5851860046386719,-12.090270042419434,1.1954548358917236
1757491447716985000,3.506985107421875,1.0466402769088745,-11.8981351852417,0.6420201659202576
1757491447727030300,3.5170302734375,0.6222679615020752,-11.724780082702637,-0.032695818692445755
1757491447737070600,3.527070556640625,0.48130935430526733,-11.893421173095703,-0.42212769389152527
1757491447747111200,3.537111083984375,0.39953240752220154,-12.105083465576172,-0.34087446331977844
1757491447757152000,3.547152099609375,0.22842180728912354,-12.182147026062012,0.1033247634768486
1757491447767192000,3.557192138671875,0.49634793400764465,-12.10246467590332,0.8388684391975403
1757491447777229300,3.567229248046875,0.7130979895591736,-11.52269458770752,1.3787609338760376
1757491447787274200,3.577274169921875,0.4644003212451935,-11.290082931518555,1.7167174816131592
1757491447797314600,3.587314453125,0.9916484355926514,-10.83742904663086,2.0371663570404053
1757491447807355400,3.59735546875,1.081356167793274,-9.985392570495605,1.862239956855774
1757491447817400600,3.607400634765625,0.9999533295631409,-10.051980972290039,1.835978627204895
1757491447827432700,3.6174326171875,1.6115221977233887,-9.546804428100586,1.8675521612167358
1757491447837474600,3.627474609375,1.4488661289215088,-9.064746856689453,1.9920506477355957
1757491447847514400,3.637514404296875,0.5238812565803528,-8.809016227722168,1.9789572954177856
1757491447857556700,3.647556640625,-0.22931963205337524,-8.689156532287598,1.6050130128860474
1757491447867595500,3.657595458984375,-0.054842181503772736,-8.188618659973145,1.0288333892822266
1757491447877640400,3.667640380859375,-0.23672668635845184,-7.76364803314209,0.6112695932388306
1757491447887680800,3.6776806640625,0.20126257836818695,-7.402647018432617,0.645087718963623
1757491447897721300,3.687721435546875,0.6991068720817566,-7.070975303649902,0.8037036061286926
1757491447907758000,3.697758056640625,1.4518588781356812,-6.742520809173584,0.7940519452095032
1757491447917803300,3.70780322265625,2.01000714302063,-6.561309814453125,0.946682333946228
1757491447927843600,3.717843505859375,1.3480851650238037,-6.85908842086792,0.9918728470802307
1757491447937880300,3.72788037109375,0.7663689851760864,-7.495572090148926,1.1740566492080688
1757491447947925000,3.737925048828125,-0.19213469326496124,-7.841160297393799,1.091456651687622
1757491447957965600,3.747965576171875,-0.7642740607261658,-8.03995418548584,1.1369465589523315
1757491447968002300,3.758002197265625,-0.9431658387184143,-8.223858833312988,1.4491653442382812
1757491447978047000,3.768046875,-0.9393500685691833,-8.231714248657227,1.5863831043243408
1757491447988088300,3.77808837890625,-0.7546972632408142,-8.244658470153809,1.4839560985565186
1757491447998128600,3.788128662109375,-0.26912322640419006,-8.346037864685059,1.0669909715652466
1757491448008166100,3.798166259765625,-0.7852233648300171,-8.636034965515137,0.6986579895019531
1757491448018209500,3.80820947265625,-0.7178863883018494,-9.303119659423828,0.3586065173149109
1757491448028251100,3.818251220703125,1.2063783407211304,-9.876007080078125,-0.058732759207487106
1757491448038287400,3.828287353515625,3.831620454788208,-10.061034202575684,-0.09726444631814957
1757491448048331800,3.838331787109375,5.181950092315674,-10.211344718933105,-0.5221604108810425
1757491448058373600,3.84837353515625,6.879439353942871,-10.457348823547363,-0.7716063261032104
1757491448068412200,3.858412109375,6.984559535980225,-10.763283729553223,-0.744297444820404
1757491448078450700,3.86845068359375,6.162450790405273,-11.839327812194824,-0.6964133977890015
1757491448088491500,3.878491455078125,4.7509942054748535,-13.607893943786621,0.01069908868521452
1757491448098531600,3.888531494140625,2.900425672531128,-15.319299697875977,1.1306617259979248
1757491448108577000,3.898576904296875,2.163236141204834,-16.94144630432129,1.741332769393921
1757491448118617000,3.9086171875,0.7251438498497009,-18.73784637451172,2.2967875003814697
1757491448128658000,3.918657958984375,-1.3076082468032837,-20.067075729370117,2.9607295989990234
1757491448138698500,3.928698486328125,-2.572270393371582,-20.563648223876953,3.8021419048309326
1757491448148735500,3.938735595703125,-3.3220295906066895,-19.995698928833008,4.847660064697266
1757491448158776000,3.948776123046875,-3.9588873386383057,-18.63190269470215,5.48384428024292
1757491448168820500,3.958820556640625,-3.2759413719177246,-16.981624603271484,5.756708145141602
1757491448178861000,3.968861083984375,-3.0561983585357666,-14.612935066223145,5.248913288116455
1757491448188902000,3.97890185546875,-3.529128074645996,-11.343578338623047,3.3458969593048096
1757491448198942700,3.988942626953125,-2.572420120239258,-9.641151428222656,2.117820978164673
1757491448208983300,3.9989833984375,-2.539050817489624,-9.192313194274902,1.8891748189926147
1757491448219024000,4.00902392578125,-2.885836124420166,-9.362825393676758,2.9361891746520996
1757491448229060600,4.019060546875,-1.9619734287261963,-9.838448524475098,4.493093490600586
1757491448239105800,4.029105712890625,0.1314566433429718,-10.46325969696045,5.927818775177002
1757491448249146400,4.039146484375,2.2265326976776123,-10.866009712219238,6.627823829650879
1757491448259187000,4.04918701171875,3.391536235809326,-11.274370193481445,7.028927326202393
1757491448269227800,4.059227783203125,2.637662172317505,-11.35352897644043,6.854150772094727
1757491448279268000,4.06926806640625,-0.8973019123077393,-11.097349166870117,7.026233673095703
1757491448289305600,4.0793056640625,-3.276165723800659,-11.631331443786621,6.286649703979492
1757491448299349800,4.089349853515625,-3.910329818725586,-12.454338073730469,4.5609540939331055
1757491448309386000,4.099385986328125,-3.4955344200134277,-13.359420776367188,1.9491794109344482
1757491448319427600,4.109427490234375,-3.2641947269439697,-14.523377418518066,-0.6491279602050781
1757491448329468200,4.11946826171875,-3.245490074157715,-15.691523551940918,-2.799046277999878
1757491448339509800,4.129509765625,-2.38926362991333,-16.160411834716797,-3.875389575958252
1757491448349551900,4.1395517578125,-0.6507739424705505,-16.039356231689453,-3.51393985748291
1757491448359589600,4.149589599609375,0.4207809567451477,-15.860538482666016,-2.032078742980957
1757491448369634800,4.159634765625,0.09718962758779526,-15.351845741271973,-0.20612579584121704
1757491448379671300,4.16967138671875,1.4033763408660889,-14.320169448852539,1.8889503479003906
1757491448389716000,4.179716064453125,2.2765865325927734,-13.039047241210938,3.6273651123046875
1757491448399756800,4.1897568359375,1.3138929605484009,-11.98836612701416,4.172270774841309
1757491448409796900,4.199796875,0.5819406509399414,-11.233295440673828,4.296544551849365
1757491448419834400,4.20983447265625,0.06883329898118973,-11.391237258911133,4.521000862121582
1757491448429878800,4.219878662109375,-0.007407061289995909,-12.261305809020996,4.982109069824219
1757491448439919400,4.22991943359375,0.5092167854309082,-13.139080047607422,5.356801986694336
1757491448449956600,4.23995654296875,1.2968343496322632,-13.323283195495605,5.195641994476318
1757491448460001000,4.2500009765625,1.01753568649292,-13.116409301757812,4.207884311676025
1757491448470041600,4.26004150390625,0.8908674716949463,-12.302156448364258,2.7712135314941406
1757491448480078800,4.270078857421875,0.7681646347045898,-11.020660400390625,1.249399185180664
1757491448490122800,4.280122802734375,0.6367828249931335,-9.346738815307617,0.06920739263296127
1757491448500163800,4.290163818359375,0.16497546434402466,-7.24021577835083,-0.34760814905166626
1757491448510205200,4.300205078125,-0.8666262030601501,-5.231929302215576,-0.787617564201355
1757491448520245500,4.31024560546875,-1.123030185699463,-3.183689594268799,-0.8108113408088684
1757491448530286000,4.3202861328125,-1.1869255304336548,-1.847425937652588,-0.5688473582267761
1757491448540327200,4.3303271484375,-1.4302362203598022,-1.7882442474365234,-0.6448632478713989
1757491448550363400,4.34036328125,-0.8028057813644409,-2.2893805503845215,-0.4041711688041687
1757491448560408800,4.350408935546875,-0.11634323745965958,-2.311901092529297,-0.14260463416576385
1757491448570445300,4.3604453125,-0.15180735290050507,-2.2310218811035156,0.4332756996154785
1757491448580486000,4.37048583984375,-0.547075092792511,-2.0854244232177734,0.5673509836196899
1757491448590528000,4.380528076171875,-0.553509533405304,-1.746570110321045,0.8453028202056885
1757491448600574000,4.390573974609375,-0.7494599223136902,-1.7277905941009521,1.2246341705322266
1757491448610607600,4.400607666015625,-1.3343185186386108,-1.8950105905532837,1.4087632894515991
1757491448620652500,4.410652587890625,-1.4659996032714844,-2.2055087089538574,1.7080384492874146
1757491448630693000,4.420693115234375,-1.2597241401672363,-2.3417537212371826,2.420912027359009
1757491448640734000,4.43073388671875,-1.5831658840179443,-2.411484956741333,3.6116533279418945
1757491448650774300,4.440774169921875,-1.9851672649383545,-3.006967782974243,4.646546840667725
1757491448660815600,4.450815673828125,-2.5579800605773926,-3.428347110748291,5.301510810852051
1757491448670856000,4.46085595703125,-2.678363561630249,-3.7187938690185547,5.425410747528076
1757491448680893200,4.47089306640625,-2.2474820613861084,-3.8843677043914795,5.215843200683594
1757491448690937300,4.480937255859375,-2.105026960372925,-3.9588873386383057,5.013009548187256
1757491448700978000,4.49097802734375,-2.7516112327575684,-4.221351623535156,4.923601150512695
1757491448711018800,4.501018798828125,-3.4589481353759766,-4.846014022827148,4.911929130554199
1757491448721059300,4.511059326171875,-3.652204990386963,-5.718700408935547,4.69218635559082
1757491448731100400,4.521100341796875,-3.6756980419158936,-6.516643047332764,4.524592399597168
1757491448741137400,4.531137451171875,-3.5596542358398438,-7.010447025299072,4.376376152038574
1757491448751178000,4.541177978515625,-3.4567034244537354,-7.432350158691406,4.196436882019043
1757491448761222700,4.55122265625,-3.568333148956299,-7.53163480758667,4.028019905090332
1757491448771262700,4.5612626953125,-3.636343479156494,-7.403994083404541,3.8168063163757324
1757491448781303800,4.5713037109375,-3.6572179794311523,-7.116390228271484,3.6100072860717773
1757491448791344400,4.581344482421875,-3.7963809967041016,-6.57230806350708,3.485434055328369
1757491448801382000,4.5913818359375,-3.9344215393066406,-6.256572723388672,3.6600611209869385
1757491448811423500,4.601423583984375,-4.674454212188721,-6.314108371734619,4.183343887329102
1757491448821462500,4.611462646484375,-5.945850372314453,-6.908768177032471,4.8069586753845215
1757491448831528200,4.621528076171875,-5.889586448669434,-8.18525218963623,6.270638942718506
1757491448841547000,4.631547119140625,-4.262726306915283,-9.241094589233398,7.838316917419434
1757491448851586000,4.6415859375,-2.47096586227417,-10.28010368347168,8.350451469421387
1757491448861629000,4.65162890625,-3.056647300720215,-9.061678886413574,6.917447090148926
1757491448871665700,4.661665771484375,-0.499340683221817,-8.720954895019531,4.342258930206299
1757491448881708800,4.671708740234375,0.7378630638122559,-9.104700088500977,3.3172411918640137
1757491448891748000,4.681748046875,-3.5580830574035645,-9.381454467773438,5.028646469116211
1757491448901787600,4.69178759765625,-4.08518123626709,-9.98643970489502,5.604601860046387
1757491448911828700,4.701828857421875,-3.730764865875244,-10.191593170166016,4.500201225280762
1757491448921869300,4.711869384765625,-3.6444239616394043,-10.537480354309082,4.153790473937988
1757491448931910000,4.721909912109375,-2.406920909881592,-10.6408052444458,3.9170637130737305
1757491448941954000,4.7319541015625,-2.628908395767212,-10.731709480285645,4.01769495010376
1757491448951994600,4.74199462890625,-2.2369325160980225,-11.088595390319824,4.367921829223633
1757491448962033700,4.75203369140625,-1.1240029335021973,-11.043180465698242,4.768725872039795
1757491448972075500,4.762075439453125,-1.0958709716796875,-11.122937202453613,5.214346885681152
1757491448982114000,4.772114013671875,-1.0363152027130127,-11.23598861694336,5.369670867919922
1757491448992203800,4.782203857421875,0.16811785101890564,-11.141118049621582,5.3610663414001465
1757491449002196000,4.792196044921875,-0.1661725640296936,-11.443012237548828,5.184045314788818
1757491449012237800,4.80223779296875,-0.31932663917541504,-11.795409202575684,5.016450881958008
1757491449022280400,4.812280517578125,0.18891747295856476,-11.76368522644043,4.969016075134277
1757491449032299300,4.82229931640625,0.3000982105731964,-11.271153450012207,4.813093662261963
1757491449042362600,4.832362548828125,0.3362357020378113,-10.451738357543945,4.726528167724609
1757491449052399400,4.8423994140625,0.013317747041583061,-9.728165626525879,4.825962543487549
1757491449062439700,4.852439697265625,-0.3048866093158722,-9.32197380065918,4.870779037475586
1757491449072480500,4.86248046875,0.05588964745402336,-9.017236709594727,4.923601150512695
1757491449082521900,4.87252197265625,0.2454056739807129,-8.966509819030762,4.756006717681885
1757491449092564000,4.88256396484375,0.2379986196756363,-9.170316696166992,4.4205193519592285
1757491449102606800,4.89260693359375,-0.06973112374544144,-9.57628345489502,4.015899181365967
1757491449112647400,4.9026474609375,-0.7879168391227722,-9.922470092773438,3.4763808250427246
1757491449122684200,4.91268408203125,-0.058882396668195724,-9.728838920593262,3.209352493286133
1757491449132728300,4.922728271484375,0.40215107798576355,-9.238475799560547,3.155632734298706
1757491449142769200,4.93276904296875,0.3337666690349579,-8.617106437683105,3.0825347900390625
1757491449152810200,4.942810302734375,0.5070470571517944,-7.856722354888916,3.0713119506835938
1757491449162850600,4.9528505859375,0.3926490843296051,-7.190536022186279,3.1145570278167725
1757491449172891600,4.9628916015625,0.4752490520477295,-6.8209309577941895,3.210923671722412
1757491449182932200,4.97293212890625,0.3229927718639374,-6.707355976104736,3.231498956680298
1757491449192969200,4.98296923828125,0.5108627676963806,-6.6559553146362305,3.4087445735931396
1757491449203013400,4.993013427734375,-0.6073790192604065,-7.115567684173584,3.462165355682373
1757491449213054200,5.00305419921875,-1.0452187061309814,-7.587599277496338,3.687743902206421
1757491449223095000,5.013094970703125,-0.6970119476318359,-7.788786888122559,3.955670118331909
1757491449233135900,5.023135986328125,-1.4484171867370605,-7.879991054534912,3.792714834213257
1757491449243177200,5.03317724609375,-2.078840494155884,-7.907674312591553,3.0305356979370117
1757491449253217500,5.043217529296875,-0.9958382844924927,-7.344213485717773,2.494683265686035
1757491449263258000,5.053258056640625,-1.0610054731369019,-7.034763336181641,2.2154595851898193
1757491449273298700,5.063298583984375,-1.814430832862854,-7.052644729614258,1.9431939125061035
1757491449283339500,5.073339599609375,-3.124208688735962,-7.540238857269287,1.16552734375
1757491449293380600,5.083380615234375,-1.2643629312515259,-7.622015953063965,1.2339117527008057
1757491449303418400,5.09341845703125,-1.3294552564620972,-7.6676554679870605,1.5656583309173584
1757491449313457700,5.103457763671875,-1.4884452819824219,-8.126968383789062,2.2828712463378906
1757491449323497700,5.113497802734375,-1.7063924074172974,-8.822558403015137,2.4857051372528076
1757491449333540000,5.1235400390625,-0.31386488676071167,-9.371877670288086,1.839495062828064
1757491449343583700,5.133583740234375,2.7986721992492676,-9.14113712310791,1.3659669160842896
1757491449353620700,5.143620849609375,2.6512792110443115,-9.055170059204102,0.9078513383865356
1757491449363665400,5.15366552734375,1.999756932258606,-9.454178810119629,0.40222588181495667
1757491449373706200,5.163706298828125,3.104830741882324,-9.929801940917969,-0.3411737382411957
1757491449383742700,5.17374267578125,4.695777893066406,-10.429666519165039,-0.9091981053352356
1757491449393787400,5.183787353515625,4.308365821838379,-11.572074890136719,-1.097666621208191
1757491449403828000,5.193827880859375,3.098620653152466,-13.309741020202637,-0.41277533769607544
1757491449413869000,5.203869140625,3.3399860858917236,-14.289194107055664,0.8408136963844299
1757491449423905500,5.213905517578125,2.505157947540283,-15.63907527923584,2.7126305103302
1757491449433950000,5.223949951171875,1.3052887916564941,-17.12804412841797,4.810849189758301
1757491449443991000,5.233990966796875,0.5016600489616394,-18.0341739654541,6.0161051750183105
1757491449454031400,5.24403125,0.32104748487472534,-18.336217880249023,6.304831027984619
1757491449464072700,5.25407275390625,-0.3794061541557312,-17.819669723510742,5.366453647613525
1757491449474113500,5.264113525390625,-0.49619829654693604,-16.93441390991211,4.07470703125
1757491449484153900,5.27415380859375,-0.0561889223754406,-15.769933700561523,3.131840229034424
1757491449494191000,5.284191162109375,-0.16011223196983337,-14.879440307617188,2.7158477306365967
1757491449504235000,5.294235107421875,-0.7873930931091309,-13.930288314819336,2.9339444637298584
1757491449514276000,5.304276123046875,-1.3323732614517212,-12.773664474487305,3.9180362224578857
1757491449524316400,5.31431640625,-1.9594296216964722,-11.841422080993652,5.40446138381958
1757491449534357800,5.324357666015625,-2.014571189880371,-11.231947898864746,7.048454761505127
1757491449544403500,5.334403564453125,-1.2504466772079468,-11.034276962280273,8.676213264465332
1757491449554434800,5.344434814453125,-0.13444939255714417,-10.862343788146973,10.043301582336426
1757491449564475600,5.3544755859375,0.8549544811248779,-10.484807968139648,10.689138412475586
1757491449574518000,5.36451806640625,2.24703311920166,-10.047342300415039,10.427870750427246
1757491449584558000,5.37455810546875,3.403432607650757,-9.674894332885742,9.362975120544434
1757491449594601700,5.384601806640625,3.3627312183380127,-9.852888107299805,7.903783321380615
1757491449604642600,5.394642578125,2.4554035663604736,-10.658836364746094,6.1770405769348145
1757491449614683100,5.40468310546875,0.7244704961776733,-11.884817123413086,4.4036102294921875
1757491449624724000,5.414723876953125,-1.1354501247406006,-13.277420043945312,2.294318675994873
1757491449634760400,5.424760498046875,-1.572840929031372,-14.320393562316895,-0.1711854189634323
1757491449644805400,5.434805419921875,-0.7745242714881897,-14.975955963134766,-2.390460729598999
1757491449654846000,5.444845947265625,0.5957072973251343,-15.114295959472656,-3.5719993114471436
1757491449664886500,5.454886474609375,1.7591396570205688,-14.357803344726562,-3.072284460067749
1757491449674927400,5.46492724609375,2.8646624088287354,-12.226215362548828,-1.2158803939819336
1757491449684967700,5.4749677734375,3.0917375087738037,-10.427347183227539,1.563563346862793
1757491449695008800,5.4850087890625,3.0975732803344727,-9.679682731628418,4.747552394866943
1757491449705045800,5.495045654296875,3.3907134532928467,-9.126322746276855,7.029077053070068
1757491449715090700,5.505090576171875,2.1430349349975586,-8.825027465820312,7.834052562713623
1757491449725131000,5.515131103515625,0.5425859689712524,-8.951247215270996,7.23797082901001
1757491449735171300,5.52517138671875,0.024091655388474464,-9.323545455932617,5.8476881980896
1757491449745212700,5.535212646484375,0.015412673354148865,-9.748740196228027,4.133738994598389
1757491449755252700,5.545252685546875,0.8408136963844299,-9.808670043945312,2.456450939178467
1757491449765294300,5.55529443359375,1.1724854707717896,-9.481412887573242,1.3378350734710693
1757491449775335000,5.5653349609375,1.073724627494812,-8.744297981262207,0.7943512201309204
1757491449785375700,5.575375732421875,0.46499887108802795,-7.798588275909424,0.20926819741725922
1757491449795412200,5.585412109375,0.21293431520462036,-6.650942802429199,-0.2579752206802368
1757491449805452800,5.595452880859375,0.1298106163740158,-5.317746639251709,-0.6269067525863647
1757491449815493600,5.60549365234375,-0.46993690729141235,-4.642731189727783,-1.0206032991409302
1757491449825536500,5.61553662109375,-0.2190694510936737,-3.7560534477233887,-1.238924503326416
1757491449835579000,5.625578857421875,-0.015637129545211792,-3.0110080242156982,-1.0594342947006226
1757491449845619700,5.63561962890625,0.09292495250701904,-2.3319525718688965,-0.5208137035369873
1757491449855660800,5.645660888671875,-0.27301380038261414,-2.557231903076172,0.006808510981500149
1757491449865697300,5.655697265625,0.27473464608192444,-2.321851968765259,0.8125321865081787
1757491449875742000,5.665741943359375,0.3951180875301361,-2.533215045928955,1.7998411655426025
1757491449885782500,5.675782470703125,0.7158663272857666,-2.7164463996887207,2.5608232021331787
1757491449895822300,5.685822265625,0.3992331326007843,-3.0989201068878174,2.9857192039489746
1757491449905864200,5.6958642578125,-0.31528642773628235,-3.5480573177337646,3.235389471054077
1757491449915905300,5.7059052734375,-0.7133224606513977,-3.199925422668457,3.4543840885162354
1757491449925945900,5.71594580078125,-1.2017396688461304,-3.4524388313293457,4.221052646636963
1757491449935982300,5.725982421875,-1.0613046884536743,-4.230329990386963,4.790348529815674
1757491449946027800,5.73602783203125,-0.8304887413978577,-4.916268825531006,5.0889506340026855
1757491449956065800,5.746065673828125,-0.6830956935882568,-5.458929538726807,5.1705780029296875
1757491449966106600,5.756106689453125,-1.031826138496399,-6.019546985626221,5.402291774749756
1757491449976145000,5.766144775390625,-1.7282395362854004,-6.575076580047607,5.924452304840088
1757491449986186000,5.77618603515625,-2.334645986557007,-6.9922661781311035,6.449530601501465
1757491449996227000,5.78622705078125,-2.5760862827301025,-7.256975173950195,6.68872594833374
1757491450006268700,5.7962685546875,-2.2364089488983154,-7.2602667808532715,6.534375190734863
1757491450016308500,5.80630859375,-0.5713163614273071,-7.89510440826416,5.707327842712402
1757491450026353000,5.816352783203125,-2.7189900875091553,-8.007183074951172,3.575814962387085
1757491450036397300,5.826397216796875,-5.059172630310059,-8.173879623413086,1.1559505462646484
1757491450046430500,5.836430419921875,-4.55496883392334,-9.200543403625488,0.9665092825889587
1757491450056471000,5.846470947265625,-4.323105335235596,-10.925490379333496,4.0492682456970215
1757491450066512400,5.856512451171875,-6.088829040527344,-13.253252983093262,7.421277046203613
1757491450076552000,5.866552001953125,-5.293729782104492,-15.846996307373047,7.513453960418701
1757491450086597600,5.87659765625,-4.095057487487793,-17.02920913696289,5.9427080154418945
1757491450096634000,5.886634033203125,-1.745373010635376,-16.157943725585938,5.32313346862793
1757491450106678300,5.89667822265625,-0.9412205219268799,-13.516989707946777,5.380070686340332
1757491450116719600,5.9067197265625,-3.2992846965789795,-10.628235816955566,5.530980110168457
1757491450126759700,5.916759765625,-3.066523551940918,-8.733299255371094,5.202600479125977
1757491450136800800,5.92680078125,-2.792013168334961,-7.871237277984619,4.381314277648926
1757491450146837500,5.93683740234375,-1.4266449213027954,-7.7259392738342285,3.801992416381836
1757491450156882400,5.94688232421875,0.2799719572067261,-8.086416244506836,3.5219454765319824
1757491450166919200,5.956919189453125,1.7070658206939697,-8.70449447631836,3.5135657787323
1757491450176963300,5.96696337890625,2.429441452026367,-9.36589241027832,3.7790229320526123
1757491450187004200,5.977004150390625,2.4321348667144775,-9.969381332397461,4.3727850914001465
1757491450197045000,5.987044921875,1.611671805381775,-10.394950866699219,5.206640720367432
1757491450207082000,5.99708203125,0.9139117002487183,-10.57032585144043,6.133495807647705
1757491450217126700,6.007126708984375,0.16347908973693848,-10.28593921661377,6.805967330932617
1757491450227166700,6.017166748046875,-0.20193594694137573,-9.526004791259766,7.05025053024292
1757491450237204000,6.027203857421875,-0.07167641073465347,-8.63902759552002,6.799083709716797
1757491450247248400,6.037248291015625,-0.0974889025092125,-7.897498607635498,6.308946132659912
1757491450257288700,6.047288818359375,-0.6302735805511475,-7.733944892883301,5.71585750579834
1757491450267330000,6.057330078125,-1.3474866151809692,-7.625008583068848,4.88222599029541
1757491450277366800,6.06736669921875,-0.7297077775001526,-7.2940850257873535,4.147729873657227
1757491450287409400,6.077409423828125,-0.45923781394958496,-6.971017360687256,3.4350061416625977
1757491450297448400,6.087448486328125,-0.3761141300201416,-6.801777362823486,2.970381259918213
1757491450307488500,6.097488525390625,-0.6661118268966675,-6.6374006271362305,2.6470892429351807
1757491450317530000,6.107530029296875,-0.618452250957489,-6.441150665283203,2.293720006942749
1757491450327574800,6.11757470703125,-0.4296095669269562,-6.47668981552124,1.9417723417282104
1757491450337610800,6.12761083984375,-0.036736033856868744,-6.627150535583496,1.8232593536376953
1757491450347655700,6.13765576171875,0.0974889025092125,-6.851082801818848,1.9093759059906006
1757491450357696800,6.14769677734375,0.13340193033218384,-7.033192157745361,2.277933359146118
1757491450367736800,6.15773681640625,-0.21966800093650818,-7.378256320953369,2.885836124420166
1757491450377773600,6.167773681640625,-0.0918026715517044,-7.47073221206665,3.6972460746765137
1757491450387818200,6.177818359375,-0.9536404609680176,-7.809212684631348,4.0784478187561035
1757491450397855500,6.18785546875,-1.3133692741394043,-8.054019927978516,4.190676212310791
1757491450407900200,6.197900146484375,-2.0563199520111084,-8.482806205749512,3.9358432292938232
1757491450417940500,6.2079404296875,-2.2422447204589844,-8.794127464294434,3.4346320629119873
1757491450427981600,6.217981689453125,-2.5998785495758057,-9.037886619567871,2.8308441638946533
1757491450438022100,6.228022216796875,-1.6790087223052979,-9.182063102722168,2.9890859127044678
1757491450448063000,6.23806298828125,-1.902118444442749,-9.243189811706543,3.107823371887207
1757491450458103600,6.248103515625,-1.347411870956421,-8.64710807800293,2.6414778232574463
1757491450468139800,6.258139892578125,-0.7043442130088806,-8.247201919555664,1.9753659963607788
1757491450478185000,6.26818505859375,-0.185101717710495,-7.9777045249938965,1.6430208683013916
1757491450488226000,6.27822607421875,0.37491703033447266,-8.2958345413208,1.8255788087844849
1757491450498266600,6.2882666015625,1.5416414737701416,-8.850615501403809,2.136301279067993
1757491450508307000,6.298306884765625,2.023250102996826,-8.760159492492676,1.8136078119277954
1757491450518348000,6.30834814453125,3.8512229919433594,-8.446369171142578,1.3084312677383423
1757491450528384800,6.318384765625,3.671882390975952,-8.914286613464355,1.334767460823059
1757491450538425300,6.32842529296875,2.647463321685791,-9.865008354187012,1.4500632286071777
1757491450548466400,6.338466552734375,2.862492561340332,-11.073033332824707,0.8216601014137268
1757491450558507500,6.348507568359375,2.2643163204193115,-13.014431953430176,0.4712836444377899
1757491450568548900,6.358548828125,2.5083751678466797,-14.789058685302734,0.9689783453941345
1757491450578592300,6.36859228515625,1.4619593620300293,-16.661548614501953,1.8216134309768677
1757491450588633000,6.378633056640625,1.2245593070983887,-18.06298065185547,3.072209596633911
1757491450598670000,6.388670166015625,0.5402665734291077,-18.405649185180664,4.034903049468994
1757491450608710100,6.398710205078125,-0.08940847218036652,-17.915063858032227,5.001711845397949
1757491450618754600,6.408754638671875,-0.07878419756889343,-16.77886390686035,5.847014427185059
1757491450628795400,6.41879541015625,-0.5759551525115967,-15.921590805053711,6.259640216827393
1757491450638836200,6.428836181640625,-0.8146271109580994,-15.152303695678711,5.503371715545654
1757491450648876800,6.438876708984375,-0.5518634915351868,-14.456040382385254,3.9006783962249756
1757491450658913500,6.44891357421875,-0.11252748221158981,-13.702540397644043,2.7664999961853027
1757491450668958500,6.45895849609375,-0.4867711365222931,-12.746580123901367,2.4762778282165527
1757491450678974000,6.468973876953125,-1.5252561569213867,-11.571849822998047,3.0701894760131836
1757491450689014500,6.4790146484375,-2.7608139514923096,-10.892345428466797,4.415730953216553
1757491450699055000,6.48905517578125,-3.194762945175171,-10.99080753326416,6.3907976150512695
1757491450709095400,6.499095458984375,-2.7870752811431885,-11.175759315490723,8.230143547058105
1757491450719158000,6.509157958984375,-2.372429370880127,-11.07138729095459,9.499817848205566
1757491450729203000,6.519202880859375,-1.2975825071334839,-10.812140464782715,10.14333438873291
1757491450739243800,6.529243896484375,0.4296095669269562,-10.508376121520996,10.026318550109863
1757491450749284400,6.539284423828125,2.202889919281006,-10.242993354797363,9.196502685546875
1757491450759325200,6.5493251953125,3.1636383533477783,-10.211420059204102,8.026412010192871
1757491450769366500,6.559366455078125,3.1126866340637207,-10.574440956115723,6.565948486328125
1757491450779409400,6.569409423828125,2.750563621520996,-11.399093627929688,4.848557949066162
1757491450789443300,6.579443359375,1.641300082206726,-12.49129867553711,2.859499931335449
1757491450799484700,6.589484619140625,-0.15345336496829987,-13.441422462463379,0.34835633635520935
1757491450809525500,6.599525390625,-1.096693992614746,-13.816115379333496,-2.153285264968872
1757491450819567400,6.6095673828125,-1.0890624523162842,-13.904999732971191,-4.036923408508301
1757491450829610200,6.6196103515625,-0.13175591826438904,-13.922657012939453,-4.363731861114502
1757491450839646700,6.629646728515625,0.16220717132091522,-13.223625183105469,-3.556062936782837
1757491450849687300,6.639687255859375,-0.05117605999112129,-11.402609825134277,-2.036867141723633
1757491450859732000,6.64973193359375,0.6557868123054504,-9.835530281066895,0.13377602398395538
1757491450869773300,6.659773193359375,1.06377375125885,-9.023371696472168,2.701781749725342
1757491450879813000,6.669813232421875,0.9866355657577515,-8.65863037109375,5.0959086418151855
1757491450889854200,6.679854248046875,0.5080944895744324,-8.596081733703613,6.624830722808838
1757491450899894500,6.68989453125,0.54325932264328,-8.704568862915039,7.0749406814575195
1757491450909931500,6.699931640625,0.5596446394920349,-8.959626197814941,6.228291034698486
1757491450919972000,6.70997216796875,0.8933365345001221,-9.172486305236816,4.705055236816406
1757491450930017000,6.72001708984375,1.0591349601745605,-9.248725891113281,3.138199806213379
1757491450940057600,6.7300576171875,0.7959223985671997,-8.979228973388672,1.7880197763442993
1757491450950099000,6.740098876953125,0.9856629371643066,-8.145597457885742,0.9562591314315796
1757491450960139000,6.750138916015625,0.6942436695098877,-7.136366844177246,0.2305167317390442
1757491450970180000,6.76018017578125,0.416740745306015,-6.10012674331665,-0.14784196019172668
1757491450980216300,6.77021630859375,0.11065700650215149,-5.195118427276611,-0.29785364866256714
1757491450990261500,6.780261474609375,-1.0021229982376099,-5.255496978759766,-0.5747580528259277
1757491451000302300,6.79030224609375,-1.0414029359817505,-5.021090030670166,-0.8676736354827881
1757491451010343000,6.800343017578125,-0.9002946615219116,-4.620210647583008,-0.8441805839538574
1757491451020383700,6.8103837890625,-0.7322516441345215,-4.162169933319092,-0.5555295944213867
1757491451030421800,6.820421875,-0.6904278993606567,-3.447052001953125,-0.055665191262960434
1757491451040461300,6.83046142578125,-0.8455272912979126,-2.9759926795959473,0.8622866868972778
1757491451050503000,6.8405029296875,-1.0802339315414429,-2.838625431060791,1.9179800748825073
1757491451060545000,6.850544921875,-1.367762565612793,-3.3930327892303467,2.8236615657806396
1757491451070587000,6.8605869140625,-1.0706570148468018,-3.624671697616577,3.240776538848877
1757491451080627700,6.870627685546875,-0.6772598028182983,-3.9577651023864746,3.5946693420410156
1757491451090668500,6.88066845703125,-1.1094132661819458,-4.525265693664551,3.288585662841797
1757491451100708900,6.890708984375,-0.6857143044471741,-4.384082794189453,3.1085715293884277
1757491451110745600,6.90074560546875,-0.39646482467651367,-4.643404483795166,3.813140392303467
1757491451120787000,6.910786865234375,-0.2982277572154999,-4.611008167266846,4.497881889343262
1757491451130831000,6.9208310546875,-0.9438391923904419,-5.159878730773926,5.353958606719971
1757491451140871700,6.93087158203125,-1.6521488428115845,-5.86235237121582,6.143671035766602
1757491451150912800,6.940912841796875,-2.5721209049224854,-6.588618755340576,6.734964370727539
1757491451160953300,6.950953369140625,-3.190647840499878,-7.192406177520752,7.096563339233398
1757491451170990600,6.960990478515625,-3.430142879486084,-7.683516979217529,7.492878437042236
1757491451181034500,6.971034423828125,-3.0348002910614014,-8.548721313476562,8.0377836227417
1757491451191075800,6.981075927734375,-3.5994577407836914,-10.142736434936523,7.200336933135986
1757491451201116200,6.9911162109375,-3.0575451850891113,-11.220426559448242,5.192948818206787
1757491451211156700,7.00115673828125,-1.6645687818527222,-11.351059913635254,5.1390790939331055
1757491451221197800,7.01119775390625,-0.9816974997520447,-11.31649398803711,8.674267768859863
1757491451231238100,7.021238037109375,-2.7760021686553955,-11.58052921295166,11.965995788574219
1757491451241275100,7.031275146484375,-3.565938949584961,-12.544718742370605,10.56344223022461
1757491451251319800,7.04131982421875,-4.295123100280762,-13.196764945983887,7.072022914886475
1757491451261360600,7.051360595703125,-4.40892219543457,-12.70370864868164,4.896890640258789
1757491451271406300,7.06140625,-3.2638206481933594,-10.662128448486328,3.596240520477295
1757491451281437700,7.071437744140625,-3.2002995014190674,-8.322020530700684,2.623671054840088
1757491451291478500,7.081478515625,-3.7007625102996826,-6.53377628326416,1.6141408681869507
1757491451301520400,7.091520263671875,-3.0328550338745117,-5.550208568572998,0.9756371974945068
1757491451311561500,7.1015615234375,-1.3768155574798584,-5.2471923828125,1.0487351417541504
1757491451321606400,7.1116064453125,0.08828619122505188,-5.5825300216674805,2.0325276851654053
1757491451331636200,7.12163623046875,1.031526803970337,-6.553004741668701,3.4427871704101562
1757491451341688000,7.13168798828125,1.4113819599151611,-7.86966609954834,4.754360675811768
1757491451351724300,7.141724365234375,1.3582605123519897,-9.32893180847168,5.790152549743652
1757491451361764000,7.15176416015625,1.016338586807251,-10.69721794128418,6.636951446533203
1757491451371803600,7.1618037109375,0.7463175654411316,-11.52269458770752,7.291316986083984
1757491451381844500,7.171844482421875,0.6208464503288269,-11.40320873260498,7.557671546936035
1757491451391885800,7.1818857421875,0.3531447649002075,-10.414402961730957,7.357905387878418
1757491451401928700,7.1919287109375,0.09546878933906555,-8.82360553741455,6.65745210647583
1757491451411970600,7.201970458984375,-0.2761562168598175,-7.405864238739014,5.679420471191406
1757491451422014000,7.212013916015625,-0.7179612517356873,-6.621089935302734,4.754809856414795
1757491451432050000,7.2220498046875,-0.7858967185020447,-6.410175800323486,3.878232717514038
1757491451442090000,7.232090087890625,-0.5032312870025635,-6.379874229431152,3.195810317993164
1757491451452204000,7.2422041015625,-0.19445407390594482,-6.525172233581543,2.776899814605713
1757491451462204200,7.2522041015625,0.03075052797794342,-6.971092224121094,2.8265795707702637
1757491451472213500,7.262213623046875,-0.006434416864067316,-7.596203327178955,3.2306759357452393
1757491451482256000,7.272255859375,0.2586486041545868,-8.23276138305664,3.6379895210266113
1757491451492293000,7.282293212890625,0.3081786632537842,-8.779013633728027,3.740266799926758
1757491451502337500,7.292337646484375,0.262763649225235,-9.091307640075684,3.640533208847046
1757491451512378000,7.302378173828125,0.07459434866905212,-9.184232711791992,3.408071279525757
1757491451522416600,7.312416748046875,0.8456020951271057,-9.101781845092773,3.40986704826355
1757491451532455200,7.322455078125,0.4238485097885132,-8.897900581359863,3.3487401008605957
1757491451542496500,7.33249658203125,0.10519523918628693,-8.595258712768555,3.3283891677856445
1757491451552539600,7.34253955078125,-0.4313304126262665,-8.343718528747559,3.0843303203582764
1757491451562578000,7.352577880859375,-0.16265608370304108,-7.931765556335449,2.9856443405151367
1757491451572622300,7.362622314453125,0.2056768834590912,-7.712920665740967,3.0510358810424805
1757491451582659000,7.3726591796875,-0.8034791350364685,-7.632415771484375,3.001356363296509
1757491451592703500,7.382703369140625,-0.6801777482032776,-7.670797824859619,3.2404024600982666
1757491451602743000,7.392742919921875,-0.6551134586334229,-7.678130149841309,3.2784101963043213
1757491451612785700,7.40278564453125,-0.4017021656036377,-7.666383266448975,3.483788013458252
1757491451622821400,7.4128212890625,-0.3164087235927582,-7.654487133026123,3.720888614654541
1757491451632866600,7.422866455078125,-0.904559314250946,-7.576675891876221,3.60604190826416
1757491451642907100,7.4329072265625,-0.571391224861145,-7.225551128387451,3.24646258354187
1757491451652944100,7.442944091796875,-0.9765350222587585,-7.2160491943359375,2.8785037994384766
1757491451662988800,7.45298876953125,-1.675492286682129,-7.739706039428711,2.729090690612793
1757491451673029000,7.463029052734375,-1.9349639415740967,-8.364742279052734,2.932523012161255
1757491451683065900,7.47306591796875,-0.339752197265625,-9.044620513916016,3.552995204925537
1757491451693110500,7.483110595703125,1.996315360069275,-9.40404987335205,3.6076879501342773
1757491451703151600,7.493151611328125,3.9063644409179688,-9.587057113647461,3.357793092727661
1757491451713192000,7.50319189453125,4.354304790496826,-9.633145332336426,3.1274259090423584
1757491451723229200,7.513229248046875,4.59813928604126,-9.983820915222168,2.713453531265259
1757491451733273000,7.523273193359375,5.764040470123291,-10.862642288208008,2.628159999847412
1757491451743314400,7.533314453125,5.08184289932251,-11.90434455871582,1.6924012899398804
1757491451753351200,7.54335107421875,4.3017072677612305,-13.743017196655273,0.9115923047065735
1757491451763400200,7.553400146484375,2.4601919651031494,-16.410831451416016,0.04421791434288025
1757491451773431800,7.563431884765625,0.6631190776824951,-18.859800338745117,0.08028057217597961
1757491451783473200,7.57347314453125,-0.36810851097106934,-19.59003257751465,0.5216367244720459
1757491451793513700,7.583513671875,-1.7842788696289062,-19.31185531616211,1.2006921768188477
1757491451803556400,7.593556396484375,-2.181791067123413,-18.234390258789062,2.232518196105957
1757491451813600000,7.60360009765625,-2.8483517169952393,-17.14031410217285,3.3622822761535645
1757491451823639800,7.613639892578125,-2.670133352279663,-16.290372848510742,3.850399971008301
1757491451833680400,7.623680419921875,-1.713575005531311,-15.514202117919922,3.5457379817962646
1757491451843721200,7.63372119140625,-1.3453168869018555,-14.88243293762207,3.4157776832580566
1757491451853761800,7.64376171875,-1.518073558807373,-14.211682319641113,3.5249383449554443
1757491451863798800,7.653798828125,-1.936460256576538,-12.951658248901367,3.8300492763519287
1757491451873843700,7.66384375,-2.180070400238037,-11.42640209197998,4.5347676277160645
1757491451883884300,7.67388427734375,-2.5433902740478516,-10.395922660827637,5.879859924316406
1757491451893924900,7.6839248046875,-2.8209681510925293,-10.1329345703125,7.894805431365967
1757491451903965200,7.693965087890625,-2.653972625732422,-10.094552993774414,10.049362182617188
1757491451914006500,7.704006591796875,-1.844956874847412,-10.033201217651367,11.697546005249023
1757491451924046600,7.714046630859375,-0.01885433867573738,-10.14213752746582,12.209830284118652
1757491451934083800,7.724083740234375,1.7103577852249146,-10.476951599121094,11.297414779663086
1757491451944128500,7.73412841796875,2.215758800506592,-10.979434967041016,9.115099906921387
1757491451954169000,7.744169189453125,1.296609878540039,-11.99756908416748,6.085163116455078
1757491451964210000,7.7542099609375,-0.9754127264022827,-13.029620170593262,2.6342203617095947
1757491451974250200,7.764250244140625,-2.5217678546905518,-14.012813568115234,-0.27570727467536926
1757491451984291000,7.774291015625,-2.625990390777588,-14.589068412780762,-2.338686227798462
1757491451994332000,7.784331787109375,-2.576535224914551,-14.418855667114258,-3.4857332706451416
1757491452004369400,7.794369384765625,-2.387468099594116,-13.536293029785156,-3.5702035427093506
1757491452014411800,7.804411865234375,-1.3794342279434204,-11.657143592834473,-2.8307693004608154
1757491452024450300,7.8144501953125,0.19931729137897491,-9.743877410888672,-1.396867036819458
1757491452034490000,7.824489990234375,0.4124760627746582,-8.909796714782715,0.3893570601940155
1757491452044533000,7.834532958984375,0.4034978151321411,-8.787467956542969,2.4736592769622803
1757491452054576600,7.84457666015625,0.3126677870750427,-8.908226013183594,4.2871174812316895
1757491452064617000,7.854616943359375,-0.2659808397293091,-9.246108055114746,5.434314250946045
1757491452074653400,7.8646533203125,-0.5792471766471863,-9.530569076538086,5.5865702629089355
1757491452084698400,7.874698486328125,-0.4843769371509552,-9.597606658935547,4.854168891906738
1757491452094734800,7.88473486328125,0.414795458316803,-9.423129081726074,3.811793565750122
1757491452104779500,7.894779541015625,1.1120318174362183,-8.99277114868164,2.7602152824401855
1757491452114820000,7.904820068359375,0.8456769585609436,-8.506598472595215,1.7969231605529785
1757491452124860700,7.914860595703125,1.0539724826812744,-7.420903205871582,1.2257564067840576
1757491452134901200,7.9249013671875,0.0338929183781147,-6.709451198577881,0.5753566026687622
1757491452144942300,7.9349423828125,-0.22512978315353394,-6.055534839630127,-0.0073322425596416
1757491452154982700,7.944982666015625,-0.6769605278968811,-5.308393955230713,-0.5526865124702454
1757491452165020000,7.95502001953125,-0.8097639083862305,-4.56656551361084,-0.8370727896690369
1757491452175064300,7.965064208984375,-0.6899042129516602,-3.8378305435180664,-0.7074117660522461
1757491452185105000,7.97510498046875,-1.3955203294754028,-3.7480478286743164,-0.532934308052063
1757491452195146000,7.98514599609375,-0.9727192521095276,-3.540350914001465,-0.6527940630912781
1757491452205187000,7.99518701171875,-0.9433903098106384,-2.970905065536499,-0.43200376629829407
1757491452215227100,8.00522705078125,-1.2073509693145752,-2.670881748199463,0.06172551214694977
1757491452225267700,8.015267822265624,-1.4600141048431396,-2.5353848934173584,0.5160253047943115
1757491452235308300,8.025308349609375,-1.3692588806152344,-2.2894554138183594,1.2464064359664917
1757491452245348600,8.0353486328125,-1.2177507877349854,-2.9649195671081543,2.378340005874634
1757491452255391500,8.0453916015625,-1.1397148370742798,-3.4958338737487793,3.5021185874938965
1757491452265426700,8.0554267578125,-1.2157307863235474,-3.7111623287200928,4.6012067794799805
1757491452275467500,8.065467529296875,-1.347411870956421,-4.247987270355225,5.29036283493042
1757491452285509600,8.075509521484374,-1.4206594228744507,-4.555267810821533,5.651363372802734
1757491452295551200,8.08555126953125,-2.0801870822906494,-4.559682369232178,5.773766994476318
1757491452305596700,8.0955966796875,-2.833911895751953,-4.493018627166748,5.786037445068359
1757491452315634400,8.105634521484374,-3.4844613075256348,-4.594847202301025,5.803918838500977
1757491452325670400,8.11567041015625,-4.2083330154418945,-4.919036865234375,5.399373531341553
1757491452335715800,8.1257158203125,-3.786130666732788,-5.395034313201904,4.449100017547607
1757491452345756200,8.135756103515625,-3.8855648040771484,-6.209661483764648,2.8057050704956055
1757491452355797000,8.145796875,-5.628693580627441,-6.42431640625,2.0235493183135986
1757491452365837600,8.155837646484375,-8.20223617553711,-7.058256149291992,2.516979455947876
1757491452375878400,8.16587841796875,-4.948740005493164,-10.067468643188477,5.344306945800781
1757491452385919000,8.1759189453125,-0.7945756912231445,-14.05994987487793,9.75637149810791
1757491452395956000,8.1859560546875,-1.9010709524154663,-17.59775733947754,12.063484191894531
1757491452406000600,8.196000732421876,-4.017994403839111,-19.992406845092773,10.825757026672363
1757491452416042200,8.206042236328125,-4.2200798988342285,-18.67814064025879,8.973917007446289
1757491452426079700,8.216079833984375,-3.043778657913208,-14.302811622619629,7.792677402496338
1757491452436118500,8.226118408203124,-3.5025675296783447,-9.489418029785156,6.130278587341309
1757491452446159400,8.236159423828125,-3.5703532695770264,-6.244227886199951,3.897012233734131
1757491452456199700,8.24619970703125,-1.8171242475509644,-4.523544788360596,1.8635119199752808
1757491452466241300,8.2562412109375,-0.7675660848617554,-3.968015193939209,0.7442226409912109
1757491452476283600,8.26628369140625,0.26321256160736084,-4.636895179748535,0.7457190155982971
1757491452486326000,8.276325927734375,0.8659528493881226,-5.973608016967773,1.424849271774292
1757491452496367900,8.286367919921876,1.0720785856246948,-7.582960605621338,2.318784236907959
1757491452506409200,8.2964091796875,1.2859855890274048,-9.306486129760742,3.1152305603027344
1757491452516443600,8.306443603515625,1.5238345861434937,-10.674324035644531,3.9390604496002197
1757491452526485800,8.31648583984375,0.9911994934082031,-11.861997604370117,4.811896324157715
1757491452536525300,8.326525390625,0.6890063285827637,-12.500052452087402,5.733813762664795
1757491452546580000,8.336580078125,0.34102410078048706,-12.133813858032227,6.406135559082031
1757491452556611300,8.346611328125,0.012494740076363087,-10.762908935546875,6.7259111404418945
1757491452566651400,8.3566513671875,-0.4296095669269562,-8.899322509765625,6.661716461181641
1757491452576688400,8.3666884765625,-0.511386513710022,-7.2586212158203125,6.416610240936279
1757491452586732800,8.37673291015625,-0.3967640995979309,-6.093542575836182,6.185195446014404
1757491452596774000,8.38677392578125,-0.18787001073360443,-5.8569655418396,5.843348503112793
1757491452606810600,8.396810546875,-0.15195699036121368,-5.698798656463623,5.253626823425293
1757491452616854300,8.406854248046875,0.01496376097202301,-5.69356107711792,4.6168437004089355
1757491452626895600,8.4168955078125,-0.05574000999331474,-6.054562091827393,3.970334529876709
1757491452636932600,8.4269326171875,-0.058807577937841415,-6.586822986602783,3.422661066055298
1757491452646977300,8.436977294921874,-0.40304890275001526,-7.105541706085205,2.8778305053710938
1757491452657018000,8.44701806640625,-0.10699088871479034,-7.626804351806641,2.6844239234924316
1757491452667058400,8.457058349609374,-0.3751414716243744,-8.158541679382324,2.6081087589263916
1757491452677121500,8.46712158203125,-0.48722004890441895,-8.580669403076172,2.764479875564575
1757491452687139600,8.4771396484375,-0.29860183596611023,-8.927379608154297,3.2755672931671143
1757491452697180700,8.4871806640625,-0.6306477189064026,-9.081730842590332,3.934795618057251
1757491452707217400,8.497217529296876,-0.856076717376709,-9.057713508605957,4.477755546569824
1757491452717261600,8.507261474609376,-1.0613046884536743,-8.786944389343262,4.591480255126953
1757491452727302700,8.517302734375,-0.8928875923156738,-8.376189231872559,4.540977478027344
1757491452737343200,8.52734326171875,-1.030329704284668,-7.9521164894104,4.2890625
1757491452747384300,8.53738427734375,-0.33496376872062683,-7.682170391082764,4.3091139793396
1757491452757421800,8.547421875,-0.7805097699165344,-7.42180061340332,4.180500507354736
1757491452767461400,8.55746142578125,-0.07841010391712189,-7.090428352355957,4.319065093994141
1757491452777502500,8.56750244140625,0.27877485752105713,-6.6035075187683105,4.264596939086914
1757491452787545600,8.577545654296875,-0.5226093530654907,-6.083292484283447,3.5820999145507812
1757491452797587500,8.58758740234375,0.05117605999112129,-5.737554550170898,3.522095203399658
1757491452807628300,8.597628173828125,-0.3952677249908447,-6.539762020111084,3.617788314819336
1757491452817668900,8.6076689453125,-0.398185670375824,-7.901463985443115,3.973851203918457
1757491452827709700,8.617709716796876,-0.0537199005484581,-9.212289810180664,4.3237786293029785
1757491452837746200,8.62774609375,-1.1774234771728516,-9.780762672424316,3.696348190307617
1757491452847791600,8.63779150390625,-0.6256348490715027,-9.674445152282715,2.503511905670166
1757491452857831700,8.647831787109375,1.5278748273849487,-9.121310234069824,1.050979733467102
1757491452867871700,8.657871826171874,2.9052889347076416,-8.760758399963379,0.16512510180473328
1757491452877912600,8.66791259765625,4.932803630828857,-9.77440357208252,-0.7042694091796875
1757491452887953700,8.67795361328125,4.655674934387207,-11.672930717468262,-1.6083049774169922
1757491452897990100,8.687990234375,2.7819876670837402,-14.450878143310547,-1.1720365285873413
1757491452908030700,8.69803076171875,2.8447604179382324,-16.82876968383789,0.9214683771133423
1757491452918075400,8.708075439453125,2.520495891571045,-18.51263999938965,3.3197102546691895
1757491452928116500,8.718116455078125,1.4665234088897705,-19.064579010009766,4.713509559631348
1757491452938156800,8.72815673828125,0.5851578712463379,-19.532272338867188,5.6332573890686035
1757491452948198000,8.738197998046875,-0.7955483198165894,-19.724929809570312,6.379425048828125
1757491452958233900,8.74823388671875,-0.9398738145828247,-19.425954818725586,7.565901756286621
1757491452968279000,8.758279052734375,-1.6962170600891113,-18.40677261352539,8.145448684692383
1757491452978320000,8.76831982421875,-1.354893684387207,-17.021652221679688,7.536198616027832
1757491452988360700,8.778360595703125,-1.2827683687210083,-15.661670684814453,5.533149719238281
1757491452998406700,8.78840673828125,-1.1228805780410767,-14.63388442993164,3.803039789199829
1757491453008438300,8.798438232421875,-1.4620342254638672,-14.09346866607666,3.2414498329162598
1757491453018478300,8.808478271484375,-1.7959505319595337,-13.161375999450684,3.436577320098877
1757491453028521500,8.818521484375,-2.654496431350708,-11.690512657165527,3.979088306427002
1757491453038572300,8.828572265625,-3.7555298805236816,-10.343026161193848,5.165116310119629
1757491453048604400,8.8386044921875,-4.06049108505249,-9.737293243408203,7.1693620681762695
1757491453058645200,8.848645263671875,-3.687818765640259,-9.723377227783203,9.63067626953125
1757491453068681700,8.858681640625,-2.691082715988159,-9.966163635253906,11.401263236999512
1757491453078726100,8.86872607421875,-0.7516297101974487,-10.385598182678223,11.890578269958496
1757491453088763400,8.878763427734375,0.4272153675556183,-10.947636604309082,10.924293518066406
1757491453098808300,8.888808349609375,-0.2700958847999573,-11.566088676452637,8.88757610321045
1757491453108848600,8.8988486328125,-1.706093192100525,-12.67355728149414,6.458434104919434
1757491453118889200,8.90888916015625,-2.190619707107544,-13.930288314819336,3.9916579723358154
1757491453128930000,8.918929931640625,-1.5319898128509521,-14.341567039489746,1.9155110120773315
1757491453138966800,8.928966796875,-1.254337191581726,-14.03144359588623,0.671648383140564
1757491453149011000,8.939010986328125,-2.6465654373168945,-12.674005508422852,0.11686696857213974
1757491453159048000,8.9490478515625,-3.685499429702759,-10.8929443359375,0.017881693318486214
1757491453169092900,8.9590927734375,-2.9350669384002686,-9.627010345458984,0.4298340380191803
1757491453179133400,8.969133544921876,0.1364694982767105,-9.102530479431152,0.9536404609680176
1757491453189174300,8.97917431640625,3.694103479385376,-8.963367462158203,1.2531400918960571
1757491453199215000,8.989215087890624,3.9613564014434814,-9.024194717407227,1.9054104089736938
1757491453209251300,8.999251220703124,0.7999626398086548,-9.35317325592041,3.7113866806030273
1757491453219292200,9.009292236328125,-1.980827808380127,-9.837775230407715,5.74249267578125
1757491453229336600,9.019336669921875,-0.7304559946060181,-9.914314270019531,5.893701553344727
1757491453239378000,9.0293779296875,1.8819173574447632,-9.328108787536621,4.1385273933410645
1757491453249416400,9.03941650390625,2.76814603805542,-8.117915153503418,2.6152164936065674
1757491453259454700,9.049454833984376,2.5154829025268555,-6.93039083480835,1.3045406341552734
1757491453269495600,9.05949560546875,2.393902540206909,-5.795763969421387,0.03232172131538391
1757491453279536000,9.0695361328125,2.2969372272491455,-4.470423698425293,-0.6706757545471191
1757491453289581000,9.0795810546875,0.7886649966239929,-3.8400750160217285,-0.7059902548789978
1757491453299622000,9.089621826171875,-0.09689035266637802,-3.2515504360198975,-0.1776198446750641
1757491453309662700,9.099662841796874,-0.5647323131561279,-2.1443817615509033,0.15652093291282654
1757491453319703300,9.109703369140625,-0.983568012714386,-1.4088380336761475,0.020275896415114403
1757491453329744000,9.119743896484374,-1.1906664371490479,-1.3633482456207275,-0.7434744238853455
1757491453339784400,9.129784423828125,-0.365115761756897,-0.9955390095710754,-0.26156654953956604
1757491453349800000,9.139800048828125,-0.028730420395731926,-0.8123825788497925,0.5400421023368835
1757491453359839700,9.14983984375,0.11350012570619583,-1.090633749961853,1.3093290328979492
1757491453369880000,9.159880126953125,0.00673369225114584,-1.7880945205688477,2.63826060295105
1757491453379921200,9.169921142578126,-0.18390461802482605,-2.4420857429504395,3.8885576725006104
1757491453389961200,9.179961181640625,-0.361299991607666,-2.7993454933166504,4.506485939025879
1757491453400025600,9.190025634765625,-0.9160066246986389,-3.1142578125,3.7251534461975098
1757491453410064100,9.200064208984376,0.16392800211906433,-3.254617929458618,0.9501988291740417
1757491453420106500,9.2101064453125,2.538452386856079,-2.68951153755188,-2.761038303375244
1757491453430149600,9.220149658203125,3.6371665000915527,-1.8145055770874023,-4.712162971496582
1757491453440188400,9.2301884765625,2.3644237518310547,-1.5539116859436035,-2.6332478523254395
1757491453450231300,9.240231201171875,-2.5278279781341553,-4.1955389976501465,3.8308722972869873
1757491453460272000,9.250272216796875,-3.187206268310547,-9.435399055480957,8.123900413513184
1757491453470312200,9.260312255859375,-5.120823383331299,-15.988853454589844,7.835249423980713
1757491453480349200,9.27034912109375,-6.069077014923096,-23.194278717041016,6.198737621307373
1757491453490391800,9.280391845703125,-2.841019630432129,-28.9155216217041,6.402618885040283
1757491453500434700,9.2904345703125,-2.2393267154693604,-27.248109817504883,9.753154754638672
1757491453510475500,9.3004755859375,-3.209203004837036,-17.63471794128418,10.947412490844727
1757491453520515600,9.310515625,-2.8803741931915283,-9.763854026794434,8.715941429138184
1757491453530556400,9.320556396484376,-3.2071828842163086,-5.404910564422607,5.948917865753174
1757491453540595200,9.33059521484375,-2.2753145694732666,-3.882946252822876,3.434257984161377
1757491453550638000,9.34063818359375,-1.1498901844024658,-4.983231544494629,1.2255319356918335
1757491453560676600,9.350676513671875,-0.5587468147277832,-6.815244674682617,0.4596118927001953
1757491453570718700,9.36071875,-0.5555295944213867,-8.499191284179688,1.0411036014556885
1757491453580760000,9.370760009765625,-0.3894318640232086,-9.678784370422363,2.183137893676758
1757491453590800600,9.380800537109375,0.17754502594470978,-10.34482192993164,3.2922518253326416
1757491453600837600,9.390837646484375,1.1434557437896729,-10.317737579345703,4.44782829284668
1757491453610883300,9.40088330078125,1.6077064275741577,-9.801861763000488,5.6070709228515625
1757491453620919300,9.410919189453125,1.6452654600143433,-9.042600631713867,6.731522560119629
1757491453630959600,9.420959716796874,1.601720929145813,-8.309900283813477,7.636755466461182
1757491453641000400,9.43100048828125,1.4258967638015747,-7.749506950378418,8.306458473205566
1757491453651043000,9.44104296875,1.1287164688110352,-7.457713603973389,8.606706619262695
1757491453661085700,9.451085693359374,0.7327753305435181,-7.312265872955322,8.241740226745605
1757491453671122000,9.461121826171874,0.6131401062011719,-7.185822486877441,7.128361701965332
1757491453681167000,9.4711669921875,0.5373486280441284,-7.132327079772949,5.773617267608643
1757491453691207400,9.48120751953125,0.3437924087047577,-7.107412338256836,4.366200923919678
1757491453701248300,9.491248291015625,0.8215852975845337,-7.028179168701172,3.3797149658203125
1757491453711289000,9.5012890625,0.3993827700614929,-7.139509677886963,2.6518027782440186
1757491453721327400,9.511327392578124,0.11724106222391129,-7.490409851074219,2.2206969261169434
1757491453731368000,9.521367919921875,0.279223769903183,-7.900566101074219,2.4762778282165527
1757491453741408800,9.53140869140625,-0.04010287672281265,-8.5811185836792,2.934692621231079
1757491453751451600,9.54145166015625,-0.49866732954978943,-9.010428428649902,3.331082820892334
1757491453761492500,9.551492431640625,-0.5350292325019836,-9.270873069763184,3.644049882888794
1757491453771532500,9.561532470703124,-0.7182605266571045,-9.389909744262695,3.607388496398926
1757491453781574100,9.57157421875,-0.5174468159675598,-9.110535621643066,3.627140760421753
1757491453791612200,9.581612060546876,-0.14073416590690613,-8.82360553741455,3.7134816646575928
1757491453801653000,9.591653076171875,-0.34491467475891113,-8.398560523986816,3.7392194271087646
1757491453811693600,9.601693603515624,-0.37416884303092957,-8.226252555847168,3.566013813018799
1757491453821736000,9.61173583984375,0.44689270853996277,-7.934459209442139,3.7014358043670654
1757491453831776500,9.621776611328125,-0.32276833057403564,-7.795670509338379,3.4799721240997314
1757491453841817300,9.6318173828125,-1.7834558486938477,-7.552659034729004,2.8606221675872803
1757491453851858700,9.641858642578125,-1.5006407499313354,-7.575328826904297,2.423007011413574
1757491453861895200,9.651895263671875,-0.8086416125297546,-7.960421562194824,1.9798551797866821
1757491453871936300,9.661936279296874,0.44330140948295593,-8.154426574707031,1.4510358572006226
1757491453881976600,9.6719765625,2.6164135932922363,-8.36953067779541,1.3758429288864136
1757491453892017400,9.682017333984374,2.8057799339294434,-8.604910850524902,1.8649334907531738
1757491453902059000,9.69205908203125,2.4355764389038086,-9.347487449645996,2.622473955154419
1757491453912102700,9.7021025390625,1.726369023323059,-10.489521026611328,3.067645788192749
1757491453922141000,9.712140869140624,2.192939043045044,-11.69343090057373,3.1116392612457275
1757491453932181800,9.722181640625,1.9083284139633179,-12.958242416381836,3.1472530364990234
1757491453942224400,9.732224365234375,0.8574234843254089,-14.104166984558105,3.15047025680542
1757491453952265000,9.742264892578126,0.5354033708572388,-14.689249992370605,2.830544948577881
1757491453962305500,9.752305419921875,0.08544307202100754,-14.623858451843262,2.688912868499756
1757491453972344000,9.762343994140625,-0.19812019169330597,-14.10169792175293,3.191695213317871
1757491453982387000,9.772386962890625,-0.2733879089355469,-14.001666069030762,3.917437791824341
1757491453992425700,9.78242578125,-0.4390367269515991,-14.249839782714844,4.456058502197266
1757491454002466800,9.792466796875,-0.6497265100479126,-14.36752986907959,4.570157051086426
1757491454012509200,9.80250927734375,-0.9418190717697144,-14.361245155334473,4.375702857971191
1757491454022549500,9.812549560546875,-1.3524247407913208,-13.976975440979004,4.050540447235107
1757491454032590300,9.82259033203125,-2.1277718544006348,-13.400945663452148,3.7194671630859375
1757491454042628900,9.83262890625,-1.4902409315109253,-12.368596076965332,4.077325344085693
1757491454052670000,9.842669921875,-1.2737152576446533,-11.19349193572998,4.909984111785889
1757491454062712300,9.85271240234375,-1.3617022037506104,-10.412308692932129,6.032415866851807
1757491454072753200,9.862753173828125,-1.1124807596206665,-10.109292030334473,7.368529796600342
1757491454082794000,9.8727939453125,-0.44158056378364563,-10.017115592956543,8.48819351196289
1757491454092834000,9.882833984375,0.5837363004684448,-10.128745079040527,9.041553497314453
1757491454102876000,9.8928759765625,0.9640402793884277,-10.417770385742188,8.803030967712402
1757491454112915700,9.902915771484375,0.5666027665138245,-10.995745658874512,7.77756404876709
1757491454122952200,9.9129521484375,-0.16153380274772644,-11.85227108001709,6.066981792449951
1757491454132993500,9.92299365234375,-1.2122142314910889,-12.640486717224121,4.1466827392578125
1757491454143036000,9.933035888671874,-1.7446248531341553,-13.185691833496094,2.6285340785980225
1757491454153080800,9.943080810546874,-1.7318308353424072,-13.516390800476074,1.9214965105056763
1757491454163116800,9.95311669921875,-1.367762565612793,-13.34385871887207,1.8472014665603638
1757491454173159400,9.963159423828126,-1.3402292728424072,-12.751294136047363,1.9844191074371338
1757491454183196700,9.97319677734375,-1.2609961032867432,-12.072687149047852,2.1983261108398438
1757491454193240800,9.98324072265625,-0.9909002184867859,-11.427749633789062,2.524012327194214
1757491454203282200,9.9932822265625,-0.36474165320396423,-10.93461799621582,2.997765064239502
1757491454213322200,10.003322265625,0.6545149087905884,-10.589404106140137,3.6316299438476562
1757491454223362800,10.01336279296875,1.1791443824768066,-10.346692085266113,4.3535566329956055
1757491454233401900,10.02340185546875,0.9295487999916077,-10.126874923706055,5.131298065185547
1757491454243442000,10.03344189453125,0.06875848025083542,-9.90593433380127,5.586196422576904
1757491454253485300,10.0434853515625,-0.6185270547866821,-9.778892517089844,5.489006519317627
1757491454263526400,10.0535263671875,-0.7873182892799377,-9.734524726867676,4.879682540893555
1757491454273565400,10.0635654296875,-0.642469048500061,-9.709086418151855,4.199803829193115
1757491454283605800,10.073605712890625,-0.2685995101928711,-9.550919532775879,3.615992784500122
1757491454293645600,10.0836455078125,0.1223287433385849,-9.171813011169434,2.932523012161255
1757491454303685000,10.09368505859375,0.8732102513313293,-8.612915992736816,2.2676830291748047
1757491454313725400,10.103725341796874,0.9943419098854065,-7.9135847091674805,1.4366706609725952
1757491454323767800,10.113767822265626,1.1124807596206665,-7.002516269683838,1.0428245067596436
1757491454333810700,10.123810791015625,0.31057286262512207,-6.207940578460693,0.8932616710662842
1757491454343849000,10.133848876953126,-0.05431845039129257,-5.319392681121826,0.8984990119934082
1757491454353895000,10.14389501953125,-0.26164135336875916,-4.464737415313721,0.9652373790740967
1757491454363929600,10.1539296875,-1.1139023303985596,-4.1478047370910645,0.8693944811820984
1757491454373969200,10.16396923828125,-0.945111095905304,-3.6420297622680664,0.8127566576004028
1757491454383999000,10.1739990234375,-0.9802011251449585,-3.3897407054901123,0.8963292837142944
1757491454394037800,10.184037841796876,-1.0385597944259644,-3.427673816680908,0.9442132711410522
1757491454404069600,10.194069580078125,-0.8983493447303772,-3.763610363006592,0.81440269947052
1757491454414110000,10.20410986328125,-0.5211877822875977,-3.8553380966186523,1.0439467430114746
1757491454424150500,10.214150634765625,-0.12524667382240295,-3.8720974922180176,1.594388723373413
1757491454434202000,10.2242021484375,0.10235211998224258,-3.97220516204834,2.474482297897339
1757491454444244700,10.23424462890625,-0.06165069341659546,-4.504690647125244,3.667318344116211
1757491454454296000,10.244296142578126,0.48729485273361206,-4.266018390655518,4.8372602462768555
1757491454464337000,10.2543369140625,0.844704270362854,-4.661361217498779,6.143820762634277
1757491454474377200,10.264377197265626,0.694617748260498,-4.7864580154418945,6.680421352386475
1757491454484417000,10.2744169921875,0.45332711935043335,-4.45358943939209,6.486191749572754
1757491454494457900,10.284457763671876,0.13774141669273376,-4.081590175628662,6.095712184906006
1757491454504502800,10.294502685546876,-0.8059481382369995,-3.8872108459472656,5.7544636726379395
1757491454514541600,10.30454150390625,-2.2928969860076904,-3.8763620853424072,5.092766284942627
1757491454524581000,10.3145810546875,-3.480720281600952,-4.024428367614746,4.643105506896973
1757491454534623200,10.324623291015625,-4.88454532623291,-4.8855180740356445,5.261782169342041
1757491454544690400,10.3346904296875,-4.433163642883301,-5.805564880371094,4.517484664916992
1757491454554714000,10.344714111328125,-4.280608177185059,-6.525770664215088,3.231349229812622
1757491454564744000,10.354743896484376,-0.5344306826591492,-8.721552848815918,3.629460096359253
1757491454574786300,10.364786376953125,0.5163993835449219,-11.215338706970215,5.940238952636719
1757491454584827400,10.374827392578124,-4.548010349273682,-14.205022811889648,7.971569538116455
1757491454594867700,10.38486767578125,-4.818405628204346,-16.097339630126953,7.013514518737793
1757491454604905500,10.394905517578126,-4.069020748138428,-16.037784576416016,5.928267955780029
1757491454614944800,10.40494482421875,-3.7265000343322754,-14.358850479125977,5.997176170349121
1757491454624985300,10.4149853515625,-2.535010576248169,-11.685574531555176,5.911957263946533
1757491454635028000,10.425028076171875,-2.328660488128662,-9.33574104309082,5.302333831787109
1757491454645067500,10.435067626953124,-1.4817863702774048,-7.797465801239014,4.249408721923828
1757491454655112000,10.44511181640625,0.25834932923316956,-7.115642070770264,3.036745548248291
1757491454665152300,10.45515234375,1.268328309059143,-7.266177654266357,2.2614731788635254
1757491454675190800,10.465190673828126,1.389534831047058,-8.029105186462402,2.115875720977783
1757491454685231600,10.475231689453125,1.408538818359375,-9.237354278564453,2.284891366958618
1757491454695272200,10.485272216796876,2.07861590385437,-10.252495765686035,2.688239574432373
1757491454705315000,10.495315185546875,2.117297410964966,-11.019088745117188,3.2998085021972656
1757491454715353600,10.505353515625,2.050259590148926,-11.340959548950195,4.08518123626709
1757491454725396000,10.51539599609375,1.565882682800293,-11.051186561584473,4.968118190765381
1757491454735436800,10.525436767578125,1.2192472219467163,-10.160094261169434,5.678298473358154
1757491454745475600,10.5354755859375,0.8906430602073669,-9.009531021118164,6.146963119506836
1757491454755516400,10.545516357421874,0.40469491481781006,-8.091653823852539,6.411447525024414
1757491454765559300,10.555559326171876,0.21712416410446167,-7.538293838500977,6.447734832763672
1757491454775599400,10.565599365234375,0.09965864568948746,-7.398681640625,6.261211395263672
1757491454785638400,10.575638427734376,0.06052841246128082,-7.605556011199951,5.844545841217041
1757491454795680800,10.5856806640625,0.3092261254787445,-8.076539993286133,5.31692361831665
1757491454805721900,10.595721923828124,0.5622633099555969,-8.463876724243164,4.660388469696045
1757491454815760400,10.605760498046875,0.6501753926277161,-8.578948020935059,4.0551042556762695
1757491454825803000,10.615802978515624,0.6914753913879395,-8.602890014648438,3.5785086154937744
1757491454835843600,10.625843505859375,0.7016507387161255,-8.450260162353516,3.081711769104004
1757491454845886000,10.635885986328125,1.2227636575698853,-8.150087356567383,3.064652919769287
1757491454855899400,10.6458994140625,1.180640697479248,-7.913061141967773,3.2688333988189697
1757491454865965800,10.6559658203125,0.9154828786849976,-7.684340000152588,3.5773861408233643
1757491454876006000,10.666005859375,0.6093243360519409,-7.63069486618042,3.715576648712158
1757491454886050000,10.676050048828126,0.8262988328933716,-7.55744743347168,4.070666790008545
1757491454896085000,10.6860849609375,0.7006032466888428,-7.766940116882324,4.213047027587891
1757491454906124800,10.696124755859374,0.4403834640979767,-8.01025104522705,3.997793197631836
1757491454916165400,10.706165283203125,-0.15023615956306458,-8.396315574645996,3.5039141178131104
1757491454926207200,10.716207275390625,-0.3403507471084595,-8.63319206237793,3.1512184143066406
1757491454936247800,10.726247802734376,-0.18981529772281647,-8.758363723754883,2.8179006576538086
1757491454946287000,10.736287109375,-0.7204302549362183,-8.804976463317871,2.4764275550842285
1757491454956332500,10.74633251953125,-0.6574327945709229,-8.847622871398926,1.8994249105453491
1757491454966374000,10.756373779296876,-0.2745850086212158,-8.870368003845215,1.293691873550415
1757491454976411600,10.76641162109375,-0.07908347249031067,-8.87986946105957,1.2283003330230713
1757491454986450400,10.776450439453125,0.7681646347045898,-9.004293441772461,1.520692229270935
1757491454996491000,10.786490966796874,2.313995838165283,-9.11801815032959,2.121337413787842
1757491455006531300,10.79653125,2.19884991645813,-9.103727340698242,2.9095535278320312
1757491455016578600,10.80657861328125,2.03507137298584,-9.40824031829834,3.6862475872039795
1757491455026616300,10.8166162109375,3.528080701828003,-9.246631622314453,3.6517560482025146
1757491455036657200,10.8266572265625,2.6140193939208984,-9.350929260253906,3.765106678009033
1757491455046698200,10.8366982421875,1.1191396713256836,-9.69157886505127,3.7888240814208984
1757491455056738600,10.846738525390625,0.8440309166908264,-10.571223258972168,3.790170907974243
1757491455066775600,10.856775634765626,0.5312135219573975,-11.772664070129395,3.449446201324463
1757491455076816400,10.86681640625,-0.3645920157432556,-13.137807846069336,3.0386908054351807
1757491455086861000,10.876861083984375,-0.968230128288269,-14.445415496826172,3.0016555786132812
1757491455096901400,10.8869013671875,-0.9829694628715515,-15.542558670043945,3.4561798572540283
1757491455106942000,10.89694189453125,-1.0024971961975098,-16.26231575012207,3.912050724029541
1757491455116983300,10.9069833984375,-1.4601637125015259,-16.827720642089844,3.9282116889953613
1757491455127022800,10.91702294921875,-1.067065715789795,-16.677709579467773,3.4059762954711914
1757491455137060000,10.92706005859375,-1.0982651710510254,-16.013093948364258,2.770989179611206
1757491455147104500,10.9371044921875,-1.3235446214675903,-14.755315780639648,2.9893105030059814
1757491455157145000,10.94714501953125,-1.7985692024230957,-13.19736385345459,3.671433448791504
1757491455167186200,10.957186279296875,-1.696965217590332,-11.86611270904541,4.907814025878906
1757491455177226500,10.9672265625,-1.8629133701324463,-11.42288589477539,6.690821170806885
1757491455187267300,10.977267333984376,-1.6616507768630981,-11.330859184265137,8.60693073272705
1757491455197303800,10.9873037109375,-0.8637082576751709,-11.016170501708984,10.219874382019043
1757491455207344600,10.9973447265625,0.6950666904449463,-10.617162704467773,10.965892791748047
1757491455217390300,11.007390380859375,1.9395278692245483,-10.478373527526855,10.783260345458984
1757491455227426800,11.0174267578125,2.174309253692627,-10.625317573547363,9.244162559509277
1757491455237466600,11.027466552734374,2.5683798789978027,-11.097872734069824,6.831106185913086
1757491455247508000,11.037508056640625,2.376020669937134,-11.7208890914917,4.349366664886475
1757491455257550300,11.04755029296875,1.3647698163986206,-12.479552268981934,2.205733060836792
1757491455267588600,11.057588623046875,-0.6938695907592773,-13.1838960647583,0.3084031045436859
1757491455277633300,11.06763330078125,-2.742408514022827,-13.634530067443848,-1.2232125997543335
1757491455287673900,11.077673828125,-3.4879777431488037,-13.644256591796875,-1.7102830410003662
1757491455297710300,11.08771044921875,-2.7544541358947754,-13.058350563049316,-1.111882209777832
1757491455307754800,11.097754638671875,-1.505204677581787,-11.991883277893066,-0.025812486186623573
1757491455317796000,11.107796142578126,0.43918636441230774,-11.046996116638184,1.0490344762802124
1757491455327832000,11.11783203125,1.8599954843521118,-10.416797637939453,2.175506353378296
1757491455337877500,11.12787744140625,1.713874340057373,-10.135329246520996,3.489474058151245
1757491455347917300,11.137917236328125,1.125648856163025,-9.888426780700684,4.714632034301758
1757491455357958100,11.147958251953124,1.3137433528900146,-9.610699653625488,5.750199317932129
1757491455367995000,11.157994873046874,1.0144681930541992,-9.26107120513916,6.382791996002197
1757491455378039600,11.16803955078125,0.25498247146606445,-8.88218879699707,6.522553443908691
1757491455388080400,11.178080322265625,0.05214870721101761,-8.494328498840332,5.880533695220947
1757491455398116900,11.188116943359375,0.480935275554657,-8.330550193786621,4.719719886779785
1757491455408161300,11.198161376953125,0.7160159349441528,-8.259172439575195,3.467327833175659
1757491455418202600,11.20820263671875,0.6376806497573853,-7.791929244995117,2.244264841079712
1757491455428242700,11.21824267578125,0.6603507399559021,-7.187692642211914,1.2363059520721436
1757491455438279700,11.22827978515625,0.6388029456138611,-6.398129940032959,0.42669162154197693
1757491455448324000,11.238323974609376,0.4025251567363739,-5.810577869415283,-0.01219546515494585
1757491455458361000,11.248361083984374,0.1446247398853302,-5.2229509353637695,0.028730420395731926
1757491455468410400,11.258410400390625,-0.44352585077285767,-4.73647928237915,0.34259530901908875
1757491455478442000,11.26844189453125,-1.049483299255371,-4.524367809295654,0.6129904389381409
1757491455488482800,11.27848291015625,-1.1834838390350342,-4.118326187133789,0.8824129700660706
1757491455498527200,11.28852734375,-1.0289829969406128,-3.754706859588623,1.3984382152557373
1757491455508563700,11.298563720703125,-1.337161660194397,-3.7020344734191895,1.7056442499160767
1757491455518604800,11.308604736328125,-1.0959458351135254,-4.046799659729004,1.8263269662857056
1757491455528649200,11.318649169921875,-0.48602294921875,-3.692233085632324,1.8986767530441284
1757491455538690000,11.32868994140625,-0.19864392280578613,-3.5156607627868652,2.103754997253418
1757491455548730600,11.338730712890625,-0.029478607699275017,-3.4397945404052734,2.4030303955078125
1757491455558771700,11.348771728515626,-0.3778349459171295,-3.907337188720703,2.654496431350708
1757491455568812000,11.35881201171875,-0.5063736438751221,-4.09438419342041,3.1072998046875
1757491455578848800,11.368848876953125,-0.7608324289321899,-3.967865467071533,3.651007890701294
1757491455588889300,11.378889404296874,-0.83714759349823,-3.8505496978759766,4.605620861053467
1757491455598933800,11.388933837890624,-0.62458735704422,-4.220005035400391,5.890933513641357
1757491455608974300,11.398974365234375,-0.14582185447216034,-4.239757061004639,6.628422260284424
1757491455619014400,11.409014404296874,-0.22273558378219604,-4.197858810424805,6.870087146759033
1757491455629055700,11.4190556640625,-0.8693944811820984,-3.993528366088867,6.536769390106201
1757491455639096600,11.4290966796875,-1.6764649152755737,-3.8128409385681152,5.953406810760498
1757491455649132800,11.4391328125,-2.447023868560791,-3.831171751022339,5.516540050506592
1757491455659178200,11.44917822265625,-2.9759178161621094,-3.9704842567443848,5.119551658630371
1757491455669218300,11.45921826171875,-3.441215991973877,-4.288239479064941,4.53843355178833
1757491455679259000,11.4692587890625,-5.006051063537598,-4.788403511047363,4.480299472808838
1757491455689300000,11.479300048828126,-6.125265598297119,-6.263680458068848,5.208211898803711
1757491455699340300,11.48934033203125,-6.1018476486206055,-7.9619927406311035,5.036801815032959
1757491455709381000,11.499381103515624,-4.844517707824707,-9.840094566345215,5.88584566116333
1757491455719417300,11.509417236328124,0.37162500619888306,-12.786309242248535,9.183110237121582
1757491455729458200,11.519458251953125,-1.1134533882141113,-15.561188697814941,12.846687316894531
1757491455739499000,11.5294990234375,-3.1202433109283447,-17.578304290771484,12.283975601196289
1757491455749541400,11.539541259765626,-3.3325042724609375,-17.217002868652344,9.45447826385498
1757491455759584300,11.549584228515625,-4.539182186126709,-13.585823059082031,7.056161403656006
1757491455769624800,11.559624755859375,-4.405106544494629,-9.460912704467773,4.86135196685791
1757491455779661800,11.569661865234375,-4.610783576965332,-6.716484069824219,2.824709177017212
1757491455789706200,11.579706298828125,-3.9538745880126953,-5.311087608337402,1.3836240768432617
1757491455799746600,11.58974658203125,-2.1062240600585938,-5.190853595733643,0.4140472710132599
1757491455809783800,11.59978369140625,-0.6769605278968811,-6.162151336669922,0.3555389642715454
1757491455819828200,11.609828125,0.1934814304113388,-7.838316917419434,1.294888973236084
1757491455829868800,11.619868896484375,0.7439981698989868,-9.655516624450684,2.358887195587158
1757491455839905500,11.629905517578125,1.724124550819397,-11.232995986938477,3.5919010639190674
1757491455849950000,11.639949951171875,2.4515128135681152,-12.50401782989502,4.9940056800842285
1757491455859991000,11.649990966796874,2.3790884017944336,-13.075333595275879,6.130128860473633
1757491455870031000,11.660031005859375,2.046668291091919,-12.903100967407227,7.157840251922607
1757491455880067800,11.67006787109375,1.9086276292800903,-11.943325996398926,7.98952579498291
1757491455890112300,11.6801123046875,1.2562825679779053,-9.96593952178955,8.158616065979004
1757491455900153000,11.690153076171875,1.0220996141433716,-8.198419570922852,7.615431785583496
1757491455910190300,11.7001904296875,0.8664765357971191,-7.028852462768555,6.5452985763549805
1757491455920234800,11.71023486328125,0.3164087235927582,-6.597821235656738,5.224971294403076
1757491455930275300,11.720275390625,0.03621229901909828,-6.430975437164307,3.8849663734436035
1757491455940316400,11.73031640625,0.16886603832244873,-6.375759124755859,2.78086519241333
1757491455950352600,11.7403525390625,0.07459434866905212,-6.621688365936279,2.0661213397979736
1757491455960401400,11.7504013671875,-0.47824180126190186,-7.222333908081055,1.7364696264266968
1757491455970433500,11.76043359375,-1.1084405183792114,-8.03883171081543,1.8806453943252563
1757491455980475000,11.770474853515625,-1.1965023279190063,-8.941145896911621,2.130465507507324
1757491455990517500,11.780517578125,-0.8845826983451843,-9.52121639251709,2.2515971660614014
1757491456000557000,11.79055712890625,-0.40536826848983765,-9.60523796081543,2.199897289276123
1757491456010600400,11.800600341796875,0.3050362467765808,-9.339032173156738,1.9907039403915405
1757491456020641000,11.81064111328125,0.6117185354232788,-8.990900993347168,2.0095582008361816
1757491456030681300,11.820681396484375,0.09778817743062973,-8.708160400390625,2.225036382675171
1757491456040718300,11.83071826171875,-0.23747487366199493,-8.528670310974121,2.479569911956787
1757491456050762800,11.8407626953125,0.022670097649097443,-8.411503791809082,2.876558542251587
1757491456060803600,11.850803466796876,0.04159925505518913,-8.123376846313477,3.07415509223938
1757491456070844400,11.860844482421875,0.24922142922878265,-7.872509479522705,3.2300026416778564
1757491456080884700,11.870884765625,0.3224690556526184,-7.487491607666016,3.347991704940796
1757491456090925600,11.880925537109375,-0.032695818692445755,-7.353042125701904,3.3016040325164795
1757491456100961800,11.8909619140625,-0.14327800273895264,-7.37900447845459,3.529876232147217
1757491456111003100,11.901003173828125,0.30062195658683777,-7.331718921661377,3.498302698135376
1757491456121047000,11.911047119140624,0.8566752672195435,-7.172654151916504,3.2724246978759766
1757491456131088100,11.921088134765625,0.11776479333639145,-7.0417962074279785,2.8399720191955566
1757491456141128700,11.931128662109375,0.27817630767822266,-7.232583999633789,2.9034934043884277
1757491456151169300,11.941169189453126,0.13003507256507874,-7.520411968231201,2.7160720825195312
1757491456161206000,11.9512060546875,-0.7231985330581665,-7.6098952293396,2.2015433311462402
1757491456171251000,11.9612509765625,-0.2770540416240692,-7.936254978179932,2.1543326377868652
1757491456181287200,11.971287109375,0.3586065173149109,-8.509366989135742,2.4637832641601562
1757491456191332000,11.98133203125,1.3811551332473755,-8.962170600891113,2.7029788494110107
1757491456201373000,11.991373046875,1.816825032234192,-9.642647743225098,2.800243377685547
1757491456211411500,12.001411376953126,1.3698574304580688,-10.28130054473877,2.4113352298736572
1757491456221450200,12.0114501953125,1.3215993642807007,-10.484358787536621,1.9412486553192139
1757491456231516200,12.02151611328125,1.372925043106079,-10.950854301452637,1.6073323488235474
1757491456241533000,12.031532958984375,1.0806080102920532,-11.872696876525879,1.4461725950241089
1757491456251571200,12.0415712890625,1.224933385848999,-12.821548461914062,1.3221979141235352
1757491456261616000,12.0516162109375,1.8317887783050537,-13.521553039550781,1.2096704244613647
1757491456271656400,12.061656494140625,2.3254432678222656,-14.403218269348145,1.4174422025680542
1757491456281700000,12.0717001953125,1.998559832572937,-15.824700355529785,2.122983455657959
1757491456291735600,12.081735595703124,1.6173580884933472,-17.19919776916504,3.0212581157684326
1757491456301775000,12.091775146484375,1.5655834674835205,-17.94342041015625,3.634622573852539
1757491456311815000,12.10181494140625,1.1302127838134766,-18.0080623626709,3.792565107345581
1757491456321857800,12.11185791015625,1.0765677690505981,-17.34030532836914,3.248333215713501
1757491456331897000,12.12189697265625,1.2688521146774292,-16.30855369567871,2.169670581817627
1757491456341938700,12.131938720703126,1.369184136390686,-15.260642051696777,1.0044424533843994
1757491456351981800,12.14198193359375,1.3977649211883545,-14.093692779541016,0.16250644624233246
1757491456362024200,12.152024169921875,1.4189386367797852,-12.597167015075684,0.31446343660354614
1757491456372060700,12.162060791015625,0.8132055997848511,-11.194165229797363,1.4878467321395874
1757491456382101000,12.17210107421875,-1.127594232559204,-10.566360473632812,3.3470940589904785
1757491456392181200,12.18218115234375,-2.850820779800415,-11.008015632629395,5.560907363891602
1757491456402206200,12.192206298828125,-2.1926398277282715,-11.78321361541748,6.673089027404785
1757491456412227000,12.20222705078125,-0.7600842118263245,-11.987768173217773,6.321440696716309
1757491456422262800,12.2122626953125,-0.07466916739940643,-9.373748779296875,5.556568145751953
1757491456432307200,12.22230712890625,2.4485201835632324,-8.949226379394531,3.677867889404297
1757491456442348000,12.23234814453125,2.22391414642334,-8.315735816955566,1.876455545425415
1757491456452390400,12.242390380859375,0.8715642094612122,-8.281169891357422,1.5357307195663452
1757491456462427100,12.25242724609375,-0.6710498332977295,-10.412458419799805,0.7744494080543518
1757491456472466200,12.262466064453125,-0.5133318305015564,-10.823138236999512,0.4595370888710022
1757491456482507500,12.272507568359375,2.0482394695281982,-10.302623748779297,0.7172130346298218
1757491456492548400,12.28254833984375,3.409792184829712,-9.589675903320312,0.7896376252174377
1757491456502591500,12.292591552734375,2.728492021560669,-8.626832008361816,1.3947721719741821
1757491456512632600,12.302632568359375,2.0010287761688232,-8.423250198364258,1.7336264848709106
1757491456522673200,12.312673095703126,1.7792659997940063,-8.86475658416748,1.98224937915802
1757491456532713200,12.322713134765625,-0.5541080832481384,-9.010428428649902,2.9205520153045654
1757491456542754300,12.33275439453125,4.356174945831299,-25.338285446166992,-1.3646949529647827
1757491456552790800,12.342790771484376,5.881955146789551,-14.441974639892578,0.49380409717559814
1757491456562835200,12.352835205078126,1.026588797569275,-8.53757381439209,1.44265615940094
1757491456572875800,12.362875732421875,-0.7723544836044312,-5.241131782531738,2.7690439224243164
1757491456582916600,12.37291650390625,-0.7343465685844421,-3.4815433025360107,3.0992941856384277
1757491456592957200,12.382957275390625,0.3677344024181366,-2.302398920059204,2.6367642879486084
1757491456602998300,12.392998291015624,1.316511631011963,-1.7314567565917969,1.810390591621399
1757491456613034800,12.40303466796875,1.0281599760055542,-2.3494601249694824,0.801608681678772
1757491456623075600,12.41307568359375,-0.25917232036590576,-4.468702793121338,0.4091092050075531
1757491456633119500,12.423119384765625,-0.279223769903183,-5.669619083404541,0.8605659008026123
1757491456643160600,12.43316064453125,0.3419967591762543,-6.170007228851318,0.9402478933334351
1757491456653201000,12.443200927734376,0.8760533928871155,-6.797213554382324,0.10901099443435669
1757491456663242200,12.4532421875,1.6921768188476562,-7.064840316772461,-1.0970680713653564
1757491456673282600,12.463282470703126,2.666841506958008,-6.868366241455078,-2.020332098007202
1757491456683323100,12.4733232421875,3.473313331604004,-6.471228122711182,-2.151414632797241
1757491456693359900,12.48335986328125,3.4186956882476807,-5.63767147064209,-1.1694927215576172
1757491456703409400,12.493409423828124,2.5357589721679688,-5.227814197540283,0.722749650478363
1757491456713441500,12.503441650390625,1.502361536026001,-5.007996559143066,2.4939351081848145
1757491456723481900,12.51348193359375,-0.5713163614273071,-3.6202573776245117,4.046275615692139
1757491456733525500,12.523525390625,-0.7449707984924316,-2.7026047706604004,4.456582069396973
1757491456743562800,12.533562744140625,1.241543173789978,-4.531400680541992,3.0377182960510254
1757491456753608000,12.54360791015625,2.6852469444274902,-5.145139217376709,1.8669536113739014
1757491456763648500,12.5536484375,2.484208822250366,-5.071218490600586,1.4567221403121948
1757491456773688800,12.563688720703125,1.2729671001434326,-5.054384231567383,1.2942156791687012
1757491456783725800,12.573725830078125,0.5554547905921936,-5.7107696533203125,1.6965163946151733
1757491456793770500,12.5837705078125,1.2331634759902954,-6.6127848625183105,2.100163698196411
1757491456803811000,12.59381103515625,1.2382512092590332,-7.295432090759277,2.2840683460235596
1757491456813851400,12.603851318359375,0.4752490520477295,-5.801150798797607,3.383530616760254
1757491456823891700,12.6138916015625,-0.07055412977933884,-5.546991348266602,3.8186020851135254
1757491456833932300,12.623932373046875,0.5332335829734802,-6.393341541290283,3.607239007949829
1757491456843973000,12.63397314453125,0.6954407691955566,-8.538396835327148,2.689960479736328
1757491456854009900,12.644009765625,0.5883002281188965,-10.36996078491211,1.950226902961731
1757491456864054800,12.6540546875,0.44786536693573,-10.534262657165527,1.7338509559631348
1757491456874095400,12.664095458984375,0.45085811614990234,-10.27082633972168,1.5756839513778687
1757491456884111000,12.674111083984375,0.042122986167669296,-9.540145874023438,1.7066168785095215
1757491456894175700,12.68417578125,-0.3793313205242157,-9.095871925354004,3.0504374504089355
1757491456904216800,12.694216796875,-0.8365490436553955,-9.043498039245605,3.9765446186065674
1757491456914257400,12.70425732421875,-0.3077297508716583,-8.250418663024902,5.006799697875977
1757491456924294700,12.714294677734374,0.9644891619682312,-7.2551045417785645,5.233126163482666
1757491456934338800,12.7243388671875,0.2571522295475006,-7.302614688873291,5.380519390106201
1757491456944380400,12.73438037109375,-3.0661494731903076,-11.088894844055176,6.068478107452393
1757491456954418200,12.744418212890626,-7.381174087524414,-13.879860877990723,9.19859790802002
1757491456964456400,12.75445654296875,-8.004414558410645,-14.165144920349121,10.605265617370605
1757491456974497800,12.764497802734375,-2.4158990383148193,-10.747720718383789,9.430460929870605
1757491456984539600,12.77453955078125,4.1402482986450195,-5.86467170715332,5.8506059646606445
1757491456994578700,12.78457861328125,7.322815418243408,-5.006350517272949,2.4538323879241943
1757491457004623400,12.794623291015625,4.85446834564209,-10.905064582824707,1.7454478740692139
1757491457014664200,12.804664306640625,-0.8717138767242432,-14.969746589660645,1.5108160972595215
1757491457024704300,12.814704345703126,-1.4223054647445679,-15.824252128601074,1.2844144105911255
1757491457034744800,12.824744873046875,3.174187660217285,-16.772655487060547,0.9965864419937134
1757491457044786000,12.834785888671876,5.361216068267822,-18.622325897216797,1.367762565612793
1757491457054826200,12.844826171875,3.109020471572876,-19.8580322265625,2.997615337371826
1757491457064863500,12.854863525390625,0.5783493518829346,-18.315418243408203,4.269085884094238
1757491457074907400,12.864907470703125,-1.2014403343200684,-18.110788345336914,5.1880106925964355
1757491457084948000,12.874947998046874,-3.6093339920043945,-17.68985939025879,6.015880584716797
1757491457094988500,12.884988525390625,-5.401393890380859,-17.367389678955078,6.029946804046631
1757491457105029400,12.895029296875,-3.61494517326355,-17.241544723510742,5.705158233642578
1757491457115070200,12.9050703125,0.8719383478164673,-16.760234832763672,5.343858242034912
