time,seconds_elapsed,z,y,x
1757491444263012000,0.05301220703125,0.21128809452056885,0.5447825193405151,0.5132566690444946
1757491444272998700,0.06299853515625,0.2086900770664215,0.5340241193771362,0.5406523942947388
1757491444293102300,0.083102294921875,0.20267802476882935,0.6554477214813232,0.6020219922065735
1757491444303146800,0.093146728515625,0.19211944937705994,0.6137962937355042,0.6044034957885742
1757491444313177900,0.103177734375,0.18004536628723145,0.38900190591812134,0.5354896783828735
1757491444323223800,0.113223876953125,0.13191558420658112,0.12458786368370056,0.4100191295146942
1757491444333246000,0.123245849609375,0.05868836119771004,-0.04821305349469185,0.2643474340438843
1757491444343309600,0.1333095703125,0.04424942657351494,-0.12452124804258347,0.1182260736823082
1757491444353350700,0.1433505859375,0.03660528361797333,-0.08821573108434677,-0.002314892830327153
1757491444363384300,0.15338427734375,0.0026146629825234413,-0.05770577862858772,-0.06430072337388992
1757491444373419300,0.163419189453125,-0.012640314176678658,-0.06291845440864563,-0.06571631133556366
1757491444383427300,0.17342724609375,-0.008393567986786366,-0.04821305349469185,-0.04236753284931183
1757491444393510400,0.183510498046875,0.013323123566806316,-0.07665792107582092,-0.010358728468418121
1757491444403552000,0.193552001953125,0.04108518362045288,-0.1255870908498764,0.03094295598566532
1757491444413569000,0.203569091796875,0.04952871426939964,-0.1588449478149414,0.0791393592953682
1757491444423631000,0.213631103515625,0.026979325339198112,-0.19749866425991058,0.12716922163963318
1757491444433676000,0.223676025390625,-0.029693912714719772,-0.23613572120666504,0.16913706064224243
1757491444443716400,0.23371630859375,-0.09412787109613419,-0.27453961968421936,0.19733211398124695
1757491444453734000,0.24373388671875,-0.11652737110853195,-0.29890426993370056,0.20480972528457642
1757491444463798000,0.253798095703125,-0.07918931543827057,-0.3163742423057556,0.18221037089824677
1757491444473838600,0.263838623046875,-0.003180895932018757,-0.3253673315048218,0.14888590574264526
1757491444483853600,0.273853515625,0.08776608109474182,-0.29092705249786377,0.12115715444087982
1757491444493919500,0.28391943359375,0.14602144062519073,-0.26293185353279114,0.09757522493600845
1757491444503960800,0.2939609375,0.16284188628196716,-0.24266405403614044,0.08343606442213058
1757491444514001400,0.30400146484375,0.16562308371067047,-0.24296382069587708,0.10478636622428894
1757491444524017000,0.314016845703125,0.16680550575256348,-0.21858249604701996,0.15456488728523254
1757491444534082800,0.324082763671875,0.15899482369422913,-0.2011958211660385,0.19599980115890503
1757491444544123400,0.334123291015625,0.1389768421649933,-0.1786297857761383,0.1979150027036667
1757491444554148000,0.344148193359375,0.10866672545671463,-0.16492362320423126,0.15379880368709564
1757491444564205300,0.354205322265625,0.06939682364463806,-0.1498185247182846,0.083652563393116
1757491444574222600,0.36422265625,0.024231432005763054,-0.14305704832077026,0.01720348373055458
1757491444584287500,0.37428759765625,-0.0156546700745821,-0.15221668779850006,-0.022532733157277107
1757491444594323500,0.384323486328125,-0.04098526015877724,-0.16667227447032928,-0.038970138877630234
1757491444604342500,0.394342529296875,-0.05875497683882713,-0.19801492989063263,-0.0300602987408638
1757491444614408400,0.404408447265625,-0.07707427442073822,-0.21212078630924225,0.005812212824821472
1757491444624429600,0.4144296875,-0.09466079622507095,-0.22227966785430908,0.06909704953432083
1757491444634486500,0.424486572265625,-0.08974789083003998,-0.18072818219661713,0.15035144984722137
1757491444644527400,0.43452734375,-0.05878828465938568,-0.1559971272945404,0.20261140167713165
1757491444654572500,0.444572509765625,-0.06661561876535416,-0.18607407808303833,0.2085402011871338
1757491444664608500,0.4546083984375,-0.10182197391986847,-0.30696478486061096,0.1888219714164734
1757491444674620200,0.4646201171875,-0.15436504781246185,-0.5489127039909363,0.1712687611579895
1757491444684693500,0.474693603515625,-0.24731048941612244,-0.7615830898284912,0.18915505707263947
1757491444694734300,0.484734375,-0.36082351207733154,-0.8596079349517822,0.22224636375904083
1757491444704755700,0.494755615234375,-0.404723197221756,-0.8704662919044495,0.24601148068904877
1757491444714812200,0.504812255859375,-0.33674195408821106,-0.8209542632102966,0.26126646995544434
1757491444724834600,0.51483447265625,-0.13559609651565552,-0.6881060600280762,0.23595252633094788
1757491444734893300,0.524893310546875,0.021383613348007202,-0.5279121398925781,0.17831335961818695
1757491444744938200,0.534938232421875,0.06981316953897476,-0.46371132135391235,0.125936821103096
1757491444754978800,0.544978759765625,0.02892783284187317,-0.46177947521209717,0.13304804265499115
1757491444765019100,0.55501904296875,-0.08368587493896484,-0.45345252752304077,0.1700197160243988
1757491444775053600,0.565053466796875,-0.2256271094083786,-0.5726944804191589,0.1743164211511612
1757491444785101000,0.57510107421875,-0.34570175409317017,-0.781467854976654,0.15513111650943756
1757491444795116000,0.585115966796875,-0.39053407311439514,-0.9504550099372864,0.14100861549377441
1757491444805182200,0.59518212890625,-0.3721648156642914,-1.033158302307129,0.1373281031847
1757491444815199700,0.60519970703125,-0.3489326238632202,-1.0300439596176147,0.14054229855537415
1757491444825238000,0.615238037109375,-0.3592080771923065,-0.855061411857605,0.10998238623142242
1757491444835304000,0.625303955078125,-0.3821571469306946,-0.538054347038269,0.043266844004392624
1757491444845320200,0.6353203125,-0.4118010997772217,-0.2231956273317337,-0.05693969875574112
1757491444855387000,0.645386962890625,-0.435699462890625,0.01252373680472374,-0.192019522190094
1757491444865421800,0.655421875,-0.4530361592769623,0.14174138009548187,-0.3359259068965912
1757491444875464000,0.6654638671875,-0.46634262800216675,0.16865409910678864,-0.4389136731624603
1757491444885504000,0.67550390625,-0.4539354741573334,0.1357293277978897,-0.478816419839859
1757491444895519500,0.68551953125,-0.4160478413105011,0.0843520313501358,-0.44697415828704834
1757491444905564000,0.69556396484375,-0.3617727756500244,0.029693912714719772,-0.34152162075042725
1757491444915604700,0.705604736328125,-0.30346745252609253,-0.0021650076378136873,-0.1968158483505249
1757491444925645300,0.715645263671875,-0.2673284709453583,0.01538820844143629,-0.05885490030050278
1757491444935713000,0.725713134765625,-0.2688939571380615,0.013739471323788166,0.024081546813249588
1757491444945733400,0.7357333984375,-0.2807348668575287,0.024897588416934013,0.04919563606381416
1757491444955793700,0.745793701171875,-0.30599886178970337,0.08430206775665283,0.034673430025577545
1757491444965829600,0.75582958984375,-0.335093230009079,0.18670693039894104,-0.014805321581661701
1757491444975849000,0.765848876953125,-0.3658529818058014,0.26121649146080017,-0.09562671929597855
1757491444985915600,0.77591552734375,-0.38205721974372864,0.28757962584495544,-0.1715518683195114
1757491444995932400,0.785932373046875,-0.3619726300239563,0.3203212022781372,-0.20316098630428314
1757491445005965800,0.7959658203125,-0.31325995922088623,0.3199881315231323,-0.19366826117038727
1757491445016013600,0.806013671875,-0.26836103200912476,0.25140735507011414,-0.1561303585767746
1757491445026052900,0.816052978515625,-0.24597817659378052,0.11664395034313202,-0.08891519904136658
1757491445036093000,0.826093017578125,-0.24119850993156433,0.014405627734959126,0.018652373924851418
1757491445046155500,0.836155517578125,-0.25267302989959717,-0.05292610824108124,0.14137500524520874
1757491445056189400,0.846189453125,-0.26654574275016785,-0.08160413056612015,0.21008901298046112
1757491445066238000,0.856238037109375,-0.2601339817047119,-0.0444326177239418,0.1875895857810974
1757491445076277500,0.866277587890625,-0.23453694581985474,0.0510275661945343,0.09800823032855988
1757491445086323500,0.876323486328125,-0.20069620013237,0.16910375654697418,-0.005146056413650513
1757491445096337700,0.886337646484375,-0.17523238062858582,0.2614330053329468,-0.08611734211444855
1757491445106382300,0.89638232421875,-0.17031948268413544,0.28703004121780396,-0.12943415343761444
1757491445116418600,0.90641845703125,-0.1703527867794037,0.22690945863723755,-0.13453024625778198
1757491445126493400,0.916493408203125,-0.16635584831237793,0.13987614214420319,-0.10893318802118301
1757491445136549400,0.92654931640625,-0.1604437232017517,0.07214471697807312,-0.06793127954006195
1757491445146579200,0.9365791015625,-0.14562174677848816,0.003430704353377223,-0.032541729509830475
1757491445156580400,0.946580322265625,-0.1288512647151947,-0.05425842106342316,-0.011724349111318588
1757491445166648800,0.95664892578125,-0.122739277780056,-0.07242783159017563,-0.0003330780891701579
1757491445176689000,0.96668896484375,-0.11143127828836441,-0.0382540188729763,0.0020650841761380434
1757491445186693000,0.976693115234375,-0.07857312262058258,0.017136868089437485,-0.013356431387364864
1757491445196770300,0.986770263671875,-0.04120175912976265,0.06451722979545593,-0.04246745631098747
1757491445206816500,0.99681640625,-0.014855283312499523,0.09880761802196503,-0.07485929876565933
1757491445216848000,1.006847900390625,0.009492726065218449,0.09857445955276489,-0.10959934443235397
1757491445226871800,1.016871826171875,0.03232523053884506,0.09179632365703583,-0.12781871855258942
1757491445236893000,1.026892822265625,0.023232197389006615,0.07437633723020554,-0.12090735137462616
1757491445246974000,1.036973876953125,-0.0009326186846010387,0.06836427748203278,-0.09279555827379227
1757491445257014500,1.0470146484375,-0.008227028883993626,0.05782235786318779,-0.0643506869673729
1757491445267051300,1.05705126953125,-0.0002165007608709857,0.053375765681266785,-0.06874731928110123
1757491445277092000,1.067092041015625,0.01284016016870737,0.07221133261919022,-0.09579326212406158
1757491445287114500,1.077114501953125,0.041684724390506744,0.11148124188184738,-0.12260604649782181
1757491445297143000,1.08714306640625,0.0654665008187294,0.11028216034173965,-0.14104191958904266
1757491445307192600,1.097192626953125,0.05925459414720535,0.06989643722772598,-0.13174903392791748
1757491445317258800,1.1072587890625,0.032924771308898926,0.026729516685009003,-0.09994008392095566
1757491445327308800,1.117308837890625,0.0021316998172551394,-0.0164873655885458,-0.07196152210235596
1757491445337336300,1.12733642578125,-0.017636485397815704,-0.04673085734248161,-0.07635815441608429
1757491445347377200,1.137377197265625,-0.01958499290049076,-0.040135908871889114,-0.11033211648464203
1757491445357383000,1.1473828125,-0.010958269238471985,-0.025996744632720947,-0.1423076093196869
1757491445367458800,1.157458740234375,-0.01538820844143629,-0.021017227321863174,-0.14712059497833252
1757491445377499600,1.167499755859375,-0.02003464661538601,-0.018236026167869568,-0.12268931418657303
1757491445387540700,1.177540771484375,-0.010841691866517067,-0.025064127519726753,-0.08901511877775192
1757491445397559300,1.187559326171875,0.0014155819080770016,-0.02534724399447441,-0.059221286326646805
1757491445407608000,1.197608154296875,0.003347434801980853,-0.020933957770466805,-0.0404023714363575
1757491445417665800,1.207665771484375,-0.005029479041695595,-0.011491194367408752,-0.032375190407037735
1757491445427686700,1.217686767578125,-0.012890121899545193,0.004063552711158991,-0.0424174964427948
1757491445437747500,1.22774755859375,-0.005579058080911636,0.03440696746110916,-0.0645671859383583
1757491445447788300,1.237788330078125,0.009942381642758846,0.05740600824356079,-0.07312729954719543
1757491445457799000,1.247798828125,0.03469008207321167,0.043266844004392624,-0.04463246464729309
1757491445467869400,1.257869384765625,0.06948009133338928,-0.12630321085453033,-0.05728943273425102
1757491445477869600,1.26786962890625,0.11432905495166779,-0.12182331085205078,-0.07555876672267914
1757491445487951000,1.277951171875,0.105735644698143,-0.02338208258152008,-0.10445328801870346
1757491445497991700,1.28799169921875,0.12362193316221237,0.04922894388437271,-0.13649539649486542
1757491445508007200,1.298007080078125,0.10611867904663086,0.04929555952548981,-0.21671725809574127
1757491445518073600,1.308073486328125,0.09377814084291458,-0.0038637060206383467,-0.20627526938915253
1757491445528074800,1.31807470703125,-0.01933518424630165,-0.02493089623749256,-0.10446994751691818
1757491445538140000,1.328139892578125,-0.14310699701309204,-0.09680914878845215,0.03405723720788956
1757491445548192800,1.33819287109375,-0.18304306268692017,-0.3280319571495056,0.1100323498249054
1757491445558255600,1.348255615234375,-0.16525669395923615,-0.5604705214500427,0.13469678163528442
1757491445568277200,1.35827734375,-0.06901378184556961,-0.7620826959609985,0.13353100419044495
1757491445578312700,1.368312744140625,0.01690371334552765,-1.0131735801696777,0.12880130112171173
1757491445588358100,1.378358154296875,0.10571898519992828,-1.2901946306228638,0.16520673036575317
1757491445598404900,1.38840478515625,0.23338782787322998,-1.4948378801345825,0.23155589401721954
1757491445608435200,1.398435302734375,0.47663477063179016,-1.7915104627609253,0.33804094791412354
1757491445618476500,1.4084765625,1.0307934284210205,-2.331779718399048,0.4559172987937927
1757491445628496000,1.418495849609375,1.6687378883361816,-2.9238760471343994,0.5588883757591248
1757491445638557700,1.4285576171875,1.9979356527328491,-3.431553840637207,0.6077842712402344
1757491445648580600,1.43858056640625,1.9987683296203613,-3.712721586227417,0.5566068291664124
1757491445658618000,1.4486181640625,2.0605876445770264,-3.8336288928985596,0.5135897994041443
1757491445668680200,1.45868017578125,2.3001041412353516,-3.9789676666259766,0.5796391367912292
1757491445678724600,1.468724609375,2.5146231651306152,-3.985629081726074,0.7453621625900269
1757491445688765400,1.478765380859375,2.396430253982544,-3.6616275310516357,0.9004266858100891
1757491445698780400,1.488780517578125,1.8128941059112549,-3.1854755878448486,0.9039239883422852
1757491445708842800,1.4988427734375,1.092712640762329,-2.80210280418396,0.745029091835022
1757491445718887400,1.508887451171875,0.7699599862098694,-2.6630592346191406,0.5562071204185486
1757491445728902700,1.518902587890625,0.9522536396980286,-2.7117719650268555,0.39531373977661133
1757491445738969000,1.528968994140625,1.5200185775756836,-2.8675358295440674,0.2211138904094696
1757491445748984300,1.538984375,2.277055025100708,-3.226710796356201,-0.004879594314843416
1757491445759050500,1.549050537109375,2.9369494915008545,-3.664358615875244,-0.3084636330604553
1757491445769073000,1.559072998046875,3.2859652042388916,-4.166940212249756,-0.6633083820343018
1757491445779128000,1.569128173828125,3.5120420455932617,-4.859259605407715,-0.9767848253250122
1757491445789150000,1.57914990234375,3.848384380340576,-5.796308517456055,-1.1615265607833862
1757491445799209200,1.589209228515625,4.306666374206543,-6.81784200668335,-1.1894718408584595
1757491445809254100,1.599254150390625,4.842705726623535,-7.698101043701172,-1.0610202550888062
1757491445819280000,1.60927978515625,5.3526482582092285,-8.143159866333008,-0.7923095226287842
1757491445829335300,1.619335205078125,5.605571269989014,-7.4629645347595215,-0.43566614389419556
1757491445839375600,1.629375732421875,5.56187105178833,-6.005064964294434,-0.17829670011997223
1757491445849391000,1.63939111328125,5.533026695251465,-4.914633750915527,-0.24039912223815918
1757491445859453400,1.649453369140625,5.505980968475342,-3.9900758266448975,-0.4634115695953369
1757491445869475600,1.6594755859375,5.391252040863037,-3.1080682277679443,-0.6797957420349121
1757491445879537400,1.669537353515625,5.204128742218018,-2.3943984508514404,-0.8016190528869629
1757491445889579500,1.67957958984375,5.003432750701904,-2.12978458404541,-0.7344372272491455
1757491445899642400,1.689642333984375,4.761651039123535,-2.284998893737793,-0.47600191831588745
1757491445909661200,1.6996611328125,4.385605812072754,-2.521101474761963,-0.07477603107690811
1757491445919711500,1.70971142578125,3.9371163845062256,-2.8827576637268066,0.4218267500400543
1757491445929741600,1.719741455078125,3.465127944946289,-3.1220741271972656,0.9812480807304382
1757491445939751000,1.7297509765625,3.0630528926849365,-3.2303578853607178,1.5406694412231445
1757491445949824000,1.739823974609375,2.740083694458008,-3.259185791015625,2.055558204650879
1757491445959864800,1.74986474609375,2.4527037143707275,-3.113863945007324,2.5304110050201416
1757491445969885000,1.759885009765625,2.1510350704193115,-2.5902984142303467,2.9155991077423096
1757491445979946000,1.769946044921875,1.8107624053955078,-2.3361432552337646,2.9796667098999023
1757491445989982500,1.779982421875,1.3763452768325806,-2.5332255363464355,2.709606885910034
1757491446000027600,1.790027587890625,0.838324248790741,-2.7801527976989746,2.273341178894043
1757491446010042600,1.800042724609375,0.3233022689819336,-2.9495396614074707,1.8476841449737549
1757491446020131000,1.810131103515625,-0.08661695569753647,-2.888270139694214,1.5139565467834473
1757491446030149600,1.820149658203125,-0.49953386187553406,-2.3271167278289795,1.2169008255004883
1757491446040164900,1.830164794921875,-0.933617889881134,-1.32343590259552,0.9741868376731873
1757491446050206700,1.840206787109375,-1.2888123989105225,-0.5470308065414429,0.595543622970581
1757491446060271900,1.85027197265625,-1.492806077003479,-0.01640409603714943,-0.155780628323555
1757491446070312700,1.860312744140625,-1.3971294164657593,0.6668390035629272,-1.6554148197174072
1757491446080349400,1.870349365234375,-0.9250577688217163,1.2822173833847046,-3.132383108139038
1757491446090369300,1.880369384765625,-0.4722214639186859,1.8767285346984863,-4.138045787811279
1757491446100430600,1.8904306640625,-0.583736002445221,0.910302460193634,-4.0769758224487305
1757491446110484700,1.900484619140625,-1.2869638204574585,0.5099425911903381,-3.2977561950683594
1757491446120512500,1.910512451171875,-1.7302074432373047,1.0531762838363647,-2.5002174377441406
1757491446130555400,1.920555419921875,-1.5784903764724731,1.082270622253418,-2.1912875175476074
1757491446140572700,1.93057275390625,-1.014289379119873,0.4660428762435913,-2.5134406089782715
1757491446150634200,1.94063427734375,-0.5756422281265259,0.4249410331249237,-3.019352912902832
1757491446160669400,1.95066943359375,-0.31902220845222473,1.0334581136703491,-3.2421822547912598
1757491446170694100,1.960694091796875,-0.24274732172489166,1.3321125507354736,-3.2817018032073975
1757491446180756200,1.970756103515625,-0.5041469931602478,1.1614266633987427,-3.1496031284332275
1757491446190776000,1.980776123046875,-1.0351234674453735,0.8349601626396179,-2.731123924255371
1757491446200842000,1.990842041015625,-1.5548251867294312,0.2807515263557434,-1.945109486579895
1757491446210882600,2.000882568359375,-1.916831135749817,-0.24664433300495148,-1.1808618307113647
1757491446220925700,2.01092578125,-1.9078713655471802,-0.3505147397518158,-0.8678349852561951
1757491446230941400,2.02094140625,-1.6100162267684937,-0.29091042280197144,-0.7733074426651001
1757491446241000400,2.03100048828125,-1.614212989807129,-0.16770482063293457,-0.6512010097503662
1757491446291182600,2.0811826171875,-0.5499119162559509,-1.2842991352081299,1.8622729778289795
1757491446311272700,2.101272705078125,-0.08766615390777588,-1.2038108110427856,2.240849494934082
1757491446351413200,2.141413330078125,0.37296420335769653,0.04246745631098747,0.7257605195045471
1757491446361476600,2.1514765625,0.6527997851371765,0.2423476278781891,0.2560371458530426
1757491446371496700,2.16149658203125,0.9758855104446411,0.2860141694545746,-0.12258939445018768
1757491446381548300,2.17154833984375,1.321304202079773,0.061369638890028,-0.4103022515773773
1757491446391591200,2.181591064453125,1.7325056791305542,-0.22491098940372467,-0.5827867388725281
1757491446401631000,2.191630859375,2.174999952316284,-0.26717859506607056,-0.6322655081748962
1757491446411671600,2.201671630859375,2.688389778137207,-0.22156354784965515,-0.6004898548126221
1757491446421727200,2.211727294921875,3.1552155017852783,-0.15589720010757446,-0.5820373296737671
1757491446431752200,2.221752197265625,3.542318820953369,-0.13366423547267914,-0.5943112373352051
1757491446441782300,2.2317822265625,3.8795604705810547,-0.3415549397468567,-0.7085070610046387
1757491446451840300,2.24184033203125,4.280886173248291,-0.5364722609519958,-0.9859111905097961
1757491446461884400,2.251884521484375,4.495321750640869,-0.2263931781053543,-1.1505017280578613
1757491446471903700,2.26190380859375,4.543135166168213,0.9933721423149109,-1.0233991146087646
1757491446481957000,2.27195703125,4.503515720367432,2.271209478378296,-0.5801221132278442
1757491446492024600,2.282024658203125,3.8410067558288574,2.9570672512054443,-0.15608039498329163
1757491446502037000,2.292037109375,2.4108691215515137,3.338458299636841,-0.20204517245292664
1757491446512104700,2.302104736328125,1.0084772109985352,3.436666488647461,-1.0409023761749268
1757491446522200600,2.31220068359375,0.420710951089859,2.6524341106414795,-1.6370455026626587
1757491446532202800,2.32220263671875,0.5177366137504578,1.746428370475769,-1.419329047203064
1757491446542225700,2.3322255859375,0.9103857278823853,1.1329318284988403,-0.9614965319633484
1757491446552267000,2.34226708984375,1.0455820560455322,0.6184094548225403,-0.6371950507164001
1757491446562303700,2.3523037109375,0.7464113831520081,0.27112558484077454,-0.3476669192314148
1757491446572348700,2.3623486328125,0.5195851922035217,0.4202779531478882,-0.16350804269313812
1757491446582391300,2.372391357421875,0.6276523470878601,0.5140894055366516,-0.05206010490655899
1757491446592425000,2.382425048828125,0.8235189318656921,0.4767180383205414,0.16304172575473785
1757491446602467000,2.392467041015625,1.0963099002838135,-0.029244257137179375,0.33376091718673706
1757491446612508200,2.402508056640625,1.5784738063812256,-0.8895683288574219,0.32346880435943604
1757491446622549800,2.4125498046875,2.233621597290039,-2.2543392181396484,0.4493723213672638
1757491446632588300,2.42258837890625,2.3725318908691406,-4.0006842613220215,1.1071349382400513
1757491446652674600,2.442674560546875,1.7216306924819946,-7.182279586791992,3.4513885974884033
1757491446662711000,2.4527109375,0.9835629463195801,-6.2369208335876465,3.5756099224090576
1757491446672755500,2.46275537109375,0.6761651635169983,-3.3195395469665527,2.906123161315918
1757491446682796500,2.472796630859375,0.09817476570606232,-1.39319908618927,2.156930446624756
1757491446692832300,2.482832275390625,-0.7807683944702148,-0.5052794814109802,1.589598536491394
1757491446702877700,2.492877685546875,-1.0370386838912964,0.27995213866233826,1.2303404808044434
1757491446712918800,2.502918701171875,0.09984015673398972,2.2999374866485596,-0.023848392069339752
1757491446722959000,2.512958984375,2.1240224838256836,2.9606478214263916,-2.0888826847076416
1757491446732999700,2.522999755859375,3.0532102584838867,2.18009614944458,-2.9659271240234375
1757491446743039700,2.533039794921875,2.3852388858795166,3.0337917804718018,-3.1349644660949707
1757491446753077800,2.543077880859375,1.1121478080749512,4.790279388427734,-3.0120086669921875
1757491446763122000,2.553121826171875,0.05932120978832245,5.297057628631592,-3.300354242324829
1757491446773162200,2.563162353515625,-0.3436533212661743,3.8356773853302,-3.691338062286377
1757491446783203000,2.573203125,-0.281717449426651,2.8370425701141357,-2.8966803550720215
1757491446793243400,2.583243408203125,-0.10790064930915833,2.069031238555908,-1.5876667499542236
1757491446803284500,2.593284423828125,-0.11341309547424316,0.9859777688980103,-0.44802334904670715
1757491446813325600,2.60332568359375,-0.25690314173698425,0.26073354482650757,0.09874100238084793
1757491446823362600,2.613362548828125,-0.37381353974342346,-0.008310298435389996,0.18913839757442474
1757491446833409300,2.6234091796875,-0.4281219244003296,-0.20387710630893707,0.1095493882894516
1757491446843443000,2.63344287109375,-0.37338054180145264,-0.4718717336654663,-0.04150152951478958
1757491446853485000,2.643485107421875,-0.1572461724281311,-0.5846186876296997,-0.21115486323833466
1757491446863527700,2.653527587890625,0.09083040058612823,-0.5179864168167114,-0.23671860992908478
1757491446873575200,2.6635751953125,0.28218376636505127,-0.4599975049495697,0.11506182700395584
1757491446883606300,2.673606201171875,0.4193952977657318,-0.5775074362754822,0.563784658908844
1757491446893646600,2.683646484375,0.4288880228996277,-0.7295076251029968,0.7248445749282837
1757491446903691800,2.69369189453125,0.20874004065990448,-0.5895482301712036,0.6057025194168091
1757491446913732600,2.703732666015625,-0.07161179184913635,-0.1335643231868744,0.30285125970840454
1757491446923773200,2.713773193359375,-0.2222963273525238,0.45135411620140076,-0.06503349542617798
1757491446933813800,2.723813720703125,-0.17881298065185547,0.8625223636627197,-0.282333642244339
1757491446943854300,2.733854248046875,-0.013739471323788166,0.7960233688354492,-0.24487902224063873
1757491446953895700,2.743895751953125,0.23939988017082214,0.5579724311828613,-0.02759552001953125
1757491446963932000,2.753931884765625,0.448323130607605,0.36783480644226074,0.3603072166442871
1757491446973976800,2.763976806640625,0.5280786752700806,0.4336843490600586,0.5600041747093201
1757491446984017400,2.774017333984375,0.544099748134613,0.6076177358627319,0.7482432723045349
1757491446994057200,2.78405712890625,0.516370952129364,0.7765882611274719,0.7879295349121094
1757491447004099000,2.79409912109375,0.4982348680496216,0.4566000998020172,0.47550228238105774
1757491447014135600,2.804135498046875,0.3999268710613251,-0.012074081227183342,0.16464050114154816
1757491447024180700,2.8141806640625,0.15311600267887115,-0.10949942469596863,-0.04196783900260925
1757491447034216400,2.824216552734375,-0.12127373367547989,-0.10120578110218048,-0.16797128319740295
1757491447044261400,2.834261474609375,0.15414854884147644,-0.44011273980140686,-0.34978196024894714
1757491447054303000,2.844302978515625,0.5722781419754028,-0.3875863254070282,-0.4249576926231384
1757491447064343300,2.85434326171875,1.0665993690490723,-0.0009825803572311997,-0.2692103683948517
1757491447074384100,2.864384033203125,1.5294946432113647,0.2557540237903595,0.0074776033870875835
1757491447084420900,2.8744208984375,1.685308575630188,0.1915365606546402,0.21440237760543823
1757491447094461000,2.8844609375,1.522566556930542,-0.1450221985578537,0.44905588030815125
1757491447104501800,2.894501708984375,1.2202482223510742,-0.600206732749939,0.6854081153869629
1757491447114545400,2.90454541015625,1.0605872869491577,-1.0839194059371948,0.9583656191825867
1757491447124583400,2.91458349609375,0.9715388417243958,-1.3370587825775146,1.2398165464401245
1757491447134628000,2.924628173828125,0.9256407022476196,-1.6524670124053955,1.4291049242019653
1757491447144669000,2.9346689453125,1.033707857131958,-2.0610039234161377,1.660061240196228
1757491447154710000,2.9447099609375,1.3415886163711548,-2.552177667617798,2.0300776958465576
1757491447164750000,2.95475,1.7011964321136475,-3.311295986175537,2.613463878631592
1757491447174791200,2.964791259765625,1.9365160465240479,-3.9095375537872314,3.118626832962036
1757491447184831500,2.97483154296875,2.0731112957000732,-3.698565721511841,3.162243366241455
1757491447204913200,2.9949130859375,2.9877772331237793,-3.186391592025757,1.8426545858383179
1757491447214953700,3.00495361328125,3.4652445316314697,-1.162559151649475,0.2934584617614746
1757491447224994800,3.014994873046875,3.5738112926483154,1.4954041242599487,-0.9521870017051697
1757491447235035000,3.025034912109375,3.2960076332092285,3.026231050491333,-0.6908705830574036
1757491447245076000,3.035075927734375,4.975886821746826,1.3839894533157349,0.41141805052757263
1757491447255116500,3.045116455078125,6.182978630065918,-1.7511414289474487,1.178879976272583
1757491447265153300,3.0551533203125,5.77833890914917,-3.1091341972351074,1.1516674757003784
1757491447275198500,3.065198486328125,5.136097431182861,-2.8529305458068848,0.9592982530593872
1757491447285239000,3.075239013671875,4.157663822174072,-1.6927528381347656,0.768694281578064
1757491447295278600,3.085278564453125,2.691220998764038,-0.5394699573516846,0.560553789138794
1757491447305320400,3.095320556640625,1.2038607597351074,-0.1747327744960785,0.3469674587249756
1757491447315361300,3.105361328125,0.0502614863216877,-0.21441902220249176,0.1703527867794037
1757491447325406500,3.115406494140625,-0.5424509644508362,-0.24204784631729126,0.1069846823811531
1757491447335438000,3.12543798828125,-0.8238020539283752,-0.2974720597267151,0.11671056598424911
1757491447345479000,3.13547900390625,-1.0071948766708374,-0.26989316940307617,0.09750860929489136
1757491447355520800,3.145520751953125,-1.2152354717254639,-0.28251683712005615,0.059687595814466476
1757491447365574100,3.15557421875,-1.3960468769073486,-0.40242496132850647,0.03102622553706169
1757491447375605200,3.165605224609375,-1.5521938800811768,-0.4546016454696655,-0.06170271709561348
1757491447385646000,3.17564599609375,-1.7590020895004272,-0.381674200296402,-0.22769218683242798
1757491447395686400,3.185686279296875,-1.8627725839614868,-0.032125383615493774,-0.43621572852134705
1757491447405723000,3.195722900390625,-1.7094067335128784,0.4333512485027313,-0.4755356013774872
1757491447415767600,3.205767578125,-1.264014720916748,0.5521102547645569,-0.3279653489589691
1757491447425808400,3.215808349609375,-0.618809163570404,0.18532465398311615,-0.10988246649503708
1757491447435849700,3.225849609375,-0.13368089497089386,-0.20449329912662506,0.056140314787626266
1757491447445889800,3.235889892578125,-0.08796592801809311,-0.0744929164648056,0.12685279548168182
1757491447455931000,3.245930908203125,-0.2970390319824219,0.18928828835487366,0.08843223750591278
1757491447465945900,3.25594580078125,-0.4717218577861786,0.3502982258796692,0.00634513795375824
1757491447475986400,3.265986328125,-0.46934035420417786,0.2758219838142395,0.02191653847694397
1757491447486027300,3.27602734375,-0.3593912720680237,0.17499923706054688,0.07394333928823471
1757491447496110000,3.286110107421875,-0.2435300499200821,0.12242285162210464,0.08057159185409546
1757491447506115800,3.29611572265625,-0.1795957088470459,0.054841309785842896,0.07197817414999008
1757491447516170800,3.306170654296875,-0.18872204422950745,0.035805895924568176,0.045365236699581146
1757491447526212000,3.316212158203125,-0.2157679945230484,0.06128637120127678,0.015171707607805729
1757491447536254000,3.32625390625,-0.23530301451683044,0.08060489594936371,0.01110815443098545
1757491447546295300,3.33629541015625,-0.25725287199020386,0.10708460956811905,0.02734571136534214
1757491447556338200,3.346338134765625,-0.2599341571331024,0.14941883087158203,0.044116195291280746
1757491447566374400,3.35637451171875,-0.2222963273525238,0.20982255041599274,0.047996554523706436
1757491447576416800,3.366416748046875,-0.1939680278301239,0.2654632329940796,0.04246745631098747
1757491447586456000,3.3764560546875,-0.19221937656402588,0.2825501561164856,0.03364088758826256
1757491447596497000,3.386496826171875,-0.19733211398124695,0.25403866171836853,0.029410796239972115
1757491447606539300,3.396539306640625,-0.17872971296310425,0.17276760935783386,0.03560604900121689
1757491447616582000,3.406581787109375,-0.13764452934265137,0.11676052957773209,0.050744447857141495
1757491447626623000,3.416623046875,-0.06516672670841217,-0.007694104220718145,0.0523432232439518
1757491447636659500,3.426659423828125,-0.005012825131416321,-0.0880991593003273,0.024997511878609657
1757491447646700000,3.436699951171875,0.024081546813249588,-0.15901148319244385,-0.007694104220718145
1757491447656745200,3.4467451171875,0.0626186802983284,-0.24872606992721558,-0.04931221157312393
1757491447666785300,3.456785400390625,0.03507312387228012,-0.24799329042434692,-0.09327851980924606
1757491447676826400,3.466826416015625,-0.02947741188108921,-0.33790773153305054,-0.09079708904027939
1757491447686867500,3.476867431640625,-0.12698602676391602,-0.31882235407829285,-0.0288445632904768
1757491447696907300,3.4869072265625,-0.2599841058254242,-0.16607274115085602,0.07281087338924408
1757491447706944800,3.49694482421875,-0.40435680747032166,0.03632216528058052,0.1625254601240158
1757491447716985000,3.506985107421875,-0.5239318609237671,0.1968824565410614,0.19010432064533234
1757491447727030300,3.5170302734375,-0.5715619921684265,0.26954343914985657,0.14250746369361877
1757491447737070600,3.527070556640625,-0.5468476414680481,0.2722913324832916,0.046031393110752106
1757491447747111200,3.537111083984375,-0.4905241131782532,0.2336875945329666,-0.056256890296936035
1757491447757152000,3.547152099609375,-0.44212785363197327,0.25808554887771606,-0.1398095339536667
1757491447767192000,3.557192138671875,-0.461729496717453,0.3005863428115845,-0.20669160783290863
1757491447777229300,3.567229248046875,-0.5136563777923584,0.3152417540550232,-0.2602006196975708
1757491447787274200,3.577274169921875,-0.5927291512489319,0.37469619512557983,-0.27905282378196716
1757491447797314600,3.587314453125,-0.7124040722846985,0.47288763523101807,-0.27232465147972107
1757491447807355400,3.59735546875,-0.7526232600212097,0.4549180567264557,-0.28666365146636963
1757491447817400600,3.607400634765625,-0.7925260066986084,0.4751358926296234,-0.3027013838291168
1757491447827432700,3.6174326171875,-0.8145091533660889,0.4572162926197052,-0.323568731546402
1757491447837474600,3.627474609375,-0.8001701831817627,0.3703661859035492,-0.3740633428096771
1757491447847514400,3.637514404296875,-0.7781370282173157,0.33943989872932434,-0.48071497678756714
1757491447857556700,3.647556640625,-0.7990043759346008,0.37256449460983276,-0.5507113337516785
1757491447867595500,3.657595458984375,-0.7934086918830872,0.3262833058834076,-0.5499785542488098
1757491447877640400,3.667640380859375,-0.7290912866592407,0.2834494709968567,-0.5407522916793823
1757491447887680800,3.6776806640625,-0.6464046835899353,0.33854058384895325,-0.5098093152046204
1757491447897721300,3.687721435546875,-0.5726611614227295,0.43844735622406006,-0.45455166697502136
1757491447907758000,3.697758056640625,-0.44932234287261963,0.43288496136665344,-0.4290212392807007
1757491447917803300,3.70780322265625,-0.2924592196941376,0.3070480525493622,-0.43739816546440125
1757491447927843600,3.717843505859375,-0.16019390523433685,0.17984551191329956,-0.4349500238895416
1757491447937880300,3.72788037109375,-0.12164012342691422,0.0696965903043747,-0.3915999233722687
1757491447947925000,3.737925048828125,-0.0996902734041214,0.014272396452724934,-0.3689172863960266
1757491447957965600,3.747965576171875,-0.06948009133338928,0.014971860684454441,-0.35103100538253784
1757491447968002300,3.758002197265625,-0.04691404849290848,0.05297607183456421,-0.32994717359542847
1757491447978047000,3.768046875,-0.020184531807899475,0.16124311089515686,-0.339206725358963
1757491447988088300,3.77808837890625,-0.0016820443561300635,0.2688772976398468,-0.3834894597530365
1757491447998128600,3.788128662109375,0.037054937332868576,0.3261500597000122,-0.4316858649253845
1757491448008166100,3.798166259765625,0.07544218748807907,0.3607735335826874,-0.455151230096817
1757491448018209500,3.80820947265625,0.12342208623886108,0.4829798936843872,-0.46244561672210693
1757491448028251100,3.818251220703125,0.1721680611371994,0.713203489780426,-0.44331029057502747
1757491448038287400,3.828287353515625,0.28847894072532654,0.48689356446266174,-0.3851548433303833
1757491448048331800,3.838331787109375,0.468524307012558,0.23457024991512299,-0.16902047395706177
1757491448058373600,3.84837353515625,0.7014458179473877,0.0824035182595253,0.12282254546880722
1757491448068412200,3.858412109375,0.9754358530044556,0.045315276831388474,0.45551759004592896
1757491448078450700,3.86845068359375,1.2529898881912231,0.049828484654426575,0.8049331903457642
1757491448088491500,3.878491455078125,1.4206280708312988,-0.032924771308898926,1.1096163988113403
1757491448098531600,3.888531494140625,1.4541523456573486,0.020650841295719147,1.317590355873108
1757491448108577000,3.898576904296875,1.4352668523788452,0.16207580268383026,1.3793929815292358
1757491448118617000,3.9086171875,1.3457521200180054,0.316157728433609,1.305516242980957
1757491448128658000,3.918657958984375,1.1960334777832031,0.46870750188827515,1.1039540767669678
1757491448138698500,3.928698486328125,1.0317926406860352,0.5874664783477783,0.8738803267478943
1757491448148735500,3.938735595703125,0.8652702569961548,0.6031377911567688,0.6783468723297119
1757491448158776000,3.948776123046875,0.7138363122940063,0.5706626772880554,0.48001548647880554
1757491448168820500,3.958820556640625,0.5366221070289612,0.5553910732269287,0.2459615170955658
1757491448178861000,3.968861083984375,0.3171902596950531,0.5763083696365356,0.023598583415150642
1757491448188902000,3.97890185546875,0.21371956169605255,0.7510744333267212,-0.18940486013889313
1757491448198942700,3.988942626953125,0.18322625756263733,0.9604806303977966,-0.33993950486183167
1757491448208983300,3.9989833984375,0.13281488418579102,1.1570466756820679,-0.44704076647758484
1757491448219024000,4.00902392578125,-0.017886294052004814,1.2879630327224731,-0.6167107224464417
1757491448229060600,4.019060546875,-0.31805628538131714,1.2500920295715332,-0.8666025996208191
1757491448239105800,4.029105712890625,-0.7490260004997253,1.1009063720703125,-1.035822868347168
1757491448249146400,4.039146484375,-1.2314729690551758,0.8620061278343201,-1.0603541135787964
1757491448259187000,4.04918701171875,-1.7418818473815918,0.4468908905982971,-1.0300606489181519
1757491448269227800,4.059227783203125,-2.308680772781372,-0.12050765752792358,-1.121107578277588
1757491448279268000,4.06926806640625,-2.8033018112182617,-0.26722854375839233,-1.228258728981018
1757491448289305600,4.0793056640625,-3.1838436126708984,-0.05780570209026337,-1.3757957220077515
1757491448299349800,4.089349853515625,-3.4138007164001465,0.2633815109729767,-1.5398533344268799
1757491448309386000,4.099385986328125,-3.420811891555786,0.4095195233821869,-1.6642080545425415
1757491448319427600,4.109427490234375,-3.2066760063171387,0.40657177567481995,-1.7151856422424316
1757491448329468200,4.11946826171875,-2.9256579875946045,0.4219599962234497,-1.737518548965454
1757491448339509800,4.129509765625,-2.7363698482513428,0.45661675930023193,-1.7767884731292725
1757491448349551900,4.1395517578125,-2.6588125228881836,0.43003714084625244,-1.8035179376602173
1757491448359589600,4.149589599609375,-2.716085433959961,0.39131680130958557,-1.8088805675506592
1757491448369634800,4.159634765625,-2.9242091178894043,0.6497187614440918,-1.7910608053207397
1757491448379671300,4.16967138671875,-3.2315902709960938,0.995903491973877,-1.6728014945983887
1757491448389716000,4.179716064453125,-3.5651347637176514,0.9744532704353333,-1.4791665077209473
1757491448399756800,4.1897568359375,-3.797156810760498,0.8095462918281555,-1.3694173097610474
1757491448409796900,4.199796875,-3.8341453075408936,0.5606370568275452,-1.361856460571289
1757491448419834400,4.20983447265625,-3.717101573944092,0.24995845556259155,-1.4030249118804932
1757491448429878800,4.219878662109375,-3.5766091346740723,-0.016603942960500717,-1.3969628810882568
1757491448439919400,4.22991943359375,-3.4673430919647217,-0.25940123200416565,-1.335343360900879
1757491448449956600,4.23995654296875,-3.3610243797302246,-0.6537157297134399,-1.2564705610275269
1757491448460001000,4.2500009765625,-3.2394676208496094,-1.0931622982025146,-1.2109054327011108
1757491448470041600,4.26004150390625,-3.0982258319854736,-1.4997007846832275,-1.196349859237671
1757491448480078800,4.270078857421875,-2.955785036087036,-1.8332618474960327,-1.1955838203430176
1757491448490122800,4.280122802734375,-2.794691801071167,-2.063718557357788,-1.1855082511901855
1757491448500163800,4.290163818359375,-2.6543991565704346,-2.1593785285949707,-1.1346805095672607
1757491448510205200,4.300205078125,-2.480332612991333,-2.0180037021636963,-1.0878664255142212
1757491448520245500,4.31024560546875,-2.2785539627075195,-1.760900616645813,-1.0145891904830933
1757491448530286000,4.3202861328125,-2.0538594722747803,-1.506678819656372,-0.8902344703674316
1757491448540327200,4.3303271484375,-1.7946248054504395,-1.286097764968872,-0.7329050302505493
1757491448550363400,4.34036328125,-1.603804349899292,-1.1111319065093994,-0.5591714978218079
1757491448560408800,4.350408935546875,-1.3877365589141846,-1.1593948602676392,-0.415764719247818
1757491448570445300,4.3604453125,-1.1580958366394043,-1.2646476030349731,-0.31374290585517883
1757491448580486000,4.37048583984375,-0.9446094632148743,-1.23477041721344,-0.221380352973938
1757491448590528000,4.380528076171875,-0.7057758569717407,-1.1444063186645508,-0.13914337754249573
1757491448600574000,4.390573974609375,-0.47889968752861023,-1.0246148109436035,-0.051910221576690674
1757491448610607600,4.400607666015625,-0.3377245366573334,-0.8216370344161987,0.020684149116277695
1757491448620652500,4.410652587890625,-0.26614606380462646,-0.5550913214683533,0.13449694216251373
1757491448630693000,4.420693115234375,-0.24078215658664703,-0.41767993569374084,0.2681278586387634
1757491448640734000,4.43073388671875,-0.20454326272010803,-0.3988443613052368,0.38282331824302673
1757491448650774300,4.440774169921875,-0.18587423861026764,-0.36568644642829895,0.4892750680446625
1757491448660815600,4.450815673828125,-0.16197587549686432,-0.28398239612579346,0.5459815859794617
1757491448670856000,4.46085595703125,-0.1346135139465332,-0.1895214319229126,0.5337576270103455
1757491448680893200,4.47089306640625,-0.10297109186649323,-0.1896713227033615,0.5037639737129211
1757491448690937300,4.480937255859375,-0.06683211773633957,-0.29037749767303467,0.5048797726631165
1757491448700978000,4.49097802734375,-0.006811446975916624,-0.3528629243373871,0.5477635860443115
1757491448711018800,4.501018798828125,0.07096228748559952,-0.33321133255958557,0.5843521952629089
1757491448721059300,4.511059326171875,0.14743702113628387,-0.3083137273788452,0.6121142506599426
1757491448731100400,4.521100341796875,0.20441003143787384,-0.32022127509117126,0.6447392702102661
1757491448741137400,4.531137451171875,0.2548380494117737,-0.34125515818595886,0.6735005378723145
1757491448751178000,4.541177978515625,0.308713436126709,-0.37824347615242004,0.712237536907196
1757491448761222700,4.55122265625,0.3698998689651489,-0.42380857467651367,0.7652302980422974
1757491448771262700,4.5612626953125,0.446740984916687,-0.46142974495887756,0.8229526877403259
1757491448781303800,4.5713037109375,0.5405358076095581,-0.4941546618938446,0.8833231329917908
1757491448791344400,4.581344482421875,0.6610934138298035,-0.5320256352424622,0.9388971924781799
1757491448801382000,4.5913818359375,0.8115947246551514,-0.6024883389472961,0.9761019945144653
1757491448811423500,4.601423583984375,0.9891087412834167,-0.6831931471824646,0.9760520458221436
1757491448821462500,4.611462646484375,1.191170573234558,-0.7426142692565918,0.9338843822479248
1757491448831528200,4.621528076171875,1.3633219003677368,-0.6417915225028992,0.904123842716217
1757491448841547000,4.631547119140625,1.435516595840454,-0.15796229243278503,0.9476571679115295
1757491448851586000,4.6415859375,1.362189531326294,0.46684226393699646,1.0363391637802124
1757491448861629000,4.65162890625,1.2855981588363647,1.167488694190979,1.167205572128296
1757491448871665700,4.661665771484375,1.268877625465393,1.4372819662094116,1.4308202266693115
1757491448881708800,4.671708740234375,1.2179666757583618,1.1554479598999023,1.6589287519454956
1757491448891748000,4.681748046875,1.0891653299331665,0.8925493955612183,1.4146159887313843
1757491448901787600,4.69178759765625,0.9545851945877075,0.7762551307678223,1.1100826263427734
1757491448911828700,4.701828857421875,1.0046801567077637,0.6216569542884827,1.1676719188690186
1757491448921869300,4.711869384765625,1.1405925750732422,0.540519118309021,1.1854249238967896
1757491448931910000,4.721909912109375,1.2850486040115356,0.5437000393867493,1.193268895149231
1757491448941954000,4.7319541015625,1.4374984502792358,0.618526041507721,1.186141014099121
1757491448951994600,4.74199462890625,1.5132904052734375,0.7126871943473816,1.1508347988128662
1757491448962033700,4.75203369140625,1.5258474349975586,0.5290445685386658,1.101339340209961
1757491448972075500,4.762075439453125,1.4820476770401,0.35332924127578735,1.0312098264694214
1757491448982114000,4.772114013671875,1.3932822942733765,0.4147155284881592,1.0068118572235107
1757491448992203800,4.782203857421875,1.3211709260940552,0.4281385838985443,1.031509518623352
1757491449002196000,4.792196044921875,1.2818177938461304,0.37839338183403015,1.0453323125839233
1757491449012237800,4.80223779296875,1.2401996850967407,0.43345117568969727,1.0782737731933594
1757491449022280400,4.812280517578125,1.1829935312271118,0.5375547409057617,1.1195753812789917
1757491449032299300,4.82229931640625,1.1557810306549072,0.43468356132507324,1.1145626306533813
1757491449042362600,4.832362548828125,1.181544542312622,0.18387576937675476,1.0853183269500732
1757491449052399400,4.8423994140625,1.248709797859192,-0.07339376211166382,1.0650339126586914
1757491449062439700,4.852439697265625,1.3111618757247925,-0.20039643347263336,1.0891653299331665
1757491449072480500,4.86248046875,1.3544620275497437,-0.252972811460495,1.1182597875595093
1757491449082521900,4.87252197265625,1.4283554553985596,-0.4736537039279938,1.096559762954712
1757491449092564000,4.88256396484375,1.5424679517745972,-0.7537723779678345,1.0566902160644531
1757491449102606800,4.89260693359375,1.6615101099014282,-1.0348070859909058,1.0369054079055786
1757491449112647400,4.9026474609375,1.714719295501709,-1.063568353652954,1.0323089361190796
1757491449122684200,4.91268408203125,1.7247949838638306,-1.0155717134475708,1.0609869956970215
1757491449132728300,4.922728271484375,1.7014961242675781,-1.0440999269485474,1.1094331741333008
1757491449142769200,4.93276904296875,1.6593950986862183,-1.0816211700439453,1.1495524644851685
1757491449152810200,4.942810302734375,1.6090669631958008,-1.0362392663955688,1.1964831352233887
1757491449162850600,4.9528505859375,1.5531431436538696,-0.9351167678833008,1.2339211702346802
1757491449172891600,4.9628916015625,1.4819977283477783,-0.9178466796875,1.245895266532898
1757491449182932200,4.97293212890625,1.3955305814743042,-1.0144059658050537,1.2103558778762817
1757491449192969200,4.98296923828125,1.2970893383026123,-1.2109553813934326,1.1685212850570679
1757491449203013400,4.993013427734375,1.1647740602493286,-1.2616331577301025,1.158212423324585
1757491449213054200,5.00305419921875,0.9860610365867615,-1.0569400787353516,1.1369454860687256
1757491449223095000,5.013094970703125,0.784948468208313,-1.0321756601333618,1.0753092765808105
1757491449233135900,5.023135986328125,0.5878661870956421,-0.9606971740722656,1.0122909545898438
1757491449243177200,5.03317724609375,0.45420193672180176,-0.6308165788650513,0.9613966345787048
1757491449253217500,5.043217529296875,0.4345170259475708,-0.3920162618160248,0.8616730570793152
1757491449263258000,5.053258056640625,0.4765348434448242,-0.4990675747394562,0.7140527963638306
1757491449273298700,5.063298583984375,0.5093596577644348,-0.4555009603500366,0.547180712223053
1757491449283339500,5.073339599609375,0.5055292844772339,-0.14069218933582306,0.40672165155410767
1757491449293380600,5.083380615234375,0.48063167929649353,0.04369984567165375,0.3133765161037445
1757491449303418400,5.09341845703125,0.46162959933280945,-0.12716922163963318,0.24351339042186737
1757491449313457700,5.103457763671875,0.4470740854740143,-0.09009762853384018,0.17531566321849823
1757491449323497700,5.113497802734375,0.4240417182445526,0.21690045297145844,0.09359494596719742
1757491449333540000,5.1235400390625,0.3139427602291107,0.8684844970703125,0.010791730135679245
1757491449343583700,5.133583740234375,0.2808181345462799,0.6985147595405579,-0.010458651930093765
1757491449353620700,5.143620849609375,0.3532959222793579,0.39351511001586914,0.07016289979219437
1757491449363665400,5.15366552734375,0.4212605357170105,0.43829748034477234,0.16777144372463226
1757491449373706200,5.163706298828125,0.4853947162628174,0.5981749296188354,0.3007528781890869
1757491449383742700,5.17374267578125,0.6011393666267395,0.6709524989128113,0.5125072598457336
1757491449393787400,5.183787353515625,0.7583855390548706,0.6375780701637268,0.7080407738685608
1757491449403828000,5.193827880859375,0.8254008293151855,0.647537112236023,0.8400062918663025
1757491449413869000,5.203869140625,0.8773443698883057,0.2716585099697113,0.881208062171936
1757491449423905500,5.213905517578125,0.9127505421638489,-0.14971859753131866,0.8680681586265564
1757491449433950000,5.223949951171875,0.782483696937561,-0.28862881660461426,0.796339750289917
1757491449443991000,5.233990966796875,0.4874764382839203,-0.3215869069099426,0.6650070548057556
1757491449454031400,5.24403125,0.23675191402435303,-0.6242716312408447,0.4561004936695099
1757491449464072700,5.25407275390625,0.228824645280838,-1.0117413997650146,0.2579689919948578
1757491449474113500,5.264113525390625,0.3484496474266052,-0.9994674324989319,0.10640180110931396
1757491449484153900,5.27415380859375,0.4075044095516205,-0.9079709053039551,-0.047530245035886765
1757491449494191000,5.284191162109375,0.39428120851516724,-0.9593981504440308,-0.20086275041103363
1757491449504235000,5.294235107421875,0.3361424207687378,-1.1870570182800293,-0.3473338484764099
1757491449524316400,5.31431640625,-0.10103923827409744,-1.3278324604034424,-0.7817176580429077
1757491449534357800,5.324357666015625,-0.4895082116127014,-1.2101726531982422,-1.0884159803390503
1757491449544403500,5.334403564453125,-0.9183129668235779,-1.199813961982727,-1.3518307209014893
1757491449554434800,5.344434814453125,-1.3833732604980469,-1.3678184747695923,-1.466059923171997
1757491449564475600,5.3544755859375,-1.8299809694290161,-1.56443452835083,-1.429337978363037
1757491449574518000,5.36451806640625,-2.215402364730835,-1.6858248710632324,-1.315325379371643
1757491449584558000,5.37455810546875,-2.4816982746124268,-1.7306071519851685,-1.1767982244491577
1757491449594601700,5.384601806640625,-2.6075851917266846,-1.626570224761963,-1.0482300519943237
1757491449604642600,5.394642578125,-2.650752067565918,-1.2614001035690308,-0.9725214242935181
1757491449614683100,5.40468310546875,-2.659728527069092,-0.6780970692634583,-0.9815977811813354
1757491449624724000,5.414723876953125,-2.681145429611206,-0.019984684884548187,-1.100123643875122
1757491449634760400,5.424760498046875,-2.677231788635254,0.3467009961605072,-1.2831333875656128
1757491449644805400,5.434805419921875,-2.5809056758880615,0.19137002527713776,-1.4900914430618286
1757491449654846000,5.444845947265625,-2.3959805965423584,-0.24482905864715576,-1.687440276145935
1757491449664886500,5.454886474609375,-2.2549054622650146,-0.5382708311080933,-1.7047436237335205
1757491449674927400,5.46492724609375,-2.202195882797241,-0.5417348742485046,-1.4291881322860718
1757491449684967700,5.4749677734375,-2.1801793575286865,-0.49287232756614685,-0.9954871535301208
1757491449695008800,5.4850087890625,-2.3041677474975586,-0.5035807490348816,-0.6625756025314331
1757491449705045800,5.495045654296875,-2.610133171081543,-0.8254840970039368,-0.5313761234283447
1757491449715090700,5.505090576171875,-2.962862968444824,-1.3350436687469482,-0.5950440168380737
1757491449725131000,5.515131103515625,-3.1858253479003906,-1.68988835811615,-0.7441131472587585
1757491449735171300,5.52517138671875,-3.1993815898895264,-1.8508150577545166,-0.8425043821334839
1757491449745212700,5.535212646484375,-3.0665667057037354,-1.9050068855285645,-0.8453522324562073
1757491449755252700,5.545252685546875,-2.854396104812622,-2.028728723526001,-0.8002700805664062
1757491449765294300,5.55529443359375,-2.6379284858703613,-2.229541540145874,-0.7603839635848999
1757491449775335000,5.5653349609375,-2.4959874153137207,-2.3808088302612305,-0.723079264163971
1757491449785375700,5.575375732421875,-2.4110023975372314,-2.329481601715088,-0.6943678855895996
1757491449795412200,5.585412109375,-2.3269834518432617,-2.161560297012329,-0.667238712310791
1757491449805452800,5.595452880859375,-2.194951295852661,-2.0261473655700684,-0.6094829440116882
1757491449815493600,5.60549365234375,-2.0464818477630615,-1.7475941181182861,-0.570229709148407
1757491449825536500,5.61553662109375,-1.8941484689712524,-1.4519540071487427,-0.5433336496353149
1757491449835579000,5.625578857421875,-1.7490264177322388,-1.2851818799972534,-0.4934052526950836
1757491449845619700,5.63561962890625,-1.607151746749878,-1.2403662204742432,-0.4070380926132202
1757491449855660800,5.645660888671875,-1.527579426765442,-0.9987180233001709,-0.3159578740596771
1757491449865697300,5.655697265625,-1.4375817775726318,-0.8201382160186768,-0.16993644833564758
1757491449875742000,5.665741943359375,-1.3211709260940552,-0.7275924682617188,-0.01317323837429285
1757491449885782500,5.675782470703125,-1.2033112049102783,-0.7351366877555847,0.13291481137275696
1757491449895822300,5.685822265625,-1.096559762954712,-0.7693437933921814,0.2780369520187378
1757491449905864200,5.6958642578125,-1.034040927886963,-0.7558874487876892,0.4367319941520691
1757491449915905300,5.7059052734375,-0.9497888684272766,-0.6882559061050415,0.5726445317268372
1757491449925945900,5.71594580078125,-0.8029846549034119,-0.5994905829429626,0.6504015922546387
1757491449935982300,5.725982421875,-0.66017746925354,-0.5491125583648682,0.728558361530304
1757491449946027800,5.73602783203125,-0.5113581418991089,-0.5716120004653931,0.8064486980438232
1757491449956065800,5.746065673828125,-0.39531373977661133,-0.6368952989578247,0.8455687165260315
1757491449966106600,5.756106689453125,-0.2898279130458832,-0.7442629933357239,0.8699666857719421
1757491449976145000,5.766144775390625,-0.17951244115829468,-0.7818508744239807,0.9126672744750977
1757491449986186000,5.77618603515625,-0.023831738159060478,-0.6967993974685669,0.9497721791267395
1757491449996227000,5.78622705078125,0.23243854939937592,-0.5407689213752747,0.958865225315094
1757491450006268700,5.7962685546875,0.6156448721885681,-0.3574594259262085,0.888485848903656
1757491450016308500,5.80630859375,1.0056127309799194,-0.32528406381607056,0.9054561257362366
1757491450026353000,5.816352783203125,1.2963899374008179,-0.13837729394435883,1.1664894819259644
1757491450036397300,5.826397216796875,1.5116750001907349,0.18092802166938782,1.5247316360473633
1757491450046430500,5.836430419921875,1.733454942703247,0.20712462067604065,1.731606364250183
1757491450056471000,5.846470947265625,1.9192792177200317,0.22949080169200897,1.6871237754821777
1757491450066512400,5.856512451171875,1.980432391166687,0.6540488004684448,1.4044404029846191
1757491450076552000,5.866552001953125,1.9265236854553223,1.0058625936508179,1.3644877672195435
1757491450086597600,5.87659765625,1.9272898435592651,0.9450424909591675,1.2964898347854614
1757491450096634000,5.886634033203125,1.9449262619018555,0.8856713175773621,1.0011827945709229
1757491450106678300,5.89667822265625,1.8802424669265747,0.828665018081665,0.7707093954086304
1757491450116719600,5.9067197265625,1.753839373588562,0.8249844908714294,0.6287848353385925
1757491450126759700,5.916759765625,1.6380947828292847,0.5897647142410278,0.5694136619567871
1757491450136800800,5.92680078125,1.6272697448730469,0.37719428539276123,0.5888321399688721
1757491450146837500,5.93683740234375,1.7373020648956299,0.4361158013343811,0.6641577482223511
1757491450156882400,5.94688232421875,1.8876368999481201,0.5987245440483093,0.7684944272041321
1757491450166919200,5.956919189453125,1.9753862619400024,0.7019121050834656,0.9004266858100891
1757491450176963300,5.96696337890625,1.9713393449783325,0.7500752210617065,1.0404527187347412
1757491450187004200,5.977004150390625,1.8902515172958374,0.7414817810058594,1.1760821342468262
1757491450197045000,5.987044921875,1.7571035623550415,0.7288914322853088,1.2775044441223145
1757491450207082000,5.99708203125,1.587200403213501,0.6777139902114868,1.3278491497039795
1757491450217126700,6.007126708984375,1.4088703393936157,0.5639845132827759,1.3152587413787842
1757491450227166700,6.017166748046875,1.2940750122070312,0.3607402443885803,1.260917067527771
1757491450237204000,6.027203857421875,1.2930591106414795,0.036671899259090424,1.2003967761993408
1757491450247248400,6.037248291015625,1.4108854532241821,-0.34943222999572754,1.1354132890701294
1757491450257288700,6.047288818359375,1.5732444524765015,-0.6774308681488037,1.077074646949768
1757491450267330000,6.057330078125,1.6814281940460205,-0.8408556580543518,1.009160041809082
1757491450277366800,6.06736669921875,1.7485934495925903,-1.0391370058059692,0.9704063534736633
1757491450287409400,6.077409423828125,1.7793198823928833,-1.338990569114685,0.9559341073036194
1757491450297448400,6.087448486328125,1.7549219131469727,-1.607168436050415,0.9393634796142578
1757491450307488500,6.097488525390625,1.6691709756851196,-1.685225248336792,0.9128171801567078
1757491450317530000,6.107530029296875,1.5436171293258667,-1.5873669385910034,0.8721650242805481
1757491450327574800,6.11757470703125,1.3983451128005981,-1.458632230758667,0.8506981134414673
1757491450337610800,6.12761083984375,1.2454622983932495,-1.3571434020996094,0.8595913052558899
1757491450347655700,6.13765576171875,1.1009730100631714,-1.284332513809204,0.8698001503944397
1757491450357696800,6.14769677734375,0.9704563617706299,-1.197948694229126,0.8803753852844238
1757491450367736800,6.15773681640625,0.839290201663971,-1.0128072500228882,0.8776441216468811
1757491450377773600,6.167773681640625,0.6808449625968933,-0.8739469647407532,0.8432537913322449
1757491450387818200,6.177818359375,0.49295559525489807,-0.7519904375076294,0.7983049154281616
1757491450397855500,6.18785546875,0.3339107930660248,-0.6285017132759094,0.7025282979011536
1757491450407900200,6.197900146484375,0.21385279297828674,-0.5318091511726379,0.5691139101982117
1757491450417940500,6.2079404296875,0.1507844477891922,-0.4679247736930847,0.4207608997821808
1757491450427981600,6.217981689453125,0.1485694795846939,-0.2916431725025177,0.28356602787971497
1757491450438022100,6.228022216796875,0.1684209406375885,-0.2853313386440277,0.16775478422641754
1757491450448063000,6.23806298828125,0.13784436881542206,-0.22441136837005615,0.0547746941447258
1757491450458103600,6.248103515625,0.0720614492893219,-0.07843989133834839,-0.03945310041308403
1757491450468139800,6.258139892578125,0.07156182825565338,-0.10941615700721741,-0.10951607674360275
1757491450478185000,6.26818505859375,0.09422779083251953,-0.12805187702178955,-0.16875401139259338
1757491450488226000,6.27822607421875,0.13374750316143036,-0.11965830624103546,-0.22004804015159607
1757491450498266600,6.2882666015625,0.15944448113441467,0.007311064284294844,-0.10590218007564545
1757491450508307000,6.298306884765625,0.24377985298633575,0.04275057464838028,0.03892017528414726
1757491450518348000,6.30834814453125,0.4450589418411255,0.04976186901330948,0.16322492063045502
1757491450528384800,6.318384765625,0.6642243266105652,-0.26168280839920044,0.40129250288009644
1757491450538425300,6.32842529296875,0.7998204231262207,-0.24955876171588898,0.6166274547576904
1757491450548466400,6.338466552734375,0.8871201872825623,-0.2544217109680176,0.7709258794784546
1757491450558507500,6.348507568359375,0.972105085849762,-0.2646971642971039,0.8828567862510681
1757491450568548900,6.358548828125,1.077674150466919,-0.28528138995170593,0.9742534160614014
1757491450578592300,6.36859228515625,1.2109720706939697,-0.28696343302726746,1.01835298538208
1757491450588633000,6.378633056640625,1.2681448459625244,-0.28674691915512085,0.9562339186668396
1757491450598670000,6.388670166015625,1.2709426879882812,-0.4459083080291748,0.8724647760391235
1757491450608710100,6.398710205078125,1.1808618307113647,-0.43823084235191345,0.7299906015396118
1757491450618754600,6.408754638671875,1.0340076684951782,-0.5872000455856323,0.6041370630264282
1757491450628795400,6.41879541015625,0.851980447769165,-0.713819682598114,0.4697067439556122
1757491450638836200,6.428836181640625,0.6715021133422852,-0.7152852416038513,0.3088133633136749
1757491450648876800,6.438876708984375,0.5616695880889893,-0.610632061958313,0.17912940680980682
1757491450658913500,6.44891357421875,0.5258970260620117,-0.7328217625617981,0.09702564775943756
1757491450668958500,6.45895849609375,0.5284783840179443,-1.0987579822540283,0.015454824082553387
1757491450678974000,6.468973876953125,0.45878177881240845,-1.4093034267425537,-0.11547817289829254
1757491450689014500,6.4790146484375,0.22900784015655518,-1.4695738554000854,-0.32783210277557373
1757491450699055000,6.48905517578125,-0.16887059807777405,-1.3488330841064453,-0.5986579060554504
1757491450709095400,6.499095458984375,-0.6614598035812378,-1.3108787536621094,-0.8614398837089539
1757491450719158000,6.509157958984375,-1.1535993814468384,-1.3514810800552368,-1.1104158163070679
1757491450729203000,6.519202880859375,-1.5899982452392578,-1.4071550369262695,-1.283433198928833
1757491450739243800,6.529243896484375,-1.9512381553649902,-1.3918668031692505,-1.2886124849319458
1757491450749284400,6.539284423828125,-2.212421178817749,-1.294191598892212,-1.1359461545944214
1757491450759325200,6.5493251953125,-2.4001941680908203,-1.1636250019073486,-0.9553179144859314
1757491450769366500,6.559366455078125,-2.5507287979125977,-0.9354831576347351,-0.8520303964614868
1757491450779409400,6.569409423828125,-2.6778812408447266,-0.5761751532554626,-0.8075145483016968
1757491450789443300,6.579443359375,-2.8177573680877686,-0.13841059803962708,-0.7515740990638733
1757491450799484700,6.589484619140625,-2.9345014095306396,0.20512615144252777,-0.7213139533996582
1757491450809525500,6.599525390625,-2.934734344482422,0.23303809762001038,-0.8325952887535095
1757491450819567400,6.6095673828125,-2.7859151363372803,-0.046114660799503326,-1.1073014736175537
1757491450829610200,6.6196103515625,-2.5920302867889404,-0.46071362495422363,-1.3615899085998535
1757491450839646700,6.629646728515625,-2.495670795440674,-0.6909705400466919,-1.399977207183838
1757491450849687300,6.639687255859375,-2.4176807403564453,-0.5365721583366394,-1.233971118927002
1757491450859732000,6.64973193359375,-2.2990715503692627,-0.29882100224494934,-0.9753692150115967
1757491450869773300,6.659773193359375,-2.2654972076416016,-0.2843487560749054,-0.7511410713195801
1757491450879813000,6.669813232421875,-2.3963637351989746,-0.5227327942848206,-0.6429240107536316
1757491450889854200,6.679854248046875,-2.6407763957977295,-0.8106787800788879,-0.6675550937652588
1757491450899894500,6.68989453125,-2.889519214630127,-1.0440165996551514,-0.737001895904541
1757491450909931500,6.699931640625,-3.010026693344116,-1.1308834552764893,-0.7727411985397339
1757491450919972000,6.70997216796875,-2.9519546031951904,-1.134014368057251,-0.7577360272407532
1757491450930017000,6.72001708984375,-2.776139259338379,-1.2415486574172974,-0.7240451574325562
1757491450940057600,6.7300576171875,-2.545715808868408,-1.389485239982605,-0.7145024538040161
1757491450950099000,6.740098876953125,-2.331613302230835,-1.5528767108917236,-0.7114381790161133
1757491450960139000,6.750138916015625,-2.1561644077301025,-1.6319161653518677,-0.7109052538871765
1757491450970180000,6.76018017578125,-2.0274462699890137,-1.6311500072479248,-0.7051762938499451
1757491450980216300,6.77021630859375,-1.9093035459518433,-1.651417851448059,-0.6697867512702942
1757491450990261500,6.780261474609375,-1.828615427017212,-1.4783670902252197,-0.6494190096855164
1757491451000302300,6.79030224609375,-1.740333080291748,-1.224095344543457,-0.6438732743263245
1757491451010343000,6.800343017578125,-1.614579439163208,-1.039869785308838,-0.6258204579353333
1757491451020383700,6.8103837890625,-1.5081442594528198,-0.8988778591156006,-0.5661827921867371
1757491451030421800,6.820421875,-1.3906010389328003,-0.8113116025924683,-0.47510260343551636
1757491451040461300,6.83046142578125,-1.2571367025375366,-0.6784967184066772,-0.3578757643699646
1757491451050503000,6.8405029296875,-1.1071516275405884,-0.5120076537132263,-0.23447032272815704
1757491451060545000,6.850544921875,-0.9858279228210449,-0.3024182617664337,-0.10778407007455826
1757491451070587000,6.8605869140625,-0.8757955431938171,-0.14890256524085999,0.0016320826252922416
1757491451080627700,6.870627685546875,-0.770825982093811,-0.13799425959587097,0.08335279673337936
1757491451090668500,6.88066845703125,-0.7216636538505554,-0.19843128323554993,0.15951110422611237
1757491451100708900,6.890708984375,-0.6977652907371521,-0.2217300832271576,0.16670559346675873
1757491451110745600,6.90074560546875,-0.6529995799064636,-0.28653043508529663,0.14285719394683838
1757491451120787000,6.910786865234375,-0.5507779121398926,-0.3599741458892822,0.10495290905237198
1757491451130831000,6.9208310546875,-0.3855878710746765,-0.41448238492012024,0.10498621314764023
1757491451140871700,6.93087158203125,-0.19456757605075836,-0.3881359100341797,0.18815581500530243
1757491451150912800,6.940912841796875,0.0019651607144623995,-0.289777934551239,0.3056158125400543
1757491451160953300,6.950953369140625,0.22969065606594086,-0.15165045857429504,0.4115179777145386
1757491451170990600,6.960990478515625,0.5039305090904236,-0.05164375901222229,0.44164490699768066
1757491451181034500,6.971034423828125,0.8039339184761047,0.08207044005393982,0.49149003624916077
1757491451191075800,6.981075927734375,1.1059857606887817,0.2215302437543869,0.7710591554641724
1757491451201116200,6.9911162109375,1.467642068862915,0.3635047674179077,1.1400929689407349
1757491451211156700,7.00115673828125,1.7493594884872437,0.5024816393852234,1.2470777034759521
1757491451221197800,7.01119775390625,1.8386577367782593,0.41193434596061707,1.2242451906204224
1757491451231238100,7.021238037109375,1.8259674310684204,0.4885256588459015,1.0464481115341187
1757491451241275100,7.031275146484375,1.8403397798538208,0.578540027141571,0.9236255884170532
1757491451251319800,7.04131982421875,1.919662356376648,0.3197050094604492,1.0157383680343628
1757491451261360600,7.051360595703125,1.9926064014434814,0.19058728218078613,0.9816977381706238
1757491451271406300,7.06140625,2.032459259033203,0.3750959038734436,0.9188292622566223
1757491451281437700,7.071437744140625,2.015122413635254,0.6333646774291992,0.8438367247581482
1757491451291478500,7.081478515625,1.9448930025100708,0.8911337852478027,0.7629820108413696
1757491451301520400,7.091520263671875,1.8554282188415527,1.1295510530471802,0.7288581728935242
1757491451311561500,7.1015615234375,1.8033181428909302,1.3283320665359497,0.7708093523979187
1757491451321606400,7.1116064453125,1.8155587911605835,1.4330518245697021,0.8666525483131409
1757491451331636200,7.12163623046875,1.8316130638122559,1.4406126737594604,0.9691073894500732
1757491451341688000,7.13168798828125,1.8105791807174683,1.4038408994674683,1.0700633525848389
1757491451351724300,7.141724365234375,1.7300409078598022,1.3298975229263306,1.1369787454605103
1757491451361764000,7.15176416015625,1.591530442237854,1.1861577033996582,1.1617764234542847
1757491451371803600,7.1618037109375,1.4239088296890259,0.9459584355354309,1.1502186059951782
1757491451381844500,7.171844482421875,1.2853484153747559,0.6231724619865417,1.0966429710388184
1757491451391885800,7.1818857421875,1.2241286039352417,0.28153425455093384,1.0317094326019287
1757491451401928700,7.1919287109375,1.2653636932373047,0.04071879759430885,0.9843623638153076
1757491451411970600,7.201970458984375,1.3859713077545166,-0.05360892042517662,0.9530196785926819
1757491451422014000,7.212013916015625,1.515771746635437,-0.05250976234674454,0.9044235944747925
1757491451432050000,7.2220498046875,1.5849521160125732,-0.11997473239898682,0.8196885585784912
1757491451442090000,7.232090087890625,1.617593765258789,-0.3091963827610016,0.7193487882614136
1757491451452204000,7.2422041015625,1.6444065570831299,-0.5238485932350159,0.6531661748886108
1757491451462204200,7.2522041015625,1.6510014533996582,-0.6408422589302063,0.6401927471160889
1757491451472213500,7.262213623046875,1.5977423191070557,-0.6259869933128357,0.652000367641449
1757491451482256000,7.272255859375,1.4800658226013184,-0.5530928373336792,0.6560972332954407
1757491451492293000,7.282293212890625,1.3248847723007202,-0.48702678084373474,0.6770644783973694
1757491451502337500,7.292337646484375,1.1869571208953857,-0.4206942915916443,0.6981649994850159
1757491451512378000,7.302378173828125,1.0997905731201172,-0.32195329666137695,0.6721183061599731
1757491451522416600,7.312416748046875,1.0219335556030273,-0.3640044033527374,0.6368952989578247
1757491451532455200,7.322455078125,0.9293878078460693,-0.4015256464481354,0.6246879696846008
1757491451542496500,7.33249658203125,0.8177899718284607,-0.3694169223308563,0.6019220948219299
1757491451552539600,7.34253955078125,0.6992308497428894,-0.27432310581207275,0.553276002407074
1757491451562578000,7.352577880859375,0.6115313768386841,-0.13541290163993835,0.4992174506187439
1757491451572622300,7.362622314453125,0.5187524557113647,-0.22046439349651337,0.4683077931404114
1757491451582659000,7.3726591796875,0.42692285776138306,-0.26814451813697815,0.4088367223739624
1757491451592703500,7.382703369140625,0.3382408022880554,-0.19919735193252563,0.30653178691864014
1757491451602743000,7.392742919921875,0.28516480326652527,-0.1997969001531601,0.19629958271980286
1757491451612785700,7.40278564453125,0.29509052634239197,-0.13812749087810516,0.13284820318222046
1757491451622821400,7.4128212890625,0.30438342690467834,-0.22637653350830078,0.0831029862165451
1757491451632866600,7.422866455078125,0.268577516078949,-0.23949980735778809,0.011407924816012383
1757491451642907100,7.4329072265625,0.19356833398342133,-0.17235125601291656,-0.08721649646759033
1757491451652944100,7.442944091796875,0.13404728472232819,-0.22884130477905273,-0.14768682420253754
1757491451662988800,7.45298876953125,0.0724777951836586,-0.1348799765110016,-0.1065683364868164
1757491451673029000,7.463029052734375,0.06208575889468193,-0.019135337322950363,-0.09590984135866165
1757491451683065900,7.47306591796875,0.13396401703357697,0.01886887475848198,-0.18127775192260742
1757491451693110500,7.483110595703125,0.289028525352478,-0.12636983394622803,-0.2522900104522705
1757491451703151600,7.493151611328125,0.4550513029098511,-0.3067815899848938,-0.1834261119365692
1757491451713192000,7.50319189453125,0.5951106548309326,-0.4274224638938904,0.01458882074803114
1757491451723229200,7.513229248046875,0.7509578466415405,-0.4476402997970581,0.2656131386756897
1757491451733273000,7.523273193359375,0.8518805503845215,-0.5882492065429688,0.5683144927024841
1757491451743314400,7.533314453125,0.9917733669281006,-0.6198583245277405,0.8411720991134644
1757491451753351200,7.54335107421875,1.199530839920044,-0.6172603368759155,1.0688142776489258
1757491451763400200,7.553400146484375,1.4230928421020508,-0.7277923226356506,1.2048766613006592
1757491451773431800,7.563431884765625,1.553043246269226,-0.7542387247085571,1.1979986429214478
1757491451783473200,7.57347314453125,1.5775411128997803,-0.73398756980896,1.1204913854599
1757491451793513700,7.583513671875,1.5008832216262817,-0.6048698425292969,0.984112560749054
1757491451803556400,7.593556396484375,1.3302472829818726,-0.4227926731109619,0.7885790467262268
1757491451813600000,7.60360009765625,1.1080842018127441,-0.2781868278980255,0.590947151184082
1757491451823639800,7.613639892578125,0.8821073770523071,-0.039602987468242645,0.34785011410713196
1757491451833680400,7.623680419921875,0.6939682364463806,0.20922300219535828,0.10352066904306412
1757491451843721200,7.63372119140625,0.5097427368164062,0.09689241647720337,-0.04921228811144829
1757491451853761800,7.64376171875,0.28834569454193115,-0.18221037089824677,-0.12958402931690216
1757491451863798800,7.653798828125,0.04846286401152611,-0.4152317941188812,-0.26586294174194336
1757491451873843700,7.66384375,-0.1990308165550232,-0.5927124619483948,-0.5033143162727356
1757491451883884300,7.67388427734375,-0.4545849859714508,-0.7324220538139343,-0.7681447267532349
1757491451893924900,7.6839248046875,-0.7515074610710144,-0.8188225626945496,-1.045798659324646
1757491451903965200,7.693965087890625,-1.1037708520889282,-0.8319957852363586,-1.335709810256958
1757491451914006500,7.704006591796875,-1.4922897815704346,-0.7318724989891052,-1.5534095764160156
1757491451924046600,7.714046630859375,-1.8903181552886963,-0.4954037070274353,-1.5505118370056152
1757491451934083800,7.724083740234375,-2.2603344917297363,-0.2436133176088333,-1.3799258470535278
1757491451944128500,7.73412841796875,-2.548513650894165,-0.03455685079097748,-1.2317228317260742
1757491451954169000,7.744169189453125,-2.7713429927825928,0.14818644523620605,-1.1849420070648193
1757491451964210000,7.7542099609375,-2.9141502380371094,0.3060321509838104,-1.2595181465148926
1757491451974250200,7.764250244140625,-2.939497470855713,0.24835968017578125,-1.4855782985687256
1757491451984291000,7.774291015625,-2.895914316177368,-0.07156182825565338,-1.739433765411377
1757491451994332000,7.784331787109375,-2.834095001220703,-0.336225688457489,-1.8941985368728638
1757491452004369400,7.794369384765625,-2.803018808364868,-0.28877872228622437,-1.8879033327102661
1757491452014411800,7.804411865234375,-2.783750057220459,-0.03792094066739082,-1.7350870370864868
1757491452024450300,7.8144501953125,-2.6656906604766846,0.08117113262414932,-1.479899287223816
1757491452034490000,7.824489990234375,-2.524482250213623,0.05703962221741676,-1.2420815229415894
1757491452044533000,7.834532958984375,-2.482114553451538,-0.07154517620801926,-1.1424078941345215
1757491452054576600,7.84457666015625,-2.5552585124969482,-0.35367897152900696,-1.1696703433990479
1757491452064617000,7.854616943359375,-2.6957342624664307,-0.5916466116905212,-1.2492094039916992
1757491452074653400,7.8646533203125,-2.822387218475342,-0.6624590158462524,-1.3024519681930542
1757491452084698400,7.874698486328125,-2.8477678298950195,-0.6413252353668213,-1.2980386018753052
1757491452094734800,7.88473486328125,-2.7654309272766113,-0.7567367553710938,-1.2757223844528198
1757491452104779500,7.894779541015625,-2.6117653846740723,-1.083786129951477,-1.254455327987671
1757491452114820000,7.904820068359375,-2.447324514389038,-1.359658122062683,-1.2466946840286255
1757491452124860700,7.914860595703125,-2.279686450958252,-1.5736607313156128,-1.2226464748382568
1757491452134901200,7.9249013671875,-2.126220703125,-1.6809452772140503,-1.1570299863815308
1757491452144942300,7.9349423828125,-1.9966366291046143,-1.5909641981124878,-1.0789731740951538
1757491452154982700,7.944982666015625,-1.8685181140899658,-1.4708561897277832,-1.0267964601516724
1757491452165020000,7.95502001953125,-1.7032780647277832,-1.3320958614349365,-1.0250811576843262
1757491452175064300,7.965064208984375,-1.5035978555679321,-1.2082574367523193,-1.0223665237426758
1757491452185105000,7.97510498046875,-1.3286651372909546,-1.0840526819229126,-0.9764350652694702
1757491452195146000,7.98514599609375,-1.2066420316696167,-0.8343439698219299,-0.9210109114646912
1757491452205187000,7.99518701171875,-1.046697974205017,-0.730690062046051,-0.8462182283401489
1757491452215227100,8.00522705078125,-0.9090034365653992,-0.6001901030540466,-0.7554211020469666
1757491452225267700,8.015267822265624,-0.8175069093704224,-0.3872365951538086,-0.6244215369224548
1757491452235308300,8.025308349609375,-0.6758654117584229,-0.22872473299503326,-0.49711906909942627
1757491452245348600,8.0353486328125,-0.566798985004425,-0.09004766494035721,-0.3541119694709778
1757491452255391500,8.0453916015625,-0.5330581665039062,-0.006811446975916624,-0.23358766734600067
1757491452265426700,8.0554267578125,-0.4796491265296936,0.017902947962284088,-0.1721014529466629
1757491452275467500,8.065467529296875,-0.4392467439174652,0.0044465926475822926,-0.12307235598564148
1757491452285509600,8.075509521484374,-0.3725312054157257,-0.11291347444057465,-0.06436733901500702
1757491452295551200,8.08555126953125,-0.24621133506298065,-0.1968824565410614,0.027062594890594482
1757491452305596700,8.0955966796875,-0.03052660822868347,-0.19143663346767426,0.12520405650138855
1757491452315634400,8.105634521484374,0.2690105140209198,-0.13562940061092377,0.19012098014354706
1757491452325670400,8.11567041015625,0.6483531594276428,-0.04787997528910637,0.23323793709278107
1757491452335715800,8.1257158203125,1.0605705976486206,0.09472741186618805,0.286180704832077
1757491452345756200,8.135756103515625,1.4371321201324463,0.1653566211462021,0.5139061808586121
1757491452355797000,8.145796875,1.6826106309890747,0.46219581365585327,0.9790331125259399
1757491452365837600,8.155837646484375,1.8255677223205566,1.006611943244934,1.4712226390838623
1757491452375878400,8.16587841796875,1.965343952178955,1.4141663312911987,1.5977423191070557
1757491452385919000,8.1759189453125,2.038587808609009,1.7118215560913086,1.3423380851745605
1757491452395956000,8.1859560546875,1.9883263111114502,2.049379587173462,1.1596280336380005
1757491452406000600,8.196000732421876,1.7807520627975464,1.7813016176223755,1.1417750120162964
1757491452416042200,8.206042236328125,1.6666895151138306,1.2678117752075195,0.9394301176071167
1757491452426079700,8.216079833984375,1.6571134328842163,0.9949375987052917,0.7261768579483032
1757491452436118500,8.226118408203124,1.6390106678009033,0.8675352334976196,0.6136963963508606
1757491452446159400,8.236159423828125,1.6467047929763794,0.8719651699066162,0.5611533522605896
1757491452456199700,8.24619970703125,1.7165179252624512,0.9196286201477051,0.6059190034866333
1757491452466241300,8.2562412109375,1.8377749919891357,0.9949709177017212,0.7000135779380798
1757491452476283600,8.26628369140625,1.950055718421936,1.0496623516082764,0.781601071357727
1757491452486326000,8.276325927734375,2.003614664077759,1.133931040763855,0.8903676867485046
1757491452496367900,8.286367919921876,1.9954875707626343,1.250491738319397,1.0034477710723877
1757491452506409200,8.2964091796875,1.9222769737243652,1.4187628030776978,1.0852850675582886
1757491452516443600,8.306443603515625,1.808580756187439,1.4880930185317993,1.1557310819625854
1757491452526485800,8.31648583984375,1.6586623191833496,1.4357997179031372,1.1667726039886475
1757491452536525300,8.326525390625,1.470656394958496,1.253922462463379,1.1230227947235107
1757491452546580000,8.336580078125,1.2820842266082764,0.9863608479499817,1.0461816787719727
1757491452556611300,8.346611328125,1.1550148725509644,0.7241284251213074,0.9692239761352539
1757491452566651400,8.3566513671875,1.133681297302246,0.5396864414215088,0.9079375863075256
1757491452576688400,8.3666884765625,1.2146692276000977,0.4254739582538605,0.8496156334877014
1757491452586732800,8.37673291015625,1.3635218143463135,0.2772708535194397,0.7886123657226562
1757491452596774000,8.38677392578125,1.4505218267440796,0.11389605700969696,0.7618662118911743
1757491452606810600,8.396810546875,1.4386309385299683,-0.009775842539966106,0.7747396230697632
1757491452616854300,8.406854248046875,1.3904844522476196,-0.11837595701217651,0.7902944087982178
1757491452626895600,8.4168955078125,1.3287817239761353,-0.1926523745059967,0.8006364703178406
1757491452636932600,8.4269326171875,1.258185863494873,-0.196049764752388,0.8018022179603577
1757491452646977300,8.436977294921874,1.205709457397461,-0.09675918519496918,0.7854647636413574
1757491452657018000,8.44701806640625,1.1405593156814575,-0.05369218811392784,0.7545551061630249
1757491452667058400,8.457058349609374,1.057023286819458,-0.04599808529019356,0.6973655819892883
1757491452677121500,8.46712158203125,0.9638614058494568,-0.014855283312499523,0.6259703040122986
1757491452687139600,8.4771396484375,0.8567601442337036,0.006428407039493322,0.562335729598999
1757491452697180700,8.4871806640625,0.7275924682617188,0.060220520943403244,0.499500572681427
1757491452707217400,8.497217529296876,0.5815044045448303,0.12207312136888504,0.4240250587463379
1757491452717261600,8.507261474609376,0.42977067828178406,0.16400764882564545,0.33187901973724365
1757491452727302700,8.517302734375,0.30766424536705017,0.23022358119487762,0.24900919198989868
1757491452737343200,8.52734326171875,0.24994181096553802,0.33221209049224854,0.16655570268630981
1757491452747384300,8.53738427734375,0.1854245811700821,0.30370059609413147,0.09615964442491531
1757491452757421800,8.547421875,0.11722683906555176,0.2810179889202118,0.007194486912339926
1757491452767461400,8.55746142578125,0.044649120420217514,0.26246553659439087,-0.1066349521279335
1757491452777502500,8.56750244140625,-0.046647585928440094,0.16650573909282684,-0.1916864514350891
1757491452787545600,8.577545654296875,-0.11812614649534225,0.20893989503383636,-0.22038112580776215
1757491452797587500,8.58758740234375,-0.15621362626552582,0.10030646622180939,-0.2232622504234314
1757491452807628300,8.597628173828125,-0.2068748027086258,-0.10680149495601654,-0.22502756118774414
1757491452817668900,8.6076689453125,-0.24366328120231628,-0.07584188133478165,-0.2500084340572357
1757491452827709700,8.617709716796876,-0.2267429083585739,-0.14976856112480164,-0.27577200531959534
1757491452837746200,8.62774609375,-0.20397703349590302,-0.2533392012119293,-0.3345436453819275
1757491452847791600,8.63779150390625,-0.12175669521093369,-0.3145589530467987,-0.44975534081459045
1757491452857831700,8.647831787109375,-0.04145156964659691,-0.18254345655441284,-0.3946475684642792
1757491452867871700,8.657871826171874,0.1519668847322464,-0.039436448365449905,-0.17173506319522858
1757491452877912600,8.66791259765625,0.4214770197868347,-0.026363130658864975,0.10303770750761032
1757491452887953700,8.67795361328125,0.7420979738235474,-0.12170673906803131,0.43788111209869385
1757491452897990100,8.687990234375,1.075825572013855,-0.11594448238611221,0.7201980948448181
1757491452908030700,8.69803076171875,1.3266667127609253,-0.09491060674190521,0.9500386714935303
1757491452918075400,8.708075439453125,1.3973625898361206,-0.11372951418161392,1.094627857208252
1757491452928116500,8.718116455078125,1.3939985036849976,-0.10620195418596268,1.1237388849258423
1757491452938156800,8.72815673828125,1.386320948600769,-0.20249482989311218,1.081054925918579
1757491452948198000,8.738197998046875,1.3998606204986572,-0.31327658891677856,0.9709392786026001
1757491452968279000,8.758279052734375,1.3122111558914185,-0.33361101150512695,0.6603772640228271
1757491452978320000,8.76831982421875,1.1801955699920654,-0.2260434478521347,0.5196517705917358
1757491452988360700,8.778360595703125,0.964427649974823,-0.1698864847421646,0.4215436279773712
1757491452998406700,8.78840673828125,0.7670122385025024,-0.181061252951622,0.368434339761734
1757491453008438300,8.798438232421875,0.6196085214614868,-0.2404823899269104,0.32201990485191345
1757491453018478300,8.808478271484375,0.46066364645957947,-0.3330780863761902,0.28176742792129517
1757491453028521500,8.818521484375,0.2680279314517975,-0.29598984122276306,0.15111753344535828
1757491453038572300,8.828572265625,0.00866003055125475,-0.27660471200942993,-0.1320488154888153
1757491453048604400,8.8386044921875,-0.3468508720397949,-0.30313438177108765,-0.54073566198349
1757491453058645200,8.848645263671875,-0.8345604538917542,-0.436448872089386,-1.004014015197754
1757491453068681700,8.858681640625,-1.445542335510254,-0.47766730189323425,-1.4201117753982544
1757491453078726100,8.86872607421875,-2.0720789432525635,-0.2856810688972473,-1.6303839683532715
1757491453088763400,8.878763427734375,-2.5865180492401123,0.12383843958377838,-1.6680550575256348
1757491453098808300,8.888808349609375,-2.906822443008423,0.7012126445770264,-1.7206647396087646
1757491453108848600,8.8988486328125,-3.057123899459839,1.3059825897216797,-1.9245585203170776
1757491453118889200,8.90888916015625,-3.151301860809326,1.695034384727478,-2.1897053718566895
1757491453128930000,8.918929931640625,-3.274574041366577,1.6785637140274048,-2.273024797439575
1757491453138966800,8.928966796875,-3.3959977626800537,1.2370353937149048,-2.0844860076904297
1757491453149011000,8.939010986328125,-3.4767024517059326,0.769860029220581,-1.8595750331878662
1757491453159048000,8.9490478515625,-3.462296962738037,0.7001968026161194,-1.7180501222610474
1757491453169092900,8.9590927734375,-3.380176544189453,0.9136332273483276,-1.5745434761047363
1757491453179133400,8.969133544921876,-3.316541910171509,0.7791529297828674,-1.3869538307189941
1757491453189174300,8.97917431640625,-3.291477680206299,-0.1178097203373909,-1.2829002141952515
1757491453199215000,8.989215087890624,-3.2773218154907227,-1.2581526041030884,-1.327399492263794
1757491453209251300,8.999251220703124,-3.231107234954834,-1.6810451745986938,-1.4104357957839966
1757491453219292200,9.009292236328125,-3.1880569458007812,-1.2370021343231201,-1.4598979949951172
1757491453229336600,9.019336669921875,-3.1532835960388184,-0.7445294857025146,-1.4581159353256226
1757491453239378000,9.0293779296875,-3.016355276107788,-0.8261002898216248,-1.3775444030761719
1757491453249416400,9.03941650390625,-2.7676291465759277,-1.0830367803573608,-1.2451791763305664
1757491453259454700,9.049454833984376,-2.5056300163269043,-1.3686178922653198,-1.1609270572662354
1757491453269495600,9.05949560546875,-2.313110828399658,-1.6447229385375977,-1.175782322883606
1757491453279536000,9.0695361328125,-2.1133971214294434,-2.002065896987915,-1.186574101448059
1757491453289581000,9.0795810546875,-1.898045539855957,-2.159428596496582,-1.1215739250183105
1757491453299622000,9.089621826171875,-1.7287919521331787,-1.99333918094635,-0.9856946468353271
1757491453309662700,9.099662841796874,-1.5224833488464355,-1.7816680669784546,-0.8032844662666321
1757491453319703300,9.109703369140625,-1.2218303680419922,-1.5810050964355469,-0.5810547471046448
1757491453329744000,9.119743896484374,-0.8565602898597717,-1.1297509670257568,-0.34846630692481995
1757491453339784400,9.129784423828125,-0.46226242184638977,-0.7561039328575134,-0.053958650678396225
1757491453349800000,9.139800048828125,-0.09416117519140244,-0.47760069370269775,0.2635480463504791
1757491453359839700,9.14983984375,0.2742232084274292,-0.382323682308197,0.45545098185539246
1757491453369880000,9.159880126953125,0.5161378383636475,-0.2924092710018158,0.5841190814971924
1757491453379921200,9.169921142578126,0.6703696250915527,-0.16917036473751068,0.6698200702667236
1757491453389961200,9.179961181640625,0.8554611206054688,-0.036671899259090424,0.6877896189689636
1757491453400025600,9.190025634765625,1.1156284809112549,0.12415485829114914,0.7744731903076172
1757491453410064100,9.200064208984376,1.4300874471664429,0.3741965889930725,1.0315428972244263
1757491453420106500,9.2101064453125,1.8334616422653198,0.7078409194946289,1.5332750082015991
1757491453430149600,9.220149658203125,2.29226016998291,0.9916400909423828,2.184359550476074
1757491453440188400,9.2301884765625,2.6126480102539062,1.0787899494171143,2.781618356704712
1757491453450231300,9.240231201171875,2.448007345199585,1.1319326162338257,2.734504461288452
1757491453460272000,9.250272216796875,1.9257076978683472,1.5852352380752563,1.9999340772628784
1757491453470312200,9.260312255859375,1.5312433242797852,2.1664397716522217,1.5756758451461792
1757491453480349200,9.27034912109375,1.350448489189148,2.2139034271240234,1.4945547580718994
1757491453490391800,9.280391845703125,1.2735074758529663,1.8962302207946777,1.1614599227905273
1757491453500434700,9.2904345703125,1.1739670038223267,1.2783037424087524,0.7458451390266418
1757491453510475500,9.3004755859375,1.0430673360824585,1.0492459535598755,0.4588983356952667
1757491453520515600,9.310515625,0.9923562407493591,0.9848453402519226,0.35133078694343567
1757491453530556400,9.320556396484376,0.9454421997070312,0.8560107350349426,0.3261334300041199
1757491453540595200,9.33059521484375,0.9144325852394104,0.6038039922714233,0.2866969704627991
1757491453550638000,9.34063818359375,1.0106755495071411,0.3717484772205353,0.25147396326065063
1757491453560676600,9.350676513671875,1.207824468612671,0.39659610390663147,0.289028525352478
1757491453570718700,9.36071875,1.3520638942718506,0.6261202096939087,0.36568644642829895
1757491453580760000,9.370760009765625,1.3770114183425903,0.871265709400177,0.3972955644130707
1757491453590800600,9.380800537109375,1.3145593404769897,1.0311931371688843,0.39566347002983093
1757491453600837600,9.390837646484375,1.228325366973877,1.1219902038574219,0.3852214813232422
1757491453610883300,9.40088330078125,1.1468712091445923,1.043167233467102,0.39554688334465027
1757491453620919300,9.410919189453125,1.093945026397705,0.8662195801734924,0.41338321566581726
1757491453630959600,9.420959716796874,1.0840526819229126,0.6176433563232422,0.42983728647232056
1757491453641000400,9.43100048828125,1.1106488704681396,0.33922338485717773,0.47628501057624817
1757491453651043000,9.44104296875,1.1321158409118652,0.10133901238441467,0.5511276721954346
1757491453661085700,9.451085693359374,1.1055362224578857,-0.0626186802983284,0.6101657748222351
1757491453671122000,9.461121826171874,1.062319278717041,-0.10813380032777786,0.6333979368209839
1757491453681167000,9.4711669921875,1.0274126529693604,-0.07870635390281677,0.6551645994186401
1757491453691207400,9.48120751953125,1.029461145401001,0.005629019811749458,0.6779637932777405
1757491453701248300,9.491248291015625,1.0492793321609497,0.012706929817795753,0.7081906199455261
1757491453711289000,9.5012890625,1.0670490264892578,-0.09599310904741287,0.7306567430496216
1757491453721327400,9.511327392578124,1.086950421333313,-0.16260872781276703,0.7208476066589355
1757491453731368000,9.521367919921875,1.1236722469329834,-0.1612597554922104,0.6932021379470825
1757491453741408800,9.53140869140625,1.0962265729904175,-0.2262433022260666,0.6725013256072998
1757491453751451600,9.54145166015625,1.020817756652832,-0.22557714581489563,0.6277356147766113
1757491453761492500,9.551492431640625,0.9359161257743835,-0.1822270303964615,0.5650003552436829
1757491453771532500,9.561532470703124,0.8563770651817322,-0.1375945657491684,0.47918280959129333
1757491453781574100,9.57157421875,0.8080974221229553,-0.03603905066847801,0.38990122079849243
1757491453791612200,9.581612060546876,0.7376680374145508,-0.02299904264509678,0.34263744950294495
1757491453801653000,9.591653076171875,0.6606104373931885,0.017020290717482567,0.3224029541015625
1757491453811693600,9.601693603515624,0.6093330979347229,0.07552545517683029,0.30286791920661926
1757491453821736000,9.61173583984375,0.5829033255577087,0.08734972774982452,0.2634481191635132
1757491453831776500,9.621776611328125,0.5010993480682373,-0.07139529287815094,0.2320721596479416
1757491453841817300,9.6318173828125,0.4098692536354065,-0.09790830314159393,0.14871937036514282
1757491453851858700,9.641858642578125,0.3605736792087555,0.025080781430006027,0.06355129927396774
1757491453861895200,9.651895263671875,0.3491324484348297,0.01911868341267109,0.012007465586066246
1757491453871936300,9.661936279296874,0.38728654384613037,0.08670023083686829,-0.0156546700745821
1757491453881976600,9.6719765625,0.49820154905319214,-0.06045367568731308,-0.040768757462501526
1757491453892017400,9.682017333984374,0.6647905707359314,-0.18775612115859985,0.07735738903284073
1757491453902059000,9.69205908203125,0.8276657462120056,-0.2110549360513687,0.2750558853149414
1757491453912102700,9.7021025390625,0.9177800416946411,-0.24676090478897095,0.42449137568473816
1757491453922141000,9.712140869140624,0.9692239761352539,-0.2764381766319275,0.5578558444976807
1757491453932181800,9.722181640625,1.028212070465088,-0.3002365827560425,0.6836761236190796
1757491453942224400,9.732224365234375,1.0925794839859009,-0.2605503499507904,0.7546217441558838
1757491453952265000,9.742264892578126,1.1565470695495605,-0.25528770685195923,0.7404659390449524
1757491453962305500,9.752305419921875,1.2211642265319824,-0.22267936170101166,0.6935685276985168
1757491453972344000,9.762343994140625,1.219482183456421,-0.1832096129655838,0.6534159779548645
1757491453982387000,9.772386962890625,1.1301339864730835,-0.15653005242347717,0.6038539409637451
1757491453992425700,9.78242578125,1.0030646324157715,-0.12778541445732117,0.5167706608772278
1757491454002466800,9.792466796875,0.8764950037002563,-0.04926225170493126,0.4188790023326874
1757491454012509200,9.80250927734375,0.7567034959793091,0.08929824084043503,0.31202757358551025
1757491454022549500,9.812549560546875,0.5780903697013855,0.038886867463588715,0.21067190170288086
1757491454032590300,9.82259033203125,0.35872510075569153,-0.09724214673042297,0.09940715879201889
1757491454042628900,9.83262890625,0.14215773344039917,-0.2454119473695755,-0.05712289363145828
1757491454052670000,9.842669921875,-0.09083040058612823,-0.573860228061676,-0.23107293248176575
1757491454062712300,9.85271240234375,-0.33507657051086426,-0.8364590406417847,-0.4426940977573395
1757491454072753200,9.862753173828125,-0.6017721891403198,-0.9490227699279785,-0.665390133857727
1757491454082794000,9.8727939453125,-0.8882526755332947,-0.8920997381210327,-0.8477004170417786
1757491454092834000,9.882833984375,-1.184958577156067,-0.6783468723297119,-0.9388971924781799
1757491454102876000,9.8928759765625,-1.4609638452529907,-0.3294142484664917,-0.9282886385917664
1757491454112915700,9.902915771484375,-1.6881896257400513,0.11033211648464203,-0.8931155800819397
1757491454122952200,9.9129521484375,-1.8560110330581665,0.46412765979766846,-0.8943480253219604
1757491454132993500,9.92299365234375,-1.987160563468933,0.601089358329773,-0.9733707904815674
1757491454143036000,9.933035888671874,-2.0763587951660156,0.49661943316459656,-1.1555311679840088
1757491454153080800,9.943080810546874,-2.141758680343628,0.21503521502017975,-1.3679184913635254
1757491454163116800,9.95311669921875,-2.235869884490967,-0.05365888029336929,-1.4871103763580322
1757491454173159400,9.963159423828126,-2.356377601623535,-0.1448056995868683,-1.4743201732635498
1757491454183196700,9.97319677734375,-2.460331439971924,-0.03768778592348099,-1.3924496173858643
1757491454193240800,9.98324072265625,-2.519685745239258,0.16520673036575317,-1.300103783607483
1757491454203282200,9.9932822265625,-2.5413358211517334,0.2950572371482849,-1.2115715742111206
1757491454213322200,10.003322265625,-2.5413193702697754,0.23352105915546417,-1.126586675643921
1757491454223362800,10.01336279296875,-2.5376386642456055,0.01645405776798725,-1.0314096212387085
1757491454233401900,10.02340185546875,-2.545332908630371,-0.21533499658107758,-0.9529864192008972
1757491454243442000,10.03344189453125,-2.5697975158691406,-0.38761964440345764,-0.929770827293396
1757491454253485300,10.0434853515625,-2.5889992713928223,-0.49119025468826294,-0.96640944480896
1757491454263526400,10.0535263671875,-2.5780577659606934,-0.559804379940033,-1.010309100151062
1757491454273565400,10.0635654296875,-2.5249152183532715,-0.605419397354126,-1.0256307125091553
1757491454283605800,10.073605712890625,-2.452753782272339,-0.675049364566803,-1.0023819208145142
1757491454293645600,10.0836455078125,-2.3686516284942627,-0.7347869277000427,-0.9561173319816589
1757491454303685000,10.09368505859375,-2.278104305267334,-0.8639212846755981,-0.8940815329551697
1757491454313725400,10.103725341796874,-2.161743402481079,-1.002698302268982,-0.858642041683197
1757491454323767800,10.113767822265626,-2.030144214630127,-1.1255208253860474,-0.8463847637176514
1757491454333810700,10.123810791015625,-1.907588243484497,-1.1741169691085815,-0.8583922386169434
1757491454343849000,10.133848876953126,-1.803717851638794,-1.129351258277893,-0.8792928457260132
1757491454353895000,10.14389501953125,-1.697599172592163,-1.1024551391601562,-0.8831732273101807
1757491454363929600,10.1539296875,-1.5901480913162231,-1.0460983514785767,-0.839573323726654
1757491454373969200,10.16396923828125,-1.4699236154556274,-0.8487828969955444,-0.7763383984565735
1757491454383999000,10.1739990234375,-1.3292813301086426,-0.7192488312721252,-0.6797957420349121
1757491454394037800,10.184037841796876,-1.1950842142105103,-0.6324653625488281,-0.5436833500862122
1757491454404069600,10.194069580078125,-1.0914969444274902,-0.41303348541259766,-0.40498965978622437
1757491454414110000,10.20410986328125,-0.9713223576545715,-0.29195961356163025,-0.28431546688079834
1757491454424150500,10.214150634765625,-0.8474339246749878,-0.21973161399364471,-0.17170175909996033
1757491454434202000,10.2242021484375,-0.7188658118247986,-0.151134192943573,-0.09354498237371445
1757491454444244700,10.23424462890625,-0.6131967902183533,-0.03946975618600845,-0.0374879390001297
1757491454454296000,10.244296142578126,-0.4867769777774811,0.012573698535561562,-0.06335145235061646
1757491454464337000,10.2543369140625,-0.31848928332328796,-0.050794411450624466,-0.18697339296340942
1757491454474377200,10.264377197265626,-0.15866175293922424,-0.10222166776657104,-0.16628924012184143
1757491454484417000,10.2744169921875,0.03698832169175148,-0.168487548828125,-0.0020983919966965914
1757491454494457900,10.284457763671876,0.2831663489341736,-0.2772708535194397,0.20589222013950348
1757491454504502800,10.294502685546876,0.5731774568557739,-0.4040237367153168,0.3727310299873352
1757491454514541600,10.30454150390625,0.8981117606163025,-0.5306267142295837,0.4314693808555603
1757491454524581000,10.3145810546875,1.2253776788711548,-0.6476870179176331,0.47738417983055115
1757491454534623200,10.324623291015625,1.3391571044921875,-0.5657165050506592,0.7115214467048645
1757491454544690400,10.3346904296875,1.3368922472000122,0.042933765798807144,1.3146092891693115
1757491454554714000,10.344714111328125,1.57820725440979,0.9767181873321533,1.8369090557098389
1757491454564744000,10.354743896484376,1.8591920137405396,1.543500542640686,1.9582160711288452
1757491454574786300,10.364786376953125,1.8892855644226074,1.6143962144851685,1.8873203992843628
1757491454584827400,10.374827392578124,1.6866908073425293,1.5990246534347534,1.5113252401351929
1757491454594867700,10.38486767578125,1.519302487373352,1.52414870262146,1.0840526819229126
1757491454604905500,10.394905517578126,1.5654504299163818,1.3100460767745972,0.9262402057647705
1757491454614944800,10.40494482421875,1.633931279182434,1.0064787864685059,0.7126538753509521
1757491454624985300,10.4149853515625,1.6673556566238403,0.6997804045677185,0.49611982703208923
1757491454635028000,10.425028076171875,1.6946347951889038,0.6187591552734375,0.42275938391685486
1757491454645067500,10.435067626953124,1.696699857711792,0.688422441482544,0.4031577408313751
1757491454655112000,10.44511181640625,1.6786470413208008,0.6706194281578064,0.3886854946613312
1757491454665152300,10.45515234375,1.6536494493484497,0.6158280968666077,0.40747109055519104
1757491454675190800,10.465190673828126,1.6227232217788696,0.6766814589500427,0.48018205165863037
1757491454685231600,10.475231689453125,1.5819710493087769,0.8915001749992371,0.5821205973625183
1757491454695272200,10.485272216796876,1.5194523334503174,1.1397433280944824,0.7000135779380798
1757491454705315000,10.495315185546875,1.4326854944229126,1.2463948726654053,0.7874465584754944
1757491454715353600,10.505353515625,1.3159582614898682,1.2337212562561035,0.8222032785415649
1757491454725396000,10.51539599609375,1.175166130065918,1.1546485424041748,0.809446394443512
1757491454735436800,10.525436767578125,1.0545085668563843,1.030277132987976,0.7565369606018066
1757491454745475600,10.5354755859375,0.9954871535301208,0.8632884621620178,0.7119377851486206
1757491454755516400,10.545516357421874,1.0039806365966797,0.7201814651489258,0.686307430267334
1757491454765559300,10.555559326171876,1.047930359840393,0.593894898891449,0.6513175368309021
1757491454775599400,10.565599365234375,1.0986248254776,0.45476818084716797,0.5920796394348145
1757491454785638400,10.575638427734376,1.136062741279602,0.3456684350967407,0.5484963655471802
1757491454795680800,10.5856806640625,1.1466213464736938,0.2730574309825897,0.522416353225708
1757491454805721900,10.595721923828124,1.131882667541504,0.16768816113471985,0.5033642649650574
1757491454815760400,10.605760498046875,1.1074013710021973,0.07802354544401169,0.5016489028930664
1757491454825803000,10.615802978515624,1.0856181383132935,0.02020118571817875,0.5040304064750671
1757491454835843600,10.625843505859375,1.0746431350708008,-0.0074609494768083096,0.4914567172527313
1757491454845886000,10.635885986328125,1.087833046913147,-0.008626722730696201,0.48466193675994873
1757491454855899400,10.6458994140625,1.0584056377410889,-0.1145455539226532,0.49736887216567993
1757491454865965800,10.6559658203125,1.0015658140182495,-0.1781468242406845,0.4842289388179779
1757491454876006000,10.666005859375,0.9454088807106018,-0.1326650083065033,0.46121323108673096
1757491454886050000,10.676050048828126,0.8793594837188721,-0.029993683099746704,0.4747195541858673
1757491454896085000,10.6860849609375,0.7744232416152954,-0.0329747311770916,0.4892750680446625
1757491454906124800,10.696124755859374,0.6733506917953491,-0.10600210726261139,0.470139741897583
1757491454916165400,10.706165283203125,0.5994739532470703,-0.17201818525791168,0.4574328064918518
1757491454926207200,10.716207275390625,0.5681479573249817,-0.13414719700813293,0.42087748646736145
1757491454936247800,10.726247802734376,0.5117079019546509,-0.12630321085453033,0.3694835305213928
1757491454946287000,10.736287109375,0.44475919008255005,-0.048779286444187164,0.29820480942726135
1757491454956332500,10.74633251953125,0.4009927213191986,0.05868836119771004,0.20381048321723938
1757491454966374000,10.756373779296876,0.4397130608558655,0.10908307880163193,0.13011695444583893
1757491454976411600,10.76641162109375,0.4982348680496216,0.13749463856220245,0.08595079928636551
1757491454986450400,10.776450439453125,0.5253807306289673,0.14903579652309418,0.04300038143992424
1757491454996491000,10.786490966796874,0.537438154220581,0.09396132826805115,0.0543583445250988
1757491455006531300,10.79653125,0.6331481337547302,0.0013323123566806316,0.14978522062301636
1757491455016578600,10.80657861328125,0.7531062364578247,0.06301837414503098,0.2584019899368286
1757491455026616300,10.8166162109375,0.9136665463447571,0.0762249231338501,0.40900325775146484
1757491455036657200,10.8266572265625,1.0679816007614136,-0.009825804270803928,0.5896481275558472
1757491455046698200,10.8366982421875,1.1223732233047485,-0.044815659523010254,0.7321722507476807
1757491455056738600,10.846738525390625,1.1121478080749512,-0.027695443481206894,0.7851983308792114
1757491455066775600,10.856775634765626,1.1056361198425293,-0.0320754200220108,0.7802354693412781
1757491455076816400,10.86681640625,1.1286017894744873,-0.006644907873123884,0.7585353851318359
1757491455086861000,10.876861083984375,1.147170901298523,0.07052928954362869,0.7085903286933899
1757491455096901400,10.8869013671875,1.1083006858825684,0.11752660572528839,0.6193587183952332
1757491455106942000,10.89694189453125,1.0008829832077026,0.167871356010437,0.5076276659965515
1757491455116983300,10.9069833984375,0.8468510508537292,0.32744908332824707,0.38135775923728943
1757491455127022800,10.91702294921875,0.6656232476234436,0.34248754382133484,0.2637312412261963
1757491455137060000,10.92706005859375,0.515355110168457,0.20614203810691833,0.11587786674499512
1757491455147104500,10.9371044921875,0.40518951416015625,0.08575095236301422,-0.04419946298003197
1757491455157145000,10.94714501953125,0.2945576012134552,0.038553789258003235,-0.193201944231987
1757491455167186200,10.957186279296875,0.14831967651844025,-0.054458267986774445,-0.4076376259326935
1757491455177226500,10.9672265625,-0.08338610082864761,-0.3121941089630127,-0.7472274303436279
1757491455187267300,10.977267333984376,-0.38288992643356323,-0.5364555716514587,-1.1586288213729858
1757491455197303800,10.9873037109375,-0.6951173543930054,-0.553009569644928,-1.4593983888626099
1757491455207344600,10.9973447265625,-1.010459065437317,-0.37124884128570557,-1.5451658964157104
1757491455217390300,11.007390380859375,-1.344552993774414,-0.12960068881511688,-1.4742037057876587
1757491455227426800,11.0174267578125,-1.659794807434082,0.17205148935317993,-1.384189248085022
1757491455237466600,11.027466552734374,-1.899827480316162,0.4722714424133301,-1.2788033485412598
1757491455247508000,11.037508056640625,-2.0613038539886475,0.696599543094635,-1.1089502573013306
1757491455257550300,11.04755029296875,-2.1570804119110107,0.7888954877853394,-0.9176634550094604
1757491455267588600,11.057588623046875,-2.1990814208984375,0.6770811676979065,-0.8425377011299133
1757491455277633300,11.06763330078125,-2.203078508377075,0.31792303919792175,-1.0450658798217773
1757491455287673900,11.077673828125,-2.2200987339019775,-0.06916366517543793,-1.4586988687515259
1757491455297710300,11.08771044921875,-2.3006536960601807,-0.14757025241851807,-1.787730097770691
1757491455307754800,11.097754638671875,-2.3799595832824707,0.17121879756450653,-1.8979789018630981
1757491455317796000,11.107796142578126,-2.4012598991394043,0.6222231984138489,-1.7614835500717163
1757491455327832000,11.11783203125,-2.3882365226745605,0.871881902217865,-1.4929893016815186
1757491455337877500,11.12787744140625,-2.3956642150878906,0.8357595801353455,-1.273890495300293
1757491455347917300,11.137917236328125,-2.416714668273926,0.634030818939209,-1.1519672870635986
1757491455357958100,11.147958251953124,-2.4505388736724854,0.28175076842308044,-1.0664827823638916
1757491455367995000,11.157994873046874,-2.487543821334839,-0.1271858662366867,-1.0061123371124268
1757491455378039600,11.16803955078125,-2.5189030170440674,-0.42302584648132324,-1.0187859535217285
1757491455388080400,11.178080322265625,-2.501499891281128,-0.6068350076675415,-1.0913137197494507
1757491455398116900,11.188116943359375,-2.422210454940796,-0.774872899055481,-1.1543821096420288
1757491455408161300,11.198161376953125,-2.3281493186950684,-0.973487377166748,-1.1699202060699463
1757491455418202600,11.20820263671875,-2.251757860183716,-1.12713623046875,-1.1669224500656128
1757491455428242700,11.21824267578125,-2.174616813659668,-1.2640646696090698,-1.1602941751480103
1757491455438279700,11.22827978515625,-2.0784904956817627,-1.429954171180725,-1.1589951515197754
1757491455448324000,11.238323974609376,-1.9537694454193115,-1.509043574333191,-1.1476038694381714
1757491455458361000,11.248361083984374,-1.8330620527267456,-1.4842625856399536,-1.1228728294372559
1757491455468410400,11.258410400390625,-1.7219971418380737,-1.3992611169815063,-1.097708821296692
1757491455478442000,11.26844189453125,-1.652633547782898,-1.1864575147628784,-1.0747097730636597
1757491455488482800,11.27848291015625,-1.5651673078536987,-0.9667591452598572,-1.0495123863220215
1757491455498527200,11.28852734375,-1.470922827720642,-0.8050497770309448,-0.991590142250061
1757491455508563700,11.298563720703125,-1.3659865856170654,-0.7004299163818359,-0.8850051760673523
1757491455518604800,11.308604736328125,-1.2993043661117554,-0.5007495880126953,-0.7574529051780701
1757491455528649200,11.318649169921875,-1.2245450019836426,-0.4611632823944092,-0.6195086240768433
1757491455538690000,11.32868994140625,-1.1163445711135864,-0.4928223490715027,-0.5069615244865417
1757491455548730600,11.338730712890625,-0.9864607453346252,-0.5841357111930847,-0.38527143001556396
1757491455558771700,11.348771728515626,-0.8890520334243774,-0.4897746741771698,-0.27668797969818115
1757491455568812000,11.35881201171875,-0.8367254734039307,-0.36608612537384033,-0.18845558166503906
1757491455578848800,11.368848876953125,-0.7856146693229675,-0.23781776428222656,-0.11096496880054474
1757491455588889300,11.378889404296874,-0.6591781973838806,-0.16610604524612427,-0.07875631749629974
1757491455598933800,11.388933837890624,-0.5417182445526123,-0.08423545211553574,-0.05943778529763222
1757491455608974300,11.398974365234375,-0.4326351284980774,-0.11374616622924805,-0.054508231580257416
1757491455619014400,11.409014404296874,-0.31146132946014404,-0.21050535142421722,0.02571362815797329
1757491455629055700,11.4190556640625,-0.1628585308790207,-0.2873298227787018,0.16615600883960724
1757491455639096600,11.4290966796875,0.047946590930223465,-0.3160744607448578,0.3076309263706207
1757491455649132800,11.4391328125,0.33124616742134094,-0.2810179889202118,0.42519083619117737
1757491455659178200,11.44917822265625,0.6606770753860474,-0.1972322016954422,0.4762350618839264
1757491455669218300,11.45921826171875,0.9992842674255371,-0.10250478237867355,0.5140393972396851
1757491455679259000,11.4692587890625,1.2341042757034302,0.02956068143248558,0.6276523470878601
1757491455689300000,11.479300048828126,1.2786368131637573,0.31717362999916077,0.9462915062904358
1757491455699340300,11.48934033203125,1.3410723209381104,0.8459017872810364,1.418113350868225
1757491455709381000,11.499381103515624,1.542617917060852,1.4601644277572632,1.7126209735870361
1757491455719417300,11.509417236328124,1.6746833324432373,1.7376683950424194,1.6897385120391846
1757491455729458200,11.519458251953125,1.6240721940994263,1.8586924076080322,1.4335681200027466
1757491455739499000,11.5294990234375,1.5451658964157104,1.6285021305084229,1.2134867906570435
1757491455749541400,11.539541259765626,1.5372719764709473,0.9954871535301208,1.0618196725845337
1757491455759584300,11.549584228515625,1.5497623682022095,0.6136131286621094,0.8656866550445557
1757491455769624800,11.559624755859375,1.5570068359375,0.3352930545806885,0.6684377789497375
1757491455779661800,11.569661865234375,1.6363461017608643,0.3128269612789154,0.5819706916809082
1757491455789706200,11.579706298828125,1.7992045879364014,0.555008053779602,0.558971643447876
1757491455799746600,11.58974658203125,1.99527108669281,0.8053495287895203,0.5538256168365479
1757491455809783800,11.59978369140625,2.1311001777648926,0.9824804663658142,0.568647563457489
1757491455819828200,11.609828125,2.1368625164031982,1.091613531112671,0.6154950261116028
1757491455829868800,11.619868896484375,2.0632855892181396,1.2113051414489746,0.685474693775177
1757491455839905500,11.629905517578125,1.997719168663025,1.2774378061294556,0.7758554816246033
1757491455849950000,11.639949951171875,1.8719987869262695,1.2460285425186157,0.854794979095459
1757491455859991000,11.649990966796874,1.6796962022781372,1.1521837711334229,0.9153319001197815
1757491455870031000,11.660031005859375,1.584985375404358,1.0227829217910767,0.9174302816390991
1757491455880067800,11.67006787109375,1.4937386512756348,0.8690174221992493,0.9023085832595825
1757491455890112300,11.6801123046875,1.4203282594680786,0.6968160271644592,0.9099193811416626
1757491455900153000,11.690153076171875,1.3754127025604248,0.47050613164901733,0.8929490447044373
1757491455910190300,11.7001904296875,1.3801257610321045,0.23755130171775818,0.8853215575218201
1757491455920234800,11.71023486328125,1.4141496419906616,0.1344636231660843,0.896296501159668
1757491455930275300,11.720275390625,1.4616632461547852,0.11671056598424911,0.9103190898895264
1757491455940316400,11.73031640625,1.537588357925415,0.06929689645767212,0.9176634550094604
1757491455950352600,11.7403525390625,1.6310334205627441,-0.08919831365346909,0.8997438549995422
1757491455960401400,11.7504013671875,1.7613835334777832,-0.24039912223815918,0.8427708745002747
1757491455970433500,11.76043359375,1.8836065530776978,-0.27940255403518677,0.7573529481887817
1757491455980475000,11.770474853515625,1.9280391931533813,-0.21058861911296844,0.6836594343185425
1757491455990517500,11.780517578125,1.8558611869812012,-0.09814146161079407,0.6387438774108887
1757491456000557000,11.79055712890625,1.7032780647277832,-0.015771247446537018,0.5997404456138611
1757491456010600400,11.800600341796875,1.5440168380737305,-0.02776205912232399,0.5634515881538391
1757491456020641000,11.81064111328125,1.458016037940979,-0.08641710877418518,0.5481299757957458
1757491456030681300,11.820681396484375,1.3956139087677002,-0.12493759393692017,0.5171037316322327
1757491456040718300,11.83071826171875,1.3473175764083862,-0.09407790750265121,0.4790162742137909
1757491456050762800,11.8407626953125,1.259135127067566,-0.05056125670671463,0.45759934186935425
1757491456060803600,11.850803466796876,1.0949609279632568,-0.01005895808339119,0.43864721059799194
1757491456070844400,11.860844482421875,0.9164310693740845,-0.004946209955960512,0.39706239104270935
1757491456080884700,11.870884765625,0.7240118384361267,0.02374846860766411,0.36097338795661926
1757491456090925600,11.880925537109375,0.6017721891403198,0.0868501141667366,0.33222874999046326
1757491456100961800,11.8909619140625,0.49293893575668335,0.17441634833812714,0.29229268431663513
1757491456111003100,11.901003173828125,0.33542630076408386,0.1763981580734253,0.24271400272846222
1757491456121047000,11.911047119140624,0.17000305652618408,0.0841355249285698,0.22078081965446472
1757491456131088100,11.921088134765625,0.09068050980567932,0.09604307264089584,0.24814318120479584
1757491456141128700,11.931128662109375,0.060220520943403244,0.10305435955524445,0.2292409986257553
1757491456151169300,11.941169189453126,-0.005562404170632362,-0.039353176951408386,0.10460317879915237
1757491456161206000,11.9512060546875,-0.03284149989485741,-0.09907408058643341,-0.024947550147771835
1757491456171251000,11.9612509765625,0.01342304702848196,-0.017136868089437485,-0.110382080078125
1757491456181287200,11.971287109375,0.05795558914542198,0.04524866119027138,-0.13338112831115723
1757491456191332000,11.98133203125,0.1256537139415741,0.14368988573551178,-0.10548583418130875
1757491456201373000,11.991373046875,0.2520901560783386,0.19649942219257355,-0.0588715523481369
1757491456211411500,12.001411376953126,0.3141925632953644,0.2077074944972992,0.01933518424630165
1757491456221450200,12.0114501953125,0.37309741973876953,0.2377678006887436,0.11123143136501312
1757491456231516200,12.02151611328125,0.46182942390441895,0.22128044068813324,0.24014930427074432
1757491456241533000,12.031532958984375,0.5816043019294739,0.19055397808551788,0.3421877920627594
1757491456251571200,12.0415712890625,0.7141693830490112,0.2124372124671936,0.38693681359291077
1757491456261616000,12.0516162109375,0.8629387617111206,0.259284645318985,0.4660428762435913
1757491456271656400,12.061656494140625,1.0228495597839355,0.2632482647895813,0.5708792209625244
1757491456281700000,12.0717001953125,1.1415419578552246,0.2188156545162201,0.6492358446121216
1757491456291735600,12.081735595703124,1.1765151023864746,0.2072911560535431,0.6600275635719299
1757491456301775000,12.091775146484375,1.154848337173462,0.1421743780374527,0.637661337852478
1757491456311815000,12.10181494140625,1.1163445711135864,0.1448056995868683,0.6047365665435791
1757491456321857800,12.11185791015625,1.0910139083862305,0.20256143808364868,0.5901311039924622
1757491456331897000,12.12189697265625,1.1067519187927246,0.18867208063602448,0.5733939409255981
1757491456341938700,12.131938720703126,1.1666226387023926,0.06426741927862167,0.5251142978668213
1757491456351981800,12.14198193359375,1.2443797588348389,-0.08819907903671265,0.48432886600494385
1757491456362024200,12.152024169921875,1.2839494943618774,-0.3099125027656555,0.48452872037887573
1757491456372060700,12.162060791015625,1.173051118850708,-0.7121542692184448,0.42072761058807373
1757491456382101000,12.17210107421875,0.8018688559532166,-1.264630913734436,0.12973392009735107
1757491456392181200,12.18218115234375,0.22106392681598663,-1.6454557180404663,-0.2879126965999603
1757491456402206200,12.192206298828125,-0.46905723214149475,-1.666589617729187,-0.5556575059890747
1757491456412227000,12.20222705078125,-1.1104823350906372,-1.435050368309021,-0.5769745111465454
1757491456422262800,12.2122626953125,-1.7192325592041016,-0.963594913482666,-0.4826135039329529
1757491456432307200,12.22230712890625,-2.1766154766082764,-0.38991788029670715,-0.3371250033378601
1757491456442348000,12.23234814453125,-2.3860549926757812,-0.4421611726284027,0.30771419405937195
1757491456452390400,12.242390380859375,-2.419046401977539,-0.6900045871734619,0.7360692620277405
1757491456462427100,12.25242724609375,-2.4605977535247803,-0.7750560641288757,0.6680047512054443
1757491456472466200,12.262466064453125,-2.286597728729248,-0.4638945162296295,0.07790696620941162
1757491456482507500,12.272507568359375,-2.052926778793335,-0.057006314396858215,-0.5139228701591492
1757491456492548400,12.28254833984375,-1.827915906906128,0.09790830314159393,-0.7092564702033997
1757491456502591500,12.292591552734375,-1.6799960136413574,0.026646247133612633,-0.683975875377655
1757491456512632600,12.302632568359375,-1.6808286905288696,-0.1475869119167328,-0.6361791491508484
1757491456522673200,12.312673095703126,-1.7142196893692017,-0.39316537976264954,-0.646654486656189
1757491456532713200,12.322713134765625,-1.621307611465454,-0.3808414936065674,-1.0539922714233398
1757491456542754300,12.33275439453125,-1.100540041923523,0.18450860679149628,-2.5592222213745117
1757491456552790800,12.342790771484376,-0.5466644167900085,-0.3910503387451172,-3.064551591873169
1757491456562835200,12.352835205078126,-0.2637978494167328,-0.6507846117019653,-3.008711099624634
1757491456572875800,12.362875732421875,-0.21038877964019775,-0.31014567613601685,-2.7094902992248535
1757491456582916600,12.37291650390625,-0.3089299201965332,0.17951244115829468,-2.228442430496216
1757491456592957200,12.382957275390625,-0.4406290054321289,0.38532140851020813,-1.6112819910049438
1757491456602998300,12.392998291015624,-0.507178008556366,0.06108652427792549,-0.9766849279403687
1757491456613034800,12.40303466796875,-0.4784833490848541,-0.6985980272293091,-0.5004664659500122
1757491456623075600,12.41307568359375,-0.4254240095615387,-1.28218412399292,-0.24719390273094177
1757491456633119500,12.423119384765625,-0.45808231830596924,-1.3810250759124756,-0.12705263495445251
1757491456643160600,12.43316064453125,-0.6037207245826721,-1.223395824432373,-0.079006128013134
1757491456653201000,12.443200927734376,-0.8339775800704956,-0.9824970960617065,-0.078789621591568
1757491456663242200,12.4532421875,-1.1065187454223633,-0.810478925704956,-0.11309666931629181
1757491456673282600,12.463282470703126,-1.339406967163086,-0.8129270672798157,-0.17073583602905273
1757491456683323100,12.4733232421875,-1.4035911560058594,-0.9584488868713379,-0.22989049553871155
1757491456693359900,12.48335986328125,-1.2340543270111084,-1.1098828315734863,-0.254071980714798
1757491456703409400,12.493409423828124,-0.9778839945793152,-1.0279122591018677,-0.20902316272258759
1757491456713441500,12.503441650390625,-0.8118112683296204,-0.6841923594474792,-0.09999004751443863
1757491456723481900,12.51348193359375,-0.8366255760192871,0.003247511340305209,-0.0910135880112648
1757491456733525500,12.523525390625,-1.1260204315185547,1.255171537399292,-0.5312762260437012
1757491456743562800,12.533562744140625,-1.2585855722427368,1.9730713367462158,-0.553758978843689
1757491456753608000,12.54360791015625,-1.0647673606872559,1.6773146390914917,-0.026995979249477386
1757491456763648500,12.5536484375,-0.7284584641456604,0.7266098856925964,0.4651269018650055
1757491456773688800,12.563688720703125,-0.3773774802684784,-0.19012098014354706,0.7066584825515747
1757491456783725800,12.573725830078125,-0.13359762728214264,-0.5749760866165161,0.7452289462089539
1757491456793770500,12.5837705078125,-0.005146056413650513,-0.6297840476036072,0.7915934324264526
1757491456803811000,12.59381103515625,0.1170436441898346,-0.6291179060935974,0.9288548827171326
1757491456813851400,12.603851318359375,0.275888592004776,-0.5215003490447998,1.062935471534729
1757491456823891700,12.6138916015625,0.36110660433769226,-0.147670179605484,1.0943447351455688
1757491456833932300,12.623932373046875,0.3641209602355957,0.26947683095932007,1.1026216745376587
1757491456843973000,12.63397314453125,0.346001535654068,0.5660329461097717,1.104087233543396
1757491456854009900,12.644009765625,0.3227693438529968,0.7435802221298218,1.0603541135787964
1757491456864054800,12.6540546875,0.29167649149894714,0.8389737606048584,0.9410955309867859
1757491456874095400,12.664095458984375,0.3777438700199127,0.7423311471939087,0.8361925482749939
1757491456884111000,12.674111083984375,0.5948108434677124,0.4474904239177704,0.7551546692848206
