time,seconds_elapsed,z,y,x
1757491444272998700,0.06299853515625,0.2095893919467926,0.5296275019645691,0.5472639799118042
1757491444293102300,0.083102294921875,0.20372721552848816,0.6552645564079285,0.603570818901062
1757491444303146800,0.093146728515625,0.19316864013671875,0.6135798096656799,0.605552613735199
1757491444313177900,0.103177734375,0.18109455704689026,0.3887854218482971,0.5365721583366394
1757491444323223800,0.113223876953125,0.13296477496623993,0.12437136471271515,0.41108497977256775
1757491444333246000,0.123245849609375,0.05973755568265915,-0.04842955619096756,0.26542994379997253
1757491444343309600,0.1333095703125,0.04529862105846405,-0.12473774701356888,0.11929192394018173
1757491444353350700,0.1433505859375,0.03767113387584686,-0.08843223750591278,-0.0012490428052842617
1757491444363384300,0.15338427734375,0.003663859097287059,-0.057922281324863434,-0.06321822106838226
1757491444373419300,0.163419189453125,-0.011591117829084396,-0.06313495337963104,-0.0646338015794754
1757491444383427300,0.17342724609375,-0.007344372104853392,-0.04842955619096756,-0.04128503054380417
1757491444393510400,0.183510498046875,0.014372319914400578,-0.07687442749738693,-0.009276225231587887
1757491444403552000,0.193552001953125,0.04213437810540199,-0.12580358982086182,0.03200880438089371
1757491444413569000,0.203569091796875,0.05059456452727318,-0.15906144678592682,0.08020520210266113
1757491444423631000,0.213631103515625,0.028045175597071648,-0.197715163230896,0.1282350718975067
1757491444433676000,0.223676025390625,-0.028628062456846237,-0.23635222017765045,0.17020291090011597
1757491444443716400,0.23371630859375,-0.09307867288589478,-0.27475613355636597,0.1984146237373352
1757491444453734000,0.24373388671875,-0.11546152085065842,-0.29912078380584717,0.20587557554244995
1757491444463798000,0.253798095703125,-0.07814012467861176,-0.31659072637557983,0.18329288065433502
1757491444473838600,0.263838623046875,-0.0021316998172551394,-0.3255838453769684,0.14996841549873352
1757491444483853600,0.273853515625,0.08881527185440063,-0.2911435663700104,0.12223966419696808
1757491444493919500,0.28391943359375,0.14708729088306427,-0.26314833760261536,0.09864107519388199
1757491444503960800,0.2939609375,0.1639077365398407,-0.24288055300712585,0.08451856672763824
1757491444514001400,0.30400146484375,0.16667227447032928,-0.2431803196668625,0.10585221648216248
1757491444524017000,0.314016845703125,0.16785471141338348,-0.21879899501800537,0.1556473970413208
1757491444534082800,0.324082763671875,0.16006067395210266,-0.20141232013702393,0.19706565141677856
1757491444544123400,0.334123291015625,0.14004269242286682,-0.17884628474712372,0.19898085296154022
1757491444554148000,0.344148193359375,0.10973257571458817,-0.16514012217521667,0.1548813134431839
1757491444564205300,0.354205322265625,0.07044601440429688,-0.15005168318748474,0.08473506569862366
1757491444574222600,0.36422265625,0.02529728226363659,-0.1432901918888092,0.01828598789870739
1757491444584287500,0.37428759765625,-0.014605474658310413,-0.15243318676948547,-0.021450228989124298
1757491444594323500,0.384323486328125,-0.03993606194853783,-0.16690543293952942,-0.0379042886197567
1757491444604342500,0.394342529296875,-0.05770577862858772,-0.19824808835983276,-0.028994448482990265
1757491444614408400,0.404408447265625,-0.07600842416286469,-0.21233728528022766,0.00687806261703372
1757491444624429600,0.4144296875,-0.09361159801483154,-0.2224961668252945,0.07016289979219437
1757491444634486500,0.424486572265625,-0.08868204057216644,-0.18094468116760254,0.1514173001050949
1757491444644527400,0.43452734375,-0.057722434401512146,-0.15621362626552582,0.2036772519350052
1757491444654572500,0.444572509765625,-0.06554976850748062,-0.18630723655223846,0.20960605144500732
1757491444664608500,0.4546083984375,-0.10077277570962906,-0.3071812689304352,0.18990448117256165
1757491444674620200,0.4646201171875,-0.15331584215164185,-0.5491291880607605,0.17233461141586304
1757491444684693500,0.474693603515625,-0.24626128375530243,-0.7617995738983154,0.190220907330513
1757491444694734300,0.484734375,-0.35977429151535034,-0.8598244786262512,0.2233288586139679
1757491444704755700,0.494755615234375,-0.40367400646209717,-0.8706827759742737,0.24709399044513702
1757491444714812200,0.504812255859375,-0.33569276332855225,-0.8211707472801208,0.26233232021331787
1757491444724834600,0.51483447265625,-0.1345468908548355,-0.6883225440979004,0.23703502118587494
1757491444734893300,0.524893310546875,0.022432809695601463,-0.5281286239624023,0.17937920987606049
1757491444744938200,0.534938232421875,0.07086236774921417,-0.4639444947242737,0.12701933085918427
1757491444754978800,0.544978759765625,0.02997702918946743,-0.4619959592819214,0.1341305524110794
1757491444765019100,0.55501904296875,-0.08263667672872543,-0.453669011592865,0.17108556628227234
1757491444775053600,0.565053466796875,-0.2245779037475586,-0.5729109644889832,0.17539893090724945
1757491444785101000,0.57510107421875,-0.34463590383529663,-0.7816843390464783,0.15621362626552582
1757491444795116000,0.585115966796875,-0.38948488235473633,-0.9506714940071106,0.14209111034870148
1757491444805182200,0.59518212890625,-0.37111562490463257,-1.0333747863769531,0.13839395344257355
1757491444815199700,0.60519970703125,-0.347883403301239,-1.0302605628967285,0.1416248083114624
1757491444825238000,0.615238037109375,-0.358142226934433,-0.855277955532074,0.11104823648929596
1757491444835304000,0.625303955078125,-0.38110795617103577,-0.5382708311080933,0.04433269426226616
1757491444845320200,0.6353203125,-0.41075190901756287,-0.22341212630271912,-0.05587385222315788
1757491444855387000,0.645386962890625,-0.4346502721309662,0.012307235971093178,-0.19093701243400574
1757491444865421800,0.655421875,-0.45198696851730347,0.14152488112449646,-0.33486005663871765
1757491444875464000,0.6654638671875,-0.4652768075466156,0.16843760013580322,-0.4378478229045868
1757491444885504000,0.67550390625,-0.45288628339767456,0.13549616932868958,-0.4777505695819855
1757491444895519500,0.68551953125,-0.41498199105262756,0.0841355249285698,-0.4459083080291748
1757491444905564000,0.69556396484375,-0.3607235848903656,0.02947741188108921,-0.340439110994339
1757491444915604700,0.705604736328125,-0.302401602268219,-0.002381508471444249,-0.19573333859443665
1757491444925645300,0.715645263671875,-0.26626262068748474,0.015171707607805729,-0.05777239426970482
1757491444935713000,0.725713134765625,-0.267828106880188,0.013522970490157604,0.025164050981402397
1757491444945733400,0.7357333984375,-0.2796856760978699,0.02468108758330345,0.0502614863216877
1757491444955793700,0.745793701171875,-0.30494964122772217,0.08408556878566742,0.035755932331085205
1757491444965829600,0.75582958984375,-0.3340440094470978,0.18649043142795563,-0.013739471323788166
1757491444975849000,0.765848876953125,-0.36478713154792786,0.26100000739097595,-0.09456086903810501
1757491444985915600,0.77591552734375,-0.3810080289840698,0.2873631417751312,-0.17048601806163788
1757491444995932400,0.785932373046875,-0.3609234392642975,0.32008805871009827,-0.2020951360464096
1757491445005965800,0.7959658203125,-0.3121941089630127,0.3197716176509857,-0.19260241091251373
1757491445016013600,0.806013671875,-0.2672951817512512,0.25119084119796753,-0.15504784882068634
1757491445026052900,0.816052978515625,-0.24491232633590698,0.1164274513721466,-0.08784934878349304
1757491445036093000,0.826093017578125,-0.24014930427074432,0.014189126901328564,0.019718224182724953
1757491445046155500,0.836155517578125,-0.25160717964172363,-0.05314261093735695,0.14244084060192108
1757491445056189400,0.846189453125,-0.2654798924922943,-0.08182063698768616,0.21115486323833466
1757491445066238000,0.856238037109375,-0.2590681314468384,-0.04466577246785164,0.18865543603897095
1757491445076277500,0.866277587890625,-0.2334710955619812,0.05081106349825859,0.09907408058643341
1757491445086323500,0.876323486328125,-0.19964700937271118,0.16888724267482758,-0.004080206621438265
1757491445096337700,0.886337646484375,-0.174183189868927,0.26119983196258545,-0.08505149185657501
1757491445106382300,0.89638232421875,-0.1692536324262619,0.28681355714797974,-0.12835164368152618
1757491445116418600,0.90641845703125,-0.16928693652153015,0.22669295966625214,-0.13346439599990845
1757491445126493400,0.916493408203125,-0.1652899980545044,0.13965964317321777,-0.10786734521389008
1757491445136549400,0.92654931640625,-0.1593945175409317,0.07192821800708771,-0.06684877723455429
1757491445146579200,0.9365791015625,-0.14457254111766815,0.003214203519746661,-0.03147587925195694
1757491445156580400,0.946580322265625,-0.1278020590543747,-0.05449157580733299,-0.010658498853445053
1757491445166648800,0.95664892578125,-0.12169007956981659,-0.07264433056116104,0.0007494257297366858
1757491445176689000,0.96668896484375,-0.110382080078125,-0.038470521569252014,0.003147588111460209
1757491445186693000,0.976693115234375,-0.07752392441034317,0.016920367255806923,-0.012290582060813904
1757491445196770300,0.986770263671875,-0.04015256464481354,0.06430072337388992,-0.04140160605311394
1757491445206816500,0.99681640625,-0.013806086964905262,0.09857445955276489,-0.0737934559583664
1757491445216848000,1.006847900390625,0.010541921481490135,0.09835796058177948,-0.10853349417448044
1757491445226871800,1.016871826171875,0.033374425023794174,0.0915631651878357,-0.12675286829471588
1757491445236893000,1.026892822265625,0.02429804764688015,0.07415983825922012,-0.11984150111675262
1757491445246974000,1.036973876953125,0.0001332312385784462,0.06813112646341324,-0.0917130559682846
1757491445257014500,1.0470146484375,-0.007177833002060652,0.05760585516691208,-0.06328483670949936
1757491445267051300,1.05705126953125,0.0008493491332046688,0.053159262984991074,-0.06768146902322769
1757491445277092000,1.067092041015625,0.013906010426580906,0.07197817414999008,-0.09471075981855392
1757491445287114500,1.077114501953125,0.042733918875455856,0.11126473546028137,-0.12152354419231415
1757491445297143000,1.08714306640625,0.06651569902896881,0.11006565392017365,-0.1399594098329544
1757491445307192600,1.097192626953125,0.06032044440507889,0.06967993825674057,-0.13066653907299042
1757491445317258800,1.1072587890625,0.03397396579384804,0.02651301585137844,-0.098857581615448
1757491445327308800,1.117308837890625,0.003180895932018757,-0.01670386642217636,-0.0708790197968483
1757491445337336300,1.12733642578125,-0.01657063513994217,-0.04696401208639145,-0.07527565211057663
1757491445347377200,1.137377197265625,-0.0185357965528965,-0.040352411568164825,-0.1092662662267685
1757491445357383000,1.1473828125,-0.009909073822200298,-0.026229899376630783,-0.14124177396297455
1757491445367458800,1.157458740234375,-0.014322358183562756,-0.02125038206577301,-0.14605474472045898
1757491445377499600,1.167499755859375,-0.018968798220157623,-0.01845252700150013,-0.1216234639286995
1757491445387540700,1.177540771484375,-0.00979249645024538,-0.025280628353357315,-0.08794926851987839
1757491445397559300,1.187559326171875,0.002481431933119893,-0.025563744828104973,-0.05815543606877327
1757491445407608000,1.197608154296875,0.004396630916744471,-0.021150458604097366,-0.03933652490377426
1757491445417665800,1.207665771484375,-0.003963629249483347,-0.011707695201039314,-0.0313093401491642
1757491445427686700,1.217686767578125,-0.011824272572994232,0.0038470521103590727,-0.041351646184921265
1757491445437747500,1.22774755859375,-0.0045132082886993885,0.03419046476483345,-0.06348468363285065
1757491445447788300,1.237788330078125,0.011008230969309807,0.057172853499650955,-0.0720614492893219
1757491445457799000,1.247798828125,0.035755932331085205,0.04305034503340721,-0.043566614389419556
1757491445467869400,1.257869384765625,0.07052928954362869,-0.12651970982551575,-0.05622358247637749
1757491445477869600,1.26786962890625,0.1153782531619072,-0.12203981727361679,-0.0744929164648056
1757491445487951000,1.277951171875,0.10678483545780182,-0.023598583415150642,-0.1033707857131958
1757491445497991700,1.28799169921875,0.12467113137245178,0.048995789140462875,-0.13541290163993835
1757491445508007200,1.298007080078125,0.10716787725687027,0.04906240478157997,-0.2156347632408142
1757491445518073600,1.308073486328125,0.09484399110078812,-0.004096860531717539,-0.205209419131279
1757491445528074800,1.31807470703125,-0.018269333988428116,-0.025147397071123123,-0.10340409725904465
1757491445538140000,1.328139892578125,-0.14205780625343323,-0.09702564775943756,0.03513973951339722
1757491445548192800,1.33819287109375,-0.18199387192726135,-0.32826513051986694,0.11109820008277893
1757491445558255600,1.348255615234375,-0.16420750319957733,-0.5606870055198669,0.13576263189315796
1757491445568277200,1.35827734375,-0.0679645836353302,-0.7622991800308228,0.13459685444831848
1757491445578312700,1.368312744140625,0.01795290969312191,-1.013390064239502,0.12986715137958527
1757491445588358100,1.378358154296875,0.10678483545780182,-1.290411114692688,0.16628924012184143
1757491445598404900,1.38840478515625,0.2344370186328888,-1.4950543642044067,0.2326384037733078
1757491445608435200,1.398435302734375,0.477683961391449,-1.7917269468307495,0.33910679817199707
1757491445618476500,1.4084765625,1.031842589378357,-2.332012891769409,0.45698314905166626
1757491445628496000,1.418495849609375,1.6697871685028076,-2.9240925312042236,0.5599709153175354
1757491445638557700,1.4285576171875,1.9989848136901855,-3.4317703247070312,0.6088501214981079
1757491445648580600,1.43858056640625,1.9998341798782349,-3.712938070297241,0.5576726794242859
1757491445658618000,1.4486181640625,2.0616369247436523,-3.833845376968384,0.5146722793579102
1757491445668680200,1.45868017578125,2.3011531829833984,-3.979184150695801,0.5807049870491028
1757491445678724600,1.468724609375,2.515688896179199,-3.9858455657958984,0.7464280128479004
1757491445688765400,1.478765380859375,2.39747953414917,-3.66184401512146,0.9014925360679626
1757491445698780400,1.488780517578125,1.8139599561691284,-3.185692071914673,0.9049898386001587
1757491445708842800,1.4988427734375,1.0937784910202026,-2.802319288253784,0.7460949420928955
1757491445718887400,1.508887451171875,0.7710092067718506,-2.663292407989502,0.5572729706764221
1757491445728902700,1.518902587890625,0.953302800655365,-2.7119884490966797,0.39637959003448486
1757491445738969000,1.528968994140625,1.52106773853302,-2.8677525520324707,0.22217974066734314
1757491445748984300,1.538984375,2.278104305267334,-3.2269272804260254,-0.0037970903795212507
1757491445759050500,1.549050537109375,2.9379985332489014,-3.6645750999450684,-0.3073977828025818
1757491445769073000,1.559072998046875,3.2870144844055176,-4.16715669631958,-0.6622258424758911
1757491445779128000,1.569128173828125,3.5130913257598877,-4.859476089477539,-0.9757189750671387
1757491445789150000,1.57914990234375,3.84945011138916,-5.796525001525879,-1.1604607105255127
1757491445799209200,1.589209228515625,4.307715892791748,-6.818058490753174,-1.1883893013000488
1757491445809254100,1.599254150390625,4.843754768371582,-7.698317527770996,-1.0599544048309326
1757491445819280000,1.60927978515625,5.3537139892578125,-8.143393516540527,-0.7912270426750183
1757491445829335300,1.619335205078125,5.606637001037598,-7.463181018829346,-0.434600293636322
1757491445839375600,1.629375732421875,5.562920570373535,-6.005281448364258,-0.1772308498620987
1757491445849391000,1.63939111328125,5.534075736999512,-4.914866924285889,-0.23931661248207092
1757491445859453400,1.649453369140625,5.507030010223389,-3.9902923107147217,-0.4623457193374634
1757491445869475600,1.6594755859375,5.392301082611084,-3.1082847118377686,-0.6787298917770386
1757491445879537400,1.669537353515625,5.2051777839660645,-2.3946149349212646,-0.800536572933197
1757491445889579500,1.67957958984375,5.004481792449951,-2.1300010681152344,-0.733371376991272
1757491445899642400,1.689642333984375,4.762717247009277,-2.2852156162261963,-0.4749360680580139
1757491445909661200,1.6996611328125,4.386655330657959,-2.521317958831787,-0.07371018081903458
1757491445919711500,1.70971142578125,3.9381821155548096,-2.882974147796631,0.42289260029792786
1757491445929741600,1.719741455078125,3.466177225112915,-3.12229061126709,0.9823139309883118
1757491445939751000,1.7297509765625,3.0641019344329834,-3.230574369430542,1.541735291481018
1757491445949824000,1.739823974609375,2.7411327362060547,-3.259402275085449,2.056623935699463
1757491445959864800,1.74986474609375,2.4537696838378906,-3.1140804290771484,2.5314934253692627
1757491445969885000,1.759885009765625,2.1520841121673584,-2.590514898300171,2.9166815280914307
1757491445979946000,1.769946044921875,1.8118115663528442,-2.336359739303589,2.9807324409484863
1757491445989982500,1.779982421875,1.3773945569992065,-2.533458709716797,2.7106728553771973
1757491446000027600,1.790027587890625,0.8393734693527222,-2.780369520187378,2.274407148361206
1757491446010042600,1.800042724609375,0.32436808943748474,-2.949756383895874,1.8487666845321655
1757491446020131000,1.810131103515625,-0.08551780134439468,-2.8883867263793945,1.5151222944259644
1757491446030149600,1.820149658203125,-0.49841806292533875,-2.327166795730591,1.2181165218353271
1757491446040164900,1.830164794921875,-0.9324854612350464,-1.3234691619873047,0.9754025340080261
1757491446050206700,1.840206787109375,-1.28767991065979,-0.5470807552337646,0.596776008605957
1757491446060271900,1.85027197265625,-1.4916735887527466,-0.01645405776798725,-0.15456488728523254
1757491446070312700,1.860312744140625,-1.3959969282150269,0.6668056845664978,-1.6541824340820312
1757491446080349400,1.870349365234375,-0.9239253401756287,1.2821674346923828,-3.131150722503662
1757491446090369300,1.880369384765625,-0.4710890054702759,1.8766785860061646,-4.136813163757324
1757491446100430600,1.8904306640625,-0.5826035737991333,0.9102691411972046,-4.0757598876953125
1757491446110484700,1.900484619140625,-1.285831332206726,0.5098925828933716,-3.2965238094329834
1757491446120512500,1.910512451171875,-1.7290749549865723,1.053126335144043,-2.4989850521087646
1757491446130555400,1.920555419921875,-1.5773578882217407,1.0822373628616333,-2.1900551319122314
1757491446140572700,1.93057275390625,-1.0131570100784302,0.46600955724716187,-2.5122082233428955
1757491446150634200,1.94063427734375,-0.5745097398757935,0.42489108443260193,-3.018137216567993
1757491446160669400,1.95066943359375,-0.3178897500038147,1.033424735069275,-3.240949869155884
1757491446170694100,1.960694091796875,-0.24161484837532043,1.3320626020431519,-3.2804694175720215
1757491446180756200,1.970756103515625,-0.5030145645141602,1.161393404006958,-3.1483707427978516
1757491446190776000,1.980776123046875,-1.0339909791946411,0.8349102139472961,-2.729891538619995
1757491446200842000,1.990842041015625,-1.5536926984786987,0.28071820735931396,-1.943877100944519
1757491446210882600,2.000882568359375,-1.9156986474990845,-0.24667763710021973,-1.1796460151672363
1757491446220925700,2.01092578125,-1.9067388772964478,-0.3505646884441376,-0.8666025996208191
1757491446230941400,2.02094140625,-1.6088837385177612,-0.2909603714942932,-0.7720750570297241
1757491446241000400,2.03100048828125,-1.613080620765686,-0.16775478422641754,-0.6499686241149902
1757491446291182600,2.0811826171875,-0.5487794876098633,-1.284332513809204,1.8634886741638184
1757491446311272700,2.101272705078125,-0.08653368800878525,-1.2038441896438599,2.242065191268921
1757491446351413200,2.141413330078125,0.37409666180610657,0.0424174964427948,0.7269929051399231
1757491446361476600,2.1514765625,0.6539322137832642,0.24229766428470612,0.25725287199020386
1757491446371496700,2.16149658203125,0.9770179986953735,0.28598085045814514,-0.12135700136423111
1757491446381548300,2.17154833984375,1.3224365711212158,0.06131967902183533,-0.40906986594200134
1757491446391591200,2.181591064453125,1.7336381673812866,-0.22494429349899292,-0.5815543532371521
1757491446401631000,2.191630859375,2.1761324405670166,-0.26722854375839233,-0.6310331225395203
1757491446411671600,2.201671630859375,2.6895222663879395,-0.2215968519449234,-0.5992574691772461
1757491446421727200,2.211727294921875,3.1563479900360107,-0.15594716370105743,-0.5808049440383911
1757491446431752200,2.221752197265625,3.5434513092041016,-0.13369755446910858,-0.5930955410003662
1757491446441782300,2.2317822265625,3.880692958831787,-0.34160488843917847,-0.7072913646697998
1757491446451840300,2.24184033203125,4.282018661499023,-0.5365055203437805,-0.9846954345703125
1757491446461884400,2.251884521484375,4.496454238891602,-0.22644314169883728,-1.1492693424224854
1757491446471903700,2.26190380859375,4.544267654418945,0.9933221340179443,-1.0221667289733887
1757491446481957000,2.27195703125,4.504648208618164,2.2711596488952637,-0.5789063572883606
1757491446492024600,2.282024658203125,3.8421225547790527,2.957034111022949,-0.15486465394496918
1757491446502037000,2.292037109375,2.412001609802246,3.3384251594543457,-0.2008294314146042
1757491446512104700,2.302104736328125,1.0096096992492676,3.4366164207458496,-1.0396699905395508
1757491446522200600,2.31220068359375,0.42184340953826904,2.652384042739868,-1.6358131170272827
1757491446532202800,2.32220263671875,0.5188690423965454,1.7463951110839844,-1.418113350868225
1757491446542225700,2.3322255859375,0.9115181565284729,1.1328985691070557,-0.9602808356285095
1757491446552267000,2.34226708984375,1.0467145442962646,0.6183595061302185,-0.6359626650810242
1757491446562303700,2.3523037109375,0.7475438117980957,0.27107560634613037,-0.34645119309425354
1757491446572348700,2.3623486328125,0.5207176208496094,0.420227974653244,-0.16227564215660095
1757491446582391300,2.372391357421875,0.6287848353385925,0.5140560865402222,-0.050827719271183014
1757491446592425000,2.382425048828125,0.8246514201164246,0.47668471932411194,0.16427411139011383
1757491446602467000,2.392467041015625,1.097442388534546,-0.029277564957737923,0.3349766433238983
1757491446612508200,2.402508056640625,1.5796061754226685,-0.8896016478538513,0.324701189994812
1757491446622549800,2.4125498046875,2.2347540855407715,-2.2543725967407227,0.45060470700263977
1757491446632588300,2.42258837890625,2.373664379119873,-4.000734329223633,1.1083673238754272
1757491446642633000,2.432633056640625,2.5911643505096436,-5.4969377517700195,2.346068859100342
1757491446652674600,2.442674560546875,1.722763180732727,-7.1823296546936035,3.4526209831237793
1757491446662711000,2.4527109375,0.9846954345703125,-6.2369537353515625,3.5768423080444336
1757491446672755500,2.46275537109375,0.6772976517677307,-3.319589614868164,2.907355546951294
1757491446682796500,2.472796630859375,0.09930723160505295,-1.3932490348815918,2.1581461429595947
1757491446692832300,2.482832275390625,-0.7796359062194824,-0.5053128004074097,1.59083092212677
1757491446702877700,2.492877685546875,-1.035906195640564,0.2799021899700165,1.2315562963485718
1757491446712918800,2.502918701171875,0.10097262263298035,2.2998876571655273,-0.022616002708673477
1757491446722959000,2.512958984375,2.125154733657837,2.9605979919433594,-2.0876502990722656
1757491446732999700,2.522999755859375,3.054342746734619,2.1800460815429688,-2.9646947383880615
1757491446743039700,2.533039794921875,2.386371374130249,3.0337586402893066,-3.1337485313415527
1757491446753077800,2.543077880859375,1.113280177116394,4.790229320526123,-3.0107927322387695
1757491446763122000,2.553121826171875,0.06045367568731308,5.297024250030518,-3.299121856689453
1757491446773162200,2.563162353515625,-0.3425208628177643,3.835627317428589,-3.690105676651001
1757491446783203000,2.573203125,-0.28058499097824097,2.8370094299316406,-2.8954646587371826
1757491446793243400,2.583243408203125,-0.1067681834101677,2.068981170654297,-1.5864343643188477
1757491446803284500,2.593284423828125,-0.11228062957525253,0.9859444499015808,-0.4467909634113312
1757491446813325600,2.60332568359375,-0.2557706832885742,0.2606835663318634,0.09997338801622391
1757491446823362600,2.613362548828125,-0.3727310299873352,-0.008460183627903461,0.19027085602283478
1757491446833409300,2.6234091796875,-0.42705607414245605,-0.20409360527992249,0.11063189059495926
1757491446843443000,2.63344287109375,-0.3723146915435791,-0.4720882475376129,-0.040435679256916046
1757491446853485000,2.643485107421875,-0.15618032217025757,-0.5848351716995239,-0.21008901298046112
1757491446863527700,2.653527587890625,0.09187959134578705,-0.5182029008865356,-0.23563610017299652
1757491446873575200,2.6635751953125,0.2832329571247101,-0.4602140188217163,0.1161443293094635
1757491446883606300,2.673606201171875,0.42046114802360535,-0.5777239799499512,0.5648505091667175
1757491446893646600,2.683646484375,0.4299372136592865,-0.7297241687774658,0.7259270548820496
1757491446903691800,2.69369189453125,0.2097892463207245,-0.5897647142410278,0.606784999370575
1757491446913732600,2.703732666015625,-0.07056259363889694,-0.1337808221578598,0.3039171099662781
1757491446923773200,2.713773193359375,-0.2212471216917038,0.45113763213157654,-0.06396764516830444
1757491446933813800,2.723813720703125,-0.17776377499103546,0.8622892498970032,-0.28126779198646545
1757491446943854300,2.733854248046875,-0.012673621997237206,0.7958068251609802,-0.24379651248455048
1757491446953895700,2.743895751953125,0.24044907093048096,0.5577559471130371,-0.026529669761657715
1757491446963932000,2.753931884765625,0.4493723213672638,0.36761829257011414,0.36137306690216064
1757491446973976800,2.763976806640625,0.529127836227417,0.433467835187912,0.5610700249671936
1757491446984017400,2.774017333984375,0.5451489090919495,0.6074011921882629,0.7493091225624084
1757491446994057200,2.78405712890625,0.5174368023872375,0.7763717174530029,0.78901207447052
1757491447004099000,2.79409912109375,0.4993007183074951,0.456383615732193,0.4765681326389313
1757491447014135600,2.804135498046875,0.4009760618209839,-0.012290582060813904,0.1657063513994217
1757491447024180700,2.8141806640625,0.1541818529367447,-0.10971592366695404,-0.04090198874473572
1757491447034216400,2.824216552734375,-0.12020788341760635,-0.10143893212080002,-0.16690543293952942
1757491447044261400,2.834261474609375,0.15521439909934998,-0.44032925367355347,-0.3487161099910736
1757491447054303000,2.844302978515625,0.5733273029327393,-0.38781946897506714,-0.42387518286705017
1757491447064343300,2.85434326171875,1.0676652193069458,-0.0011990811908617616,-0.26814451813697815
1757491447074384100,2.864384033203125,1.5305438041687012,0.2555375099182129,0.008543453179299831
1757491447084420900,2.8744208984375,1.6863744258880615,0.19130340218544006,0.21546822786331177
1757491447094461000,2.8844609375,1.523615837097168,-0.1452386975288391,0.4501217305660248
1757491447104501800,2.894501708984375,1.2213140726089478,-0.6004232168197632,0.6864739656448364
1757491447114545400,2.90454541015625,1.0616531372070312,-1.084135890007019,0.9594314694404602
1757491447124583400,2.91458349609375,0.9726046919822693,-1.3372752666473389,1.240882396697998
1757491447134628000,2.924628173828125,0.9267065525054932,-1.6527001857757568,1.4301873445510864
1757491447144669000,2.9346689453125,1.0347737073898315,-2.061237096786499,1.6611437797546387
1757491447154710000,2.9447099609375,1.3426544666290283,-2.552394151687622,2.0311434268951416
1757491447164750000,2.95475,1.7022455930709839,-3.3115124702453613,2.614529848098755
1757491447174791200,2.964791259765625,1.9375652074813843,-3.9097540378570557,3.1197094917297363
1757491447184831500,2.97483154296875,2.074160575866699,-3.698782205581665,3.163309335708618
1757491447204913200,2.9949130859375,2.988826274871826,-3.186608076095581,1.8437371253967285
1757491447214953700,3.00495361328125,3.466310501098633,-1.1627756357192993,0.29454097151756287
1757491447224994800,3.014994873046875,3.5748772621154785,1.495187520980835,-0.9511211514472961
1757491447235035000,3.025034912109375,3.2970569133758545,3.026014566421509,-0.68980473279953
1757491447245076000,3.035075927734375,4.976953029632568,1.3837729692459106,0.4125005602836609
1757491447255116500,3.045116455078125,6.184027671813965,-1.75137460231781,1.1799625158309937
1757491447265153300,3.0551533203125,5.779387950897217,-3.1093506813049316,1.152750015258789
1757491447275198500,3.065198486328125,5.137146949768066,-2.853163719177246,0.9603807330131531
1757491447285239000,3.075239013671875,4.158713340759277,-1.6929693222045898,0.7697601318359375
1757491447295278600,3.085278564453125,2.692270278930664,-0.5396864414215088,0.5616362690925598
1757491447305320400,3.095320556640625,1.2049100399017334,-0.1749492734670639,0.3480333089828491
1757491447315361300,3.105361328125,0.051327332854270935,-0.21463552117347717,0.17143529653549194
1757491447325406500,3.115406494140625,-0.5413851141929626,-0.24226436018943787,0.10805053263902664
1757491447335438000,3.12543798828125,-0.822752833366394,-0.2976885437965393,0.11779306828975677
1757491447345479000,3.13547900390625,-1.006145715713501,-0.2701096832752228,0.09857445955276489
1757491447355520800,3.145520751953125,-1.214186191558838,-0.28273335099220276,0.060770098119974136
1757491447365574100,3.15557421875,-1.3949977159500122,-0.4026414453983307,0.03210872784256935
1757491447375605200,3.165605224609375,-1.5511447191238403,-0.45481812953948975,-0.060636866837739944
1757491447385646000,3.17564599609375,-1.7579362392425537,-0.3818906843662262,-0.22662633657455444
1757491447395686400,3.185686279296875,-1.8617067337036133,-0.03234188258647919,-0.4351498782634735
1757491447405723000,3.195722900390625,-1.708357572555542,0.4331347644329071,-0.47446975111961365
1757491447415767600,3.205767578125,-1.2629655599594116,0.5518937706947327,-0.32688283920288086
1757491447425808400,3.215808349609375,-0.6177599430084229,0.18510815501213074,-0.10879995673894882
1757491447435849700,3.225849609375,-0.13263170421123505,-0.20470979809761047,0.057222817093133926
1757491447445889800,3.235889892578125,-0.0869167298078537,-0.07472606748342514,0.1279352903366089
1757491447455931000,3.245930908203125,-0.29598984122276306,0.18907177448272705,0.08951473981142044
1757491447465945900,3.25594580078125,-0.4706726670265198,0.35006508231163025,0.007427641656249762
1757491447475986400,3.265986328125,-0.46829116344451904,0.2756054699420929,0.02299904264509678
1757491447486027300,3.27602734375,-0.35834208130836487,0.17478273808956146,0.07500918954610825
1757491447496110000,3.286110107421875,-0.24248085916042328,0.12220635265111923,0.081637442111969
1757491447506115800,3.29611572265625,-0.17854651808738708,0.054624807089567184,0.07304402440786362
1757491447516170800,3.306170654296875,-0.1876561939716339,0.035589393228292465,0.04643108695745468
1757491447526212000,3.316212158203125,-0.2147187888622284,0.06106986850500107,0.016254210844635963
1757491447536254000,3.32625390625,-0.2342371642589569,0.08037174493074417,0.01219065859913826
1757491447546295300,3.33629541015625,-0.25620368123054504,0.10686811059713364,0.028411561623215675
1757491447556338200,3.346338134765625,-0.2588849365711212,0.14920233190059662,0.04518204554915428
1757491447566374400,3.35637451171875,-0.2212471216917038,0.20960605144500732,0.049079056829214096
1757491447576416800,3.366416748046875,-0.1929188370704651,0.26524674892425537,0.04353330656886101
1757491447586456000,3.3764560546875,-0.19115352630615234,0.282333642244339,0.03472338989377022
1757491447596497000,3.386496826171875,-0.19628292322158813,0.2538221776485443,0.030493300408124924
1757491447606539300,3.396539306640625,-0.17768050730228424,0.17255111038684845,0.036671899259090424
1757491447616582000,3.406581787109375,-0.13659532368183136,0.11654402315616608,0.051826950162649155
1757491447626623000,3.416623046875,-0.06406757235527039,-0.007794027682393789,0.0535256490111351
1757491447636659500,3.426659423828125,-0.0038803599309176207,-0.08814911544322968,0.02621324546635151
1757491447646700000,3.436699951171875,0.02521401271224022,-0.1590447872877121,-0.00646171486005187
1757491447656745200,3.4467451171875,0.06375114619731903,-0.24875937402248383,-0.04807982221245766
1757491447666785300,3.456785400390625,0.03620558977127075,-0.2480432540178299,-0.09204613417387009
1757491447676826400,3.466826416015625,-0.02834494598209858,-0.3379576802253723,-0.08956470340490341
1757491447686867500,3.476867431640625,-0.1258535534143448,-0.3188556730747223,-0.027612173929810524
1757491447696907300,3.4869072265625,-0.25885164737701416,-0.16610604524612427,0.07404325902462006
1757491447706944800,3.49694482421875,-0.4032243490219116,0.03628885746002197,0.16375784575939178
1757491447716985000,3.506985107421875,-0.5227993726730347,0.19684915244579315,0.1913367062807083
1757491447727030300,3.5170302734375,-0.5704295635223389,0.2694934904575348,0.14373984932899475
1757491447737070600,3.527070556640625,-0.5457151532173157,0.27224138379096985,0.04726378247141838
1757491447747111200,3.537111083984375,-0.48939165472984314,0.23363763093948364,-0.05504115670919418
1757491447757152000,3.547152099609375,-0.44099539518356323,0.2580356001853943,-0.13859379291534424
1757491447767192000,3.557192138671875,-0.46059703826904297,0.3005363643169403,-0.20545922219753265
1757491447777229300,3.567229248046875,-0.5125239491462708,0.31520846486091614,-0.25898486375808716
1757491447787274200,3.577274169921875,-0.5915966629981995,0.37464624643325806,-0.2778204381465912
1757491447797314600,3.587314453125,-0.7112716436386108,0.4728543162345886,-0.2710922658443451
1757491447807355400,3.59735546875,-0.7514907717704773,0.45488476753234863,-0.28543126583099365
1757491447817400600,3.607400634765625,-0.7913935780525208,0.47510260343551636,-0.30146899819374084
1757491447827432700,3.6174326171875,-0.8133767247200012,0.4571663439273834,-0.3223363161087036
1757491447837474600,3.627474609375,-0.7990376949310303,0.37033286690711975,-0.37284761667251587
1757491447847514400,3.637514404296875,-0.777004599571228,0.3393899202346802,-0.4794992208480835
1757491447857556700,3.647556640625,-0.7978719472885132,0.372514545917511,-0.5494789481163025
1757491447867595500,3.657595458984375,-0.7922762036323547,0.32624998688697815,-0.5487461686134338
1757491447877640400,3.667640380859375,-0.7279588580131531,0.2833994925022125,-0.5395199060440063
1757491447887680800,3.6776806640625,-0.6452721953392029,0.3385072648525238,-0.5085769295692444
1757491447897721300,3.687721435546875,-0.5715287327766418,0.4383973777294159,-0.4533192813396454
1757491447907758000,3.697758056640625,-0.4481898844242096,0.432851642370224,-0.4277888536453247
1757491447917803300,3.70780322265625,-0.29132676124572754,0.306998074054718,-0.4361824095249176
1757491447927843600,3.717843505859375,-0.15906144678592682,0.17979556322097778,-0.43371763825416565
1757491447937880300,3.72788037109375,-0.12050765752792358,0.06966328620910645,-0.3903675377368927
1757491447947925000,3.737925048828125,-0.09855780750513077,0.014222434721887112,-0.36768490076065063
1757491447957965600,3.747965576171875,-0.06834762543439865,0.014938552863895893,-0.3498152792453766
1757491447968002300,3.758002197265625,-0.04578158259391785,0.05292610824108124,-0.3287147879600525
1757491447978047000,3.768046875,-0.019052067771553993,0.1611931473016739,-0.33797433972358704
1757491447988088300,3.77808837890625,-0.0005495788645930588,0.26882731914520264,-0.3822570741176605
1757491447998128600,3.788128662109375,0.03818740323185921,0.32610011100769043,-0.43045347929000854
1757491448008166100,3.798166259765625,0.0765746533870697,0.3607402443885803,-0.45391884446144104
1757491448018209500,3.80820947265625,0.12455455213785172,0.48292994499206543,-0.4612298905849457
1757491448028251100,3.818251220703125,0.17325057089328766,0.7130535840988159,-0.44217783212661743
1757491448038287400,3.828287353515625,0.28952813148498535,0.48669371008872986,-0.38407236337661743
1757491448048331800,3.838331787109375,0.4695734977722168,0.23435375094413757,-0.16795462369918823
1757491448058373600,3.84837353515625,0.7024950385093689,0.08218701928853989,0.12390505522489548
1757491448068412200,3.858412109375,0.9765017032623291,0.04509877413511276,0.4565834403038025
1757491448078450700,3.86845068359375,1.2540390491485596,0.049611981958150864,0.8059990406036377
1757491448088491500,3.878491455078125,1.4216772317886353,-0.03315792605280876,1.1106988191604614
1757491448098531600,3.888531494140625,1.455201506614685,0.020434340462088585,1.3186562061309814
1757491448108577000,3.898576904296875,1.4363160133361816,0.16185930371284485,1.3804588317871094
1757491448118617000,3.9086171875,1.346817970275879,0.3159412145614624,1.3065987825393677
1757491448128658000,3.918657958984375,1.1970826387405396,0.46849098801612854,1.1050364971160889
1757491448138698500,3.928698486328125,1.0328419208526611,0.5872499942779541,0.8749461770057678
1757491448148735500,3.938735595703125,0.866319477558136,0.6029213070869446,0.6794127225875854
1757491448158776000,3.948776123046875,0.7149021625518799,0.5704461932182312,0.4810813367366791
1757491448168820500,3.958820556640625,0.5376713275909424,0.5551578998565674,0.24704402685165405
1757491448178861000,3.968861083984375,0.3182394802570343,0.5760918855667114,0.024664433673024178
1757491448188902000,3.97890185546875,0.21476875245571136,0.750857949256897,-0.1883390098810196
1757491448198942700,3.988942626953125,0.18427546322345734,0.9602641463279724,-0.3388569951057434
1757491448208983300,3.9989833984375,0.13386408984661102,1.1568301916122437,-0.4459749162197113
1757491448219024000,4.00902392578125,-0.016837097704410553,1.287746548652649,-0.6156282424926758
1757491448229060600,4.019060546875,-0.3169904351234436,1.2498588562011719,-0.8655200600624084
1757491448239105800,4.029105712890625,-0.7479601502418518,1.1006898880004883,-1.0347404479980469
1757491448249146400,4.039146484375,-1.2304238080978394,0.8617895841598511,-1.0592882633209229
1757491448259187000,4.04918701171875,-1.7408326864242554,0.4466743767261505,-1.0289947986602783
1757491448269227800,4.059227783203125,-2.307631731033325,-0.120724156498909,-1.1200417280197144
1757491448279268000,4.06926806640625,-2.8022525310516357,-0.26744505763053894,-1.227192997932434
1757491448289305600,4.0793056640625,-3.1827943325042725,-0.05802220478653908,-1.3747131824493408
1757491448299349800,4.089349853515625,-3.4127514362335205,0.2631649971008301,-1.5387874841690063
1757491448309386000,4.099385986328125,-3.419746160507202,0.4093030095100403,-1.6631255149841309
1757491448319427600,4.109427490234375,-3.205626964569092,0.4063552916049957,-1.714119791984558
1757491448329468200,4.11946826171875,-2.9246089458465576,0.4217434823513031,-1.7364526987075806
1757491448339509800,4.129509765625,-2.735320568084717,0.4564002752304077,-1.7757059335708618
1757491448349551900,4.1395517578125,-2.6577634811401367,0.42982062697410583,-1.8024520874023438
1757491448359589600,4.149589599609375,-2.715036153793335,0.39110028743743896,-1.8078147172927856
1757491448369634800,4.159634765625,-2.9231600761413574,0.6495022773742676,-1.7899783849716187
1757491448379671300,4.16967138671875,-3.2305245399475098,0.9956870079040527,-1.671718955039978
1757491448389716000,4.179716064453125,-3.5640854835510254,0.974236786365509,-1.4781006574630737
1757491448399756800,4.1897568359375,-3.796107769012451,0.809313178062439,-1.3683347702026367
1757491448409796900,4.199796875,-3.8330793380737305,0.560420572757721,-1.3607906103134155
1757491448419834400,4.20983447265625,-3.716052293777466,0.24974195659160614,-1.4019423723220825
1757491448429878800,4.219878662109375,-3.5755600929260254,-0.01682044379413128,-1.3958803415298462
1757491448439919400,4.22991943359375,-3.4662938117980957,-0.2596343755722046,-1.3342775106430054
1757491448449956600,4.23995654296875,-3.3599586486816406,-0.6539489030838013,-1.2554047107696533
1757491448460001000,4.2500009765625,-3.2384016513824463,-1.0933787822723389,-1.2098228931427002
1757491448470041600,4.26004150390625,-3.0971601009368896,-1.4999172687530518,-1.1952840089797974
1757491448480078800,4.270078857421875,-2.95473575592041,-1.833495020866394,-1.194501280784607
1757491448490122800,4.280122802734375,-2.793642520904541,-2.0639350414276123,-1.184442400932312
1757491448500163800,4.290163818359375,-2.6533334255218506,-2.159595012664795,-1.1336146593093872
1757491448510205200,4.300205078125,-2.479283571243286,-2.0182201862335205,-1.0867838859558105
1757491448520245500,4.31024560546875,-2.2775046825408936,-1.7611171007156372,-1.0135066509246826
1757491448530286000,4.3202861328125,-2.052793502807617,-1.5068953037261963,-0.8891519904136658
1757491448540327200,4.3303271484375,-1.793575644493103,-1.2863142490386963,-0.7318391799926758
1757491448550363400,4.34036328125,-1.6027551889419556,-1.1113483905792236,-0.5581056475639343
1757491448560408800,4.350408935546875,-1.3866873979568481,-1.1596113443374634,-0.41469889879226685
1757491448570445300,4.3604453125,-1.1570466756820679,-1.2648640871047974,-0.3126603960990906
1757491448580486000,4.37048583984375,-0.9435603022575378,-1.2349870204925537,-0.22031450271606445
1757491448590528000,4.380528076171875,-0.7047100067138672,-1.1446229219436646,-0.1380775272846222
1757491448600574000,4.390573974609375,-0.4778338372707367,-1.0248479843139648,-0.05084437131881714
1757491448610607600,4.400607666015625,-0.33667534589767456,-0.8218535780906677,0.02174999937415123
1757491448620652500,4.410652587890625,-0.26509684324264526,-0.5553078055381775,0.13556279242038727
1757491448630693000,4.420693115234375,-0.23973296582698822,-0.41789641976356506,0.26919370889663696
1757491448640734000,4.43073388671875,-0.20349405705928802,-0.39907753467559814,0.383905827999115
1757491448650774300,4.440774169921875,-0.1848083883523941,-0.36590293049812317,0.49035757780075073
1757491448660815600,4.450815673828125,-0.1609266847372055,-0.2841988801956177,0.5470641255378723
1757491448670856000,4.46085595703125,-0.1335643231868744,-0.189737930893898,0.534823477268219
1757491448680893200,4.47089306640625,-0.10192190110683441,-0.18988782167434692,0.504846453666687
1757491448690937300,4.480937255859375,-0.06578292697668076,-0.2905939817428589,0.50594562292099
1757491448700978000,4.49097802734375,-0.00576225109398365,-0.3530794382095337,0.5488294363021851
1757491448711018800,4.501018798828125,0.07202813774347305,-0.3334278166294098,0.5854347348213196
1757491448721059300,4.511059326171875,0.1484862118959427,-0.3085302412509918,0.6131801009178162
1757491448731100400,4.521100341796875,0.20547588169574738,-0.32043778896331787,0.6458051204681396
1757491448741137400,4.531137451171875,0.2558872401714325,-0.3414883315563202,0.674566388130188
1757491448751178000,4.541177978515625,0.3097792863845825,-0.37845999002456665,0.7133033871650696
1757491448761222700,4.55122265625,0.3709490895271301,-0.4240250587463379,0.7662961483001709
1757491448771262700,4.5612626953125,0.4477902054786682,-0.4616462290287018,0.8240352272987366
1757491448781303800,4.5713037109375,0.5416016578674316,-0.4943711757659912,0.8843889832496643
1757491448791344400,4.581344482421875,0.662159264087677,-0.5322421193122864,0.9399796724319458
1757491448801382000,4.5913818359375,0.8126439452171326,-0.6027048230171204,0.977184534072876
1757491448811423500,4.601423583984375,0.9901745915412903,-0.6834096312522888,0.9771178960800171
1757491448821462500,4.611462646484375,1.1922197341918945,-0.7428474426269531,0.9349668622016907
1757491448831528200,4.621528076171875,1.3643711805343628,-0.6420080065727234,0.9052063226699829
1757491448841547000,4.631547119140625,1.43656587600708,-0.15817879140377045,0.9487230181694031
1757491448851586000,4.6415859375,1.3632386922836304,0.46662575006484985,1.037421703338623
1757491448861629000,4.65162890625,1.2866473197937012,1.1672722101211548,1.1682881116867065
1757491448871665700,4.661665771484375,1.269926905632019,1.4370654821395874,1.4319027662277222
1757491448881708800,4.671708740234375,1.2190158367156982,1.1552313566207886,1.6599946022033691
1757491448891748000,4.681748046875,1.09023118019104,0.8923328518867493,1.4156818389892578
1757491448901787600,4.69178759765625,0.955634355545044,0.776038646697998,1.111165165901184
1757491448911828700,4.701828857421875,1.0057293176651,0.6214404702186584,1.1687543392181396
1757491448921869300,4.711869384765625,1.1416418552398682,0.5403026342391968,1.186490774154663
1757491448931910000,4.721909912109375,1.2861144542694092,0.543483555316925,1.1943514347076416
1757491448941954000,4.7319541015625,1.4385476112365723,0.618309497833252,1.1872235536575317
1757491448951994600,4.74199462890625,1.514339566230774,0.7124707102775574,1.1519173383712769
1757491448962033700,4.75203369140625,1.526896595954895,0.5288280844688416,1.1024051904678345
1757491448972075500,4.762075439453125,1.4830968379974365,0.35311275720596313,1.032275676727295
1757491448982114000,4.772114013671875,1.3943315744400024,0.41449904441833496,1.0078777074813843
1757491448992203800,4.782203857421875,1.3222200870513916,0.4279220700263977,1.0325753688812256
1757491449002196000,4.792196044921875,1.282883644104004,0.37817686796188354,1.0463981628417969
1757491449012237800,4.80223779296875,1.2412488460540771,0.43323469161987305,1.0793561935424805
1757491449022280400,4.812280517578125,1.1840426921844482,0.5373382568359375,1.1206579208374023
1757491449032299300,4.82229931640625,1.1568301916122437,0.434467077255249,1.1156284809112549
1757491449042362600,4.832362548828125,1.182593822479248,0.18364261090755463,1.0864008665084839
1757491449052399400,4.8423994140625,1.2497589588165283,-0.07361026108264923,1.066099762916565
1757491449062439700,4.852439697265625,1.312227725982666,-0.2006295919418335,1.09023118019104
1757491449072480500,4.86248046875,1.3555113077163696,-0.2531893253326416,1.1193256378173828
1757491449082521900,4.87252197265625,1.429404616355896,-0.4738702178001404,1.097642183303833
1757491449092564000,4.88256396484375,1.5435338020324707,-0.7539888620376587,1.0577727556228638
1757491449102606800,4.89260693359375,1.6625592708587646,-1.03502357006073,1.0379712581634521
1757491449112647400,4.9026474609375,1.7157851457595825,-1.0638015270233154,1.0333747863769531
1757491449122684200,4.91268408203125,1.725844144821167,-1.0157883167266846,1.062052845954895
1757491449132728300,4.922728271484375,1.7025452852249146,-1.0443164110183716,1.1104990243911743
1757491449142769200,4.93276904296875,1.6604609489440918,-1.0818376541137695,1.1506348848342896
1757491449152810200,4.942810302734375,1.6101161241531372,-1.036455750465393,1.1975489854812622
1757491449162850600,4.9528505859375,1.5542089939117432,-0.935333251953125,1.2349870204925537
1757491449172891600,4.9628916015625,1.4830635786056519,-0.9180631637573242,1.2469611167907715
1757491449182932200,4.97293212890625,1.3965798616409302,-1.014639139175415,1.2114382982254028
1757491449192969200,4.98296923828125,1.2981551885604858,-1.2111718654632568,1.1695871353149414
1757491449203013400,4.993013427734375,1.1658399105072021,-1.2618497610092163,1.1592949628829956
1757491449213054200,5.00305419921875,0.9871102571487427,-1.057173252105713,1.1380113363265991
1757491449223095000,5.013094970703125,0.7860143184661865,-1.0323922634124756,1.0763918161392212
1757491449233135900,5.023135986328125,0.5889154076576233,-0.9609136581420898,1.0133568048477173
1757491449243177200,5.03317724609375,0.45525112748146057,-0.6310331225395203,0.9624624848365784
1757491449253217500,5.043217529296875,0.43558287620544434,-0.3922327756881714,0.862755537033081
1757491449263258000,5.053258056640625,0.47760069370269775,-0.4992840588092804,0.7151186466217041
1757491449273298700,5.063298583984375,0.510408878326416,-0.45571744441986084,0.5482465624809265
1757491449283339500,5.073339599609375,0.5065785050392151,-0.14090868830680847,0.4078041613101959
1757491449293380600,5.083380615234375,0.48168089985847473,0.043483346700668335,0.31444236636161804
1757491449303418400,5.09341845703125,0.46267879009246826,-0.1273857206106186,0.2445792406797409
1757491449313457700,5.103457763671875,0.4481399357318878,-0.09031412750482559,0.17638149857521057
1757491449323497700,5.113497802734375,0.4250909090042114,0.21668395400047302,0.09467744827270508
1757491449333540000,5.1235400390625,0.31500861048698425,0.8682679533958435,0.01185758039355278
1757491449343583700,5.133583740234375,0.2818673253059387,0.6982982158660889,-0.00937614869326353
1757491449353620700,5.143620849609375,0.3543451428413391,0.3932986259460449,0.07124540209770203
1757491449363665400,5.15366552734375,0.4223097264766693,0.43808096647262573,0.1688372939825058
1757491449373706200,5.163706298828125,0.4864605665206909,0.5979418158531189,0.3018353581428528
1757491449383742700,5.17374267578125,0.6021885275840759,0.6707193851470947,0.5135731101036072
1757491449393787400,5.183787353515625,0.759434700012207,0.6373615860939026,0.7091232538223267
1757491449403828000,5.193827880859375,0.8264500498771667,0.6473206281661987,0.8410888314247131
1757491449413869000,5.203869140625,0.8783935308456421,0.2714419960975647,0.8822905421257019
1757491449423905500,5.213905517578125,0.9137997627258301,-0.1499517560005188,0.8691340088844299
1757491449433950000,5.223949951171875,0.7835495471954346,-0.2888619899749756,0.7974056005477905
1757491449443991000,5.233990966796875,0.4885422885417938,-0.32180339097976685,0.6660895943641663
1757491449454031400,5.24403125,0.23780110478401184,-0.624488115310669,0.4571663439273834
1757491449464072700,5.25407275390625,0.22987385094165802,-1.011974573135376,0.25905150175094604
1757491449474113500,5.264113525390625,0.34949883818626404,-0.9996839165687561,0.10748430341482162
1757491449484153900,5.27415380859375,0.4085536003112793,-0.9081873893737793,-0.04646439477801323
1757491449494191000,5.284191162109375,0.39533039927482605,-0.959614634513855,-0.19978024065494537
1757491449504235000,5.294235107421875,0.3371916115283966,-1.1872735023498535,-0.3462679982185364
1757491449514276000,5.304276123046875,0.18720655143260956,-1.3484500646591187,-0.5289613008499146
1757491449524316400,5.31431640625,-0.09997338801622391,-1.3280656337738037,-0.7806518077850342
1757491449534357800,5.324357666015625,-0.4884423613548279,-1.2103891372680664,-1.0873501300811768
1757491449544403500,5.334403564453125,-0.9172637462615967,-1.2000470161437988,-1.3507648706436157
1757491449554434800,5.344434814453125,-1.3823240995407104,-1.3680349588394165,-1.4649940729141235
1757491449564475600,5.3544755859375,-1.8289151191711426,-1.5646510124206543,-1.428255558013916
1757491449574518000,5.36451806640625,-2.214353084564209,-1.6860413551330566,-1.3142595291137695
1757491449584558000,5.37455810546875,-2.4806325435638428,-1.7308236360549927,-1.1757323741912842
1757491449594601700,5.384601806640625,-2.6065359115600586,-1.626786708831787,-1.0471476316452026
1757491449604642600,5.394642578125,-2.649686336517334,-1.261616587638855,-0.9714389443397522
1757491449614683100,5.40468310546875,-2.658679246902466,-0.6783135533332825,-0.9805319309234619
1757491449624724000,5.414723876953125,-2.68009614944458,-0.02020118571817875,-1.0990411043167114
1757491449634760400,5.424760498046875,-2.676165819168091,0.3464844822883606,-1.2820508480072021
1757491449644805400,5.434805419921875,-2.5798397064208984,0.19115352630615234,-1.489025592803955
1757491449654846000,5.444845947265625,-2.3949315547943115,-0.2450622022151947,-1.6863577365875244
1757491449664886500,5.454886474609375,-2.2538394927978516,-0.5384873747825623,-1.7036612033843994
1757491449674927400,5.46492724609375,-2.2011466026306152,-0.5419513583183289,-1.4281055927276611
1757491449684967700,5.4749677734375,-2.1791133880615234,-0.49308881163597107,-0.9944213032722473
1757491449695008800,5.4850087890625,-2.3031017780303955,-0.5037972927093506,-0.6615097522735596
1757491449705045800,5.495045654296875,-2.609083890914917,-0.825700581073761,-0.5302936434745789
1757491449715090700,5.505090576171875,-2.9618136882781982,-1.3352601528167725,-0.5939781665802002
1757491449725131000,5.515131103515625,-3.1847760677337646,-1.6901048421859741,-0.743047297000885
1757491449735171300,5.52517138671875,-3.1983158588409424,-1.8510315418243408,-0.8414385318756104
1757491449745212700,5.535212646484375,-3.0655009746551514,-1.9052233695983887,-0.8442863821983337
1757491449755252700,5.545252685546875,-2.853330135345459,-2.0289618968963623,-0.7992042303085327
1757491449765294300,5.55529443359375,-2.6368794441223145,-2.2297580242156982,-0.7593181133270264
1757491449775335000,5.5653349609375,-2.4949381351470947,-2.3810253143310547,-0.7220134139060974
1757491449785375700,5.575375732421875,-2.4099533557891846,-2.329698085784912,-0.6932854056358337
1757491449795412200,5.585412109375,-2.325934410095215,-2.1617767810821533,-0.6661728620529175
1757491449805452800,5.595452880859375,-2.193885564804077,-2.0263638496398926,-0.6084004640579224
1757491449815493600,5.60549365234375,-2.0454158782958984,-1.7478106021881104,-0.5691638588905334
1757491449825536500,5.61553662109375,-1.893082618713379,-1.452170491218567,-0.5422677993774414
1757491449835579000,5.625578857421875,-1.7479771375656128,-1.2853983640670776,-0.49232274293899536
1757491449845619700,5.63561962890625,-1.6061025857925415,-1.2405827045440674,-0.4059722423553467
1757491449855660800,5.645660888671875,-1.5265302658081055,-0.9989345073699951,-0.3148920238018036
1757491449865697300,5.655697265625,-1.4365324974060059,-0.820354700088501,-0.16887059807777405
1757491449875742000,5.665741943359375,-1.3201217651367188,-0.727808952331543,-0.01210738904774189
1757491449885782500,5.675782470703125,-1.2022453546524048,-0.7353531718254089,0.1339806616306305
1757491449895822300,5.685822265625,-1.0954939126968384,-0.7695602774620056,0.27911943197250366
1757491449905864200,5.6958642578125,-1.0329750776290894,-0.7561039328575134,0.4377978444099426
1757491449915905300,5.7059052734375,-0.9487396478652954,-0.6884724497795105,0.5737103819847107
1757491449925945900,5.71594580078125,-0.8019354939460754,-0.5997071266174316,0.6514674425125122
1757491449935982300,5.725982421875,-0.6591116189956665,-0.5493290424346924,0.7296242117881775
1757491449946027800,5.73602783203125,-0.5103089809417725,-0.5718284845352173,0.8075311779975891
1757491449956065800,5.746065673828125,-0.3942645490169525,-0.6371117830276489,0.846634566783905
1757491449966106600,5.756106689453125,-0.28876206278800964,-0.7444961667060852,0.871049165725708
1757491449976145000,5.766144775390625,-0.17844659090042114,-0.7820673584938049,0.9137331247329712
1757491449986186000,5.77618603515625,-0.022765887901186943,-0.6970158815383911,0.9508547186851501
1757491449996227000,5.78622705078125,0.23350439965724945,-0.5409854650497437,0.9599477052688599
1757491450006268700,5.7962685546875,0.6167107224464417,-0.3576759099960327,0.8895516991615295
1757491450016308500,5.80630859375,1.0066618919372559,-0.32550057768821716,0.9065219759941101
1757491450026353000,5.816352783203125,1.2974557876586914,-0.13859379291534424,1.167555332183838
1757491450036397300,5.826397216796875,1.5127241611480713,0.1807115226984024,1.5257974863052368
1757491450046430500,5.836430419921875,1.7345207929611206,0.20690810680389404,1.7326889038085938
1757491450056471000,5.846470947265625,1.9203284978866577,0.22927430272102356,1.6881896257400513
1757491450066512400,5.856512451171875,1.9814982414245605,0.6538323163986206,1.4055062532424927
1757491450076552000,5.866552001953125,1.9275728464126587,1.005645990371704,1.365553617477417
1757491450086597600,5.87659765625,1.9283390045166016,0.9448260068893433,1.297555685043335
1757491450096634000,5.886634033203125,1.945975422859192,0.8854548335075378,1.0022486448287964
1757491450106678300,5.89667822265625,1.8813083171844482,0.828448474407196,0.7717752456665039
1757491450116719600,5.9067197265625,1.7548885345458984,0.8247680068016052,0.6298673152923584
1757491450126759700,5.916759765625,1.639143943786621,0.5895482301712036,0.5704795122146606
1757491450136800800,5.92680078125,1.6283355951309204,0.376977801322937,0.5899146199226379
1757491450146837500,5.93683740234375,1.7383512258529663,0.4358993172645569,0.6652402281761169
1757491450156882400,5.94688232421875,1.8887027502059937,0.5985080599784851,0.7695769667625427
1757491450166919200,5.956919189453125,1.9764354228973389,0.7016956210136414,0.9014925360679626
1757491450176963300,5.96696337890625,1.972405195236206,0.7498587369918823,1.0415185689926147
1757491450187004200,5.977004150390625,1.8913006782531738,0.7412652969360352,1.1771645545959473
1757491450197045000,5.987044921875,1.758152723312378,0.7286749482154846,1.278570294380188
1757491450207082000,5.99708203125,1.5882495641708374,0.6774975061416626,1.328914999961853
1757491450217126700,6.007126708984375,1.4099361896514893,0.5637679696083069,1.3163245916366577
1757491450227166700,6.017166748046875,1.2951241731643677,0.3605237305164337,1.2619996070861816
1757491450237204000,6.027203857421875,1.294124960899353,0.03643874451518059,1.2014626264572144
1757491450247248400,6.037248291015625,1.4119513034820557,-0.34964874386787415,1.13649582862854
1757491450257288700,6.047288818359375,1.574310302734375,-0.6776474118232727,1.0781404972076416
1757491450267330000,6.057330078125,1.682477355003357,-0.841072142124176,1.0102424621582031
1757491450277366800,6.06736669921875,1.7496592998504639,-1.0393534898757935,0.9714722037315369
1757491450287409400,6.077409423828125,1.7803690433502197,-1.3392070531845093,0.9569999575614929
1757491450297448400,6.087448486328125,1.755971074104309,-1.6073849201202393,0.9404293298721313
1757491450307488500,6.097488525390625,1.670220136642456,-1.6854417324066162,0.9138996601104736
1757491450317530000,6.107530029296875,1.5446829795837402,-1.5875834226608276,0.8732308745384216
1757491450327574800,6.11757470703125,1.3993942737579346,-1.4588654041290283,0.8517805933952332
1757491450337610800,6.12761083984375,1.246511459350586,-1.3573598861694336,0.8606571555137634
1757491450347655700,6.13765576171875,1.1020221710205078,-1.2845489978790283,0.8708660006523132
1757491450357696800,6.14769677734375,0.9715055227279663,-1.1981651782989502,0.8814412355422974
1757491450367736800,6.15773681640625,0.8403393626213074,-1.0130237340927124,0.8787099719047546
1757491450377773600,6.167773681640625,0.6818941235542297,-0.8741801381111145,0.8443196415901184
1757491450387818200,6.177818359375,0.4940047860145569,-0.752223551273346,0.7993707656860352
1757491450397855500,6.18785546875,0.3349766433238983,-0.6287181973457336,0.7036108374595642
1757491450407900200,6.197900146484375,0.21491864323616028,-0.5320256352424622,0.5701797604560852
1757491450417940500,6.2079404296875,0.15185029804706573,-0.46814125776290894,0.42184340953826904
1757491450427981600,6.217981689453125,0.14963532984256744,-0.2918596863746643,0.2846318781375885
1757491450438022100,6.228022216796875,0.16948679089546204,-0.2855478525161743,0.16882063448429108
1757491450448063000,6.23806298828125,0.1389102190732956,-0.22462786734104156,0.05585719645023346
1757491450458103600,6.248103515625,0.07312729954719543,-0.0786563903093338,-0.03837059810757637
1757491450468139800,6.258139892578125,0.07261102646589279,-0.10963265597820282,-0.10845022648572922
1757491450478185000,6.26818505859375,0.09527698904275894,-0.12826837599277496,-0.16767151653766632
1757491450488226000,6.27822607421875,0.13479670882225037,-0.119891457259655,-0.21898218989372253
1757491450498266600,6.2882666015625,0.16049368679523468,0.007094563450664282,-0.10483632981777191
1757491450508307000,6.298306884765625,0.2448457032442093,0.04253407195210457,0.0399860255420208
1757491450518348000,6.30834814453125,0.446124792098999,0.04954536631703377,0.16430743038654327
1757491450528384800,6.318384765625,0.6652901768684387,-0.26189929246902466,0.40235835313796997
1757491450538425300,6.32842529296875,0.8008696436882019,-0.2497752606868744,0.617693305015564
1757491450548466400,6.338466552734375,0.8881694078445435,-0.2546548545360565,0.7720084190368652
1757491450558507500,6.348507568359375,0.9731542468070984,-0.2649303078651428,0.8839226365089417
1757491450568548900,6.358548828125,1.078723430633545,-0.28549790382385254,0.975335955619812
1757491450578592300,6.36859228515625,1.2120212316513062,-0.28717994689941406,1.0194188356399536
1757491450588633000,6.378633056640625,1.2691941261291504,-0.28696343302726746,0.9572997689247131
1757491450598670000,6.388670166015625,1.2719919681549072,-0.446124792098999,0.8735306262969971
1757491450608710100,6.398710205078125,1.1819276809692383,-0.43844735622406006,0.7310564517974854
1757491450618754600,6.408754638671875,1.0350568294525146,-0.5874165296554565,0.6052029132843018
1757491450628795400,6.41879541015625,0.8530462980270386,-0.7140361666679382,0.47078922390937805
1757491450638836200,6.428836181640625,0.6725512742996216,-0.7155183553695679,0.3098958730697632
1757491450648876800,6.438876708984375,0.5627354383468628,-0.6108485460281372,0.1802119016647339
1757491450658913500,6.44891357421875,0.5269461870193481,-0.7330382466316223,0.0980914980173111
1757491450668958500,6.45895849609375,0.5295442342758179,-1.0989744663238525,0.01653732731938362
1757491450678974000,6.468973876953125,0.45983096957206726,-1.409519910812378,-0.114412322640419
1757491450689014500,6.4790146484375,0.2300736904144287,-1.4697903394699097,-0.32674962282180786
1757491450699055000,6.48905517578125,-0.1678047478199005,-1.3490495681762695,-0.5975920557975769
1757491450709095400,6.499095458984375,-0.6604105830192566,-1.3110953569412231,-0.860357403755188
1757491450719158000,6.509157958984375,-1.1525335311889648,-1.351697564125061,-1.1093499660491943
1757491450729203000,6.519202880859375,-1.5889323949813843,-1.4073715209960938,-1.2823506593704224
1757491450739243800,6.529243896484375,-1.9501888751983643,-1.3920998573303223,-1.2875466346740723
1757491450749284400,6.539284423828125,-2.211372137069702,-1.2944080829620361,-1.1348803043365479
1757491450759325200,6.5493251953125,-2.3991281986236572,-1.1638414859771729,-0.9542520642280579
1757491450769366500,6.559366455078125,-2.5496628284454346,-0.9356996417045593,-0.850947916507721
1757491450779409400,6.569409423828125,-2.6768321990966797,-0.5763916373252869,-0.8064486980438232
1757491450789443300,6.579443359375,-2.8166916370391846,-0.1386270970106125,-0.7505082488059998
1757491450799484700,6.589484619140625,-2.9334354400634766,0.20490963757038116,-0.7202481031417847
1757491450809525500,6.599525390625,-2.933685302734375,0.23282158374786377,-0.831529438495636
1757491450819567400,6.6095673828125,-2.7848494052886963,-0.04633116349577904,-1.106218934059143
1757491450829610200,6.6196103515625,-2.5909812450408936,-0.46093010902404785,-1.36052405834198
1757491450839646700,6.629646728515625,-2.494621753692627,-0.6911870241165161,-1.3988946676254272
1757491450849687300,6.639687255859375,-2.4166314601898193,-0.5367886424064636,-1.2329052686691284
1757491450859732000,6.64973193359375,-2.2980222702026367,-0.29905417561531067,-0.9742867350578308
1757491450869773300,6.659773193359375,-2.2644481658935547,-0.284565269947052,-0.7500752210617065
1757491450879813000,6.669813232421875,-2.3952977657318115,-0.5229492783546448,-0.6418581604957581
1757491450889854200,6.679854248046875,-2.6397104263305664,-0.8108952641487122,-0.6664892435073853
1757491450899894500,6.68989453125,-2.888453245162964,-1.0442330837249756,-0.7359194159507751
1757491450909931500,6.699931640625,-3.0089776515960693,-1.1310999393463135,-0.7716586589813232
1757491450919972000,6.70997216796875,-2.9509053230285645,-1.1342475414276123,-0.7566534876823425
1757491450930017000,6.72001708984375,-2.775073528289795,-1.2417651414871216,-0.7229793071746826
1757491450940057600,6.7300576171875,-2.5446667671203613,-1.3897017240524292,-0.7134366035461426
1757491450950099000,6.740098876953125,-2.330564022064209,-1.5530931949615479,-0.7103556394577026
1757491450960139000,6.750138916015625,-2.1550984382629395,-1.632132649421692,-0.709839403629303
1757491450970180000,6.76018017578125,-2.026397228240967,-1.6313666105270386,-0.7040938138961792
1757491450980216300,6.77021630859375,-1.9082543849945068,-1.6516343355178833,-0.6687042117118835
1757491450990261500,6.780261474609375,-1.8275662660598755,-1.478583574295044,-0.6483531594276428
1757491451000302300,6.79030224609375,-1.7392672300338745,-1.2243118286132812,-0.6427907347679138
1757491451010343000,6.800343017578125,-1.6135302782058716,-1.040086269378662,-0.6247546076774597
1757491451020383700,6.8103837890625,-1.5070784091949463,-0.8990943431854248,-0.5651003122329712
1757491451030421800,6.820421875,-1.3895518779754639,-0.8115281462669373,-0.4740200936794281
1757491451040461300,6.83046142578125,-1.2560874223709106,-0.6787132620811462,-0.35680991411209106
1757491451050503000,6.8405029296875,-1.1060857772827148,-0.5122241377830505,-0.23338782787322998
1757491451060545000,6.850544921875,-0.9847620725631714,-0.30263474583625793,-0.10671821981668472
1757491451070587000,6.8605869140625,-0.8747463226318359,-0.1491190642118454,0.0026979325339198112
1757491451080627700,6.870627685546875,-0.7697767615318298,-0.13821075856685638,0.0844186469912529
1757491451090668500,6.88066845703125,-0.7205978035926819,-0.19864778220653534,0.16059359908103943
1757491451100708900,6.890708984375,-0.6967161297798157,-0.221946582198143,0.16777144372463226
1757491451110745600,6.90074560546875,-0.6519504189491272,-0.28674691915512085,0.14392304420471191
1757491451120787000,6.910786865234375,-0.549712061882019,-0.36019065976142883,0.10601875931024551
1757491451130831000,6.9208310546875,-0.3845386505126953,-0.41469889879226685,0.10605206340551376
1757491451140871700,6.93087158203125,-0.19351837038993835,-0.3883523941040039,0.18922166526317596
1757491451150912800,6.940912841796875,0.003014356829226017,-0.2899944484233856,0.30668166279792786
1757491451160953300,6.950953369140625,0.23073984682559967,-0.15188361704349518,0.41260048747062683
1757491451170990600,6.960990478515625,0.5049963593482971,-0.0518602579832077,0.4427107572555542
1757491451181034500,6.971034423828125,0.8049831390380859,0.0818539410829544,0.4925558865070343
1757491451191075800,6.981075927734375,1.1070516109466553,0.2213137447834015,0.7721250057220459
1757491451201116200,6.9911162109375,1.4687079191207886,0.3632882833480835,1.1411755084991455
1757491451211156700,7.00115673828125,1.75040864944458,0.5022650957107544,1.2481602430343628
1757491451221197800,7.01119775390625,1.8397068977355957,0.41170117259025574,1.225327730178833
1757491451231238100,7.021238037109375,1.8270165920257568,0.4883091449737549,1.0475139617919922
1757491451241275100,7.031275146484375,1.8414056301116943,0.578323483467102,0.9246914386749268
1757491451251319800,7.04131982421875,1.9207282066345215,0.3194884955883026,1.0168207883834839
1757491451261360600,7.051360595703125,1.993672251701355,0.19037078320980072,0.9827802181243896
1757491451271406300,7.06140625,2.03350830078125,0.374879390001297,0.9198951125144958
1757491451281437700,7.071437744140625,2.01617169380188,0.6331481337547302,0.8449025750160217
1757491451291478500,7.081478515625,1.9459421634674072,0.8909006118774414,0.7640478610992432
1757491451301520400,7.091520263671875,1.8564773797988892,1.129334568977356,0.7299240231513977
1757491451311561500,7.1015615234375,1.8043839931488037,1.3281155824661255,0.7718752026557922
1757491451321606400,7.1116064453125,1.816624641418457,1.4328186511993408,0.8677183985710144
1757491451331636200,7.12163623046875,1.8326789140701294,1.4403961896896362,0.9701732397079468
1757491451341688000,7.13168798828125,1.8116284608840942,1.403624415397644,1.0711458921432495
1757491451351724300,7.141724365234375,1.7310901880264282,1.3296810388565063,1.1380445957183838
1757491451361764000,7.15176416015625,1.5925962924957275,1.185941219329834,1.1628589630126953
1757491451371803600,7.1618037109375,1.4249581098556519,0.9457419514656067,1.1512844562530518
1757491451381844500,7.171844482421875,1.2864142656326294,0.6229392886161804,1.097708821296692
1757491451391885800,7.1818857421875,1.2251944541931152,0.2813177704811096,1.0327752828598022
1757491451401928700,7.1919287109375,1.2664295434951782,0.04050229489803314,0.9854448437690735
1757491451411970600,7.201970458984375,1.387020468711853,-0.05382541939616203,0.9541022181510925
1757491451422014000,7.212013916015625,1.5168375968933105,-0.05272626131772995,0.9055061340332031
1757491451432050000,7.2220498046875,1.5860012769699097,-0.12020788341760635,0.8207544088363647
1757491451442090000,7.232090087890625,1.6186429262161255,-0.3094128966331482,0.7204312682151794
1757491451452204000,7.2422041015625,1.6454557180404663,-0.5240650773048401,0.6542320251464844
1757491451462204200,7.2522041015625,1.6520507335662842,-0.6410587430000305,0.6412585973739624
1757491451472213500,7.262213623046875,1.5988081693649292,-0.6262034773826599,0.6530662178993225
1757491451482256000,7.272255859375,1.4811149835586548,-0.5533093214035034,0.6571797132492065
1757491451492293000,7.282293212890625,1.3259339332580566,-0.48724329471588135,0.6781303286552429
1757491451502337500,7.292337646484375,1.1880062818527222,-0.4209107756614685,0.6992308497428894
1757491451512378000,7.302378173828125,1.1008564233779907,-0.32216978073120117,0.6731841564178467
1757491451522416600,7.312416748046875,1.0229827165603638,-0.36422088742256165,0.6379611492156982
1757491451532455200,7.322455078125,0.9304536581039429,-0.401742160320282,0.6257538199424744
1757491451542496500,7.33249658203125,0.8188391923904419,-0.36963340640068054,0.6030045747756958
1757491451552539600,7.34253955078125,0.7002800703048706,-0.2745562791824341,0.5543418526649475
1757491451562578000,7.352577880859375,0.6125805974006653,-0.13562940061092377,0.5002833008766174
1757491451572622300,7.362622314453125,0.5198183059692383,-0.22068089246749878,0.4693736433982849
1757491451582659000,7.3726591796875,0.42797204852104187,-0.26836103200912476,0.40990257263183594
1757491451592703500,7.382703369140625,0.33928999304771423,-0.19941385090351105,0.307614266872406
1757491451602743000,7.392742919921875,0.2862306535243988,-0.2000133991241455,0.1973654329776764
1757491451612785700,7.40278564453125,0.29613974690437317,-0.1383606344461441,0.133914053440094
1757491451622821400,7.4128212890625,0.30543261766433716,-0.2265930324792862,0.08416883647441864
1757491451632866600,7.422866455078125,0.2696267068386078,-0.23973296582698822,0.012473775073885918
1757491451642907100,7.4329072265625,0.1946674883365631,-0.17246784269809723,-0.08605072647333145
1757491451652944100,7.442944091796875,0.1351630985736847,-0.2288912683725357,-0.14647109806537628
1757491451662988800,7.45298876953125,0.07361026108264923,-0.13492994010448456,-0.10535260289907455
1757491451673029000,7.463029052734375,0.06321822106838226,-0.01916864514350891,-0.09467744827270508
1757491451683065900,7.47306591796875,0.135096475481987,0.01883556693792343,-0.18004536628723145
1757491451693110500,7.483110595703125,0.29016098380088806,-0.126419797539711,-0.25107425451278687
1757491451703151600,7.493151611328125,0.4561837613582611,-0.30681487917900085,-0.18221037089824677
1757491451713192000,7.50319189453125,0.5962430834770203,-0.42747244238853455,0.015804555267095566
1757491451723229200,7.513229248046875,0.752090334892273,-0.44769027829170227,0.2668455243110657
1757491451733273000,7.523273193359375,0.8530129790306091,-0.5882825255393982,0.5695468783378601
1757491451743314400,7.533314453125,0.9929057955741882,-0.6199082732200623,0.8423877954483032
1757491451753351200,7.54335107421875,1.2006632089614868,-0.6173102855682373,1.0700466632843018
1757491451763400200,7.553400146484375,1.4242253303527832,-0.7278255820274353,1.2061090469360352
1757491451773431800,7.563431884765625,1.5541757345199585,-0.7542719841003418,1.1992310285568237
1757491451783473200,7.57347314453125,1.5786736011505127,-0.7340208292007446,1.1217237710952759
1757491451793513700,7.583513671875,1.5020157098770142,-0.6049197912216187,0.9853282570838928
1757491451803556400,7.593556396484375,1.331379771232605,-0.4228426516056061,0.7898114323616028
1757491451813600000,7.60360009765625,1.1092166900634766,-0.27822014689445496,0.592179536819458
1757491451823639800,7.613639892578125,0.8832398653030396,-0.03965294733643532,0.3490658402442932
1757491451833680400,7.623680419921875,0.6951006650924683,0.20918969810009003,0.10475306212902069
1757491451843721200,7.63372119140625,0.5108751654624939,0.0968424528837204,-0.04797989875078201
1757491451853761800,7.64376171875,0.2894781827926636,-0.18226033449172974,-0.12835164368152618
1757491451863798800,7.653798828125,0.04959532991051674,-0.41526511311531067,-0.2646305561065674
1757491451873843700,7.66384375,-0.19789835810661316,-0.5927457809448242,-0.5020819306373596
1757491451883884300,7.67388427734375,-0.45345252752304077,-0.7324720621109009,-0.7669289708137512
1757491451893924900,7.6839248046875,-0.750374972820282,-0.8188725113868713,-1.0445828437805176
1757491451903965200,7.693965087890625,-1.1026383638381958,-0.8320291042327881,-1.3344939947128296
1757491451914006500,7.704006591796875,-1.4911572933197021,-0.7319058179855347,-1.5521771907806396
1757491451924046600,7.714046630859375,-1.889202356338501,-0.49543702602386475,-1.5492794513702393
1757491451934083800,7.724083740234375,-2.259202003479004,-0.24364662170410156,-1.3786934614181519
1757491451944128500,7.73412841796875,-2.5473811626434326,-0.03460681438446045,-1.2305070161819458
1757491451954169000,7.744169189453125,-2.7702271938323975,0.1481531411409378,-1.1837096214294434
1757491451964210000,7.7542099609375,-2.913017749786377,0.30598220229148865,-1.2582857608795166
1757491451974250200,7.764250244140625,-2.9383649826049805,0.24830971658229828,-1.4843459129333496
1757491451984291000,7.774291015625,-2.8947818279266357,-0.07159513980150223,-1.738201379776001
1757491451994332000,7.784331787109375,-2.8329625129699707,-0.3362756371498108,-1.8929660320281982
1757491452004369400,7.794369384765625,-2.8018863201141357,-0.28882867097854614,-1.8866875171661377
1757491452014411800,7.804411865234375,-2.7826342582702637,-0.037970904260873795,-1.7338546514511108
1757491452024450300,7.8144501953125,-2.664558172225952,0.08112116903066635,-1.478683590888977
1757491452034490000,7.824489990234375,-2.5233497619628906,0.057006314396858215,-1.2408491373062134
1757491452044533000,7.834532958984375,-2.4809820652008057,-0.0715784803032875,-1.1411755084991455
1757491452054576600,7.84457666015625,-2.554126024246216,-0.3537122905254364,-1.1684379577636719
1757491452064617000,7.854616943359375,-2.6946017742156982,-0.5916799306869507,-1.2479770183563232
1757491452074653400,7.8646533203125,-2.8212547302246094,-0.6624923348426819,-1.3012361526489258
1757491452084698400,7.874698486328125,-2.846635341644287,-0.6413585543632507,-1.2968229055404663
1757491452094734800,7.88473486328125,-2.764298439025879,-0.7567700743675232,-1.274506688117981
1757491452104779500,7.894779541015625,-2.61063289642334,-1.0838360786437988,-1.253222942352295
1757491452114820000,7.904820068359375,-2.4461922645568848,-1.3596913814544678,-1.245478868484497
1757491452124860700,7.914860595703125,-2.2785706520080566,-1.573694109916687,-1.2214140892028809
1757491452134901200,7.9249013671875,-2.1250882148742676,-1.680978536605835,-1.1557976007461548
1757491452144942300,7.9349423828125,-1.9955041408538818,-1.5910141468048096,-1.0777407884597778
1757491452154982700,7.944982666015625,-1.867385745048523,-1.4708895683288574,-1.0255640745162964
1757491452165020000,7.95502001953125,-1.702162265777588,-1.3321292400360107,-1.0238487720489502
1757491452175064300,7.965064208984375,-1.5024819374084473,-1.2082908153533936,-1.0211341381072998
1757491452185105000,7.97510498046875,-1.3275327682495117,-1.0840859413146973,-0.9752026796340942
1757491452195146000,7.98514599609375,-1.2055095434188843,-0.8343772888183594,-0.9197785258293152
1757491452205187000,7.99518701171875,-1.0455654859542847,-0.7307400107383728,-0.8450024724006653
1757491452215227100,8.00522705078125,-0.9078709483146667,-0.6002233624458313,-0.7541887164115906
1757491452225267700,8.015267822265624,-0.8163744211196899,-0.38728654384613037,-0.6231890916824341
1757491452235308300,8.025308349609375,-0.6747329831123352,-0.2287580370903015,-0.4958866834640503
1757491452245348600,8.0353486328125,-0.5656665563583374,-0.09008096903562546,-0.3528795838356018
1757491452255391500,8.0453916015625,-0.5319257378578186,-0.006861408706754446,-0.2323552817106247
1757491452265426700,8.0554267578125,-0.4785166382789612,0.01786964014172554,-0.17086906731128693
1757491452275467500,8.065467529296875,-0.4381142854690552,0.004413284827023745,-0.12185662239789963
1757491452285509600,8.075509521484374,-0.371415376663208,-0.11296343803405762,-0.06313495337963104
1757491452295551200,8.08555126953125,-0.24507886171340942,-0.19691577553749084,0.028294984251260757
1757491452305596700,8.0955966796875,-0.02939414232969284,-0.19148659706115723,0.12643644213676453
1757491452315634400,8.105634521484374,0.2701430022716522,-0.13566270470619202,0.19135336577892303
1757491452325670400,8.11567041015625,0.6494856476783752,-0.04791328310966492,0.23447032272815704
1757491452335715800,8.1257158203125,1.061703085899353,0.0946941003203392,0.287413090467453
1757491452345756200,8.135756103515625,1.4382644891738892,0.16530665755271912,0.515138566493988
1757491452355797000,8.145796875,1.6837431192398071,0.4621458649635315,0.9802654981613159
1757491452365837600,8.155837646484375,1.826700210571289,1.0065619945526123,1.4724550247192383
1757491452375878400,8.16587841796875,1.9664764404296875,1.414116382598877,1.5989747047424316
1757491452385919000,8.1759189453125,2.039720296859741,1.711788296699524,1.3435704708099365
1757491452395956000,8.1859560546875,1.9894587993621826,2.0493295192718506,1.1608604192733765
1757491452406000600,8.196000732421876,1.7818845510482788,1.7812683582305908,1.1430073976516724
1757491452416042200,8.206042236328125,1.667822003364563,1.2677618265151978,0.9406458735466003
1757491452426079700,8.216079833984375,1.6582459211349487,0.9948875904083252,0.7274092435836792
1757491452436118500,8.226118408203124,1.6401431560516357,0.8674852252006531,0.6149287819862366
1757491452446159400,8.236159423828125,1.6478372812271118,0.8719151616096497,0.5623857378959656
1757491452456199700,8.24619970703125,1.7176504135131836,0.9195786714553833,0.6071347594261169
1757491452466241300,8.2562412109375,1.8389074802398682,0.9949209094047546,0.7012459635734558
1757491452476283600,8.26628369140625,1.951188087463379,1.0496289730072021,0.782833456993103
1757491452486326000,8.276325927734375,2.004747152328491,1.1338977813720703,0.8915834426879883
1757491452496367900,8.286367919921876,1.9966199398040771,1.2504417896270752,1.0046634674072266
1757491452506409200,8.2964091796875,1.9234094619750977,1.418712854385376,1.0865174531936646
1757491452516443600,8.306443603515625,1.8097132444381714,1.4880430698394775,1.1569634675979614
1757491452526485800,8.31648583984375,1.659794807434082,1.4357497692108154,1.1680049896240234
1757491452536525300,8.326525390625,1.4717888832092285,1.2538892030715942,1.1242384910583496
1757491452546580000,8.336580078125,1.2832167148590088,0.9863108396530151,1.0474140644073486
1757491452556611300,8.346611328125,1.1561473608016968,0.7240784764289856,0.9704563617706299
1757491452566651400,8.3566513671875,1.1348137855529785,0.539636492729187,0.9091699719429016
1757491452576688400,8.3666884765625,1.21580171585083,0.4254240095615387,0.8508480191230774
1757491452586732800,8.37673291015625,1.364654302597046,0.2772209048271179,0.7898447513580322
1757491452596774000,8.38677392578125,1.451654314994812,0.11386274546384811,0.7630985975265503
1757491452606810600,8.396810546875,1.4397634267807007,-0.009825804270803928,0.7759720683097839
1757491452616854300,8.406854248046875,1.391616940498352,-0.11840926110744476,0.7915267944335938
1757491452626895600,8.4168955078125,1.3299142122268677,-0.19270233809947968,0.8018688559532166
1757491452636932600,8.4269326171875,1.2593183517456055,-0.19609972834587097,0.8030346632003784
1757491452646977300,8.436977294921874,1.2068418264389038,-0.09680914878845215,0.7866971492767334
1757491452657018000,8.44701806640625,1.14169180393219,-0.05372549593448639,0.7557708621025085
1757491452667058400,8.457058349609374,1.0581557750701904,-0.046031393110752106,0.6985980272293091
1757491452677121500,8.46712158203125,0.9649938344955444,-0.014905245043337345,0.6272026896476746
1757491452687139600,8.4771396484375,0.8578925728797913,0.006378445774316788,0.563568115234375
1757491452697180700,8.4871806640625,0.7287248969078064,0.060187213122844696,0.500732958316803
1757491452707217400,8.497217529296876,0.5826202034950256,0.12202315777540207,0.42524081468582153
1757491452717261600,8.507261474609376,0.4309031367301941,0.16395770013332367,0.33311140537261963
1757491452727302700,8.517302734375,0.3087967038154602,0.23019027709960938,0.25022491812705994
1757491452737343200,8.52734326171875,0.25107425451278687,0.33216214179992676,0.1677880883216858
1757491452747384300,8.53738427734375,0.18655703961849213,0.3036673069000244,0.09739203751087189
1757491452757421800,8.547421875,0.11835930496454239,0.28098466992378235,0.008426875807344913
1757491452767461400,8.55746142578125,0.04578158259391785,0.2624322175979614,-0.10540256649255753
1757491452777502500,8.56750244140625,-0.04551512002944946,0.16645577549934387,-0.19047071039676666
1757491452787545600,8.577545654296875,-0.11699368059635162,0.2088899314403534,-0.2191653847694397
1757491452797587500,8.58758740234375,-0.1550978124141693,0.10025651007890701,-0.22202986478805542
1757491452807628300,8.597628173828125,-0.20574234426021576,-0.10683479905128479,-0.22379517555236816
1757491452817668900,8.6076689453125,-0.24253082275390625,-0.07589184492826462,-0.24877603352069855
1757491452827709700,8.617709716796876,-0.22561044991016388,-0.1498185247182846,-0.27453961968421936
1757491452837746200,8.62774609375,-0.2028445601463318,-0.25337252020835876,-0.3333112597465515
1757491452847791600,8.63779150390625,-0.12067419290542603,-0.3147088289260864,-0.4486228823661804
1757491452857831700,8.647831787109375,-0.04038571938872337,-0.18274329602718353,-0.3935650885105133
1757491452867871700,8.657871826171874,0.15303273499011993,-0.03965294733643532,-0.1706525683403015
1757491452877912600,8.66791259765625,0.42254287004470825,-0.026579631492495537,0.10410355776548386
1757491452887953700,8.67795361328125,0.7431638240814209,-0.12192323803901672,0.4389469623565674
1757491452897990100,8.687990234375,1.076874852180481,-0.11616098880767822,0.7212806344032288
1757491452908030700,8.69803076171875,1.3277158737182617,-0.09512710571289062,0.9511211514472961
1757491452918075400,8.708075439453125,1.398411750793457,-0.11394601315259933,1.0956937074661255
1757491452928116500,8.718116455078125,1.395047664642334,-0.10641845315694809,1.1248047351837158
1757491452938156800,8.72815673828125,1.387370228767395,-0.2027113288640976,1.0821374654769897
1757491452948198000,8.738197998046875,1.4009097814559937,-0.31349310278892517,0.9720051288604736
1757491452968279000,8.758279052734375,1.3132603168487549,-0.33382752537727356,0.6614431142807007
1757491452978320000,8.76831982421875,1.1812448501586914,-0.22625994682312012,0.5207176208496094
1757491452988360700,8.778360595703125,0.9654935002326965,-0.17011964321136475,0.4226261377334595
1757491452998406700,8.78840673828125,0.7680614590644836,-0.18127775192260742,0.36950019001960754
1757491453008438300,8.798438232421875,0.620657742023468,-0.2406988888978958,0.323085755109787
1757491453018478300,8.808478271484375,0.46171286702156067,-0.3332946002483368,0.28284990787506104
1757491453028521500,8.818521484375,0.2690771520137787,-0.29620635509490967,0.1521833837032318
1757491453038572300,8.828572265625,0.00970922689884901,-0.27682119607925415,-0.13096630573272705
1757491453048604400,8.8386044921875,-0.3457850217819214,-0.3033675253391266,-0.5396698117256165
1757491453058645200,8.848645263671875,-0.8334946036338806,-0.4366653859615326,-1.0029481649398804
1757491453068681700,8.858681640625,-1.444493055343628,-0.4779004454612732,-1.4190459251403809
1757491453078726100,8.86872607421875,-2.0710129737854004,-0.2858975827693939,-1.629318118095398
1757491453088763400,8.878763427734375,-2.5854687690734863,0.12362193316221237,-1.6669892072677612
1757491453098808300,8.888808349609375,-2.905773401260376,0.7009961605072021,-1.7195988893508911
1757491453108848600,8.8988486328125,-3.056074857711792,1.3057661056518555,-1.923492670059204
1757491453118889200,8.90888916015625,-3.150235891342163,1.6948179006576538,-2.1886229515075684
1757491453128930000,8.918929931640625,-3.273508071899414,1.6783472299575806,-2.271959066390991
1757491453138966800,8.928966796875,-3.3949317932128906,1.2368189096450806,-2.0834200382232666
1757491453149011000,8.939010986328125,-3.4756367206573486,0.7696435451507568,-1.8584924936294556
1757491453159048000,8.9490478515625,-3.461247682571411,0.6999802589416504,-1.7169675827026367
1757491453169092900,8.9590927734375,-3.379127264022827,0.9134167432785034,-1.5734776258468628
1757491453179133400,8.969133544921876,-3.3154759407043457,0.7789364457130432,-1.3858879804611206
1757491453189174300,8.97917431640625,-3.290428638458252,-0.11802622675895691,-1.281834363937378
1757491453199215000,8.989215087890624,-3.276272773742676,-1.2583690881729126,-1.3263336420059204
1757491453209251300,8.999251220703124,-3.230058193206787,-1.681261658668518,-1.409369945526123
1757491453219292200,9.009292236328125,-3.1870079040527344,-1.2372186183929443,-1.4588321447372437
1757491453229336600,9.019336669921875,-3.1522345542907715,-0.7447625994682312,-1.457050085067749
1757491453239378000,9.0293779296875,-3.015305995941162,-0.826316773891449,-1.3764785528182983
1757491453249416400,9.03941650390625,-2.7665300369262695,-1.0831366777420044,-1.2440134286880493
1757491453259454700,9.049454833984376,-2.504514217376709,-1.3686678409576416,-1.1597113609313965
1757491453269495600,9.05949560546875,-2.311995029449463,-1.6447563171386719,-1.174566626548767
1757491453279536000,9.0695361328125,-2.112264633178711,-2.0021157264709473,-1.185341715812683
1757491453289581000,9.0795810546875,-1.8969130516052246,-2.1594784259796143,-1.1203415393829346
1757491453299622000,9.089621826171875,-1.7276594638824463,-1.9933891296386719,-0.9844622611999512
1757491453309662700,9.099662841796874,-1.5213508605957031,-1.7817013263702393,-0.8020520806312561
1757491453319703300,9.109703369140625,-1.2206978797912598,-1.581038475036621,-0.5798223614692688
1757491453329744000,9.119743896484374,-0.8554278016090393,-1.1298009157180786,-0.34723392128944397
1757491453339784400,9.129784423828125,-0.46112996339797974,-0.7561538815498352,-0.05274291709065437
1757491453349800000,9.139800048828125,-0.0930287092924118,-0.47765064239501953,0.2647804319858551
1757491453359839700,9.14983984375,0.27535566687583923,-0.3823736608028412,0.45668336749076843
1757491453369880000,9.159880126953125,0.5172702670097351,-0.29244256019592285,0.5853514671325684
1757491453379921200,9.169921142578126,0.671485424041748,-0.16920366883277893,0.6710524559020996
1757491453389961200,9.179961181640625,0.8565936088562012,-0.036721859127283096,0.6890220046043396
1757491453400025600,9.190025634765625,1.1167442798614502,0.12412155419588089,0.7757055759429932
1757491453410064100,9.200064208984376,1.4312199354171753,0.37416326999664307,1.0327752828598022
1757491453420106500,9.2101064453125,1.8345941305160522,0.7077909708023071,1.534507393836975
1757491453430149600,9.220149658203125,2.2933926582336426,0.991590142250061,2.18559193611145
1757491453440188400,9.2301884765625,2.6137804985046387,1.0787400007247925,2.782850742340088
1757491453450231300,9.240231201171875,2.4491398334503174,1.1318992376327515,2.73572039604187
1757491453460272000,9.250272216796875,1.9268401861190796,1.5851852893829346,2.001166582107544
1757491453470312200,9.260312255859375,1.532375693321228,2.1664066314697266,1.5768916606903076
1757491453480349200,9.27034912109375,1.3515642881393433,2.2138702869415283,1.4957871437072754
1757491453490391800,9.280391845703125,1.2746399641036987,1.896180272102356,1.1626923084259033
1757491453500434700,9.2904345703125,1.175099492073059,1.2782537937164307,0.7470775246620178
1757491453510475500,9.3004755859375,1.044199824333191,1.0492126941680908,0.46011409163475037
1757491453520515600,9.310515625,0.9934886693954468,0.984795331954956,0.35256317257881165
1757491453530556400,9.320556396484376,0.9465746283531189,0.8559774160385132,0.32736581563949585
1757491453540595200,9.33059521484375,0.9155650734901428,0.6037539839744568,0.28792935609817505
1757491453550638000,9.34063818359375,1.0118080377578735,0.3716984987258911,0.2526896893978119
1757491453560676600,9.350676513671875,1.2089569568634033,0.3965461254119873,0.290260910987854
1757491453570718700,9.36071875,1.353179693222046,0.6260702610015869,0.3669188320636749
1757491453580760000,9.370760009765625,1.3781439065933228,0.8712323904037476,0.39852795004844666
1757491453590800600,9.380800537109375,1.3156918287277222,1.0311598777770996,0.3968791961669922
1757491453600837600,9.390837646484375,1.2294578552246094,1.1219402551651,0.38645386695861816
1757491453610883300,9.40088330078125,1.1479870080947876,1.0431172847747803,0.39677926898002625
1757491453620919300,9.410919189453125,1.0950775146484375,0.8661695718765259,0.41461560130119324
1757491453630959600,9.420959716796874,1.0851850509643555,0.6175934076309204,0.43106967210769653
1757491453641000400,9.43100048828125,1.111781358718872,0.33917343616485596,0.4775007665157318
1757491453651043000,9.44104296875,1.133248209953308,0.1012890487909317,0.5523600578308105
1757491453661085700,9.451085693359374,1.106652021408081,-0.06266864389181137,0.6113981604576111
1757491453671122000,9.461121826171874,1.0634517669677734,-0.10818376392126083,0.6346303224563599
1757491453681167000,9.4711669921875,1.0285451412200928,-0.07875631749629974,0.6563969850540161
1757491453691207400,9.48120751953125,1.0305936336517334,0.005579058080911636,0.6791795492172241
1757491453701248300,9.491248291015625,1.0504117012023926,0.012673621997237206,0.7094230651855469
1757491453711289000,9.5012890625,1.0681815147399902,-0.09602641314268112,0.7318891286849976
1757491453721327400,9.511327392578124,1.0880829095840454,-0.16265869140625,0.7220633625984192
1757491453731368000,9.521367919921875,1.1248047351837158,-0.16130971908569336,0.6944345235824585
1757491453741408800,9.53140869140625,1.09735906124115,-0.22627660632133484,0.6737337112426758
1757491453751451600,9.54145166015625,1.0219502449035645,-0.2256271094083786,0.6289680004119873
1757491453761492500,9.551492431640625,0.937048614025116,-0.18226033449172974,0.5662161111831665
1757491453771532500,9.561532470703124,0.8575095534324646,-0.13762786984443665,0.4804151952266693
1757491453781574100,9.57157421875,0.8092299103736877,-0.03607235848903656,0.3911336064338684
1757491453791612200,9.581612060546876,0.7388005256652832,-0.0230490043759346,0.3438698351383209
1757491453801653000,9.591653076171875,0.6617429256439209,0.01698698289692402,0.3236353397369385
1757491453811693600,9.601693603515624,0.6104655265808105,0.07547549903392792,0.30410030484199524
1757491453821736000,9.61173583984375,0.5840358138084412,0.08729977160692215,0.26468050479888916
1757491453831776500,9.621776611328125,0.5022318363189697,-0.07142859697341919,0.23330454528331757
1757491453841817300,9.6318173828125,0.41100171208381653,-0.0979582667350769,0.1499517560005188
1757491453851858700,9.641858642578125,0.3616895079612732,0.025030819699168205,0.06478369235992432
1757491453861895200,9.651895263671875,0.35026493668556213,0.019068721681833267,0.013239854015409946
1757491453871936300,9.661936279296874,0.3884190320968628,0.08665026724338531,-0.014438935555517673
1757491453881976600,9.6719765625,0.49931737780570984,-0.06050363555550575,-0.03953637182712555
1757491453892017400,9.682017333984374,0.6659230589866638,-0.1877894252538681,0.0785897746682167
1757491453902059000,9.69205908203125,0.8287815451622009,-0.21108824014663696,0.2762882709503174
1757491453912102700,9.7021025390625,0.9189125299453735,-0.2467942088842392,0.42572376132011414
1757491453922141000,9.712140869140624,0.9703564047813416,-0.27648812532424927,0.5590716004371643
1757491453932181800,9.722181640625,1.0293445587158203,-0.3002699017524719,0.6848918199539185
1757491453942224400,9.732224365234375,1.0937118530273438,-0.2606002986431122,0.7558375000953674
1757491453952265000,9.742264892578126,1.157679557800293,-0.255337655544281,0.7416983246803284
1757491453962305500,9.752305419921875,1.2222967147827148,-0.22272932529449463,0.6947842836380005
1757491453972344000,9.762343994140625,1.2206146717071533,-0.18324291706085205,0.6546483635902405
1757491453982387000,9.772386962890625,1.131266474723816,-0.15656335651874542,0.6050696969032288
1757491453992425700,9.78242578125,1.004197120666504,-0.12783537805080414,0.5180030465126038
1757491454002466800,9.792466796875,0.8776274919509888,-0.04931221157312393,0.420094758272171
1757491454012509200,9.80250927734375,0.7578192949295044,0.08926492929458618,0.31325995922088623
1757491454022549500,9.812549560546875,0.5792227983474731,0.03883690759539604,0.21188762784004211
1757491454032590300,9.82259033203125,0.35985758900642395,-0.09729211032390594,0.10062289237976074
1757491454042628900,9.83262890625,0.1432901918888092,-0.24546189606189728,-0.05589050427079201
1757491454052670000,9.842669921875,-0.0896979346871376,-0.5739102363586426,-0.2298571914434433
1757491454062712300,9.85271240234375,-0.3339441120624542,-0.8365089893341064,-0.4414783716201782
1757491454072753200,9.862753173828125,-0.6006563901901245,-0.9490727186203003,-0.6641577482223511
1757491454082794000,9.8727939453125,-0.8871201872825623,-0.8921496868133545,-0.8464680314064026
1757491454092834000,9.882833984375,-1.183826208114624,-0.6783968210220337,-0.937664806842804
1757491454102876000,9.8928759765625,-1.4598313570022583,-0.3294641971588135,-0.9270729422569275
1757491454112915700,9.902915771484375,-1.6870572566986084,0.11029881238937378,-0.8918998837471008
1757491454122952200,9.9129521484375,-1.8548786640167236,0.4640777111053467,-0.8931155800819397
1757491454132993500,9.92299365234375,-1.9860280752182007,0.6010394096374512,-0.9721384048461914
1757491454143036000,9.933035888671874,-2.0752429962158203,0.4965694844722748,-1.1542987823486328
1757491454153080800,9.943080810546874,-2.1406428813934326,0.21498525142669678,-1.366702675819397
1757491454163116800,9.95311669921875,-2.2347376346588135,-0.053708843886852264,-1.4858779907226562
1757491454173159400,9.963159423828126,-2.3552451133728027,-0.14485566318035126,-1.4730877876281738
1757491454183196700,9.97319677734375,-2.4591989517211914,-0.037721093744039536,-1.3912172317504883
1757491454193240800,9.98324072265625,-2.5185699462890625,0.1651567667722702,-1.298871397972107
1757491454203282200,9.9932822265625,-2.540203332901001,0.29502391815185547,-1.2103391885757446
1757491454213322200,10.003322265625,-2.540186882019043,0.2334710955619812,-1.125354290008545
1757491454223362800,10.01336279296875,-2.536506175994873,0.01640409603714943,-1.0301772356033325
1757491454233401900,10.02340185546875,-2.5442004203796387,-0.21538494527339935,-0.9517540335655212
1757491454243442000,10.03344189453125,-2.568665027618408,-0.3876695930957794,-0.92853844165802
1757491454253485300,10.0434853515625,-2.587867021560669,-0.4912402331829071,-0.965177059173584
1757491454263526400,10.0535263671875,-2.576925277709961,-0.5598376393318176,-1.009076714515686
1757491454273565400,10.0635654296875,-2.523782730102539,-0.6054693460464478,-1.0243983268737793
1757491454283605800,10.073605712890625,-2.4516212940216064,-0.6750993132591248,-1.0011495351791382
1757491454293645600,10.0836455078125,-2.3675191402435303,-0.7348368763923645,-0.954884946346283
1757491454303685000,10.09368505859375,-2.2769718170166016,-0.8639712929725647,-0.8928491473197937
1757491454313725400,10.103725341796874,-2.1606109142303467,-1.0027482509613037,-0.857409656047821
1757491454323767800,10.113767822265626,-2.0290117263793945,-1.1255707740783691,-0.8451523780822754
1757491454333810700,10.123810791015625,-1.9064557552337646,-1.1741669178009033,-0.8571598529815674
1757491454343849000,10.133848876953126,-1.8025853633880615,-1.1293845176696777,-0.8780771493911743
1757491454353895000,10.14389501953125,-1.6964666843414307,-1.1025052070617676,-0.8819408416748047
1757491454363929600,10.1539296875,-1.5890157222747803,-1.0461483001708984,-0.8383409380912781
1757491454373969200,10.16396923828125,-1.4688078165054321,-0.8488162159919739,-0.7751060128211975
1757491454383999000,10.1739990234375,-1.3281489610671997,-0.719298779964447,-0.6785633563995361
1757491454394037800,10.184037841796876,-1.1939517259597778,-0.6325153112411499,-0.5424509644508362
1757491454404069600,10.194069580078125,-1.090381145477295,-0.4130668044090271,-0.4037739336490631
1757491454414110000,10.20410986328125,-0.9701898694038391,-0.292009562253952,-0.28308308124542236
1757491454424150500,10.214150634765625,-0.8463014960289001,-0.21976493299007416,-0.17048601806163788
1757491454434202000,10.2242021484375,-0.7177333235740662,-0.15118414163589478,-0.09231259673833847
1757491454444244700,10.23424462890625,-0.6120643019676208,-0.039519716054201126,-0.03627220541238785
1757491454454296000,10.244296142578126,-0.48566117882728577,0.01252373680472374,-0.0621357187628746
1757491454464337000,10.2543369140625,-0.31735682487487793,-0.05084437131881714,-0.18574100732803345
1757491454474377200,10.264377197265626,-0.15752927958965302,-0.10227163136005402,-0.16507349908351898
1757491454484417000,10.2744169921875,0.03812078759074211,-0.16852086782455444,-0.0008660030434839427
1757491454494457900,10.284457763671876,0.2842988073825836,-0.27732083201408386,0.20710796117782593
1757491454504502800,10.294502685546876,0.5743098855018616,-0.40407368540763855,0.37396344542503357
1757491454514541600,10.30454150390625,0.8992276191711426,-0.5306766629219055,0.43268510699272156
1757491454524581000,10.3145810546875,1.2265101671218872,-0.6477369666099548,0.4786165654659271
1757491454534623200,10.324623291015625,1.34028959274292,-0.5657498240470886,0.7127538323402405
1757491454544690400,10.3346904296875,1.338024616241455,0.042900457978248596,1.3158416748046875
1757491454554714000,10.344714111328125,1.5793397426605225,0.9766849279403687,1.8381414413452148
1757491454564744000,10.354743896484376,1.8603243827819824,1.5434505939483643,1.959431767463684
1757491454574786300,10.364786376953125,1.8904180526733398,1.6143629550933838,1.8885360956192017
1757491454584827400,10.374827392578124,1.6878232955932617,1.5989747047424316,1.5125576257705688
1757491454594867700,10.38486767578125,1.520434856414795,1.5240987539291382,1.0852850675582886
1757491454604905500,10.394905517578126,1.5665662288665771,1.3099961280822754,0.9274559617042542
1757491454614944800,10.40494482421875,1.6350637674331665,1.0064287185668945,0.7138696312904358
1757491454624985300,10.4149853515625,1.6684881448745728,0.6997304558753967,0.4973522126674652
1757491454635028000,10.425028076171875,1.6957671642303467,0.6187092065811157,0.42399176955223083
1757491454645067500,10.435067626953124,1.6978323459625244,0.6883724927902222,0.4043901264667511
1757491454655112000,10.44511181640625,1.6797794103622437,0.6705694794654846,0.38990122079849243
1757491454665152300,10.45515234375,1.6547819375991821,0.6157947778701782,0.408703476190567
1757491454675190800,10.465190673828126,1.6238555908203125,0.676631510257721,0.48141443729400635
1757491454685231600,10.475231689453125,1.5830868482589722,0.8914668560028076,0.583336353302002
1757491454695272200,10.485272216796876,1.5205848217010498,1.1397099494934082,0.7012459635734558
1757491454705315000,10.495315185546875,1.433817982673645,1.2463449239730835,0.7886789441108704
1757491454715353600,10.505353515625,1.3170907497406006,1.2336713075637817,0.8234190344810486
1757491454725396000,10.51539599609375,1.1762986183166504,1.154598593711853,0.8106787800788879
1757491454735436800,10.525436767578125,1.0556410551071167,1.0302271842956543,0.7577526569366455
1757491454745475600,10.5354755859375,0.9966196417808533,0.863238513469696,0.7131701707839966
1757491454755516400,10.545516357421874,1.005113124847412,0.720131516456604,0.6875231266021729
1757491454765559300,10.555559326171876,1.049062728881836,0.5938615798950195,0.6525332927703857
1757491454775599400,10.565599365234375,1.0997573137283325,0.4547348618507385,0.5933120250701904
1757491454785638400,10.575638427734376,1.1371952295303345,0.34563514590263367,0.5497287511825562
1757491454795680800,10.5856806640625,1.1477538347244263,0.2730241119861603,0.5236320495605469
1757491454805721900,10.595721923828124,1.1330151557922363,0.16763821244239807,0.5045966506004333
1757491454815760400,10.605760498046875,1.1085171699523926,0.07799023389816284,0.5028812885284424
1757491454825803000,10.615802978515624,1.0867505073547363,0.020151223987340927,0.5052627921104431
1757491454835843600,10.625843505859375,1.0757756233215332,-0.0075109112076461315,0.4926891326904297
1757491454845886000,10.635885986328125,1.0889488458633423,-0.008676684461534023,0.4858943223953247
1757491454855899400,10.6458994140625,1.0595381259918213,-0.11459551751613617,0.4986012578010559
1757491454865965800,10.6559658203125,1.002698302268982,-0.17819678783416748,0.4854613244533539
1757491454876006000,10.666005859375,0.9465413093566895,-0.13271497189998627,0.4624289870262146
1757491454886050000,10.676050048828126,0.8804919719696045,-0.030043644830584526,0.47593528032302856
1757491454896085000,10.6860849609375,0.7755556702613831,-0.03302469477057457,0.49050745368003845
1757491454906124800,10.696124755859374,0.6744831204414368,-0.10603541135787964,0.47135546803474426
1757491454916165400,10.706165283203125,0.6006064414978027,-0.17206814885139465,0.4586651921272278
1757491454926207200,10.716207275390625,0.5692804455757141,-0.1341971606016159,0.4220932126045227
1757491454936247800,10.726247802734376,0.5128403306007385,-0.12633651494979858,0.3706992566585541
1757491454946287000,10.736287109375,0.4458916485309601,-0.04881259426474571,0.299420565366745
1757491454956332500,10.74633251953125,0.40212517976760864,0.058638397604227066,0.20504286885261536
1757491454966374000,10.756373779296876,0.4408455193042755,0.10903311520814896,0.1313493400812149
1757491454976411600,10.76641162109375,0.4993673264980316,0.13744467496871948,0.08716654032468796
1757491454986450400,10.776450439453125,0.5265132188796997,0.1489858329296112,0.044232770800590515
1757491454996491000,10.786490966796874,0.5385539531707764,0.09391137212514877,0.055590733885765076
1757491455006531300,10.79653125,0.6342806220054626,0.0012823506258428097,0.15101760625839233
1757491455016578600,10.80657861328125,0.7542387247085571,0.06298507004976273,0.2596343755722046
1757491455026616300,10.8166162109375,0.9147823452949524,0.07619161158800125,0.4102356433868408
1757491455036657200,10.8266572265625,1.069114089012146,-0.00987576600164175,0.5908805727958679
1757491455046698200,10.8366982421875,1.123505711555481,-0.04486561939120293,0.7333880066871643
1757491455056738600,10.846738525390625,1.1132636070251465,-0.027745405212044716,0.7864140272140503
1757491455066775600,10.856775634765626,1.1067686080932617,-0.03210872784256935,0.781467854976654
1757491455076816400,10.86681640625,1.1297342777252197,-0.006694869603961706,0.7597677707672119
1757491455086861000,10.876861083984375,1.1483033895492554,0.07047932595014572,0.7098227143287659
1757491455096901400,10.8869013671875,1.1094331741333008,0.11747664213180542,0.6205911040306091
1757491455106942000,10.89694189453125,1.001998782157898,0.16782139241695404,0.5088434219360352
1757491455116983300,10.9069833984375,0.8479835391044617,0.3273991048336029,0.38257351517677307
1757491455127022800,10.91702294921875,0.666755735874176,0.34243759512901306,0.26496362686157227
1757491455137060000,10.92706005859375,0.5164875388145447,0.20609207451343536,0.11709360778331757
1757491455147104500,10.9371044921875,0.4063219726085663,0.08570099622011185,-0.042983729392290115
1757491455157145000,10.94714501953125,0.2956900894641876,0.03850382938981056,-0.19196955859661102
1757491455167186200,10.957186279296875,0.14943549036979675,-0.05449157580733299,-0.4064052402973175
1757491455177226500,10.9672265625,-0.08225363492965698,-0.31222739815711975,-0.7460116744041443
1757491455187267300,10.977267333984376,-0.3817574679851532,-0.5365055203437805,-1.1573964357376099
1757491455197303800,10.9873037109375,-0.693984866142273,-0.5530428886413574,-1.4581660032272339
1757491455207344600,10.9973447265625,-1.0093432664871216,-0.37129881978034973,-1.5439335107803345
1757491455217390300,11.007390380859375,-1.3434205055236816,-0.12965065240859985,-1.4729713201522827
1757491455227426800,11.0174267578125,-1.6586623191833496,0.17200152575969696,-1.382973551750183
1757491455237466600,11.027466552734374,-1.8986949920654297,0.4722214639186859,-1.277587652206421
1757491455247508000,11.037508056640625,-2.060171365737915,0.6965662240982056,-1.1077178716659546
1757491455257550300,11.04755029296875,-2.1559479236602783,0.7888455390930176,-0.9164476990699768
1757491455267588600,11.057588623046875,-2.197948932647705,0.677047848701477,-0.8413053154945374
1757491455277633300,11.06763330078125,-2.2019460201263428,0.3178730905056,-1.043850064277649
1757491455287673900,11.077673828125,-2.218966245651245,-0.0692136287689209,-1.457483172416687
1757491455297710300,11.08771044921875,-2.2995212078094482,-0.14762021601200104,-1.786497712135315
1757491455307754800,11.097754638671875,-2.3788270950317383,0.17118549346923828,-1.8967465162277222
1757491455317796000,11.107796142578126,-2.400127410888672,0.6221732497215271,-1.760267734527588
1757491455327832000,11.11783203125,-2.3871207237243652,0.8718485832214355,-1.4917569160461426
1757491455337877500,11.12787744140625,-2.394531726837158,0.8357095718383789,-1.272658109664917
1757491455347917300,11.137917236328125,-2.4155821800231934,0.6339808702468872,-1.1507514715194702
1757491455357958100,11.147958251953124,-2.44942307472229,0.2817007899284363,-1.0652503967285156
1757491455367995000,11.157994873046874,-2.4864113330841064,-0.12723582983016968,-1.0048799514770508
1757491455378039600,11.16803955078125,-2.517770528793335,-0.423075795173645,-1.0175702571868896
1757491455388080400,11.178080322265625,-2.5003674030303955,-0.6068849563598633,-1.0900980234146118
1757491455398116900,11.188116943359375,-2.4210946559906006,-0.7749228477478027,-1.1531662940979004
1757491455408161300,11.198161376953125,-2.327016830444336,-0.9735373258590698,-1.1686878204345703
1757491455418202600,11.20820263671875,-2.2506253719329834,-1.1271862983703613,-1.1656900644302368
1757491455428242700,11.21824267578125,-2.1734845638275146,-1.264098048210144,-1.1590617895126343
1757491455438279700,11.22827978515625,-2.0773580074310303,-1.4300042390823364,-1.1577794551849365
1757491455448324000,11.238323974609376,-1.9526370763778687,-1.5090769529342651,-1.1463881731033325
1757491455458361000,11.248361083984374,-1.8319295644760132,-1.4843125343322754,-1.1216404438018799
1757491455468410400,11.258410400390625,-1.7208813428878784,-1.399294376373291,-1.096476435661316
1757491455478442000,11.26844189453125,-1.651501178741455,-1.1865074634552002,-1.0734773874282837
1757491455488482800,11.27848291015625,-1.5640348196029663,-0.9668091535568237,-1.0482800006866455
1757491455498527200,11.28852734375,-1.4698070287704468,-0.8050997257232666,-0.9903577566146851
1757491455508563700,11.298563720703125,-1.364854097366333,-0.7004798650741577,-0.8837727904319763
1757491455518604800,11.308604736328125,-1.298171877861023,-0.5007829070091248,-0.7562371492385864
1757491455528649200,11.318649169921875,-1.2234125137329102,-0.46121323108673096,-0.6182762384414673
1757491455538690000,11.32868994140625,-1.1152287721633911,-0.49285566806793213,-0.5057457685470581
1757491455548730600,11.338730712890625,-0.9853282570838928,-0.5841690301895142,-0.384039044380188
1757491455558771700,11.348771728515626,-0.8879196047782898,-0.48982465267181396,-0.2754555940628052
1757491455568812000,11.35881201171875,-0.835593044757843,-0.3661361038684845,-0.1872398555278778
1757491455578848800,11.368848876953125,-0.7844821810722351,-0.2378510683774948,-0.10974923521280289
1757491455588889300,11.378889404296874,-0.658045768737793,-0.16615600883960724,-0.07752392441034317
1757491455598933800,11.388933837890624,-0.5405857563018799,-0.08428541570901871,-0.05820539593696594
1757491455608974300,11.398974365234375,-0.43150267004966736,-0.11379612982273102,-0.05327584221959114
1757491455619014400,11.409014404296874,-0.310328871011734,-0.2105553150177002,0.026946017518639565
1757491455629055700,11.4190556640625,-0.16172607243061066,-0.2873631417751312,0.16738839447498322
1757491455639096600,11.4290966796875,0.049079056829214096,-0.31612440943717957,0.3088633120059967
1757491455649132800,11.4391328125,0.332378625869751,-0.28106793761253357,0.426406592130661
1757491455659178200,11.44917822265625,0.661809504032135,-0.19726550579071045,0.47746744751930237
1757491455669218300,11.45921826171875,1.0004167556762695,-0.10255474597215652,0.5152718424797058
1757491455679259000,11.4692587890625,1.2352367639541626,0.029527373611927032,0.6288847327232361
1757491455689300000,11.479300048828126,1.2797693014144897,0.3171236515045166,0.9475072622299194
1757491455699340300,11.48934033203125,1.3422048091888428,0.8458518385887146,1.419345736503601
1757491455709381000,11.499381103515624,1.5437504053115845,1.4601144790649414,1.713836669921875
1757491455719417300,11.509417236328124,1.6758158206939697,1.7376184463500977,1.6909708976745605
1757491455729458200,11.519458251953125,1.6252045631408691,1.858642339706421,1.4348005056381226
1757491455739499000,11.5294990234375,1.5462983846664429,1.6284687519073486,1.2147191762924194
1757491455749541400,11.539541259765626,1.5384044647216797,0.9954538345336914,1.0630520582199097
1757491455759584300,11.549584228515625,1.550894856452942,0.6135631799697876,0.8669023513793945
1757491455769624800,11.559624755859375,1.5581393241882324,0.3352431058883667,0.6696535348892212
1757491455779661800,11.569661865234375,1.6374785900115967,0.31277698278427124,0.5831864476203918
1757491455789706200,11.579706298828125,1.8003370761871338,0.5549580454826355,0.560204029083252
1757491455799746600,11.58974658203125,1.996403455734253,0.8053162097930908,0.5550580024719238
1757491455809783800,11.59978369140625,2.132232666015625,0.9824305176734924,0.569879949092865
1757491455819828200,11.609828125,2.1379950046539307,1.0915635824203491,0.6167107224464417
1757491455829868800,11.619868896484375,2.064418077468872,1.2112551927566528,0.6867071390151978
1757491455839905500,11.629905517578125,1.9988516569137573,1.2773878574371338,0.7770878672599792
1757491455849950000,11.639949951171875,1.873131275177002,1.2459951639175415,0.856027364730835
1757491455859991000,11.649990966796874,1.6808120012283325,1.152133822441101,0.9165642857551575
1757491455870031000,11.660031005859375,1.5861012935638428,1.0227329730987549,0.9186627268791199
1757491455880067800,11.67006787109375,1.4948711395263672,0.8689674735069275,0.9035409688949585
1757491455890112300,11.6801123046875,1.421444058418274,0.6967660784721375,0.9111517667770386
1757491455900153000,11.690153076171875,1.3765285015106201,0.4704728126525879,0.8941814303398132
1757491455910190300,11.7001904296875,1.3812415599822998,0.2375013381242752,0.8865373134613037
1757491455920234800,11.71023486328125,1.415282130241394,0.13441365957260132,0.8975122570991516
1757491455930275300,11.720275390625,1.4627957344055176,0.11667725443840027,0.9115514755249023
1757491455940316400,11.73031640625,1.5387042760849,0.06926359236240387,0.9188792109489441
1757491455950352600,11.7403525390625,1.6321659088134766,-0.08923162519931793,0.9009596109390259
1757491455960401400,11.7504013671875,1.7625160217285156,-0.24044907093048096,0.8440032601356506
1757491455970433500,11.76043359375,1.8847390413284302,-0.27945253252983093,0.7585687041282654
1757491455980475000,11.770474853515625,1.9291549921035767,-0.21063858270645142,0.6848918199539185
1757491455990517500,11.780517578125,1.8569936752319336,-0.09819142520427704,0.6399762630462646
1757491456000557000,11.79055712890625,1.7044105529785156,-0.01582120917737484,0.6009728312492371
1757491456010600400,11.800600341796875,1.545149326324463,-0.027812020853161812,0.564667284488678
1757491456020641000,11.81064111328125,1.4591485261917114,-0.08646707236766815,0.5493623614311218
1757491456030681300,11.820681396484375,1.3967463970184326,-0.12498755753040314,0.5183361172676086
1757491456040718300,11.83071826171875,1.3484500646591187,-0.09412787109613419,0.48024865984916687
1757491456050762800,11.8407626953125,1.2602676153182983,-0.05059456452727318,0.4588317275047302
1757491456060803600,11.850803466796876,1.0960767269134521,-0.010092265903949738,0.4398795962333679
1757491456070844400,11.860844482421875,0.9175635576248169,-0.004996171221137047,0.3982947766780853
1757491456080884700,11.870884765625,0.7251443266868591,0.023698506876826286,0.36220577359199524
1757491456090925600,11.880925537109375,0.6029046773910522,0.08680015057325363,0.33346113562583923
1757491456100961800,11.8909619140625,0.4940713942050934,0.17436638474464417,0.2935250699520111
1757491456111003100,11.901003173828125,0.3365587592124939,0.17634819447994232,0.2439464032649994
1757491456121047000,11.911047119140624,0.1711355298757553,0.08408556878566742,0.22199654579162598
1757491456131088100,11.921088134765625,0.09181297570466995,0.09599310904741287,0.24937556684017181
1757491456141128700,11.931128662109375,0.061352986842393875,0.1030210554599762,0.23045673966407776
1757491456151169300,11.941169189453126,-0.004429938737303019,-0.03940314054489136,0.10581891238689423
1757491456161206000,11.9512060546875,-0.031709033995866776,-0.09912404417991638,-0.02371516078710556
1757491456171251000,11.9612509765625,0.014555512927472591,-0.017186829820275307,-0.10914969444274902
1757491456181287200,11.971287109375,0.05908805504441261,0.045198697596788406,-0.13214872777462006
1757491456191332000,11.98133203125,0.12678617238998413,0.14365658164024353,-0.10425344109535217
1757491456201373000,11.991373046875,0.25322261452674866,0.19644945859909058,-0.05763916298747063
1757491456211411500,12.001411376953126,0.3153250217437744,0.20765754580497742,0.020567571744322777
1757491456221450200,12.0114501953125,0.37422990798950195,0.23771783709526062,0.11244716495275497
1757491456231516200,12.02151611328125,0.46296191215515137,0.22123047709465027,0.2413816899061203
1757491456241533000,12.031532958984375,0.5827367901802063,0.1905040144920349,0.34340351819992065
1757491456251571200,12.0415712890625,0.7153018712997437,0.21240390837192535,0.38816919922828674
1757491456261616000,12.0516162109375,0.8640711903572083,0.2592346966266632,0.4672752618789673
1757491456271656400,12.061656494140625,1.023982048034668,0.26321497559547424,0.5721116065979004
1757491456281700000,12.0717001953125,1.1426743268966675,0.21876569092273712,0.6504515409469604
1757491456291735600,12.081735595703124,1.177647590637207,0.20725785195827484,0.6612433195114136
1757491456301775000,12.091775146484375,1.1559808254241943,0.14212442934513092,0.638893723487854
1757491456311815000,12.10181494140625,1.1174770593643188,0.14475573599338531,0.6059523224830627
1757491456321857800,12.11185791015625,1.092146396636963,0.20252813398838043,0.5913468599319458
1757491456331897000,12.12189697265625,1.107884407043457,0.1886221319437027,0.5746263265609741
1757491456341938700,12.131938720703126,1.167755126953125,0.06423410773277283,0.5263466835021973
1757491456351981800,12.14198193359375,1.2455122470855713,-0.08824904263019562,0.4855612516403198
1757491456362024200,12.152024169921875,1.2850818634033203,-0.30994582176208496,0.4857611060142517
1757491456372060700,12.162060791015625,1.1741836071014404,-0.7122042179107666,0.4219599962234497
1757491456382101000,12.17210107421875,0.803001344203949,-1.2646808624267578,0.13096630573272705
1757491456392181200,12.18218115234375,0.22219640016555786,-1.6454890966415405,-0.2866969704627991
1757491456402206200,12.192206298828125,-0.4679247736930847,-1.6666395664215088,-0.5544251203536987
1757491456412227000,12.20222705078125,-1.1093499660491943,-1.4351003170013428,-0.5757588148117065
1757491456422262800,12.2122626953125,-1.7181167602539062,-0.9636282324790955,-0.4813811182975769
1757491456432307200,12.22230712890625,-2.175499677658081,-0.38996782898902893,-0.33589261770248413
1757491456442348000,12.23234814453125,-2.384922504425049,-0.4422111213207245,0.3089299201965332
1757491456452390400,12.242390380859375,-2.4179139137268066,-0.6900545358657837,0.7373016476631165
1757491456462427100,12.25242724609375,-2.459465265274048,-0.7751060128211975,0.6692371368408203
1757491456472466200,12.262466064453125,-2.2854652404785156,-0.4639444947242737,0.0791393592953682
1757491456482507500,12.272507568359375,-2.0517942905426025,-0.057056277990341187,-0.5126904845237732
1757491456492548400,12.28254833984375,-1.8267834186553955,0.09785834699869156,-0.7080240845680237
1757491456502591500,12.292591552734375,-1.6788800954818726,0.026612939313054085,-0.6827601194381714
1757491456512632600,12.302632568359375,-1.6797128915786743,-0.14763686060905457,-0.6349467635154724
1757491456522673200,12.312673095703126,-1.7130873203277588,-0.3932153582572937,-0.645422101020813
1757491456532713200,12.322713134765625,-1.6201751232147217,-0.38089144229888916,-1.052776575088501
1757491456542754300,12.33275439453125,-1.0994075536727905,0.1844586431980133,-2.5579898357391357
1757491456552790800,12.342790771484376,-0.5455319881439209,-0.39110028743743896,-3.063319206237793
1757491456562835200,12.352835205078126,-0.26266539096832275,-0.6508179306983948,-3.007495403289795
1757491456572875800,12.362875732421875,-0.20927296578884125,-0.3101789653301239,-2.7082746028900146
1757491456582916600,12.37291650390625,-0.30779746174812317,0.1794624775648117,-2.22721004486084
1757491456592957200,12.382957275390625,-0.43949654698371887,0.38527143001556396,-1.6100496053695679
1757491456602998300,12.392998291015624,-0.5060455799102783,0.06105321645736694,-0.9754525423049927
1757491456613034800,12.40303466796875,-0.4773508608341217,-0.6986312866210938,-0.4992341101169586
1757491456623075600,12.41307568359375,-0.4242915213108063,-1.2822173833847046,-0.2459615170955658
1757491456633119500,12.423119384765625,-0.4569498300552368,-1.3810750246047974,-0.12582024931907654
1757491456643160600,12.43316064453125,-0.6025882363319397,-1.2234292030334473,-0.07779038697481155
1757491456653201000,12.443200927734376,-0.832845151424408,-0.982530415058136,-0.07757388800382614
1757491456663242200,12.4532421875,-1.1053862571716309,-0.8105288743972778,-0.11188093572854996
1757491456673282600,12.463282470703126,-1.3382744789123535,-0.8129770159721375,-0.16950345039367676
1757491456683323100,12.4733232421875,-1.402458667755127,-0.9584988355636597,-0.22865810990333557
1757491456693359900,12.48335986328125,-1.232921838760376,-1.109932780265808,-0.25285622477531433
1757491456703409400,12.493409423828124,-0.9767515063285828,-1.027962327003479,-0.20780742168426514
1757491456713441500,12.503441650390625,-0.8106787800788879,-0.684242308139801,-0.09875765442848206
1757491456723481900,12.51348193359375,-0.8354930877685547,0.003214203519746661,-0.08979785442352295
1757491456733525500,12.523525390625,-1.1248879432678223,1.2551381587982178,-0.5300438404083252
1757491456743562800,12.533562744140625,-1.2574530839920044,1.973021388053894,-0.5525432825088501
1757491456753608000,12.54360791015625,-1.063634991645813,1.677281379699707,-0.025780243799090385
1757491456763648500,12.5536484375,-0.727325975894928,0.7265598773956299,0.46635928750038147
1757491456773688800,12.563688720703125,-0.37624502182006836,-0.19017094373703003,0.7078908681869507
1757491456783725800,12.573725830078125,-0.1324651539325714,-0.5750260353088379,0.7464446425437927
1757491456793770500,12.5837705078125,-0.004013590980321169,-0.6298340559005737,0.7928091287612915
1757491456803811000,12.59381103515625,0.11817611008882523,-0.6291512250900269,0.9300706386566162
1757491456813851400,12.603851318359375,0.27702105045318604,-0.5215336680412292,1.0641511678695679
1757491456823891700,12.6138916015625,0.36222243309020996,-0.14772014319896698,1.0955771207809448
1757491456833932300,12.623932373046875,0.3652534484863281,0.2694268822669983,1.103837490081787
1757491456843973000,12.63397314453125,0.347133994102478,0.5659996271133423,1.105319619178772
1757491456854009900,12.644009765625,0.32390180230140686,0.7435302138328552,1.0615864992141724
1757491456864054800,12.6540546875,0.29279229044914246,0.8389238119125366,0.9423112273216248
1757491456874095400,12.664095458984375,0.37887632846832275,0.7422811985015869,0.8374083042144775
1757491456884111000,12.674111083984375,0.5959433317184448,0.4474404752254486,0.7563703656196594
