time,seconds_elapsed,z,y,x
1757491444272998700,0.06299853515625,9.651326179504395,1.0750713348388672,-1.2803741693496704
1757491444283041000,0.073041015625,9.361553192138672,1.0643723011016846,-1.192013144493103
1757491444293102300,0.083102294921875,9.373823165893555,1.0625017881393433,-1.0560673475265503
1757491444303146800,0.093146728515625,10.211943626403809,1.109562873840332,-1.4056956768035889
1757491444313177900,0.103177734375,10.1452054977417,1.4067431688308716,-1.8604443073272705
1757491444323223800,0.113223876953125,9.515978813171387,1.60837984085083,-1.891943097114563
1757491444333246000,0.123245849609375,8.877250671386719,1.7175405025482178,-2.0027496814727783
1757491444343309600,0.1333095703125,8.853458404541016,1.6342670917510986,-1.8242321014404297
1757491444353350700,0.1433505859375,8.851887702941895,1.4316577911376953,-1.6525229215621948
1757491444363384300,0.15338427734375,9.31509017944336,1.4074164628982544,-1.4674960374832153
1757491444373419300,0.163419189453125,9.45328140258789,1.3908815383911133,-1.5374516248703003
1757491444383427300,0.17342724609375,9.49802303314209,1.2609961032867432,-1.6065841913223267
1757491444393510400,0.183510498046875,9.737442970275879,1.2133365869522095,-1.703474521636963
1757491444403552000,0.193552001953125,9.866430282592773,1.2262053489685059,-1.6824504137039185
1757491444413569000,0.203569091796875,9.973570823669434,1.2008417844772339,-1.451709270477295
1757491444423631000,0.213631103515625,10.025345802307129,1.1275193691253662,-1.115922451019287
1757491444433676000,0.223676025390625,10.00035572052002,1.0923545360565186,-1.0062381029129028
1757491444443716400,0.23371630859375,9.99571704864502,1.1607389450073242,-1.0642226934432983
1757491444453734000,0.24373388671875,9.662773132324219,1.3540706634521484,-1.4360721111297607
1757491444463798000,0.253798095703125,9.624615669250488,1.4829087257385254,-1.649829387664795
1757491444473838600,0.263838623046875,9.403825759887695,1.5325883626937866,-1.7475427389144897
1757491444483853600,0.273853515625,9.354146003723145,1.5473276376724243,-1.5622166395187378
1757491444493919500,0.28391943359375,9.500716209411621,1.3616273403167725,-1.2085480690002441
1757491444503960800,0.2939609375,9.707140922546387,1.2998270988464355,-1.077465534210205
1757491444514001400,0.30400146484375,9.906682968139648,1.2868086099624634,-0.9150339365005493
1757491444524017000,0.314016845703125,9.84495735168457,1.2802993059158325,-0.7870938181877136
1757491444534082800,0.324082763671875,9.756896018981934,1.3098528385162354,-0.6981342434883118
1757491444544123400,0.334123291015625,9.562965393066406,1.4462474584579468,-0.6975356936454773
1757491444554148000,0.344148193359375,9.413028717041016,1.5249568223953247,-0.6330419182777405
1757491444564205300,0.354205322265625,9.319205284118652,1.5651345252990723,-0.515426754951477
1757491444574222600,0.36422265625,9.434725761413574,1.6020950078964233,-0.5144540667533875
1757491444584287500,0.37428759765625,9.510966300964355,1.5806220769882202,-0.5388450026512146
1757491444594323500,0.384323486328125,9.679009437561035,1.5267524719238281,-0.5567266941070557
1757491444604342500,0.394342529296875,9.863737106323242,1.4377928972244263,-0.48894086480140686
1757491444614408400,0.404408447265625,9.936386108398438,1.3753941059112549,-0.4527285695075989
1757491444624429600,0.4144296875,10.23648452758789,1.1042506694793701,-0.2602197825908661
1757491444634486500,0.424486572265625,9.84383487701416,1.441758394241333,-0.3229927718639374
1757491444644527400,0.43452734375,9.657984733581543,1.5124621391296387,-0.3216460347175598
1757491444654572500,0.444572509765625,9.649680137634277,1.4359972476959229,-0.3436427712440491
1757491444664608500,0.4546083984375,9.716044425964355,1.4715362787246704,-0.0537199005484581
1757491444674620200,0.4646201171875,9.851615905761719,1.5695488452911377,0.13010989129543304
1757491444684693500,0.474693603515625,9.759140014648438,1.6129437685012817,0.3241150677204132
1757491444694734300,0.484734375,9.520393371582031,1.4582184553146362,0.5366004705429077
1757491444704755700,0.494755615234375,9.419013977050781,1.4896423816680908,0.48714521527290344
1757491444714812200,0.504812255859375,8.983643531799316,1.9451392889022827,-0.24286183714866638
1757491444724834600,0.51483447265625,8.449810981750488,2.7002105712890625,-1.1708394289016724
1757491444734893300,0.524893310546875,8.4015531539917,1.876231074333191,-0.3372083604335785
1757491444744938200,0.534938232421875,8.734272003173828,1.6903811693191528,0.4678419828414917
1757491444754978800,0.544978759765625,8.649802207946777,1.7931822538375854,0.9712976813316345
1757491444765019100,0.55501904296875,8.66790771484375,1.9382559061050415,0.8278700709342957
1757491444775053600,0.565053466796875,9.049932479858398,2.004769802093506,0.801459014415741
1757491444785101000,0.57510107421875,9.149591445922852,1.889025092124939,0.7536498308181763
1757491444795116000,0.585115966796875,9.152883529663086,1.9209728240966797,0.5641337633132935
1757491444805182200,0.59518212890625,9.202563285827637,1.8280478715896606,0.5048024654388428
1757491444815199700,0.60519970703125,9.28419017791748,1.82692551612854,0.6953659653663635
1757491444825238000,0.615238037109375,8.7838773727417,1.9788825511932373,0.7834277153015137
1757491444835304000,0.625303955078125,8.589423179626465,1.9838954210281372,0.7950994372367859
1757491444845320200,0.6353203125,8.75192928314209,1.9890578985214233,0.9112930297851562
1757491444855387000,0.645386962890625,8.999878883361816,2.0277392864227295,0.7445219159126282
1757491444865421800,0.655421875,9.327435493469238,2.0562450885772705,0.4281879961490631
1757491444875464000,0.6654638671875,9.784953117370605,2.048464059829712,0.1694645881652832
1757491444885504000,0.67550390625,10.23498821258545,1.991003155708313,-0.18981529772281647
1757491444895519500,0.68551953125,10.724601745605469,1.7830817699432373,-0.31281742453575134
1757491444905564000,0.69556396484375,11.105878829956055,1.6260370016098022,-0.30615854263305664
1757491444915604700,0.705604736328125,11.029414176940918,1.5613187551498413,-0.2298433631658554
1757491444925645300,0.715645263671875,10.803311347961426,1.7384897470474243,-0.25745150446891785
1757491444935713000,0.725713134765625,10.620828628540039,1.7230770587921143,-0.23044191300868988
1757491444945733400,0.7357333984375,10.294319152832031,1.7995418310165405,-0.14245499670505524
1757491444955793700,0.745793701171875,9.934290885925293,1.7935563325881958,-0.023942016065120697
1757491444965829600,0.75582958984375,9.60636043548584,1.8478000164031982,-0.03875613957643509
1757491444975849000,0.765848876953125,9.599027633666992,1.8278981447219849,-0.13429975509643555
1757491444985915600,0.77591552734375,9.68813705444336,1.8011130094528198,-0.2899976670742035
1757491444995932400,0.785932373046875,9.762432098388672,1.624765157699585,-0.40132805705070496
1757491445005965800,0.7959658203125,9.958606719970703,1.585111141204834,-0.6483049392700195
1757491445016013600,0.806013671875,10.065448760986328,1.506701111793518,-0.7615057826042175
1757491445026052900,0.816052978515625,10.308534622192383,1.361402988433838,-0.6646154522895813
1757491445036093000,0.826093017578125,10.291924476623535,1.291372537612915,-0.5027075409889221
1757491445046155500,0.836155517578125,10.20296573638916,1.3469629287719727,-0.35748425126075745
1757491445056189400,0.846189453125,9.792584419250488,1.4393640756607056,-0.3024176061153412
1757491445066238000,0.856238037109375,9.242890357971191,1.5536872148513794,-0.32538697123527527
1757491445076277500,0.866277587890625,9.020977973937988,1.5552585124969482,-0.33511340618133545
1757491445086323500,0.876323486328125,8.991349220275879,1.6089783906936646,-0.3274070918560028
1757491445096337700,0.886337646484375,9.109264373779297,1.5190461874008179,-0.2832639813423157
1757491445106382300,0.89638232421875,9.351153373718262,1.4844050407409668,-0.3538181185722351
1757491445116418600,0.90641845703125,9.671751976013184,1.482310175895691,-0.5009118914604187
1757491445126493400,0.916493408203125,9.743204116821289,1.4284405708312988,-0.5027823448181152
1757491445136549400,0.92654931640625,9.708413124084473,1.365069031715393,-0.46844053268432617
1757491445146579200,0.9365791015625,9.813608169555664,1.421033501625061,-0.46260467171669006
1757491445156580400,0.946580322265625,9.759065628051758,1.4576199054718018,-0.3547159433364868
1757491445166648800,0.95664892578125,9.69965934753418,1.4138509035110474,-0.18285715579986572
1757491445176689000,0.96668896484375,9.578153610229492,1.43532395362854,-0.1356464922428131
1757491445186693000,0.976693115234375,9.549647331237793,1.5554081201553345,-0.2671031355857849
1757491445196770300,0.986770263671875,9.518447875976562,1.4559738636016846,-0.19602526724338531
1757491445206816500,0.99681640625,9.557727813720703,1.4151976108551025,-0.16909049451351166
1757491445216848000,1.006847900390625,9.5531644821167,1.4358476400375366,-0.2834884524345398
1757491445226871800,1.016871826171875,9.578527450561523,1.5676783323287964,-0.3818003535270691
1757491445236893000,1.026892822265625,9.647584915161133,1.4016554355621338,-0.1445499211549759
1757491445246974000,1.036973876953125,9.72158145904541,1.3365631103515625,-0.043918635696172714
1757491445257014500,1.0470146484375,9.709835052490234,1.4336779117584229,-0.12434884905815125
1757491445267051300,1.05705126953125,9.545158386230469,1.436446189880371,-0.14739304780960083
1757491445277092000,1.067092041015625,9.430536270141602,1.4270938634872437,-0.15412673354148865
1757491445287114500,1.077114501953125,9.430610656738281,1.506476640701294,-0.2753331959247589
1757491445297143000,1.08714306640625,9.584288597106934,1.504082441329956,-0.3141641616821289
1757491445307192600,1.097192626953125,9.714248657226562,1.4474445581436157,-0.2495207041501999
1757491445317258800,1.1072587890625,9.68694019317627,1.4484171867370605,-0.1933317929506302
1757491445327308800,1.117308837890625,9.603666305541992,1.563488483428955,-0.2602197825908661
1757491445337336300,1.12733642578125,9.374496459960938,1.5243582725524902,-0.24271219968795776
1757491445347377200,1.137377197265625,9.313519477844238,1.4826842546463013,-0.24862287938594818
1757491445357383000,1.1473828125,9.544934272766113,1.4643535614013672,-0.23193828761577606
1757491445367458800,1.157458740234375,9.770288467407227,1.395669937133789,-0.1654243767261505
1757491445377499600,1.167499755859375,9.96324634552002,1.3418751955032349,-0.22041618824005127
1757491445387540700,1.177540771484375,10.0858736038208,1.2918214797973633,-0.26426002383232117
1757491445397559300,1.187559326171875,10.077718734741211,1.3203274011611938,-0.23657704889774323
1757491445407608000,1.197608154296875,10.014571189880371,1.3069348335266113,-0.16834230720996857
1757491445417665800,1.207665771484375,9.890671730041504,1.3391817808151245,-0.12225392460823059
1757491445427686700,1.217686767578125,9.711779594421387,1.375319242477417,-0.14260463416576385
1757491445437747500,1.22774755859375,9.633968353271484,1.3087304830551147,-0.17492635548114777
1757491445447788300,1.237788330078125,9.739612579345703,1.161711573600769,-0.16804303228855133
1757491445457799000,1.247798828125,10.154333114624023,1.108141303062439,-0.029478607699275017
1757491445467869400,1.257869384765625,10.152986526489258,0.44442370533943176,0.43260231614112854
1757491445477869600,1.26786962890625,9.219098091125488,1.5386487245559692,-0.14754268527030945
1757491445487951000,1.277951171875,8.970699310302734,1.7426047325134277,-0.03164835274219513
1757491445497991700,1.28799169921875,9.194856643676758,1.2364555597305298,-0.35591304302215576
1757491445508007200,1.298007080078125,8.862661361694336,0.6814496517181396,1.4330044984817505
1757491445518073600,1.308073486328125,9.31845760345459,1.857301950454712,0.6011691093444824
1757491445528074800,1.31807470703125,8.948029518127441,1.2801496982574463,1.2946646213531494
1757491445538140000,1.328139892578125,9.362975120544434,1.3436708450317383,1.3133692741394043
1757491445548192800,1.33819287109375,9.218125343322754,1.0536731481552124,1.5770307779312134
1757491445558255600,1.348255615234375,8.920945167541504,1.0532243251800537,1.5067758560180664
1757491445568277200,1.35827734375,8.820014953613281,0.964339554309845,1.9028666019439697
1757491445578312700,1.368312744140625,9.4938325881958,1.520392894744873,2.522815227508545
1757491445588358100,1.378358154296875,8.941370964050293,1.2769324779510498,2.91037654876709
1757491445598404900,1.38840478515625,8.794800758361816,1.0071358680725098,3.4402434825897217
1757491445608435200,1.398435302734375,9.657536506652832,1.2949638366699219,4.1564836502075195
1757491445618476500,1.4084765625,10.134356498718262,2.120738983154297,4.877063751220703
1757491445628496000,1.418495849609375,9.125275611877441,0.39878422021865845,6.2090630531311035
1757491445638557700,1.4285576171875,7.3209452629089355,-2.251148223876953,7.077858924865723
1757491445648580600,1.43858056640625,5.928193092346191,-3.205836057662964,7.381024360656738
1757491445658618000,1.4486181640625,5.812897205352783,-2.7543046474456787,7.369053363800049
1757491445668680200,1.45868017578125,6.212878704071045,-2.634070873260498,7.3238630294799805
1757491445678724600,1.468724609375,5.358672142028809,-3.32352614402771,7.930568695068359
1757491445688765400,1.478765380859375,4.522796630859375,-4.074182987213135,8.854207038879395
1757491445698780400,1.488780517578125,4.870928764343262,-3.9596354961395264,8.6874361038208
1757491445708842800,1.4988427734375,6.24505090713501,-3.1379754543304443,7.742698669433594
1757491445718887400,1.508887451171875,7.225101947784424,-2.661978244781494,6.061146259307861
1757491445728902700,1.518902587890625,8.058059692382812,-2.2991819381713867,3.8557121753692627
1757491445738969000,1.528968994140625,8.610222816467285,-1.6404023170471191,1.5246576070785522
1757491445748984300,1.538984375,8.50794506072998,-1.2078747749328613,-0.7356184720993042
1757491445759050500,1.549050537109375,7.019275665283203,-2.4687960147857666,-1.2944401502609253
1757491445769073000,1.559072998046875,6.59348201751709,-3.6938042640686035,-1.4200608730316162
1757491445779128000,1.569128173828125,6.867767810821533,-3.2609026432037354,-2.3073370456695557
1757491445789150000,1.57914990234375,7.245303153991699,-3.051260471343994,-3.5486557483673096
1757491445799209200,1.589209228515625,7.150208473205566,-3.58524227142334,-4.708122730255127
1757491445809254100,1.599254150390625,6.455740451812744,-4.525340557098389,-5.422418117523193
1757491445819280000,1.60927978515625,4.214019298553467,-6.073192119598389,-3.9188592433929443
1757491445829335300,1.619335205078125,0.8652046322822571,-7.515249729156494,0.23485621809959412
1757491445839375600,1.629375732421875,2.4352023601531982,-7.476268768310547,4.069095611572266
1757491445849391000,1.63939111328125,5.24838924407959,-6.375235557556152,6.68984842300415
1757491445859453400,1.649453369140625,6.0802998542785645,-6.075660705566406,7.957653045654297
1757491445869475600,1.6594755859375,6.710722923278809,-6.2912139892578125,9.135825157165527
1757491445879537400,1.669537353515625,8.298078536987305,-6.129305839538574,10.254815101623535
1757491445889579500,1.67957958984375,10.496180534362793,-5.993584632873535,9.68349838256836
1757491445899642400,1.689642333984375,11.45378589630127,-6.050297260284424,11.265766143798828
1757491445909661200,1.6996611328125,12.325125694274902,-5.527688026428223,12.826037406921387
1757491445919711500,1.70971142578125,12.923526763916016,-5.430722713470459,14.093618392944336
1757491445929741600,1.719741455078125,12.103063583374023,-5.476811408996582,15.472977638244629
1757491445939751000,1.7297509765625,11.11642837524414,-5.377302169799805,15.936479568481445
1757491445949824000,1.739823974609375,9.42791748046875,-4.988468647003174,16.2882022857666
1757491445959864800,1.74986474609375,6.2707133293151855,-4.057498455047607,16.797195434570312
1757491445969885000,1.759885009765625,3.042656183242798,-2.955716848373413,16.817171096801758
1757491445979946000,1.769946044921875,2.0234744548797607,-2.539724349975586,16.528745651245117
1757491445989982500,1.779982421875,0.32029929757118225,-1.903315544128418,16.286781311035156
1757491446000027600,1.790027587890625,-1.6543933153152466,-1.4658499956130981,16.031574249267578
1757491446010042600,1.800042724609375,-1.922544002532959,-1.1184662580490112,16.122255325317383
1757491446020131000,1.810131103515625,-3.3138744831085205,-0.6816741228103638,17.28074836730957
1757491446030149600,1.820149658203125,-5.497311592102051,-1.2452093362808228,18.163013458251953
1757491446040164900,1.830164794921875,-6.931812286376953,-1.0526257753372192,18.773609161376953
1757491446050206700,1.840206787109375,-8.023493766784668,-0.9025391936302185,17.928829193115234
1757491446060271900,1.85027197265625,-11.907562255859375,-0.6438906192779541,14.949844360351562
1757491446070312700,1.860312744140625,-17.06833839416504,-2.1459529399871826,9.26570987701416
1757491446080349400,1.870349365234375,-15.247773170471191,-14.244153022766113,0.8551040887832642
1757491446090369300,1.880369384765625,-8.37416934967041,-20.627843856811523,-4.568061828613281
1757491446100430600,1.8904306640625,2.6540474891662598,-3.0313587188720703,5.063287734985352
1757491446110484700,1.900484619140625,-3.3774704933166504,-3.6896145343780518,8.159588813781738
1757491446120512500,1.910512451171875,-5.744288444519043,-3.972728729248047,7.63765287399292
1757491446130555400,1.920555419921875,-3.1803228855133057,-2.476801633834839,9.651326179504395
1757491446140572700,1.93057275390625,-1.9661632776260376,-0.6568342447280884,11.481245040893555
1757491446150634200,1.94063427734375,-4.921356201171875,-2.5346364974975586,13.50853443145752
1757491446160669400,1.95066943359375,-4.719869613647461,-2.0913352966308594,14.380548477172852
1757491446170694100,1.960694091796875,-0.2743605375289917,-1.0440963506698608,15.525574684143066
1757491446180756200,1.970756103515625,1.6242413520812988,-4.060266971588135,15.7316255569458
1757491446190776000,1.980776123046875,3.9606082439422607,-4.386252403259277,15.286603927612305
1757491446200842000,1.990842041015625,6.1396307945251465,-4.210876941680908,14.669049263000488
1757491446210882600,2.000882568359375,4.198307514190674,-4.2142438888549805,13.462072372436523
1757491446220925700,2.01092578125,-0.8402899503707886,-3.0959272384643555,10.329558372497559
1757491446230941400,2.02094140625,-0.3198503851890564,-0.34341830015182495,10.868329048156738
1757491446241000400,2.03100048828125,-1.4518588781356812,-1.4853029251098633,11.782390594482422
1757491446291182600,2.0811826171875,1.6978631019592285,-13.097854614257812,0.2948608994483948
1757491446311272700,2.101272705078125,-1.9945197105407715,-12.279934883117676,2.3807342052459717
1757491446351413200,2.141413330078125,-1.2250831127166748,-6.660070419311523,9.188048362731934
1757491446361476600,2.1514765625,-0.3885340392589569,-5.2748003005981445,8.660126686096191
1757491446371496700,2.16149658203125,0.2050783336162567,-3.6132993698120117,7.858293533325195
1757491446381548300,2.17154833984375,0.5918915271759033,-2.1850831508636475,6.715735912322998
1757491446391591200,2.181591064453125,-0.6952162981033325,-1.2391489744186401,5.790152549743652
1757491446401631000,2.191630859375,-2.4973769187927246,-1.0228478908538818,4.550554275512695
1757491446411671600,2.201671630859375,-2.6788125038146973,-1.5438112020492554,3.693505048751831
1757491446421727200,2.211727294921875,-2.4218099117279053,-2.4209868907928467,3.7854573726654053
1757491446431752200,2.221752197265625,-0.6205471754074097,-4.052635192871094,5.862801551818848
1757491446441782300,2.2317822265625,-0.17215806245803833,-3.184662342071533,8.23044204711914
1757491446451840300,2.24184033203125,0.7716063261032104,-3.0609867572784424,10.288931846618652
1757491446461884400,2.251884521484375,-2.7997944355010986,-3.912125587463379,14.292561531066895
1757491446471903700,2.26190380859375,-4.122964859008789,-3.194164276123047,13.615001678466797
1757491446481957000,2.27195703125,-2.805330991744995,-3.987842321395874,10.670433044433594
1757491446492024600,2.282024658203125,-2.434903144836426,-7.998803615570068,8.114323616027832
1757491446502037000,2.292037109375,-3.831171751022339,-12.330587387084961,6.286275863647461
1757491446512104700,2.302104736328125,-2.275613784790039,-14.04842758178711,6.253130912780762
1757491446522200600,2.31220068359375,2.8006174564361572,-13.720571517944336,5.588590621948242
1757491446532202800,2.32220263671875,3.267486810684204,-13.149330139160156,5.357550144195557
1757491446542225700,2.3322255859375,2.4066216945648193,-12.33141040802002,5.356352806091309
1757491446552267000,2.34226708984375,1.939976692199707,-11.099743843078613,6.610166549682617
1757491446562303700,2.3523037109375,0.058059390634298325,-10.960954666137695,7.853729724884033
1757491446572348700,2.3623486328125,-1.6270097494125366,-9.335216522216797,7.701847553253174
1757491446582391300,2.372391357421875,-1.1499650478363037,-8.046612739562988,7.295432090759277
1757491446592425000,2.382425048828125,-0.24203883111476898,-7.567248344421387,5.912630558013916
1757491446602467000,2.392467041015625,2.5749640464782715,-5.337348937988281,3.9407811164855957
1757491446612508200,2.402508056640625,3.2962920665740967,-3.717372179031372,3.8015434741973877
1757491446622549800,2.4125498046875,6.74379301071167,-4.603600978851318,5.062389850616455
1757491446632588300,2.42258837890625,6.532279968261719,-8.905981063842773,3.70510196685791
1757491446642633000,2.432633056640625,9.7559232711792,-10.889577865600586,0.8248773217201233
1757491446652674600,2.442674560546875,3.8643910884857178,-15.749956130981445,-1.7472435235977173
1757491446662711000,2.4527109375,-18.526033401489258,-11.309310913085938,-2.1122844219207764
1757491446672755500,2.46275537109375,-15.8002347946167,-11.239953994750977,-0.7139958143234253
1757491446682796500,2.472796630859375,-6.739453315734863,-8.672921180725098,2.6000282764434814
1757491446692832300,2.482832275390625,-1.8763059377670288,-6.909366607666016,3.6441993713378906
1757491446702877700,2.492877685546875,-1.9783587455749512,-5.585971832275391,2.8337621688842773
1757491446712918800,2.502918701171875,-2.439467191696167,-3.747823476791382,5.094038009643555
1757491446722959000,2.512958984375,10.047266960144043,-6.8418803215026855,4.7002668380737305
1757491446732999700,2.522999755859375,9.98217487335205,-10.765901565551758,9.29458999633789
1757491446743039700,2.533039794921875,-3.085752010345459,-14.713940620422363,10.816853523254395
1757491446753077800,2.543077880859375,-10.22152042388916,-15.591490745544434,7.196147441864014
1757491446763122000,2.553121826171875,-5.800327777862549,-10.521618843078613,1.9042881727218628
1757491446773162200,2.563162353515625,-0.8106617331504822,-5.145887851715088,0.8683470487594604
1757491446783203000,2.573203125,-0.6537666916847229,-4.666448593139648,3.1774797439575195
1757491446793243400,2.583243408203125,0.8217349052429199,-7.467739582061768,3.765181541442871
1757491446803284500,2.593284423828125,2.9838485717773438,-9.451260566711426,4.420743942260742
1757491446813325600,2.60332568359375,0.21173721551895142,-9.552191734313965,4.872125625610352
1757491446823362600,2.613362548828125,-1.1150994300842285,-8.426018714904785,4.7438859939575195
1757491446833409300,2.6234091796875,-0.5068225860595703,-7.269394874572754,4.3908162117004395
1757491446843443000,2.63344287109375,-0.2850596308708191,-6.272135257720947,3.784335136413574
1757491446853485000,2.643485107421875,-0.8310124278068542,-6.0312933921813965,3.017591953277588
1757491446863527700,2.653527587890625,-0.659228503704071,-6.638822078704834,2.9268367290496826
1757491446873575200,2.6635751953125,0.22535423934459686,-7.134721279144287,3.987393379211426
1757491446883606300,2.673606201171875,0.42272624373435974,-8.02072525024414,5.170203685760498
1757491446893646600,2.683646484375,-0.7958475947380066,-10.502988815307617,5.755810737609863
1757491446903691800,2.69369189453125,-2.4461259841918945,-12.70902156829834,6.367978096008301
1757491446913732600,2.703732666015625,-3.0033764839172363,-13.531654357910156,6.023736476898193
1757491446923773200,2.713773193359375,-2.7678468227386475,-13.213898658752441,5.1763386726379395
1757491446933813800,2.723813720703125,-0.9350106120109558,-10.772635459899902,4.000486373901367
1757491446943854300,2.733854248046875,0.5003881454467773,-9.581669807434082,3.2166848182678223
1757491446953895700,2.743895751953125,0.08087912946939468,-8.357634544372559,3.0538041591644287
1757491446963932000,2.753931884765625,-0.9264812469482422,-8.724770545959473,3.4736874103546143
1757491446973976800,2.763976806640625,-1.9688568115234375,-8.587178230285645,3.967491388320923
1757491446984017400,2.774017333984375,-2.0377650260925293,-8.555231094360352,3.56945538520813
1757491446994057200,2.78405712890625,-1.6282068490982056,-8.428637504577637,2.9467384815216064
1757491447004099000,2.79409912109375,0.6504746675491333,-8.04691219329834,2.843264102935791
1757491447014135600,2.804135498046875,0.899621307849884,-7.272836685180664,3.696946620941162
1757491447024180700,2.8141806640625,-0.36167410016059875,-7.300968647003174,4.2013750076293945
1757491447034216400,2.824216552734375,0.23006781935691833,-6.680047035217285,4.2684125900268555
1757491447044261400,2.834261474609375,0.31446343660354614,-4.088772773742676,3.7019596099853516
1757491447054303000,2.844302978515625,-1.4585177898406982,-4.02577543258667,3.5411739349365234
1757491447064343300,2.85434326171875,-1.3902829885482788,-1.8757822513580322,2.8547861576080322
1757491447074384100,2.864384033203125,-0.4257937967777252,-1.911994457244873,3.161543369293213
1757491447084420900,2.8744208984375,1.1176432371139526,-2.2067058086395264,2.9005753993988037
1757491447094461000,2.8844609375,1.688510775566101,-3.067047119140625,2.369511604309082
1757491447104501800,2.894501708984375,2.2329671382904053,-2.1758804321289062,1.6283564567565918
1757491447114545400,2.90454541015625,2.01464581489563,-1.3369371891021729,0.7853729724884033
1757491447124583400,2.91458349609375,1.8369512557983398,-1.4219313859939575,0.3966144621372223
1757491447134628000,2.924628173828125,2.6361656188964844,-0.035913024097681046,-0.2994248569011688
1757491447144669000,2.9346689453125,2.785504102706909,0.46694415807724,-1.130886197090149
1757491447154710000,2.9447099609375,3.8447885513305664,0.9207950234413147,-1.965639591217041
1757491447164750000,2.95475,4.9327287673950195,-1.1510872840881348,-2.4798691272735596
1757491447174791200,2.964791259765625,2.7096378803253174,-4.632256507873535,-2.452335834503174
1757491447184831500,2.97483154296875,-0.24405893683433533,-8.096067428588867,-2.0824317932128906
1757491447204913200,2.9949130859375,-1.1495909690856934,-13.739351272583008,-2.734328031539917
1757491447214953700,3.00495361328125,-6.502427577972412,-20.476110458374023,-1.8800468444824219
1757491447224994800,3.014994873046875,-5.800252914428711,-29.556419372558594,-0.8727613091468811
1757491447235035000,3.025034912109375,1.1918635368347168,-29.82292366027832,-0.653991162776947
1757491447245076000,3.035075927734375,12.444835662841797,-6.969595909118652,-1.947608232498169
1757491447255116500,3.045116455078125,10.097246170043945,-23.91919708251953,-1.412279725074768
1757491447265153300,3.0551533203125,1.6986112594604492,-24.71399688720703,-1.4931588172912598
1757491447275198500,3.065198486328125,-2.2816741466522217,-21.123292922973633,-0.877774178981781
1757491447285239000,3.075239013671875,-3.4935142993927,-19.200824737548828,-0.0322469025850296
1757491447295278600,3.085278564453125,-1.5013140439987183,-16.050579071044922,0.7732523083686829
1757491447305320400,3.095320556640625,0.8664765357971191,-12.55841064453125,-0.3742436468601227
1757491447315361300,3.105361328125,0.7643488645553589,-10.441113471984863,-3.144634246826172
1757491447325406500,3.115406494140625,0.7465420365333557,-10.65666675567627,-4.988468647003174
1757491447335438000,3.12543798828125,0.22004209458827972,-12.337471008300781,-5.159654140472412
1757491447345479000,3.13547900390625,-0.2455553114414215,-13.506814002990723,-4.450521469116211
1757491447355520800,3.145520751953125,0.0843207910656929,-14.540735244750977,-3.569979190826416
1757491447365574100,3.15557421875,0.1107318252325058,-13.620314598083496,-2.794257879257202
1757491447375605200,3.165605224609375,0.08447042852640152,-12.647669792175293,-2.1897966861724854
1757491447385646000,3.17564599609375,-0.232162743806839,-11.263671875,-1.86276376247406
1757491447395686400,3.185686279296875,-0.6672340631484985,-9.005640029907227,-1.5150059461593628
1757491447405723000,3.195722900390625,0.039055414497852325,-5.943904876708984,-1.0263643264770508
1757491447415767600,3.205767578125,1.5269020795822144,-3.917961359024048,0.08057985454797745
1757491447425808400,3.215808349609375,2.6134207248687744,-3.7114615440368652,1.2737901210784912
1757491447435849700,3.225849609375,1.3200281858444214,-6.942436695098877,2.138695478439331
1757491447445889800,3.235889892578125,0.3132663369178772,-10.558877944946289,2.1262755393981934
1757491447455931000,3.245930908203125,0.5725134611129761,-11.984476089477539,1.2945148944854736
1757491447465945900,3.25594580078125,0.6089502573013306,-11.661632537841797,-0.04481646418571472
1757491447475986400,3.265986328125,0.8929623961448669,-10.842367172241211,-1.4080898761749268
1757491447486027300,3.27602734375,0.4593874514102936,-10.057292938232422,-2.4019827842712402
1757491447496110000,3.286110107421875,0.6379051208496094,-9.063324928283691,-2.572794198989868
1757491447506115800,3.29611572265625,0.6092495322227478,-8.624363899230957,-2.2224178314208984
1757491447516170800,3.306170654296875,0.5269488096237183,-8.563236236572266,-1.7526304721832275
1757491447526212000,3.316212158203125,0.8508394360542297,-8.657732963562012,-1.3132944107055664
1757491447536254000,3.32625390625,1.266981601715088,-8.941819190979004,-0.9496002197265625
1757491447546295300,3.33629541015625,1.5660324096679688,-9.307534217834473,-0.7792378067970276
1757491447556338200,3.346338134765625,1.852588415145874,-9.576432228088379,-0.8050503134727478
1757491447566374400,3.35637451171875,1.9666122198104858,-9.681478500366211,-0.8480711579322815
1757491447576416800,3.366416748046875,2.0206313133239746,-9.622072219848633,-0.8013842105865479
1757491447586456000,3.3764560546875,2.0878186225891113,-9.238027572631836,-0.7275380492210388
1757491447596497000,3.386496826171875,2.1763293743133545,-8.900744438171387,-0.6266074776649475
1757491447606539300,3.396539306640625,2.227355718612671,-8.695890426635742,-0.5360019207000732
1757491447616582000,3.406581787109375,2.2484545707702637,-8.553359985351562,-0.38958150148391724
1757491447626623000,3.416623046875,2.475454807281494,-8.340201377868652,-0.09202712774276733
1757491447636659500,3.426659423828125,2.3662195205688477,-8.43394947052002,0.3099743127822876
1757491447646700000,3.436699951171875,3.0201358795166016,-8.360776901245117,0.8026561141014099
1757491447656745200,3.4467451171875,2.9973161220550537,-8.633715629577637,1.1982979774475098
1757491447666785300,3.456785400390625,3.2765398025512695,-9.590498924255371,1.6822259426116943
1757491447676826400,3.466826416015625,3.3231520652770996,-10.332776069641113,1.8464531898498535
1757491447686867500,3.476867431640625,2.6105029582977295,-11.373579978942871,1.7281646728515625
1757491447696907300,3.4869072265625,1.9934722185134888,-11.971158027648926,1.5182231664657593
1757491447706944800,3.49694482421875,1.5049054622650146,-12.072463035583496,1.1869255304336548
1757491447716985000,3.506985107421875,0.9663596749305725,-11.880328178405762,0.633490800857544
1757491447727030300,3.5170302734375,0.541987419128418,-11.7069730758667,-0.04122516140341759
1757491447737070600,3.527070556640625,0.4010287821292877,-11.875614166259766,-0.4306570291519165
1757491447747111200,3.537111083984375,0.3192518353462219,-12.087276458740234,-0.3494037985801697
1757491447757152000,3.547152099609375,0.14814123511314392,-12.164340019226074,0.09479542076587677
1757491447767192000,3.557192138671875,0.41606736183166504,-12.0846586227417,0.8303390741348267
1757491447777229300,3.567229248046875,0.6328174471855164,-11.504887580871582,1.3702315092086792
1757491447787274200,3.577274169921875,0.38411974906921387,-11.272275924682617,1.7081880569458008
1757491447797314600,3.587314453125,0.9113678336143494,-10.819622039794922,2.028636932373047
1757491447807355400,3.59735546875,1.0010756254196167,-9.967585563659668,1.853710651397705
1757491447817400600,3.607400634765625,0.9196727275848389,-10.034173965454102,1.8274493217468262
1757491447827432700,3.6174326171875,1.5312416553497314,-9.528997421264648,1.859022855758667
1757491447837474600,3.627474609375,1.3685855865478516,-9.046939849853516,1.9835213422775269
1757491447847514400,3.637514404296875,0.44360068440437317,-8.79120922088623,1.9704279899597168
1757491447857556700,3.647556640625,-0.30960020422935486,-8.67134952545166,1.596483588218689
1757491447867595500,3.657595458984375,-0.13512276113033295,-8.170811653137207,1.0203039646148682
1757491447877640400,3.667640380859375,-0.31700727343559265,-7.745841026306152,0.6027402877807617
1757491447887680800,3.6776806640625,0.12098200619220734,-7.384840488433838,0.6365583539009094
1757491447897721300,3.687721435546875,0.6188263297080994,-7.053168773651123,0.795174241065979
1757491447907758000,3.697758056640625,1.371578335762024,-6.7247138023376465,0.7855226397514343
1757491447917803300,3.70780322265625,1.9297266006469727,-6.5435028076171875,0.9381529688835144
1757491447927843600,3.717843505859375,1.2678046226501465,-6.841281890869141,0.9833435416221619
1757491447937880300,3.72788037109375,0.6860884428024292,-7.477765083312988,1.16552734375
1757491447947925000,3.737925048828125,-0.27241525053977966,-7.823353290557861,1.0829273462295532
1757491447957965600,3.747965576171875,-0.8445546627044678,-8.022147178649902,1.1284171342849731
1757491447968002300,3.758002197265625,-1.0234464406967163,-8.20605182647705,1.4406360387802124
1757491447978047000,3.768046875,-1.0196306705474854,-8.213907241821289,1.5778536796569824
1757491447988088300,3.77808837890625,-0.8349778652191162,-8.226851463317871,1.4754267930984497
1757491447998128600,3.788128662109375,-0.3494037985801697,-8.328230857849121,1.0584616661071777
1757491448008166100,3.798166259765625,-0.8655039072036743,-8.6182279586792,0.6901286244392395
1757491448018209500,3.80820947265625,-0.7981669902801514,-9.28531265258789,0.35007718205451965
1757491448028251100,3.818251220703125,1.1260977983474731,-9.858200073242188,-0.06726210564374924
1757491448038287400,3.828287353515625,3.751339912414551,-10.043227195739746,-0.1057937890291214
1757491448048331800,3.838331787109375,5.101669788360596,-10.193538665771484,-0.5306897759437561
1757491448058373600,3.84837353515625,6.799158573150635,-10.439542770385742,-0.7801356315612793
1757491448068412200,3.858412109375,6.9042792320251465,-10.745476722717285,-0.7528268098831177
1757491448078450700,3.86845068359375,6.082170009613037,-11.821520805358887,-0.7049427628517151
1757491448088491500,3.878491455078125,4.670713424682617,-13.590086936950684,0.0021697452757507563
1757491448098531600,3.888531494140625,2.8201451301574707,-15.301492691040039,1.122132420539856
1757491448108577000,3.898576904296875,2.0829553604125977,-16.92363929748535,1.732803463935852
1757491448118617000,3.9086171875,0.6448632478713989,-18.72003936767578,2.2882583141326904
1757491448128658000,3.918657958984375,-1.387888789176941,-20.04926872253418,2.952200412750244
1757491448138698500,3.928698486328125,-2.6525509357452393,-20.545841217041016,3.793612480163574
1757491448148735500,3.938735595703125,-3.402310371398926,-19.97789192199707,4.839130401611328
1757491448158776000,3.948776123046875,-4.039167881011963,-18.61409568786621,5.475314617156982
1757491448168820500,3.958820556640625,-3.356221914291382,-16.963817596435547,5.748178958892822
1757491448178861000,3.968861083984375,-3.136479139328003,-14.595128059387207,5.240383625030518
1757491448188902000,3.97890185546875,-3.6094086170196533,-11.32577133178711,3.337367534637451
1757491448198942700,3.988942626953125,-2.652700662612915,-9.623344421386719,2.1092917919158936
1757491448208983300,3.9989833984375,-2.6193313598632812,-9.174506187438965,1.8806453943252563
1757491448219024000,4.00902392578125,-2.9661166667938232,-9.34501838684082,2.927659749984741
1757491448229060600,4.019060546875,-2.0422539710998535,-9.82064151763916,4.484564304351807
1757491448239105800,4.029105712890625,0.05117605999112129,-10.445452690124512,5.919289588928223
1757491448249146400,4.039146484375,2.146252155303955,-10.8482027053833,6.619294166564941
1757491448259187000,4.04918701171875,3.311255693435669,-11.256564140319824,7.020398139953613
1757491448269227800,4.059227783203125,2.5573813915252686,-11.335721969604492,6.845621109008789
1757491448279268000,4.06926806640625,-0.9775824546813965,-11.07954216003418,7.017704486846924
1757491448289305600,4.0793056640625,-3.3564462661743164,-11.613524436950684,6.278120517730713
1757491448299349800,4.089349853515625,-3.9906105995178223,-12.436531066894531,4.552424907684326
1757491448309386000,4.099385986328125,-3.575814962387085,-13.34161376953125,1.9406501054763794
1757491448319427600,4.109427490234375,-3.344475269317627,-14.505570411682129,-0.657657265663147
1757491448329468200,4.11946826171875,-3.325770616531372,-15.67371654510498,-2.8075757026672363
1757491448339509800,4.129509765625,-2.4695441722869873,-16.14260482788086,-3.8839190006256104
1757491448349551900,4.1395517578125,-0.7310545444488525,-16.021549224853516,-3.5224692821502686
1757491448359589600,4.149589599609375,0.3405003845691681,-15.842731475830078,-2.0406079292297363
1757491448369634800,4.159634765625,0.016909049823880196,-15.334038734436035,-0.21465514600276947
1757491448379671300,4.16967138671875,1.323095679283142,-14.302362442016602,1.8804209232330322
1757491448389716000,4.179716064453125,2.196305990219116,-13.021240234375,3.618835926055908
1757491448399756800,4.1897568359375,1.2336124181747437,-11.970559120178223,4.163741111755371
1757491448409796900,4.199796875,0.5016600489616394,-11.21548843383789,4.288015365600586
1757491448419834400,4.20983447265625,-0.011447276920080185,-11.373430252075195,4.512471675872803
1757491448429878800,4.219878662109375,-0.08768763393163681,-12.243498802185059,4.9735798835754395
1757491448439919400,4.22991943359375,0.4289361834526062,-13.121273040771484,5.348272323608398
1757491448449956600,4.23995654296875,1.2165536880493164,-13.305477142333984,5.187112808227539
1757491448460001000,4.2500009765625,0.9372551441192627,-13.098602294921875,4.199355125427246
1757491448470041600,4.26004150390625,0.8105869293212891,-12.28434944152832,2.7626843452453613
1757491448480078800,4.270078857421875,0.6878840923309326,-11.002853393554688,1.2408698797225952
1757491448490122800,4.280122802734375,0.5565022826194763,-9.32893180847168,0.06067804992198944
1757491448500163800,4.290163818359375,0.08469488471746445,-7.222408771514893,-0.3561375141143799
1757491448510205200,4.300205078125,-0.9469067454338074,-5.214122295379639,-0.7961468696594238
1757491448520245500,4.31024560546875,-1.2033108472824097,-3.1658828258514404,-0.819340705871582
1757491448530286000,4.3202861328125,-1.267206072807312,-1.82961905002594,-0.5773767232894897
1757491448540327200,4.3303271484375,-1.5105167627334595,-1.7704373598098755,-0.6533926129341125
1757491448550363400,4.34036328125,-0.8830863237380981,-2.271573781967163,-0.41270050406455994
1757491448560408800,4.350408935546875,-0.1966238170862198,-2.2940940856933594,-0.15113398432731628
1757491448570445300,4.3604453125,-0.23208792507648468,-2.2132151126861572,0.4247463345527649
1757491448580486000,4.37048583984375,-0.6273556351661682,-2.067617654800415,0.5588216185569763
1757491448590528000,4.380528076171875,-0.6337900757789612,-1.728763222694397,0.8367735147476196
1757491448600574000,4.390573974609375,-0.8297405242919922,-1.7099837064743042,1.2161048650741577
1757491448610607600,4.400607666015625,-1.414599061012268,-1.8772038221359253,1.4002338647842407
1757491448620652500,4.410652587890625,-1.5462801456451416,-2.18770170211792,1.6995091438293457
1757491448630693000,4.420693115234375,-1.340004801750183,-2.323946952819824,2.4123826026916504
1757491448640734000,4.43073388671875,-1.6634464263916016,-2.3936779499053955,3.603123903274536
1757491448650774300,4.440774169921875,-2.0654478073120117,-2.9891607761383057,4.638017654418945
1757491448660815600,4.450815673828125,-2.63826060295105,-3.4105403423309326,5.2929816246032715
1757491448670856000,4.46085595703125,-2.7586441040039062,-3.700986862182617,5.416881561279297
1757491448680893200,4.47089306640625,-2.3277626037597656,-3.866560935974121,5.2073140144348145
1757491448690937300,4.480937255859375,-2.185307502746582,-3.9410805702209473,5.004479885101318
1757491448700978000,4.49097802734375,-2.8318917751312256,-4.203544616699219,4.915071487426758
1757491448711018800,4.501018798828125,-3.539228677749634,-4.828207015991211,4.90339994430542
1757491448721059300,4.511059326171875,-3.73248553276062,-5.700893402099609,4.683657169342041
1757491448731100400,4.521100341796875,-3.75597882270813,-6.498836040496826,4.5160627365112305
1757491448741137400,4.531137451171875,-3.639934778213501,-6.992640018463135,4.367846965789795
1757491448751178000,4.541177978515625,-3.5369842052459717,-7.414543151855469,4.187907695770264
1757491448761222700,4.55122265625,-3.648613691329956,-7.513827800750732,4.019490718841553
1757491448771262700,4.5612626953125,-3.7166240215301514,-7.3861870765686035,3.808277130126953
1757491448781303800,4.5713037109375,-3.7374985218048096,-7.098583698272705,3.601477861404419
1757491448791344400,4.581344482421875,-3.876661539077759,-6.554501056671143,3.4769046306610107
1757491448801382000,4.5913818359375,-4.014702320098877,-6.238765716552734,3.65153169631958
1757491448811423500,4.601423583984375,-4.754734992980957,-6.296301364898682,4.174814224243164
1757491448821462500,4.611462646484375,-6.026130676269531,-6.890961170196533,4.798429012298584
1757491448831528200,4.621528076171875,-5.96986722946167,-8.167445182800293,6.262109279632568
1757491448841547000,4.631547119140625,-4.3430070877075195,-9.223287582397461,7.829787731170654
1757491448851586000,4.6415859375,-2.551246404647827,-10.262296676635742,8.341922760009766
1757491448861629000,4.65162890625,-3.136927843093872,-9.043872833251953,6.9089179039001465
1757491448871665700,4.661665771484375,-0.5796212553977966,-8.703147888183594,4.3337297439575195
1757491448881708800,4.671708740234375,0.6575824618339539,-9.086893081665039,3.3087120056152344
1757491448891748000,4.681748046875,-3.6383635997772217,-9.363648414611816,5.020117282867432
1757491448901787600,4.69178759765625,-4.165462017059326,-9.968632698059082,5.596072196960449
1757491448911828700,4.701828857421875,-3.8110454082489014,-10.173786163330078,4.491672039031982
1757491448921869300,4.711869384765625,-3.7247045040130615,-10.519673347473145,4.145260810852051
1757491448931910000,4.721909912109375,-2.487201452255249,-10.622998237609863,3.908534288406372
1757491448941954000,4.7319541015625,-2.709188938140869,-10.713903427124023,4.0091657638549805
1757491448951994600,4.74199462890625,-2.3172130584716797,-11.070788383483887,4.359392166137695
1757491448962033700,4.75203369140625,-1.2042834758758545,-11.025373458862305,4.760196685791016
1757491448972075500,4.762075439453125,-1.1761516332626343,-11.105130195617676,5.205817699432373
1757491448982114000,4.772114013671875,-1.1165958642959595,-11.218181610107422,5.361141204833984
1757491448992203800,4.782203857421875,0.08783727139234543,-11.123311042785645,5.352537155151367
1757491449002196000,4.792196044921875,-0.24645313620567322,-11.42520523071289,5.175515651702881
1757491449012237800,4.80223779296875,-0.39960724115371704,-11.777602195739746,5.0079216957092285
1757491449022280400,4.812280517578125,0.10863690078258514,-11.745879173278809,4.96048641204834
1757491449032299300,4.82229931640625,0.2198176383972168,-11.25334644317627,4.804564476013184
1757491449042362600,4.832362548828125,0.25595512986183167,-10.433931350708008,4.71799898147583
1757491449052399400,4.8423994140625,-0.066962830722332,-9.710358619689941,4.817432880401611
1757491449062439700,4.852439697265625,-0.3851672112941742,-9.304166793823242,4.862249374389648
1757491449072480500,4.86248046875,-0.0243909303098917,-8.999429702758789,4.915071487426758
1757491449082521900,4.87252197265625,0.16512510180473328,-8.948702812194824,4.7474775314331055
1757491449092564000,4.88256396484375,0.15771803259849548,-9.152509689331055,4.411990165710449
1757491449102606800,4.89260693359375,-0.15001170337200165,-9.558476448059082,4.0073699951171875
1757491449112647400,4.9026474609375,-0.8681973814964294,-9.9046630859375,3.4678516387939453
1757491449122684200,4.91268408203125,-0.13916297256946564,-9.711031913757324,3.2008233070373535
1757491449132728300,4.922728271484375,0.32187050580978394,-9.220669746398926,3.1471033096313477
1757491449142769200,4.93276904296875,0.25348609685897827,-8.599299430847168,3.074005365371704
1757491449152810200,4.942810302734375,0.42676645517349243,-7.838915824890137,3.0627825260162354
1757491449162850600,4.9528505859375,0.3123685121536255,-7.172729015350342,3.106027841567993
1757491449172891600,4.9628916015625,0.3949684500694275,-6.803123950958252,3.202394485473633
1757491449182932200,4.97293212890625,0.24271219968795776,-6.689548969268799,3.2229695320129395
1757491449192969200,4.98296923828125,0.4305822253227234,-6.638148784637451,3.4002153873443604
1757491449203013400,4.993013427734375,-0.6876596212387085,-7.0977606773376465,3.4536359310150146
1757491449213054200,5.00305419921875,-1.1254992485046387,-7.5697922706604,3.6792147159576416
1757491449223095000,5.013094970703125,-0.7772925496101379,-7.770980358123779,3.947140693664551
1757491449233135900,5.023135986328125,-1.5286977291107178,-7.862184524536133,3.7841854095458984
1757491449243177200,5.03317724609375,-2.159121036529541,-7.889867305755615,3.0220062732696533
1757491449253217500,5.043217529296875,-1.07611882686615,-7.326406955718994,2.486154079437256
1757491449263258000,5.053258056640625,-1.141286015510559,-7.016956329345703,2.206930160522461
1757491449273298700,5.063298583984375,-1.8947113752365112,-7.0348381996154785,1.9346646070480347
1757491449283339500,5.073339599609375,-3.204489231109619,-7.522432327270508,1.1569979190826416
1757491449293380600,5.083380615234375,-1.344643473625183,-7.604208946228027,1.2253823280334473
1757491449303418400,5.09341845703125,-1.409735918045044,-7.649848461151123,1.55712890625
1757491449313457700,5.103457763671875,-1.568725824356079,-8.109161376953125,2.2743420600891113
1757491449323497700,5.113497802734375,-1.7866730690002441,-8.8047513961792,2.477175712585449
1757491449333540000,5.1235400390625,-0.3941454589366913,-9.354071617126465,1.8309657573699951
1757491449343583700,5.133583740234375,2.7183916568756104,-9.123330116271973,1.3574374914169312
1757491449353620700,5.143620849609375,2.570998430252075,-9.037363052368164,0.8993220329284668
1757491449363665400,5.15366552734375,1.9194763898849487,-9.436371803283691,0.39369654655456543
1757491449373706200,5.163706298828125,3.024550199508667,-9.911994934082031,-0.3497030735015869
1757491449383742700,5.17374267578125,4.61549711227417,-10.411859512329102,-0.9177274107933044
1757491449393787400,5.183787353515625,4.228085517883301,-11.554267883300781,-1.1061960458755493
1757491449403828000,5.193827880859375,3.0183401107788086,-13.2919340133667,-0.4213046729564667
1757491449413869000,5.203869140625,3.2597055435180664,-14.271387100219727,0.8322843909263611
1757491449423905500,5.213905517578125,2.424877405166626,-15.621268272399902,2.704101085662842
1757491449433950000,5.223949951171875,1.225008249282837,-17.11023712158203,4.802319526672363
1757491449443991000,5.233990966796875,0.4213795065879822,-18.016366958618164,6.007575988769531
1757491449454031400,5.24403125,0.24076691269874573,-18.318410873413086,6.296301364898682
1757491449464072700,5.25407275390625,-0.4596867263317108,-17.801862716674805,5.357923984527588
1757491449474113500,5.264113525390625,-0.576478898525238,-16.916606903076172,4.0661773681640625
1757491449484153900,5.27415380859375,-0.1364694982767105,-15.752126693725586,3.1233110427856445
1757491449494191000,5.284191162109375,-0.24039281904697418,-14.86163330078125,2.7073183059692383
1757491449504235000,5.294235107421875,-0.8676736354827881,-13.912481307983398,2.925415277481079
1757491449514276000,5.304276123046875,-1.4126538038253784,-12.755857467651367,3.9095070362091064
1757491449524316400,5.31431640625,-2.039710283279419,-11.823615074157715,5.395932197570801
1757491449534357800,5.324357666015625,-2.0948517322540283,-11.214141845703125,7.039925575256348
1757491449544403500,5.334403564453125,-1.330727219581604,-11.016469955444336,8.667683601379395
1757491449554434800,5.344434814453125,-0.21472996473312378,-10.844536781311035,10.034772872924805
1757491449564475600,5.3544755859375,0.7746738791465759,-10.467000961303711,10.680608749389648
1757491449574518000,5.36451806640625,2.166752576828003,-10.029535293579102,10.419341087341309
1757491449584558000,5.37455810546875,3.3231520652770996,-9.657087326049805,9.354445457458496
1757491449594601700,5.384601806640625,3.2824504375457764,-9.835081100463867,7.895254135131836
1757491449604642600,5.394642578125,2.3751230239868164,-10.641029357910156,6.168510913848877
1757491449614683100,5.40468310546875,0.6441898941993713,-11.867010116577148,4.395081043243408
1757491449624724000,5.414723876953125,-1.2157307863235474,-13.259613037109375,2.2857892513275146
1757491449634760400,5.424760498046875,-1.6531214714050293,-14.302586555480957,-0.17971476912498474
1757491449644805400,5.434805419921875,-0.8548048138618469,-14.958148956298828,-2.3989901542663574
1757491449654846000,5.444845947265625,0.515426754951477,-15.096488952636719,-3.580528736114502
1757491449664886500,5.454886474609375,1.6788591146469116,-14.339996337890625,-3.0808138847351074
1757491449674927400,5.46492724609375,2.784381866455078,-12.20840835571289,-1.2244096994400024
1757491449684967700,5.4749677734375,3.0114567279815674,-10.409540176391602,1.5550340414047241
1757491449695008800,5.4850087890625,3.0172927379608154,-9.66187572479248,4.739023208618164
1757491449705045800,5.495045654296875,3.3104326725006104,-9.108515739440918,7.020547389984131
1757491449715090700,5.505090576171875,2.0627543926239014,-8.807220458984375,7.8255228996276855
1757491449725131000,5.515131103515625,0.4623053967952728,-8.933440208435059,7.2294416427612305
1757491449735171300,5.52517138671875,-0.0561889223754406,-9.30573844909668,5.839158535003662
1757491449745212700,5.535212646484375,-0.06486789882183075,-9.73093318939209,4.125209331512451
1757491449755252700,5.545252685546875,0.7605331540107727,-9.790863037109375,2.4479215145111084
1757491449765294300,5.55529443359375,1.0922049283981323,-9.463605880737305,1.329305648803711
1757491449775335000,5.5653349609375,0.9934440851211548,-8.72649097442627,0.7858219146728516
1757491449785375700,5.575375732421875,0.38471829891204834,-7.780781269073486,0.2007388472557068
1757491449795412200,5.585412109375,0.13265374302864075,-6.633135795593262,-0.26650458574295044
1757491449805452800,5.595452880859375,0.04953004792332649,-5.2999396324157715,-0.6354361176490784
1757491449815493600,5.60549365234375,-0.5502174496650696,-4.624924182891846,-1.029132604598999
1757491449825536500,5.61553662109375,-0.2993500232696533,-3.7382466793060303,-1.2474539279937744
1757491449835579000,5.625578857421875,-0.095917709171772,-2.9932010173797607,-1.0679636001586914
1757491449845619700,5.63561962890625,0.012644377537071705,-2.314145565032959,-0.5293430089950562
1757491449855660800,5.645660888671875,-0.35329440236091614,-2.5394248962402344,-0.0017208324279636145
1757491449865697300,5.655697265625,0.19445407390594482,-2.3040449619293213,0.8040028810501099
1757491449875742000,5.665741943359375,0.3148375153541565,-2.5154082775115967,1.7913117408752441
1757491449885782500,5.675782470703125,0.6355857253074646,-2.698639392852783,2.5522937774658203
1757491449895822300,5.685822265625,0.3189525604248047,-3.08111310005188,2.977189779281616
1757491449905864200,5.6958642578125,-0.39556699991226196,-3.530250310897827,3.2268600463867188
1757491449915905300,5.7059052734375,-0.7936030626296997,-3.1821184158325195,3.445854902267456
1757491449925945900,5.71594580078125,-1.2820202112197876,-3.4346320629119873,4.212522983551025
1757491449935982300,5.725982421875,-1.141585350036621,-4.212522983551025,4.7818193435668945
1757491449946027800,5.73602783203125,-0.9107692837715149,-4.898461818695068,5.080420970916748
1757491449956065800,5.746065673828125,-0.7633762359619141,-5.441122531890869,5.16204833984375
1757491449966106600,5.756106689453125,-1.1121066808700562,-6.001739978790283,5.393762111663818
1757491449976145000,5.766144775390625,-1.8085200786590576,-6.55726957321167,5.91592264175415
1757491449986186000,5.77618603515625,-2.414926528930664,-6.974459171295166,6.441000938415527
1757491449996227000,5.78622705078125,-2.6563668251037598,-7.239168167114258,6.680196762084961
1757491450006268700,5.7962685546875,-2.3166894912719727,-7.242460250854492,6.525845527648926
1757491450016308500,5.80630859375,-0.6515969634056091,-7.877297878265381,5.698798656463623
1757491450026353000,5.816352783203125,-2.7992706298828125,-7.989376068115234,3.5672857761383057
1757491450036397300,5.826397216796875,-5.139453411102295,-8.156072616577148,1.14742112159729
1757491450046430500,5.836430419921875,-4.635249137878418,-9.18273639678955,0.9579799771308899
1757491450056471000,5.846470947265625,-4.403385639190674,-10.907683372497559,4.040739059448242
1757491450066512400,5.856512451171875,-6.16910982131958,-13.235445976257324,7.412747859954834
1757491450076552000,5.866552001953125,-5.37401008605957,-15.82918930053711,7.504924297332764
1757491450086597600,5.87659765625,-4.175338268280029,-17.011402130126953,5.934178352355957
1757491450096634000,5.886634033203125,-1.8256536722183228,-16.14013671875,5.314603805541992
1757491450106678300,5.89667822265625,-1.021501064300537,-13.49918270111084,5.3715410232543945
1757491450116719600,5.9067197265625,-3.3795652389526367,-10.610428810119629,5.5224504470825195
1757491450126759700,5.916759765625,-3.146804094314575,-8.715493202209473,5.194070816040039
1757491450136800800,5.92680078125,-2.8722939491271973,-7.853430271148682,4.3727850914001465
1757491450146837500,5.93683740234375,-1.5069254636764526,-7.708132266998291,3.7934629917144775
1757491450156882400,5.94688232421875,0.19969138503074646,-8.068609237670898,3.513416290283203
1757491450166919200,5.956919189453125,1.6267852783203125,-8.686687469482422,3.5050363540649414
1757491450176963300,5.96696337890625,2.349160671234131,-9.348085403442383,3.770493507385254
1757491450187004200,5.977004150390625,2.3518543243408203,-9.951574325561523,4.364255428314209
1757491450197045000,5.987044921875,1.5313912630081177,-10.377143859863281,5.198111057281494
1757491450207082000,5.99708203125,0.8336310982704163,-10.552518844604492,6.124966621398926
1757491450217126700,6.007126708984375,0.08319851011037827,-10.268132209777832,6.79743766784668
1757491450227166700,6.017166748046875,-0.28221651911735535,-9.508197784423828,7.041721343994141
1757491450237204000,6.027203857421875,-0.15195699036121368,-8.621220588684082,6.790554523468018
1757491450247248400,6.037248291015625,-0.1777694821357727,-7.879692077636719,6.300416469573975
1757491450257288700,6.047288818359375,-0.7105541825294495,-7.716137886047363,5.707327842712402
1757491450267330000,6.057330078125,-1.427767276763916,-7.60720157623291,4.873696804046631
1757491450277366800,6.06736669921875,-0.8099883794784546,-7.276278018951416,4.139200687408447
1757491450287409400,6.077409423828125,-0.539518415927887,-6.953210830688477,3.4264767169952393
1757491450297448400,6.087448486328125,-0.4563947021961212,-6.783970355987549,2.9618520736694336
1757491450307488500,6.097488525390625,-0.7463923692703247,-6.619593620300293,2.6385598182678223
1757491450317530000,6.107530029296875,-0.6987327933311462,-6.423343658447266,2.2851908206939697
1757491450327574800,6.11757470703125,-0.5098901391029358,-6.458882808685303,1.9332430362701416
1757491450337610800,6.12761083984375,-0.11701660603284836,-6.609343528747559,1.8147300481796265
1757491450347655700,6.13765576171875,0.017208324745297432,-6.833276271820068,1.9008464813232422
1757491450357696800,6.14769677734375,0.05312135070562363,-7.015385150909424,2.2694039344787598
1757491450367736800,6.15773681640625,-0.2999485731124878,-7.360449314117432,2.8773066997528076
1757491450377773600,6.167773681640625,-0.17208324372768402,-7.452925205230713,3.6887166500091553
1757491450387818200,6.177818359375,-1.0339210033416748,-7.79140567779541,4.069918632507324
1757491450397855500,6.18785546875,-1.3936498165130615,-8.036212921142578,4.1821465492248535
1757491450407900200,6.197900146484375,-2.1366004943847656,-8.464999198913574,3.927313804626465
1757491450417940500,6.2079404296875,-2.3225252628326416,-8.776320457458496,3.426102638244629
1757491450427981600,6.217981689453125,-2.680159091949463,-9.020079612731934,2.822314977645874
1757491450438022100,6.228022216796875,-1.7592893838882446,-9.16425609588623,2.9805567264556885
1757491450448063000,6.23806298828125,-1.9823989868164062,-9.225382804870605,3.0992941856384277
1757491450458103600,6.248103515625,-1.4276924133300781,-8.629301071166992,2.632948398590088
1757491450468139800,6.258139892578125,-0.7846248149871826,-8.229394912719727,1.96683669090271
1757491450478185000,6.26818505859375,-0.2653822898864746,-7.959897518157959,1.6344915628433228
1757491450488226000,6.27822607421875,0.29463645815849304,-8.278027534484863,1.817049503326416
1757491450498266600,6.2882666015625,1.4613608121871948,-8.832808494567871,2.1277718544006348
1757491450508307000,6.298306884765625,1.9429694414138794,-8.742352485656738,1.805078387260437
1757491450518348000,6.30834814453125,3.770942449569702,-8.42856216430664,1.2999018430709839
1757491450528384800,6.318384765625,3.591601848602295,-8.896479606628418,1.3262381553649902
1757491450538425300,6.32842529296875,2.567182779312134,-9.84720230102539,1.4415339231491089
1757491450548466400,6.338466552734375,2.782212018966675,-11.05522632598877,0.8131307363510132
1757491450558507500,6.348507568359375,2.1840357780456543,-12.996624946594238,0.4627543091773987
1757491450568548900,6.358548828125,2.4280946254730225,-14.771251678466797,0.9604489803314209
1757491450578592300,6.36859228515625,1.381678819656372,-16.643741607666016,1.8130840063095093
1757491450588633000,6.378633056640625,1.1442787647247314,-18.04517364501953,3.063680410385132
1757491450598670000,6.388670166015625,0.45998600125312805,-18.38784408569336,4.026373863220215
1757491450608710100,6.398710205078125,-0.16968904435634613,-17.89725685119629,4.99318265914917
1757491450618754600,6.408754638671875,-0.15906476974487305,-16.761058807373047,5.838485240936279
1757491450628795400,6.41879541015625,-0.6562356948852539,-15.903783798217773,6.251111030578613
1757491450638836200,6.428836181640625,-0.8949077129364014,-15.134496688842773,5.494842529296875
1757491450648876800,6.438876708984375,-0.6321440935134888,-14.438233375549316,3.892148971557617
1757491450658913500,6.44891357421875,-0.19280806183815002,-13.684733390808105,2.7579708099365234
1757491450668958500,6.45895849609375,-0.5670517086982727,-12.72877311706543,2.4677486419677734
1757491450678974000,6.468973876953125,-1.605536699295044,-11.554043769836426,3.0616602897644043
1757491450689014500,6.4790146484375,-2.841094493865967,-10.874539375305176,4.407201766967773
1757491450699055000,6.48905517578125,-3.275043487548828,-10.973000526428223,6.38226842880249
1757491450709095400,6.499095458984375,-2.8673558235168457,-11.157952308654785,8.221613883972168
1757491450719158000,6.509157958984375,-2.452709913253784,-11.053580284118652,9.491289138793945
1757491450729203000,6.519202880859375,-1.3778630495071411,-10.794333457946777,10.134805679321289
1757491450739243800,6.529243896484375,0.34932899475097656,-10.490569114685059,10.017788887023926
1757491450749284400,6.539284423828125,2.1226093769073486,-10.225186347961426,9.187973022460938
1757491450759325200,6.5493251953125,3.083357810974121,-10.193613052368164,8.017882347106934
1757491450769366500,6.559366455078125,3.0324060916900635,-10.556633949279785,6.557419300079346
1757491450779409400,6.569409423828125,2.670283079147339,-11.38128662109375,4.840028285980225
1757491450789443300,6.579443359375,1.5610195398330688,-12.473491668701172,2.850970506668091
1757491450799484700,6.589484619140625,-0.23373393714427948,-13.423615455627441,0.3398270010948181
1757491450809525500,6.599525390625,-1.1769745349884033,-13.798308372497559,-2.1618144512176514
1757491450819567400,6.6095673828125,-1.169343113899231,-13.887192726135254,-4.04545259475708
1757491450829610200,6.6196103515625,-0.21203649044036865,-13.904850006103516,-4.372261047363281
1757491450839646700,6.629646728515625,0.08192659169435501,-13.205818176269531,-3.564592123031616
1757491450849687300,6.639687255859375,-0.1314566433429718,-11.38480281829834,-2.045396327972412
1757491450859732000,6.64973193359375,0.5755062103271484,-9.817723274230957,0.12524667382240295
1757491450869773300,6.659773193359375,0.9834931492805481,-9.005565643310547,2.6932525634765625
1757491450879813000,6.669813232421875,0.9063549637794495,-8.640823364257812,5.087379455566406
1757491450889854200,6.679854248046875,0.42781391739845276,-8.578274726867676,6.616301536560059
1757491450899894500,6.68989453125,0.4629787504673004,-8.686761856079102,7.06641149520874
1757491450909931500,6.699931640625,0.4793640673160553,-8.941819190979004,6.219761848449707
1757491450919972000,6.70997216796875,0.8130559325218201,-9.154679298400879,4.696526050567627
1757491450930017000,6.72001708984375,0.9788544178009033,-9.23091983795166,3.1296706199645996
1757491450940057600,6.7300576171875,0.7156418561935425,-8.961421966552734,1.7794904708862305
1757491450950099000,6.740098876953125,0.9053823351860046,-8.127791404724121,0.947729766368866
1757491450960139000,6.750138916015625,0.6139631271362305,-7.118560314178467,0.22198738157749176
1757491450970180000,6.76018017578125,0.336460143327713,-6.082319736480713,-0.15637129545211792
1757491450980216300,6.77021630859375,0.030376434326171875,-5.177311420440674,-0.3063829839229584
1757491450990261500,6.780261474609375,-1.0824036598205566,-5.237690448760986,-0.5832874178886414
1757491451000302300,6.79030224609375,-1.1216834783554077,-5.0032830238342285,-0.8762030005455017
1757491451010343000,6.800343017578125,-0.9805752038955688,-4.60240364074707,-0.8527098894119263
1757491451020383700,6.8103837890625,-0.8125321865081787,-4.144362926483154,-0.5640589594841003
1757491451030421800,6.820421875,-0.7707085013389587,-3.4292449951171875,-0.06419453024864197
1757491451040461300,6.83046142578125,-0.9258078932762146,-2.958185911178589,0.853757381439209
1757491451050503000,6.8405029296875,-1.1605144739151,-2.8208184242248535,1.909450650215149
1757491451060545000,6.850544921875,-1.4480431079864502,-3.375225782394409,2.8151323795318604
1757491451070587000,6.8605869140625,-1.1509376764297485,-3.6068649291992188,3.2322471141815186
1757491451080627700,6.870627685546875,-0.7575404047966003,-3.939958095550537,3.5861401557922363
1757491451090668500,6.88066845703125,-1.189693808555603,-4.507458686828613,3.2800562381744385
1757491451100708900,6.890708984375,-0.7659949064254761,-4.366275787353516,3.1000423431396484
1757491451110745600,6.90074560546875,-0.4767454266548157,-4.6255974769592285,3.8046109676361084
1757491451120787000,6.910786865234375,-0.3785083293914795,-4.593201160430908,4.489352703094482
1757491451130831000,6.9208310546875,-1.0241197347640991,-5.142071723937988,5.345429420471191
1757491451140871700,6.93087158203125,-1.7324293851852417,-5.844545841217041,6.135141849517822
1757491451150912800,6.940912841796875,-2.6524014472961426,-6.570811748504639,6.726434707641602
1757491451160953300,6.950953369140625,-3.270928382873535,-7.174599647521973,7.088034152984619
1757491451170990600,6.960990478515625,-3.510423421859741,-7.665709972381592,7.484349250793457
1757491451181034500,6.971034423828125,-3.1150808334350586,-8.530914306640625,8.029254913330078
1757491451191075800,6.981075927734375,-3.6797382831573486,-10.124929428100586,7.191807746887207
1757491451201116200,6.9911162109375,-3.1378257274627686,-11.202619552612305,5.18441915512085
1757491451211156700,7.00115673828125,-1.7448493242263794,-11.333252906799316,5.130549907684326
1757491451221197800,7.01119775390625,-1.0619781017303467,-11.298686981201172,8.665738105773926
1757491451231238100,7.021238037109375,-2.8562827110290527,-11.562722206115723,11.957466125488281
1757491451241275100,7.031275146484375,-3.646219491958618,-12.526911735534668,10.554912567138672
1757491451251319800,7.04131982421875,-4.37540340423584,-13.17895793914795,7.063493728637695
1757491451261360600,7.051360595703125,-4.489202976226807,-12.68590259552002,4.88836145401001
1757491451271406300,7.06140625,-3.3441011905670166,-10.64432144165039,3.5877113342285156
1757491451281437700,7.071437744140625,-3.2805800437927246,-8.304213523864746,2.6151416301727295
1757491451291478500,7.081478515625,-3.78104305267334,-6.515969753265381,1.6056115627288818
1757491451301520400,7.091520263671875,-3.113135576248169,-5.5324015617370605,0.9671078324317932
1757491451311561500,7.1015615234375,-1.4570962190628052,-5.2293853759765625,1.0402058362960815
1757491451321606400,7.1116064453125,0.008005611598491669,-5.564723491668701,2.023998260498047
1757491451331636200,7.12163623046875,0.9512462615966797,-6.535198211669922,3.434257984161377
1757491451341688000,7.13168798828125,1.3311012983322144,-7.851859092712402,4.745831489562988
1757491451351724300,7.141724365234375,1.2779799699783325,-9.311124801635742,5.781622886657715
1757491451361764000,7.15176416015625,0.9360580444335938,-10.679411888122559,6.628422260284424
1757491451371803600,7.1618037109375,0.6660369634628296,-11.504887580871582,7.282787322998047
1757491451381844500,7.171844482421875,0.5405658483505249,-11.385401725769043,7.549142360687256
1757491451391885800,7.1818857421875,0.2728641629219055,-10.39659595489502,7.349376201629639
1757491451401928700,7.1919287109375,0.015188217163085938,-8.80579948425293,6.648922443389893
1757491451411970600,7.201970458984375,-0.3564367890357971,-7.388057708740234,5.670891284942627
1757491451422014000,7.212013916015625,-0.7982417941093445,-6.603282928466797,4.746280193328857
1757491451432050000,7.2220498046875,-0.8661772608757019,-6.392368793487549,3.8697032928466797
1757491451442090000,7.232090087890625,-0.5835118293762207,-6.362067222595215,3.1872811317443848
1757491451452204000,7.2422041015625,-0.27473464608192444,-6.5073652267456055,2.7683706283569336
1757491451462204200,7.2522041015625,-0.04953004792332649,-6.9532856941223145,2.8180501461029053
1757491451472213500,7.262213623046875,-0.08671499043703079,-7.578396797180176,3.222146511077881
1757491451482256000,7.272255859375,0.17836803197860718,-8.21495532989502,3.629460096359253
1757491451492293000,7.282293212890625,0.22789807617664337,-8.76120662689209,3.7317373752593994
1757491451502337500,7.292337646484375,0.18248306214809418,-9.073500633239746,3.6320040225982666
1757491451512378000,7.302378173828125,-0.005686229094862938,-9.166425704956055,3.3995418548583984
1757491451522416600,7.312416748046875,0.7653215527534485,-9.083975791931152,3.4013376235961914
1757491451532455200,7.322455078125,0.34356793761253357,-8.880094528198242,3.3402106761932373
1757491451542496500,7.33249658203125,0.024914661422371864,-8.577451705932617,3.3198599815368652
1757491451552539600,7.34253955078125,-0.5116109848022461,-8.325911521911621,3.075800895690918
1757491451562578000,7.352577880859375,-0.2429366558790207,-7.91395902633667,2.9771149158477783
1757491451572622300,7.362622314453125,0.12539631128311157,-7.6951141357421875,3.042506694793701
1757491451582659000,7.3726591796875,-0.8837596774101257,-7.6146087646484375,2.9928269386291504
1757491451592703500,7.382703369140625,-0.7604582905769348,-7.652990818023682,3.231873035430908
1757491451602743000,7.392742919921875,-0.7353940010070801,-7.660323143005371,3.269881010055542
1757491451612785700,7.40278564453125,-0.4819827377796173,-7.648576736450195,3.4752585887908936
1757491451622821400,7.4128212890625,-0.3966892957687378,-7.636680603027344,3.7123594284057617
1757491451632866600,7.422866455078125,-0.984839916229248,-7.558868885040283,3.5975124835968018
1757491451642907100,7.4329072265625,-0.6516717672348022,-7.207744121551514,3.237933397293091
1757491451652944100,7.442944091796875,-1.0568156242370605,-7.1982421875,2.869974374771118
1757491451662988800,7.45298876953125,-1.7557728290557861,-7.721899032592773,2.7205612659454346
1757491451673029000,7.463029052734375,-2.015244483947754,-8.346935272216797,2.9239935874938965
1757491451683065900,7.47306591796875,-0.4200327694416046,-9.026813507080078,3.544466018676758
1757491451693110500,7.483110595703125,1.9160346984863281,-9.386242866516113,3.599158525466919
1757491451703151600,7.493151611328125,3.8260838985443115,-9.569250106811523,3.3492636680603027
1757491451713192000,7.50319189453125,4.27402400970459,-9.615338325500488,3.118896722793579
1757491451723229200,7.513229248046875,4.517858505249023,-9.96601390838623,2.7049241065979004
1757491451733273000,7.523273193359375,5.683760166168213,-10.844836235046387,2.619630813598633
1757491451743314400,7.533314453125,5.001562118530273,-11.8865385055542,1.6838719844818115
1757491451753351200,7.54335107421875,4.221426486968994,-13.725210189819336,0.9030629396438599
1757491451763400200,7.553400146484375,2.379911422729492,-16.393024444580078,0.03568856790661812
1757491451773431800,7.563431884765625,0.5828384757041931,-18.84199333190918,0.07175122946500778
1757491451783473200,7.57347314453125,-0.44838908314704895,-19.57222557067871,0.5131073594093323
1757491451793513700,7.583513671875,-1.8645594120025635,-19.294048309326172,1.1921627521514893
1757491451803556400,7.593556396484375,-2.2620716094970703,-18.216583251953125,2.2239890098571777
1757491451813600000,7.60360009765625,-2.9286324977874756,-17.122507095336914,3.353752851486206
1757491451823639800,7.613639892578125,-2.7504141330718994,-16.272565841674805,3.8418707847595215
1757491451833680400,7.623680419921875,-1.7938556671142578,-15.4963960647583,3.5372085571289062
1757491451843721200,7.63372119140625,-1.4255974292755127,-14.864625930786133,3.4072482585906982
1757491451853761800,7.64376171875,-1.5983541011810303,-14.193875312805176,3.516408920288086
1757491451863798800,7.653798828125,-2.0167407989501953,-12.93385124206543,3.8215200901031494
1757491451873843700,7.66384375,-2.2603509426116943,-11.408595085144043,4.526238441467285
1757491451883884300,7.67388427734375,-2.623671054840088,-10.378116607666016,5.871330738067627
1757491451893924900,7.6839248046875,-2.9012486934661865,-10.115128517150879,7.886275768280029
1757491451903965200,7.693965087890625,-2.734253168106079,-10.076745986938477,10.040833473205566
1757491451914006500,7.704006591796875,-1.9252374172210693,-10.01539421081543,11.689016342163086
1757491451924046600,7.714046630859375,-0.0991349145770073,-10.124330520629883,12.201300621032715
1757491451934083800,7.724083740234375,1.6300772428512573,-10.459144592285156,11.288885116577148
1757491451944128500,7.73412841796875,2.1354782581329346,-10.961627960205078,9.10657024383545
1757491451954169000,7.744169189453125,1.2163293361663818,-11.979762077331543,6.076633453369141
1757491451964210000,7.7542099609375,-1.05569326877594,-13.011813163757324,2.6256911754608154
1757491451974250200,7.764250244140625,-2.602048397064209,-13.995006561279297,-0.2842366397380829
1757491451984291000,7.774291015625,-2.706270933151245,-14.571261405944824,-2.347215414047241
1757491451994332000,7.784331787109375,-2.656815767288208,-14.40104866027832,-3.494262456893921
1757491452004369400,7.794369384765625,-2.4677486419677734,-13.518486022949219,-3.578732967376709
1757491452014411800,7.804411865234375,-1.4597148895263672,-11.639336585998535,-2.839298725128174
1757491452024450300,7.8144501953125,0.1190367192029953,-9.726070404052734,-1.4053963422775269
1757491452034490000,7.824489990234375,0.3321954905986786,-8.891990661621094,0.3808276951313019
1757491452044533000,7.834532958984375,0.3232172429561615,-8.769661903381348,2.465129852294922
1757491452054576600,7.84457666015625,0.23238719999790192,-8.890419006347656,4.27858829498291
1757491452064617000,7.854616943359375,-0.3462614119052887,-9.228301048278809,5.425784587860107
1757491452074653400,7.8646533203125,-0.6595277786254883,-9.512762069702148,5.578041076660156
1757491452084698400,7.874698486328125,-0.5646575093269348,-9.57979965209961,4.845639705657959
1757491452094734800,7.88473486328125,0.334514856338501,-9.405322074890137,3.8032641410827637
1757491452104779500,7.894779541015625,1.031751275062561,-8.974964141845703,2.751685857772827
1757491452114820000,7.904820068359375,0.7653963565826416,-8.488791465759277,1.7883938550949097
1757491452124860700,7.914860595703125,0.9736918807029724,-7.4030961990356445,1.2172271013259888
1757491452134901200,7.9249013671875,-0.04638765752315521,-6.691644191741943,0.5668272376060486
1757491452144942300,7.9349423828125,-0.30541035532951355,-6.0377278327941895,-0.01586158573627472
1757491452154982700,7.944982666015625,-0.7572411298751831,-5.290587425231934,-0.5612158179283142
1757491452165020000,7.95502001953125,-0.8900445103645325,-4.5487589836120605,-0.8456020951271057
1757491452175064300,7.965064208984375,-0.7701847553253174,-3.820023536682129,-0.7159411311149597
1757491452185105000,7.97510498046875,-1.47580087184906,-3.730241060256958,-0.5414636731147766
1757491452195146000,7.98514599609375,-1.0529998540878296,-3.5225441455841064,-0.6613234281539917
1757491452205187000,7.99518701171875,-1.0236709117889404,-2.9530980587005615,-0.4405331015586853
1757491452215227100,8.00522705078125,-1.287631630897522,-2.6530747413635254,0.053196169435977936
1757491452225267700,8.015267822265624,-1.5402946472167969,-2.517577886581421,0.5074959397315979
1757491452235308300,8.025308349609375,-1.4495395421981812,-2.271648406982422,1.2378771305084229
1757491452245348600,8.0353486328125,-1.2980314493179321,-2.947112560272217,2.3698108196258545
1757491452255391500,8.0453916015625,-1.219995379447937,-3.478026866912842,3.493589162826538
1757491452265426700,8.0554267578125,-1.2960113286972046,-3.6933553218841553,4.592677593231201
1757491452275467500,8.065467529296875,-1.4276924133300781,-4.230180263519287,5.281833171844482
1757491452285509600,8.075509521484374,-1.500939965248108,-4.537461280822754,5.642834186553955
1757491452295551200,8.08555126953125,-2.1604678630828857,-4.54187536239624,5.765237808227539
1757491452305596700,8.0955966796875,-2.9141924381256104,-4.475212097167969,5.777507781982422
1757491452315634400,8.105634521484374,-3.564741849899292,-4.577040195465088,5.795389652252197
1757491452325670400,8.11567041015625,-4.288613796234131,-4.901230335235596,5.390844345092773
1757491452335715800,8.1257158203125,-3.8664112091064453,-5.377227306365967,4.440570831298828
1757491452345756200,8.135756103515625,-3.9658455848693848,-6.191854476928711,2.797175884246826
1757491452355797000,8.145796875,-5.7089738845825195,-6.406509876251221,2.0150198936462402
1757491452365837600,8.155837646484375,-8.282516479492188,-7.040449142456055,2.5084500312805176
1757491452375878400,8.16587841796875,-5.0290207862854,-10.049661636352539,5.335777759552002
1757491452385919000,8.1759189453125,-0.8748562932014465,-14.042142868041992,9.747842788696289
1757491452395956000,8.1859560546875,-1.9813514947891235,-17.5799503326416,12.05495548248291
1757491452406000600,8.196000732421876,-4.0982747077941895,-19.974599838256836,10.817227363586426
1757491452416042200,8.206042236328125,-4.300360202789307,-18.66033363342285,8.965387344360352
1757491452426079700,8.216079833984375,-3.1240592002868652,-14.285004615783691,7.784148216247559
1757491452436118500,8.226118408203124,-3.582848072052002,-9.471611976623535,6.121749401092529
1757491452446159400,8.236159423828125,-3.6506338119506836,-6.226420879364014,3.8884828090667725
1757491452456199700,8.24619970703125,-1.8974047899246216,-4.505737781524658,1.854982614517212
1757491452466241300,8.2562412109375,-0.8478466868400574,-3.9502084255218506,0.7356932759284973
1757491452476283600,8.26628369140625,0.18293197453022003,-4.619088649749756,0.7371896505355835
1757491452486326000,8.276325927734375,0.7856722474098206,-5.955801010131836,1.4163199663162231
1757491452496367900,8.286367919921876,0.9917980432510376,-7.5651535987854,2.3102550506591797
1757491452506409200,8.2964091796875,1.2057050466537476,-9.288679122924805,3.106701135635376
1757491452516443600,8.306443603515625,1.4435540437698364,-10.656517028808594,3.9305310249328613
1757491452526485800,8.31648583984375,0.9109189510345459,-11.84419059753418,4.8033671379089355
1757491452536525300,8.326525390625,0.6087257862091064,-12.482245445251465,5.725284576416016
1757491452546580000,8.336580078125,0.26074352860450745,-12.116007804870605,6.397606372833252
1757491452556611300,8.346611328125,-0.0677858367562294,-10.745102882385254,6.717381954193115
1757491452566651400,8.3566513671875,-0.5098901391029358,-8.881515502929688,6.653187274932861
1757491452576688400,8.3666884765625,-0.591667115688324,-7.240814208984375,6.4080810546875
1757491452586732800,8.37673291015625,-0.4770447015762329,-6.075735569000244,6.176666259765625
1757491452596774000,8.38677392578125,-0.26815059781074524,-5.839158535003662,5.834819316864014
1757491452606810600,8.396810546875,-0.2322375625371933,-5.6809916496276855,5.2450971603393555
1757491452616854300,8.406854248046875,-0.0653168186545372,-5.675754547119141,4.608314514160156
1757491452626895600,8.4168955078125,-0.13602058589458466,-6.036755084991455,3.9618053436279297
1757491452636932600,8.4269326171875,-0.13908815383911133,-6.569015979766846,3.4141316413879395
1757491452646977300,8.436977294921874,-0.4833294749259949,-7.087734699249268,2.8693010807037354
1757491452657018000,8.44701806640625,-0.18727146089076996,-7.608997344970703,2.6758944988250732
1757491452667058400,8.457058349609374,-0.455422043800354,-8.140734672546387,2.599579334259033
1757491452677121500,8.46712158203125,-0.567500650882721,-8.562862396240234,2.755950689315796
1757491452687139600,8.4771396484375,-0.37888240814208984,-8.90957260131836,3.267037868499756
1757491452697180700,8.4871806640625,-0.7109282612800598,-9.063923835754395,3.9262664318084717
1757491452707217400,8.497217529296876,-0.936357319355011,-9.039907455444336,4.469226360321045
1757491452717261600,8.507261474609376,-1.141585350036621,-8.769137382507324,4.582951068878174
1757491452727302700,8.517302734375,-0.9731681942939758,-8.358382225036621,4.5324482917785645
1757491452737343200,8.52734326171875,-1.1106103658676147,-7.934309482574463,4.280533313751221
1757491452747384300,8.53738427734375,-0.41524437069892883,-7.664363384246826,4.30058479309082
1757491452757421800,8.547421875,-0.8607903122901917,-7.403994083404541,4.171971321105957
1757491452767461400,8.55746142578125,-0.1586906760931015,-7.0726213455200195,4.310535907745361
1757491452777502500,8.56750244140625,0.19849428534507751,-6.585700511932373,4.256067752838135
1757491452787545600,8.577545654296875,-0.602889895439148,-6.06548547744751,3.573570489883423
1757491452797587500,8.58758740234375,-0.02910451404750347,-5.719748020172119,3.5135657787323
1757491452807628300,8.597628173828125,-0.47554832696914673,-6.5219550132751465,3.6092591285705566
1757491452817668900,8.6076689453125,-0.4784662425518036,-7.883657455444336,3.9653217792510986
1757491452827709700,8.617709716796876,-0.1340004801750183,-9.194482803344727,4.315249443054199
1757491452837746200,8.62774609375,-1.2577041387557983,-9.762955665588379,3.687818765640259
1757491452847791600,8.63779150390625,-0.7059153914451599,-9.656638145446777,2.4949827194213867
1757491452857831700,8.647831787109375,1.447594165802002,-9.103503227233887,1.0424504280090332
1757491452867871700,8.657871826171874,2.8250083923339844,-8.742951393127441,0.15659575164318085
1757491452877912600,8.66791259765625,4.852523326873779,-9.756596565246582,-0.7127987146377563
1757491452887953700,8.67795361328125,4.575394153594971,-11.655123710632324,-1.616834282875061
1757491452897990100,8.687990234375,2.701706886291504,-14.43307113647461,-1.1805659532546997
1757491452908030700,8.69803076171875,2.764479875564575,-16.810962677001953,0.9129390120506287
1757491452918075400,8.708075439453125,2.4402153491973877,-18.494834899902344,3.31118106842041
1757491452928116500,8.718116455078125,1.3862427473068237,-19.046772003173828,4.704980373382568
1757491452938156800,8.72815673828125,0.5048772692680359,-19.51446533203125,5.624728202819824
1757491452948198000,8.738197998046875,-0.8758289217948914,-19.707122802734375,6.370895862579346
1757491452958233900,8.74823388671875,-1.020154356956482,-19.40814781188965,7.557372570037842
1757491452968279000,8.758279052734375,-1.7764976024627686,-18.388965606689453,8.136919021606445
1757491452978320000,8.76831982421875,-1.4351742267608643,-17.00384521484375,7.527669429779053
1757491452988360700,8.778360595703125,-1.3630489110946655,-15.643863677978516,5.524620532989502
1757491452998406700,8.78840673828125,-1.2031611204147339,-14.616077423095703,3.7945103645324707
1757491453008438300,8.798438232421875,-1.5423147678375244,-14.075661659240723,3.2329204082489014
1757491453018478300,8.808478271484375,-1.876231074333191,-13.143568992614746,3.4280478954315186
1757491453028521500,8.818521484375,-2.7347769737243652,-11.67270565032959,3.9705591201782227
1757491453038572300,8.828572265625,-3.835810422897339,-10.32521915435791,5.156586647033691
1757491453048604400,8.8386044921875,-4.140771865844727,-9.719486236572266,7.16083288192749
1757491453058645200,8.848645263671875,-3.768099308013916,-9.705570220947266,9.622146606445312
1757491453068681700,8.858681640625,-2.7713632583618164,-9.948356628417969,11.392733573913574
1757491453078726100,8.86872607421875,-0.831910252571106,-10.367791175842285,11.882048606872559
1757491453088763400,8.878763427734375,0.34693479537963867,-10.929829597473145,10.915763854980469
1757491453098808300,8.888808349609375,-0.3503764569759369,-11.548282623291016,8.879046440124512
1757491453108848600,8.8988486328125,-1.7863737344741821,-12.655750274658203,6.449904441833496
1757491453118889200,8.90888916015625,-2.270900249481201,-13.912481307983398,3.983128547668457
1757491453128930000,8.918929931640625,-1.6122703552246094,-14.323760986328125,1.9069817066192627
1757491453138966800,8.928966796875,-1.3346178531646729,-14.013636589050293,0.6631190776824951
1757491453149011000,8.939010986328125,-2.7268459796905518,-12.65619945526123,0.10833762586116791
1757491453159048000,8.9490478515625,-3.765779972076416,-10.875137329101562,0.009352350607514381
1757491453169092900,8.9590927734375,-3.015347480773926,-9.609203338623047,0.4213046729564667
1757491453179133400,8.969133544921876,0.0561889223754406,-9.084723472595215,0.945111095905304
1757491453189174300,8.97917431640625,3.6138229370117188,-8.945560455322266,1.2446107864379883
1757491453199215000,8.989215087890624,3.881075859069824,-9.006388664245605,1.896881103515625
1757491453209251300,8.999251220703124,0.7196820378303528,-9.335366249084473,3.702857494354248
1757491453219292200,9.009292236328125,-2.061108350753784,-9.819968223571777,5.733963489532471
1757491453229336600,9.019336669921875,-0.8107365369796753,-9.896507263183594,5.885172367095947
1757491453239378000,9.0293779296875,1.801636815071106,-9.310301780700684,4.129997730255127
1757491453249416400,9.03941650390625,2.6878654956817627,-8.10010814666748,2.606687068939209
1757491453259454700,9.049454833984376,2.4352023601531982,-6.912583827972412,1.2960113286972046
1757491453269495600,9.05949560546875,2.313621759414673,-5.777956962585449,0.02379237860441208
1757491453279536000,9.0695361328125,2.2166566848754883,-4.4526166915893555,-0.6792051196098328
1757491453289581000,9.0795810546875,0.7083844542503357,-3.82226824760437,-0.7145195603370667
1757491453299622000,9.089621826171875,-0.17717093229293823,-3.23374342918396,-0.18614917993545532
1757491453309662700,9.099662841796874,-0.6450129151344299,-2.126574754714966,0.1479915976524353
1757491453319703300,9.109703369140625,-1.063848614692688,-1.3910311460494995,0.011746551841497421
1757491453329744000,9.119743896484374,-1.270946979522705,-1.3455413579940796,-0.7520037889480591
1757491453339784400,9.129784423828125,-0.4453963339328766,-0.9777321219444275,-0.2700958847999573
1757491453349800000,9.139800048828125,-0.10901099443435669,-0.7945756912231445,0.5315127968788147
1757491453359839700,9.14983984375,0.03321954980492592,-1.072826862335205,1.3007997274398804
1757491453369880000,9.159880126953125,-0.0735468864440918,-1.7703624963760376,2.6297311782836914
1757491453379921200,9.169921142578126,-0.26411038637161255,-2.424278974533081,3.88010311126709
1757491453389961200,9.179961181640625,-0.44158056378364563,-2.781613349914551,4.4979567527771
1757491453400025600,9.190025634765625,-0.996212363243103,-3.0964510440826416,3.7166988849639893
1757491453410064100,9.200064208984376,0.08364742249250412,-3.2368857860565186,0.9417442679405212
1757491453420106500,9.2101064453125,2.4582467079162598,-2.6717793941497803,-2.7694928646087646
1757491453430149600,9.220149658203125,3.5569608211517334,-1.7966986894607544,-4.720617771148682
1757491453440188400,9.2301884765625,2.2841432094573975,-1.5361796617507935,-2.64170241355896
1757491453450231300,9.240231201171875,-2.6081087589263916,-4.177732467651367,3.822343111038208
1757491453460272000,9.250272216796875,-3.267486810684204,-9.41759204864502,8.115446090698242
1757491453470312200,9.260312255859375,-5.201103687286377,-15.971046447753906,7.8267951011657715
1757491453480349200,9.27034912109375,-6.149357318878174,-23.176546096801758,6.190208435058594
1757491453490391800,9.280391845703125,-2.9212253093719482,-28.897714614868164,6.394164562225342
1757491453500434700,9.2904345703125,-2.319532632827759,-27.230302810668945,9.744625091552734
1757491453510475500,9.3004755859375,-3.2894086837768555,-17.616910934448242,10.938882827758789
1757491453520515600,9.310515625,-2.9605801105499268,-9.746047019958496,8.707412719726562
1757491453530556400,9.320556396484376,-3.287463426589966,-5.38710355758667,5.9403886795043945
1757491453540595200,9.33059521484375,-2.355520486831665,-3.8651394844055176,3.4258034229278564
1757491453550638000,9.34063818359375,-1.230170726776123,-4.965424537658691,1.2170026302337646
1757491453560676600,9.350676513671875,-0.6389525532722473,-6.79743766784668,0.4510825574398041
1757491453570718700,9.36071875,-0.6358101963996887,-8.48138427734375,1.0326491594314575
1757491453580760000,9.370760009765625,-0.46971243619918823,-9.660978317260742,2.1746833324432373
1757491453590800600,9.380800537109375,0.09726444631814957,-10.327014923095703,3.283722400665283
1757491453600837600,9.390837646484375,1.0632500648498535,-10.299930572509766,4.439298629760742
1757491453610883300,9.40088330078125,1.5274258852005005,-9.78405475616455,5.598616123199463
1757491453620919300,9.410919189453125,1.564984917640686,-9.02479362487793,6.72299337387085
1757491453630959600,9.420959716796874,1.5214403867721558,-8.292093276977539,7.628300666809082
1757491453641000400,9.43100048828125,1.3456162214279175,-7.731775283813477,8.297928810119629
1757491453651043000,9.44104296875,1.048435926437378,-7.439907073974609,8.598251342773438
1757491453661085700,9.451085693359374,0.6524947881698608,-7.294534206390381,8.233210563659668
1757491453671122000,9.461121826171874,0.5328595042228699,-7.168015480041504,7.1198320388793945
1757491453681167000,9.4711669921875,0.4570680558681488,-7.114520072937012,5.765088081359863
1757491453691207400,9.48120751953125,0.2635118365287781,-7.089605331420898,4.357746601104736
1757491453701248300,9.491248291015625,0.7413794994354248,-7.010372161865234,3.371185541152954
1757491453711289000,9.5012890625,0.3191021978855133,-7.121702671051025,2.6432735919952393
1757491453721327400,9.511327392578124,0.03696049004793167,-7.472602844238281,2.212242364883423
1757491453731368000,9.521367919921875,0.19894319772720337,-7.8827595710754395,2.4677486419677734
1757491453741408800,9.53140869140625,-0.12038345634937286,-8.563311576843262,2.9261634349823
1757491453751451600,9.54145166015625,-0.578947901725769,-8.992621421813965,3.3225533962249756
1757491453761492500,9.551492431640625,-0.6153098344802856,-9.253066062927246,3.6355953216552734
1757491453771532500,9.561532470703124,-0.7984662652015686,-9.372177124023438,3.5988593101501465
1757491453781574100,9.57157421875,-0.5976526141166687,-9.092803955078125,3.6186113357543945
1757491453791612200,9.581612060546876,-0.22101473808288574,-8.80579948425293,3.7049522399902344
1757491453801653000,9.591653076171875,-0.42519524693489075,-8.380753517150879,3.730764865875244
1757491453811693600,9.601693603515624,-0.4544494152069092,-8.20844554901123,3.5574843883514404
1757491453821736000,9.61173583984375,0.36661213636398315,-7.916652202606201,3.692906379699707
1757491453831776500,9.621776611328125,-0.40297406911849976,-7.777863502502441,3.471442937850952
1757491453841817300,9.6318173828125,-1.863661527633667,-7.534852027893066,2.852092742919922
1757491453851858700,9.641858642578125,-1.5809212923049927,-7.557522296905518,2.4145524501800537
1757491453861895200,9.651895263671875,-0.8889222145080566,-7.942614555358887,1.9713258743286133
1757491453871936300,9.661936279296874,0.3630208373069763,-8.136619567871094,1.4425065517425537
1757491453881976600,9.6719765625,2.536207675933838,-8.351723670959473,1.3673884868621826
1757491453892017400,9.682017333984374,2.725499391555786,-8.587103843688965,1.8564789295196533
1757491453902059000,9.69205908203125,2.3552958965301514,-9.329680442810059,2.6139445304870605
1757491453912102700,9.7021025390625,1.6460884809494019,-10.471714973449707,3.0591912269592285
1757491453922141000,9.712140869140624,2.1127333641052246,-11.675623893737793,3.103109836578369
1757491453932181800,9.722181640625,1.828122615814209,-12.940435409545898,3.138723611831665
1757491453942224400,9.732224365234375,0.7771428823471069,-14.086360931396484,3.1420156955718994
1757491453952265000,9.742264892578126,0.45519760251045227,-14.671518325805664,2.8220155239105225
1757491453962305500,9.752305419921875,0.005237316247075796,-14.60605239868164,2.6803836822509766
1757491453972344000,9.762343994140625,-0.2784007787704468,-14.083891868591309,3.1832408905029297
1757491453982387000,9.772386962890625,-0.3536684811115265,-13.983859062194824,3.9089083671569824
1757491453992425700,9.78242578125,-0.5192424654960632,-14.232032775878906,4.447603702545166
1757491454002466800,9.792466796875,-0.7300070524215698,-14.349722862243652,4.561702251434326
1757491454012509200,9.80250927734375,-1.0220996141433716,-14.343438148498535,4.367173671722412
1757491454022549500,9.812549560546875,-1.4326304197311401,-13.959168434143066,4.042085647583008
1757491454032590300,9.82259033203125,-2.208052635192871,-13.383138656616211,3.710937738418579
1757491454042628900,9.83262890625,-1.5705214738845825,-12.350789070129395,4.068871021270752
1757491454052670000,9.842669921875,-1.3539959192276,-11.175684928894043,4.901529312133789
1757491454062712300,9.85271240234375,-1.4419827461242676,-10.394576072692871,6.023886203765869
1757491454072753200,9.862753173828125,-1.1926865577697754,-10.091485023498535,7.3600754737854
1757491454082794000,9.8727939453125,-0.5218611359596252,-9.999308586120605,8.479738235473633
1757491454092834000,9.882833984375,0.5034556984901428,-10.11093807220459,9.033023834228516
1757491454102876000,9.8928759765625,0.8838345408439636,-10.39996337890625,8.794576644897461
1757491454112915700,9.902915771484375,0.48632222414016724,-10.977938652038574,7.769109725952148
1757491454122952200,9.9129521484375,-0.24181437492370605,-11.834464073181152,6.05852746963501
1757491454132993500,9.92299365234375,-1.292494773864746,-12.6226806640625,4.138153076171875
1757491454143036000,9.933035888671874,-1.8248306512832642,-13.167884826660156,2.620079755783081
1757491454153080800,9.943080810546874,-1.8121113777160645,-13.498659133911133,1.9130419492721558
1757491454163116800,9.95311669921875,-1.4479682445526123,-13.326051712036133,1.8386720418930054
1757491454173159400,9.963159423828126,-1.4205098152160645,-12.733487129211426,1.9759645462036133
1757491454183196700,9.97319677734375,-1.3412766456604004,-12.054880142211914,2.1897966861724854
1757491454193240800,9.98324072265625,-1.07110595703125,-11.409942626953125,2.5154829025268555
1757491454203282200,9.9932822265625,-0.44502225518226624,-10.916886329650879,2.9893105030059814
1757491454213322200,10.003322265625,0.5742343068122864,-10.571672439575195,3.623100519180298
1757491454223362800,10.01336279296875,1.0988637208938599,-10.328885078430176,4.345101833343506
1757491454233401900,10.02340185546875,0.8492682576179504,-10.109067916870117,5.122768402099609
1757491454243442000,10.03344189453125,-0.011522095650434494,-9.888128280639648,5.577666759490967
1757491454253485300,10.0434853515625,-0.6987327933311462,-9.761085510253906,5.4805521965026855
1757491454263526400,10.0535263671875,-0.867598831653595,-9.716717720031738,4.871152877807617
1757491454273565400,10.0635654296875,-0.7226748466491699,-9.691354751586914,4.191274642944336
1757491454283605800,10.073605712890625,-0.3488052487373352,-9.533112525939941,3.6074633598327637
1757491454293645600,10.0836455078125,0.04204816743731499,-9.154006004333496,2.9240684509277344
1757491454303685000,10.09368505859375,0.7929296493530273,-8.595108985900879,2.2591538429260254
1757491454313725400,10.103725341796874,0.9141361117362976,-7.895777702331543,1.4281413555145264
1757491454323767800,10.113767822265626,1.0322002172470093,-6.9847092628479,1.034369945526123
1757491454333810700,10.123810791015625,0.23029227554798126,-6.190208435058594,0.8847323656082153
1757491454343849000,10.133848876953126,-0.13459903001785278,-5.301585674285889,0.8900445103645325
1757491454353895000,10.14389501953125,-0.34184712171554565,-4.446930408477783,0.9567080140113831
1757491454363929600,10.1539296875,-1.1941828727722168,-4.129997730255127,0.8609399795532227
1757491454373969200,10.16396923828125,-1.025391697883606,-3.624297618865967,0.8043021559715271
1757491454383999000,10.1739990234375,-1.0604816675186157,-3.371933937072754,0.8878747224807739
1757491454394037800,10.184037841796876,-1.1188403367996216,-3.40986704826355,0.9357587695121765
1757491454404069600,10.194069580078125,-0.9785551428794861,-3.7458033561706543,0.8059481382369995
1757491454414110000,10.20410986328125,-0.6014683842658997,-3.837531328201294,1.035492181777954
1757491454424150500,10.214150634765625,-0.20552724599838257,-3.854290723800659,1.5859341621398926
1757491454434202000,10.2242021484375,0.02214636653661728,-3.9543981552124023,2.4659528732299805
1757491454444244700,10.23424462890625,-0.14185644686222076,-4.486883640289307,3.6588640213012695
1757491454454296000,10.244296142578126,0.40701428055763245,-4.248286247253418,4.828730583190918
1757491454464337000,10.2543369140625,0.7644237279891968,-4.643554210662842,6.135366439819336
1757491454474377200,10.264377197265626,0.6143372058868408,-4.768651008605957,6.671966552734375
1757491454484417000,10.2744169921875,0.37312138080596924,-4.43585729598999,6.477662563323975
1757491454494457900,10.284457763671876,0.05753565952181816,-4.063783168792725,6.087182998657227
1757491454504502800,10.294502685546876,-0.8862287402153015,-3.8694040775299072,5.746009349822998
1757491454514541600,10.30454150390625,-2.3731775283813477,-3.858555316925049,5.0843119621276855
1757491454524581000,10.3145810546875,-3.5609261989593506,-4.006696701049805,4.634575843811035
1757491454534623200,10.324623291015625,-4.9648261070251465,-4.867711544036865,5.2532525062561035
1757491454544690400,10.3346904296875,-4.513369560241699,-5.7877583503723145,4.508955001831055
1757491454554714000,10.344714111328125,-4.360888957977295,-6.507964134216309,3.2228946685791016
1757491454564744000,10.354743896484376,-0.6146364808082581,-8.70374584197998,3.6210055351257324
1757491454574786300,10.364786376953125,0.43611881136894226,-11.197531700134277,5.931784152984619
1757491454584827400,10.374827392578124,-4.628291130065918,-14.187215805053711,7.963039875030518
1757491454594867700,10.38486767578125,-4.898611545562744,-16.079532623291016,7.004985332489014
1757491454604905500,10.394905517578126,-4.149226188659668,-16.019977569580078,5.919738292694092
1757491454614944800,10.40494482421875,-3.806705951690674,-14.341043472290039,5.9887213706970215
1757491454624985300,10.4149853515625,-2.6152913570404053,-11.667767524719238,5.903428077697754
1757491454635028000,10.425028076171875,-2.4089410305023193,-9.317934036254883,5.29387903213501
1757491454645067500,10.435067626953124,-1.562066912651062,-7.779659271240234,4.240954399108887
1757491454655112000,10.44511181640625,0.17814357578754425,-7.097910404205322,3.0282909870147705
1757491454665152300,10.45515234375,1.1880477666854858,-7.24837064743042,2.252943754196167
1757491454675190800,10.465190673828126,1.3093290328979492,-8.011298179626465,2.107346296310425
1757491454685231600,10.475231689453125,1.3282581567764282,-9.219547271728516,2.2764368057250977
1757491454695272200,10.485272216796876,1.9984102249145508,-10.234763145446777,2.6797850131988525
1757491454705315000,10.495315185546875,2.0370166301727295,-11.00128173828125,3.291353940963745
1757491454715353600,10.505353515625,1.9699790477752686,-11.323152542114258,4.0766520500183105
1757491454725396000,10.51539599609375,1.4856021404266357,-11.033379554748535,4.959589004516602
1757491454735436800,10.525436767578125,1.138966679573059,-10.142362594604492,5.669768810272217
1757491454745475600,10.5354755859375,0.8103624582290649,-8.991724014282227,6.1385087966918945
1757491454755516400,10.545516357421874,0.32441434264183044,-8.073846817016602,6.402918338775635
1757491454765559300,10.555559326171876,0.13691841065883636,-7.520486831665039,6.439205646514893
1757491454775599400,10.565599365234375,0.019452888518571854,-7.380875110626221,6.2527570724487305
1757491454785638400,10.575638427734376,-0.01975216343998909,-7.587823867797852,5.836091041564941
1757491454795680800,10.5856806640625,0.2289455384016037,-8.058732986450195,5.308468818664551
1757491454805721900,10.595721923828124,0.4820575416088104,-8.446070671081543,4.651859283447266
1757491454815760400,10.605760498046875,0.5698948502540588,-8.561141967773438,4.04657506942749
1757491454825803000,10.615802978515624,0.6111947894096375,-8.585083961486816,3.569979190826416
1757491454835843600,10.625843505859375,0.6213701367378235,-8.432453155517578,3.0731823444366455
1757491454845886000,10.635885986328125,1.142483115196228,-8.132354736328125,3.0561983585357666
1757491454855899400,10.6458994140625,1.1003601551055908,-7.895254135131836,3.2603790760040283
1757491454865965800,10.6559658203125,0.8352771401405334,-7.66653299331665,3.568931818008423
1757491454876006000,10.666005859375,0.5290437340736389,-7.612887859344482,3.7070472240448
1757491454886050000,10.676050048828126,0.7460182905197144,-7.539640426635742,4.062137126922607
1757491454896085000,10.6860849609375,0.6203227043151855,-7.749133110046387,4.204517364501953
1757491454906124800,10.696124755859374,0.36010289192199707,-7.992444038391113,3.9892637729644775
1757491454916165400,10.706165283203125,-0.2305167317390442,-8.378508567810059,3.495384931564331
1757491454926207200,10.716207275390625,-0.4206313192844391,-8.615385055541992,3.1426889896392822
1757491454936247800,10.726247802734376,-0.2700958847999573,-8.740556716918945,2.80937123298645
1757491454946287000,10.736287109375,-0.8007108569145203,-8.787169456481934,2.46789813041687
1757491454956332500,10.74633251953125,-0.7377133965492249,-8.829815864562988,1.8908956050872803
1757491454966374000,10.756373779296876,-0.35486558079719543,-8.852560997009277,1.2851625680923462
1757491454976411600,10.76641162109375,-0.15936404466629028,-8.862062454223633,1.219770908355713
1757491454986450400,10.776450439453125,0.6878840923309326,-8.986486434936523,1.5121628046035767
1757491454996491000,10.786490966796874,2.233715295791626,-9.100211143493652,2.1128082275390625
1757491455006531300,10.79653125,2.1185691356658936,-9.085920333862305,2.901024341583252
1757491455016578600,10.80657861328125,1.9547908306121826,-9.390433311462402,3.677718162536621
1757491455026616300,10.8166162109375,3.4478001594543457,-9.228824615478516,3.6432268619537354
1757491455036657200,10.8266572265625,2.533738851547241,-9.333122253417969,3.756577253341675
1757491455046698200,10.8366982421875,1.0388591289520264,-9.673771858215332,3.780294895172119
1757491455056738600,10.846738525390625,0.7637503147125244,-10.55341625213623,3.7816414833068848
1757491455066775600,10.856775634765626,0.45093291997909546,-11.754857063293457,3.4409167766571045
1757491455076816400,10.86681640625,-0.4448726177215576,-13.120000839233398,3.0301616191864014
1757491455086861000,10.876861083984375,-1.0485106706619263,-14.42760944366455,2.993126153945923
1757491455096901400,10.8869013671875,-1.0632500648498535,-15.524751663208008,3.44765043258667
1757491455106942000,10.89694189453125,-1.082777738571167,-16.244508743286133,3.9035212993621826
1757491455116983300,10.9069833984375,-1.5404443740844727,-16.80991554260254,3.919682264328003
1757491455127022800,10.91702294921875,-1.1473463773727417,-16.659902572631836,3.397447109222412
1757491455137060000,10.92706005859375,-1.1785458326339722,-15.995287895202637,2.7624597549438477
1757491455147104500,10.9371044921875,-1.4038251638412476,-14.737508773803711,2.980781078338623
1757491455157145000,10.94714501953125,-1.878849744796753,-13.179556846618652,3.6629042625427246
1757491455167186200,10.957186279296875,-1.7772458791732788,-11.848305702209473,4.899284839630127
1757491455177226500,10.9672265625,-1.9431939125061035,-11.405078887939453,6.6822919845581055
1757491455187267300,10.977267333984376,-1.7419313192367554,-11.3130521774292,8.598401069641113
1757491455197303800,10.9873037109375,-0.9439888596534729,-10.998364448547363,10.211344718933105
1757491455207344600,10.9973447265625,0.6147860884666443,-10.599355697631836,10.95736312866211
1757491455217390300,11.007390380859375,1.8592472076416016,-10.460566520690918,10.774730682373047
1757491455227426800,11.0174267578125,2.0940287113189697,-10.607510566711426,9.23563289642334
1757491455237466600,11.027466552734374,2.4880993366241455,-11.080065727233887,6.822576999664307
1757491455247508000,11.037508056640625,2.2957401275634766,-11.703082084655762,4.340837478637695
1757491455257550300,11.04755029296875,1.2844891548156738,-12.461745262145996,2.1972038745880127
1757491455267588600,11.057588623046875,-0.7741501331329346,-13.166089057922363,0.2998737692832947
1757491455277633300,11.06763330078125,-2.8226890563964844,-13.61672306060791,-1.2317419052124023
1757491455287673900,11.077673828125,-3.568258285522461,-13.626449584960938,-1.718812346458435
1757491455297710300,11.08771044921875,-2.8347349166870117,-13.040543556213379,-1.1204116344451904
1757491455307754800,11.097754638671875,-1.5854852199554443,-11.974076271057129,-0.034341830760240555
1757491455317796000,11.107796142578126,0.3589057922363281,-11.029189109802246,1.040505051612854
1757491455327832000,11.11783203125,1.779714822769165,-10.398990631103516,2.1669769287109375
1757491455337877500,11.12787744140625,1.6335937976837158,-10.117522239685059,3.480944871902466
1757491455347917300,11.137917236328125,1.0453683137893677,-9.870619773864746,4.7061028480529785
1757491455357958100,11.147958251953124,1.2334628105163574,-9.59289264678955,5.741669654846191
1757491455367995000,11.157994873046874,0.9341875910758972,-9.243264198303223,6.374262809753418
1757491455378039600,11.16803955078125,0.17470189929008484,-8.864381790161133,6.514024257659912
1757491455388080400,11.178080322265625,-0.028131870552897453,-8.476521492004395,5.87200403213501
1757491455398116900,11.188116943359375,0.40065470337867737,-8.312743186950684,4.711190223693848
1757491455408161300,11.198161376953125,0.6357353925704956,-8.241366386413574,3.458798408508301
1757491455418202600,11.20820263671875,0.557400107383728,-7.774122714996338,2.2357354164123535
1757491455428242700,11.21824267578125,0.5800701975822449,-7.169886112213135,1.2277765274047852
1757491455438279700,11.22827978515625,0.5585223436355591,-6.3803229331970215,0.4181622862815857
1757491455448324000,11.238323974609376,0.3222445845603943,-5.792770862579346,-0.020724808797240257
1757491455458361000,11.248361083984374,0.06434416770935059,-5.205143928527832,0.020201077684760094
1757491455468410400,11.258410400390625,-0.5238064527511597,-4.718672275543213,0.3340659439563751
1757491455478442000,11.26844189453125,-1.1297639608383179,-4.506560802459717,0.604461133480072
1757491455488482800,11.27848291015625,-1.2637643814086914,-4.100519180297852,0.8738836050033569
1757491455498527200,11.28852734375,-1.10926353931427,-3.7368998527526855,1.3899089097976685
1757491455508563700,11.298563720703125,-1.4174422025680542,-3.684227466583252,1.6971149444580078
1757491455518604800,11.308604736328125,-1.1762263774871826,-4.028992652893066,1.8177976608276367
1757491455528649200,11.318649169921875,-0.5663034915924072,-3.674426317214966,1.8901474475860596
1757491455538690000,11.32868994140625,-0.27892449498176575,-3.4978537559509277,2.0952258110046387
1757491455548730600,11.338730712890625,-0.10975918173789978,-3.421987533569336,2.394500970840454
1757491455558771700,11.348771728515626,-0.45811551809310913,-3.8895301818847656,2.6459670066833496
1757491455568812000,11.35881201171875,-0.5866542458534241,-4.076577186584473,3.0987703800201416
1757491455578848800,11.368848876953125,-0.8411129713058472,-3.950058698654175,3.6424787044525146
1757491455588889300,11.378889404296874,-0.9174281358718872,-3.832742929458618,4.5970916748046875
1757491455598933800,11.388933837890624,-0.704867959022522,-4.202198028564453,5.88240385055542
1757491455608974300,11.398974365234375,-0.22610242664813995,-4.221950054168701,6.6198930740356445
1757491455619014400,11.409014404296874,-0.30301615595817566,-4.180051803588867,6.861557483673096
1757491455629055700,11.4190556640625,-0.9496750831604004,-3.975721597671509,6.528239727020264
1757491455639096600,11.4290966796875,-1.756745457649231,-3.795034170150757,5.944877624511719
1757491455649132800,11.4391328125,-2.5273044109344482,-3.8133647441864014,5.5080108642578125
1757491455659178200,11.44917822265625,-3.0561983585357666,-3.9526772499084473,5.111021995544434
1757491455669218300,11.45921826171875,-3.521496534347534,-4.270432949066162,4.529904365539551
1757491455679259000,11.4692587890625,-5.086331844329834,-4.770596504211426,4.471770286560059
1757491455689300000,11.479300048828126,-6.2055463790893555,-6.24587345123291,5.199682235717773
1757491455699340300,11.48934033203125,-6.182127952575684,-7.944185733795166,5.02827262878418
1757491455709381000,11.499381103515624,-4.924798011779785,-9.822287559509277,5.877316474914551
1757491455719417300,11.509417236328124,0.29134443402290344,-12.768502235412598,9.174580574035645
1757491455729458200,11.519458251953125,-1.193734049797058,-15.543381690979004,12.83815860748291
1757491455739499000,11.5294990234375,-3.200523853302002,-17.560497283935547,12.275445938110352
1757491455749541400,11.539541259765626,-3.4127848148345947,-17.19919776916504,9.445948600769043
1757491455759584300,11.549584228515625,-4.619462490081787,-13.568016052246094,7.047631740570068
1757491455769624800,11.559624755859375,-4.485387325286865,-9.443105697631836,4.852822303771973
1757491455779661800,11.569661865234375,-4.691064357757568,-6.698677062988281,2.8161797523498535
1757491455789706200,11.579706298828125,-4.034154891967773,-5.293280601501465,1.3750947713851929
1757491455799746600,11.58974658203125,-2.186504602432251,-5.173047065734863,0.40551790595054626
1757491455809783800,11.59978369140625,-0.7572411298751831,-6.144344329833984,0.3470095992088318
1757491455819828200,11.609828125,0.1132008507847786,-7.820510387420654,1.2863596677780151
1757491455829868800,11.619868896484375,0.6637176275253296,-9.637709617614746,2.3503577709198
1757491455839905500,11.629905517578125,1.6438438892364502,-11.215188980102539,3.583371639251709
1757491455849950000,11.639949951171875,2.371232271194458,-12.486210823059082,4.985476016998291
1757491455859991000,11.649990966796874,2.2988076210021973,-13.057527542114258,6.1215996742248535
1757491455870031000,11.660031005859375,1.9663877487182617,-12.885293960571289,7.14931058883667
1757491455880067800,11.67006787109375,1.828347086906433,-11.925518989562988,7.980996608734131
1757491455890112300,11.6801123046875,1.1760019063949585,-9.948132514953613,8.150087356567383
1757491455900153000,11.690153076171875,0.9418190717697144,-8.18061351776123,7.606902599334717
1757491455910190300,11.7001904296875,0.7861959934234619,-7.011045455932617,6.536769390106201
1757491455920234800,11.71023486328125,0.23612813651561737,-6.580014228820801,5.216441631317139
1757491455930275300,11.720275390625,-0.04406827688217163,-6.413168430328369,3.876436948776245
1757491455940316400,11.73031640625,0.08858546614646912,-6.357952117919922,2.772336006164551
1757491455950352600,11.7403525390625,-0.005686229094862938,-6.6038818359375,2.0575919151306152
1757491455960401400,11.7504013671875,-0.5585223436355591,-7.204526901245117,1.7279402017593384
1757491455970433500,11.76043359375,-1.1887211799621582,-8.021024703979492,1.8721160888671875
1757491455980475000,11.770474853515625,-1.2767828702926636,-8.92333984375,2.121936082839966
1757491455990517500,11.780517578125,-0.9648633003234863,-9.503409385681152,2.243067741394043
1757491456000557000,11.79055712890625,-0.48564884066581726,-9.587430953979492,2.1913678646087646
1757491456010600400,11.800600341796875,0.2247556895017624,-9.321226119995117,1.9821745157241821
1757491456020641000,11.81064111328125,0.5314379334449768,-8.97309398651123,2.0010287761688232
1757491456030681300,11.820681396484375,0.01750759966671467,-8.690353393554688,2.2165069580078125
1757491456040718300,11.83071826171875,-0.31775546073913574,-8.510863304138184,2.471040725708008
1757491456050762800,11.8407626953125,-0.05761047825217247,-8.393696784973145,2.8680291175842285
1757491456060803600,11.850803466796876,-0.03868132084608078,-8.105569839477539,3.0656256675720215
1757491456070844400,11.860844482421875,0.16894085705280304,-7.854702472686768,3.221473217010498
1757491456080884700,11.870884765625,0.2421884685754776,-7.469685077667236,3.3394625186920166
1757491456090925600,11.880925537109375,-0.11297639459371567,-7.335235595703125,3.2930748462677
1757491456100961800,11.8909619140625,-0.22355858981609344,-7.361197471618652,3.5213470458984375
1757491456111003100,11.901003173828125,0.22034136950969696,-7.3139119148254395,3.4897735118865967
1757491456121047000,11.911047119140624,0.7763947248458862,-7.154847145080566,3.2638955116271973
1757491456131088100,11.921088134765625,0.037484221160411835,-7.023989200592041,2.8314428329467773
1757491456141128700,11.931128662109375,0.19789573550224304,-7.214776992797852,2.8949639797210693
1757491456151169300,11.941169189453126,0.04975450411438942,-7.502604961395264,2.707542896270752
1757491456161206000,11.9512060546875,-0.8034791350364685,-7.592088222503662,2.193013906478882
1757491456171251000,11.9612509765625,-0.35733461380004883,-7.918447971343994,2.145803213119507
1757491456181287200,11.971287109375,0.2783259451389313,-8.491559982299805,2.455253839492798
1757491456191332000,11.98133203125,1.3008744716644287,-8.944363594055176,2.6944496631622314
1757491456201373000,11.991373046875,1.7365443706512451,-9.62484073638916,2.7917139530181885
1757491456211411500,12.001411376953126,1.2895768880844116,-10.263493537902832,2.402805805206299
1757491456221450200,12.0114501953125,1.2413188219070435,-10.466551780700684,1.932719349861145
1757491456231516200,12.02151611328125,1.2926445007324219,-10.9330472946167,1.5988030433654785
1757491456241533000,12.031532958984375,1.0003273487091064,-11.854889869689941,1.43764328956604
1757491456251571200,12.0415712890625,1.1446528434753418,-12.803741455078125,1.3136684894561768
1757491456261616000,12.0516162109375,1.7515082359313965,-13.503746032714844,1.201141119003296
1757491456271656400,12.061656494140625,2.2451627254486084,-14.385411262512207,1.4089128971099854
1757491456281700000,12.0717001953125,1.9182792901992798,-15.806893348693848,2.1144542694091797
1757491456291735600,12.081735595703124,1.53707754611969,-17.1813907623291,3.012728691101074
1757491456301775000,12.091775146484375,1.4853029251098633,-17.925613403320312,3.6260933876037598
1757491456311815000,12.10181494140625,1.0499322414398193,-17.99025535583496,3.7840356826782227
1757491456321857800,12.11185791015625,0.9962871670722961,-17.322498321533203,3.2398037910461426
1757491456331897000,12.12189697265625,1.1885714530944824,-16.290746688842773,2.1611411571502686
1757491456341938700,12.131938720703126,1.2889034748077393,-15.24283504486084,0.9959130883216858
1757491456351981800,12.14198193359375,1.3174842596054077,-14.075885772705078,0.15397709608078003
1757491456362024200,12.152024169921875,1.3386579751968384,-12.579360008239746,0.3059340715408325
1757491456372060700,12.162060791015625,0.7329249978065491,-11.176358222961426,1.4793174266815186
1757491456382101000,12.17210107421875,-1.2078747749328613,-10.548553466796875,3.33856463432312
1757491456392181200,12.18218115234375,-2.9311013221740723,-10.990208625793457,5.552378177642822
1757491456402206200,12.192206298828125,-2.2729203701019287,-11.765406608581543,6.664559841156006
1757491456412227000,12.20222705078125,-0.8403648138046265,-11.969961166381836,6.312911510467529
1757491456422262800,12.2122626953125,-0.15494973957538605,-9.355941772460938,5.548038482666016
1757491456432307200,12.22230712890625,2.368239641189575,-8.931419372558594,3.6693384647369385
1757491456442348000,12.23234814453125,2.1436336040496826,-8.297928810119629,1.8679262399673462
1757491456452390400,12.242390380859375,0.7912836670875549,-8.263362884521484,1.5272014141082764
1757491456462427100,12.25242724609375,-0.7513304352760315,-10.394651412963867,0.765920102596283
1757491456472466200,12.262466064453125,-0.5936123728752136,-10.805331230163574,0.45100775361061096
1757491456482507500,12.272507568359375,1.967958927154541,-10.28481674194336,0.7086837291717529
1757491456492548400,12.28254833984375,3.3295116424560547,-9.571868896484375,0.7811083197593689
1757491456502591500,12.292591552734375,2.6482114791870117,-8.609025955200195,1.3862427473068237
1757491456512632600,12.302632568359375,1.9207483530044556,-8.40544319152832,1.7250971794128418
1757491456522673200,12.312673095703126,1.6989853382110596,-8.846949577331543,1.9737200736999512
1757491456532713200,12.322713134765625,-0.6343886256217957,-8.992621421813965,2.912022590637207
1757491456542754300,12.33275439453125,4.275894641876221,-25.320478439331055,-1.3732242584228516
1757491456552790800,12.342790771484376,5.8016743659973145,-14.42416763305664,0.4852747619152069
1757491456562835200,12.352835205078126,0.9463081955909729,-8.519766807556152,1.434126853942871
1757491456572875800,12.362875732421875,-0.8526350855827332,-5.223325252532959,2.760514497756958
1757491456582916600,12.37291650390625,-0.8146271109580994,-3.4637365341186523,3.0907647609710693
1757491456592957200,12.382957275390625,0.287453830242157,-2.2845921516418457,2.62823486328125
1757491456602998300,12.392998291015624,1.2362310886383057,-1.713649868965149,1.80186128616333
1757491456613034800,12.40303466796875,0.947879433631897,-2.331653118133545,0.7930793166160583
1757491456623075600,12.41307568359375,-0.33945292234420776,-4.4508957862854,0.40057986974716187
1757491456633119500,12.423119384765625,-0.3595043420791626,-5.651812553405762,0.8520365357398987
1757491456643160600,12.43316064453125,0.26171618700027466,-6.152200698852539,0.9317185282707214
1757491456653201000,12.443200927734376,0.7957727909088135,-6.779406547546387,0.10048165172338486
1757491456663242200,12.4532421875,1.611896276473999,-7.047033309936523,-1.1055974960327148
1757491456673282600,12.463282470703126,2.5865607261657715,-6.850559234619141,-2.0288615226745605
1757491456683323100,12.4733232421875,3.3930327892303467,-6.453421115875244,-2.1599440574645996
1757491456693359900,12.48335986328125,3.3384149074554443,-5.6198649406433105,-1.178022027015686
1757491456703409400,12.493409423828124,2.4554781913757324,-5.210007190704346,0.7142202854156494
1757491456713441500,12.503441650390625,1.4220809936523438,-4.990189552307129,2.485405921936035
1757491456723481900,12.51348193359375,-0.6515969634056091,-3.6024506092071533,4.037746429443359
1757491456733525500,12.523525390625,-0.8252514004707336,-2.684798002243042,4.448052883148193
1757491456743562800,12.533562744140625,1.1612626314163208,-4.513594150543213,3.029188871383667
1757491456753608000,12.54360791015625,2.604966163635254,-5.12733268737793,1.8584243059158325
1757491456763648500,12.5536484375,2.40392804145813,-5.053411483764648,1.4481927156448364
1757491456773688800,12.563688720703125,1.1926865577697754,-5.036577224731445,1.2856862545013428
1757491456783725800,12.573725830078125,0.475174218416214,-5.692962646484375,1.687986969947815
1757491456793770500,12.5837705078125,1.1528829336166382,-6.594978332519531,2.091634511947632
1757491456803811000,12.59381103515625,1.157970666885376,-7.27762508392334,2.2755391597747803
1757491456813851400,12.603851318359375,0.3949684500694275,-5.78334379196167,3.3750014305114746
1757491456823891700,12.6138916015625,-0.15083470940589905,-5.529184341430664,3.810072660446167
1757491456833932300,12.623932373046875,0.452953040599823,-6.375534534454346,3.5987095832824707
1757491456843973000,12.63397314453125,0.6151602268218994,-8.520589828491211,2.6814310550689697
1757491456854009900,12.644009765625,0.5080196857452393,-10.352153778076172,1.941697597503662
1757491456864054800,12.6540546875,0.367584764957428,-10.516456604003906,1.725321650505066
1757491456874095400,12.664095458984375,0.37057754397392273,-10.253019332885742,1.5671546459197998
1757491456884111000,12.674111083984375,-0.038157589733600616,-9.5223388671875,1.6980875730514526
1757491456894175700,12.68417578125,-0.4596118927001953,-9.078064918518066,3.041908025741577
1757491456904216800,12.694216796875,-0.9168295860290527,-9.025691032409668,3.968015193939209
1757491456914257400,12.70425732421875,-0.38801032304763794,-8.232612609863281,4.998270034790039
1757491456924294700,12.714294677734374,0.884208619594574,-7.237297534942627,5.224596977233887
1757491456934338800,12.7243388671875,0.176871657371521,-7.2848076820373535,5.371990203857422
1757491456944380400,12.73438037109375,-3.146430015563965,-11.071087837219238,6.059948921203613
1757491456954418200,12.744418212890626,-7.46145486831665,-13.862053871154785,9.190068244934082
1757491456964456400,12.75445654296875,-8.084695816040039,-14.147337913513184,10.596736907958984
1757491456974497800,12.764497802734375,-2.4961798191070557,-10.729914665222168,9.421932220458984
1757491456984539600,12.77453955078125,4.059967517852783,-5.846865177154541,5.842076778411865
1757491456994578700,12.78457861328125,7.24253511428833,-4.988543510437012,2.445302963256836
1757491457004623400,12.794623291015625,4.774188041687012,-10.887258529663086,1.736918568611145
1757491457014664200,12.804664306640625,-0.9519944787025452,-14.951939582824707,1.5022867918014526
1757491457024704300,12.814704345703126,-1.502586007118225,-15.806445121765137,1.2758851051330566
1757491457034744800,12.824744873046875,3.093907117843628,-16.75484848022461,0.9880571365356445
1757491457044786000,12.834785888671876,5.280935764312744,-18.60451889038086,1.3592331409454346
1757491457054826200,12.844826171875,3.0287399291992188,-19.840225219726562,2.9890859127044678
1757491457064863500,12.854863525390625,0.49806877970695496,-18.297611236572266,4.260556697845459
1757491457074907400,12.864907470703125,-1.2817208766937256,-18.092981338500977,5.179481506347656
1757491457084948000,12.874947998046874,-3.6896145343780518,-17.67205238342285,6.007351398468018
1757491457094988500,12.884988525390625,-5.4816741943359375,-17.34958267211914,6.021417140960693
