time,seconds_elapsed,z,y,x
1758274213162055200,0.04405517578125,-0.1510757952928543,-1.2361501455307007,0.5612220764160156
1758274213172013300,0.054013427734375,-0.09760325402021408,-1.5578166246414185,0.6750093102455139
1758274213181971200,0.06397119140625,0.04423297569155693,-1.7387480735778809,0.7871502637863159
1758274213191929300,0.073929443359375,0.240851491689682,-1.753461241722107,0.931133508682251
1758274213201888300,0.08388818359375,0.48250752687454224,-1.7704122066497803,1.1416609287261963
1758274213211846400,0.093846435546875,0.7884789109230042,-1.8509832620620728,1.4086053371429443
1758274213221804300,0.10380419921875,1.0845062732696533,-1.781617522239685,1.6517492532730103
1758274213231762200,0.11376220703125,1.317803978919983,-1.4559451341629028,1.8293570280075073
1758274213241720300,0.12372021484375,1.3559753894805908,-1.100900411605835,1.885801076889038
1758274213251679200,0.13367919921875,1.2419757843017578,-0.8490892648696899,1.8373191356658936
1758274213261637000,0.14363720703125,1.1839414834976196,-0.8091319799423218,1.7659986019134521
1758274213271595300,0.15359521484375,1.287527084350586,-0.9863530993461609,1.715734839439392
1758274213281553200,0.16355322265625,1.534854769706726,-1.3614468574523926,1.708268165588379
1758274213291512300,0.17351220703125,1.863295316696167,-1.7739049196243286,1.6820392608642578
1758274213301470200,0.18347021484375,2.2424888610839844,-2.0298209190368652,1.6133458614349365
1758274213311428400,0.193428466796875,2.6639323234558105,-2.051699638366699,1.550400733947754
1758274213321386200,0.20338623046875,3.0185751914978027,-1.9957689046859741,1.4789992570877075
1758274213331344400,0.213344482421875,3.1285977363586426,-2.107638359069824,1.3635733127593994
1758274213341303300,0.22330322265625,2.9679574966430664,-2.1696910858154297,1.2070188522338867
1758274213351261400,0.233261474609375,2.5246198177337646,-1.7548189163208008,1.1088765859603882
1758274213361219000,0.243218994140625,1.882432460784912,-1.073778510093689,0.9842803478240967
1758274213371177200,0.25317724609375,1.3128108978271484,-0.45606526732444763,0.6170168519020081
1758274213381136100,0.26313623046875,1.2574876546859741,0.008832107298076153,0.055692821741104126
1758274213391094300,0.27309423828125,1.5238304138183594,0.12371262162923813,-0.44967955350875854
1758274213401052200,0.28305224609375,1.9665420055389404,0.022117020562291145,-0.7485232353210449
1758274213411010300,0.29301025390625,2.5479695796966553,-0.2922590374946594,-0.9141169786453247
1758274213420968200,0.30296826171875,3.1233270168304443,-0.8700587153434753,-0.9798842668533325
1758274213430927400,0.31292724609375,3.4989657402038574,-1.7124814987182617,-0.8243077397346497
1758274213440885200,0.32288525390625,3.6018590927124023,-2.6011874675750732,-0.48895344138145447
1758274213450843400,0.332843505859375,3.640519142150879,-3.474046230316162,-0.14200428128242493
1758274213460801300,0.34280126953125,3.619507074356079,-4.096842288970947,0.07170401513576508
1758274213470760400,0.352760498046875,3.631274461746216,-4.2991180419921875,0.1959601789712906
1758274213480718300,0.36271826171875,3.7653470039367676,-4.274857997894287,0.23380370438098907
1758274213490676200,0.37267626953125,3.940164089202881,-4.046543598175049,0.19798658788204193
1758274213500634000,0.382634033203125,4.027891635894775,-3.704575300216675,0.13999465107917786
1758274213510593300,0.39259326171875,3.9830543994903564,-3.3815910816192627,0.17734389007091522
1758274213520551200,0.40255126953125,3.926657199859619,-3.0723719596862793,0.42501041293144226
1758274213530509300,0.41250927734375,3.8846607208251953,-2.7266228199005127,0.8553303480148315
1758274213540467200,0.42246728515625,3.851971387863159,-2.5051002502441406,1.3629179000854492
1758274213550425300,0.43242529296875,4.0428924560546875,-2.4440906047821045,1.7466658353805542
1758274213560384300,0.44238427734375,4.268266201019287,-2.443080425262451,1.9531478881835938
1758274213570342400,0.45234228515625,4.41140604019165,-2.3735718727111816,2.0308752059936523
1758274213580300300,0.46230029296875,4.557190895080566,-2.215881109237671,1.9582968950271606
1758274213590258400,0.472258544921875,4.607757091522217,-2.0394535064697266,1.7216150760650635
1758274213600217300,0.48221728515625,4.50531530380249,-2.030320167541504,1.4540550708770752
1758274213610175500,0.492175537109375,4.387351036071777,-2.1148264408111572,1.2323237657546997
1758274213620133400,0.50213330078125,4.322132587432861,-2.0947446823120117,1.1243234872817993
1758274213630091300,0.51209130859375,4.324219226837158,-1.983451247215271,1.156991720199585
1758274213640050700,0.52205078125,4.280843734741211,-1.931122064590454,1.2901591062545776
1758274213650008600,0.532008544921875,4.042470932006836,-1.991959571838379,1.4169244766235352
1758274213659966700,0.541966796875,3.6947944164276123,-2.07232403755188,1.4752076864242554
1758274213669924600,0.551924560546875,3.348660945892334,-2.033891201019287,1.5033453702926636
1758274213679883800,0.5618837890625,3.032874584197998,-1.735457420349121,1.5262128114700317
1758274213689841400,0.57184130859375,2.7664573192596436,-1.3368767499923706,1.5727044343948364
1758274213699799600,0.581799560546875,2.5427815914154053,-0.9025977253913879,1.6563087701797485
1758274213709757400,0.59175732421875,2.3736274242401123,-0.6146682500839233,1.7114229202270508
1758274213719715600,0.601715576171875,2.2296066284179688,-0.4593217670917511,1.6605621576309204
1758274213729674500,0.611674560546875,2.0334784984588623,-0.5133605003356934,1.4554190635681152
1758274213739632600,0.621632568359375,1.7213780879974365,-0.6660951972007751,1.2485586404800415
1758274213749590500,0.631590576171875,1.3696835041046143,-0.7636643648147583,1.0812170505523682
1758274213759548700,0.641548583984375,1.134572148323059,-0.7251867651939392,0.9618964791297913
1758274213769507600,0.651507568359375,1.0763071775436401,-0.4677560031414032,0.886296272277832
1758274213779465700,0.6614658203125,1.1808147430419922,-0.26541781425476074,0.7457335591316223
1758274213789423600,0.671423583984375,1.3489267826080322,-0.518392026424408,0.3952080309391022
1758274213799381800,0.6813818359375,1.5010225772857666,-0.9743225574493408,-0.13523025810718536
1758274213809340700,0.691340576171875,1.7251560688018799,-1.3890877962112427,-0.4866580665111542
1758274213819298600,0.701298583984375,1.8763970136642456,-1.5248405933380127,-0.5744893550872803
1758274213829256400,0.71125634765625,2.0946531295776367,-1.4071314334869385,-0.4771401882171631
1758274213839214600,0.721214599609375,2.4231743812561035,-1.1628285646438599,-0.4425579905509949
1758274213849173500,0.731173583984375,2.2212774753570557,-0.5422675013542175,-1.075865626335144
1758274213859131600,0.741131591796875,2.4428324699401855,-1.1614055633544922,-1.4677964448928833
1758274213869089500,0.751089599609375,3.0934884548187256,-1.4913411140441895,-0.7275825142860413
1758274213879047700,0.761047607421875,1.8996964693069458,-0.2707209885120392,0.10153301805257797
1758274213889006600,0.771006591796875,1.0951757431030273,0.1710713505744934,0.26158660650253296
1758274213898964700,0.78096484375,0.9171609878540039,0.2168809175491333,-0.19533807039260864
1758274213908922600,0.790922607421875,1.0736943483352661,0.5804005265235901,-0.6281771063804626
1758274213918880800,0.800880859375,1.1353391408920288,1.0356264114379883,-0.8876787424087524
1758274213928839700,0.810839599609375,1.1626369953155518,1.0376240015029907,-1.027007818222046
1758274213938797800,0.8207978515625,1.1752442121505737,0.9413523077964783,-1.0261503458023071
1758274213948755500,0.83075537109375,1.1744234561920166,0.7088149785995483,-1.0457189083099365
1758274213958713600,0.840713623046875,1.2239174842834473,0.656101405620575,-1.0640348196029663
1758274213968671500,0.85067138671875,1.2901625633239746,0.5722211599349976,-1.0511083602905273
1758274213978630700,0.860630615234375,1.4331133365631104,0.40383321046829224,-1.061952829360962
1758274213988588500,0.870588623046875,1.562412977218628,0.2577114403247833,-1.1786969900131226
1758274213998546700,0.880546630859375,1.6236605644226074,0.15350273251533508,-1.249953031539917
1758274214008504600,0.890504638671875,1.616649866104126,-0.11564484238624573,-1.2336302995681763
1758274214018463500,0.90046337890625,1.5069485902786255,-0.4103015065193176,-1.0002950429916382
1758274214028421600,0.910421630859375,1.2342063188552856,-0.8228150606155396,-0.7314260005950928
1758274214038379800,0.9203798828125,1.2688380479812622,-1.2906501293182373,-0.6068167090415955
1758274214048337700,0.930337646484375,1.514608383178711,-1.7236952781677246,-0.6967614889144897
1758274214058296600,0.940296630859375,1.7400553226470947,-1.6354570388793945,-0.9081549644470215
1758274214068254700,0.950254638671875,2.0031371116638184,-1.3136630058288574,-1.133098840713501
1758274214078212600,0.960212646484375,2.348583221435547,-0.8574683666229248,-1.142357587814331
1758274214088170500,0.97017041015625,2.5043935775756836,-0.6811777353286743,-1.2300435304641724
1758274214098129400,0.98012939453125,2.141974687576294,-0.1914924681186676,-1.8273037672042847
1758274214108087600,0.990087646484375,1.3327994346618652,0.6339897513389587,-2.635694742202759
1758274214118045700,1.000045654296875,0.006429936271160841,1.1290920972824097,-2.8256609439849854
1758274214128003600,1.010003662109375,-0.9488669633865356,1.2043248414993286,-2.2985575199127197
1758274214137962500,1.01996240234375,-0.1505168080329895,0.9031615257263184,-1.6068246364593506
1758274214147920600,1.029920654296875,1.560556411743164,0.6146343946456909,-0.875232994556427
1758274214157878500,1.03987841796875,2.754065990447998,0.9234577417373657,-0.40678080916404724
1758274214167836700,1.049836669921875,2.716060161590576,0.961916983127594,-0.5452502965927124
1758274214177795600,1.059795654296875,2.2524654865264893,1.1965060234069824,-0.8268558382987976
1758274214187753700,1.069753662109375,2.184174060821533,1.349083662033081,-0.6875941157341003
1758274214197711600,1.079711669921875,1.6685130596160889,1.822869062423706,-0.5528227090835571
1758274214207669800,1.089669677734375,0.47549861669540405,2.663689374923706,-0.680965781211853
1758274214217627600,1.099627685546875,-1.638166069984436,1.2706987857818604,-1.5372756719589233
1758274214227586600,1.109586669921875,-1.1220967769622803,0.639272928237915,-0.9365184307098389
1758274214237544400,1.11954443359375,-0.4108455777168274,1.4741603136062622,0.33293959498405457
1758274214247502600,1.129502685546875,-0.43869614601135254,1.9578298330307007,0.33126553893089294
1758274214257460500,1.13946044921875,-0.5447168350219727,1.5391854047775269,-0.018220016732811928
1758274214267419600,1.149419677734375,-0.3407120406627655,0.2775123119354248,-0.12437388300895691
1758274214277377500,1.15937744140625,0.12405963242053986,-0.28904324769973755,-0.1909547746181488
1758274214287335700,1.169335693359375,0.052440572530031204,-0.10102701187133789,-0.20626609027385712
1758274214297293600,1.17929345703125,-0.037280526012182236,0.10646918416023254,-0.08782652765512466
1758274214307252700,1.189252685546875,0.1505223959684372,0.06211290508508682,-0.04512433335185051
1758274214317210600,1.199210693359375,0.19618815183639526,0.10579460859298706,0.0036011263728141785
1758274214327168800,1.209168701171875,0.062009043991565704,0.15614140033721924,0.02377244085073471
1758274214337126700,1.219126708984375,0.05537537485361099,0.3058163821697235,0.04527001082897186
1758274214347085800,1.2290859375,0.010647584684193134,0.2684336006641388,0.06921236217021942
1758274214357043500,1.23904345703125,-0.011065701022744179,0.18327660858631134,0.06372492015361786
1758274214367001600,1.249001708984375,0.0021614215802401304,0.14835111796855927,0.03967177867889404
1758274214376959500,1.25895947265625,-0.006878678686916828,0.16719405353069305,-0.0018317222129553556
1758274214386918700,1.268918701171875,-0.002368082758039236,0.2261231541633606,-0.05895093455910683
1758274214396876500,1.27887646484375,0.1752447932958603,0.07017002999782562,-0.1922866255044937
1758274214406834700,1.288834716796875,0.6182233095169067,-0.02087731845676899,-0.4403933584690094
1758274214416792600,1.29879248046875,0.5103817582130432,0.1360079050064087,-0.4397246539592743
1758274214426751500,1.30875146484375,0.23700907826423645,0.3116260766983032,-0.27834588289260864
1758274214436709600,1.318709716796875,0.02617754228413105,0.3653164505958557,-0.1435217410326004
1758274214446667800,1.328667724609375,-0.08687044680118561,0.27446937561035156,-0.0844096913933754
1758274214456625700,1.338625732421875,-0.09523703902959824,0.13127893209457397,-0.030374949797987938
1758274214466584600,1.34858447265625,-0.0006061354652047157,0.039149001240730286,0.0024836640805006027
1758274214476542700,1.358542724609375,-0.02327709272503853,0.04701171815395355,-0.011725098825991154
1758274214486500600,1.36850048828125,-0.06325620412826538,0.08308450132608414,-0.00021438446128740907
1758274214496458500,1.37845849609375,-0.0297312643378973,0.10956564545631409,-0.02767370641231537
1758274214506416600,1.388416748046875,-0.03344104811549187,0.13393943011760712,-0.05558576434850693
1758274214516375600,1.39837548828125,-0.06327004730701447,0.0689748078584671,-0.04344840720295906
1758274214526333700,1.408333740234375,-0.12233629822731018,-0.0007009439868852496,-0.02466566488146782
1758274214536291600,1.41829150390625,-0.08993548154830933,-0.08835915476083755,-0.01703783869743347
1758274214546249700,1.428249755859375,0.0030336068011820316,0.01624874398112297,-0.04078924283385277
1758274214556208600,1.438208740234375,-0.003477289341390133,0.02996482327580452,-0.05369305610656738
1758274214566166500,1.44816650390625,0.0028759476263076067,0.04790547490119934,-0.052446428686380386
1758274214576124700,1.458124755859375,0.01738138683140278,0.08334841579198837,-0.062182147055864334
1758274214586082800,1.468082763671875,0.03194168582558632,0.04424469172954559,-0.06567488610744476
1758274214596041700,1.478041748046875,0.027631094679236412,-0.057981278747320175,-0.036437369883060455
1758274214605999600,1.48799951171875,-0.009857957251369953,-0.06491880863904953,-0.02785160392522812
1758274214615957500,1.49795751953125,-0.05102856457233429,0.030596258118748665,-0.0652647539973259
1758274214625915600,1.50791552734375,-0.09447990357875824,0.030545393005013466,-0.05912989750504494
1758274214635873800,1.517873779296875,-0.14346635341644287,0.08191217482089996,-0.0724177435040474
1758274214645832000,1.52783203125,-0.16973337531089783,0.12154027819633484,-0.07372375577688217
1758274214655789800,1.537789794921875,-0.19739429652690887,0.23422634601593018,-0.12708471715450287
1758274214665748000,1.547748046875,-0.199699267745018,0.28097307682037354,-0.16724438965320587
1758274214675707000,1.557706787109375,-0.19330580532550812,0.28023725748062134,-0.18183717131614685
1758274214685664800,1.567664794921875,-0.18714618682861328,0.3501521646976471,-0.24989159405231476
1758274214695623000,1.577622802734375,-0.17338749766349792,0.3806173801422119,-0.3188307285308838
1758274214705581000,1.5875810546875,-0.15610012412071228,0.35780075192451477,-0.3514983654022217
1758274214715540000,1.5975400390625,-0.14349697530269623,0.3937382400035858,-0.39917534589767456
1758274214725497900,1.607497802734375,-0.1436208188533783,0.43032369017601013,-0.4488704800605774
1758274214735455700,1.617455810546875,-0.1357293426990509,0.4138331115245819,-0.45273685455322266
1758274214745414000,1.627413818359375,-0.1331934779882431,0.41004183888435364,-0.4502928555011749
1758274214755372800,1.637372802734375,-0.11355798691511154,0.38428375124931335,-0.4481000304222107
1758274214765330700,1.64733056640625,-0.11616256088018417,0.3566396236419678,-0.43650034070014954
1758274214775288800,1.657288818359375,-0.12023186683654785,0.32341480255126953,-0.4037639796733856
1758274214785247000,1.6672470703125,-0.12256559729576111,0.3331928849220276,-0.3737131357192993
1758274214795206000,1.677205810546875,-0.10826868563890457,0.33798548579216003,-0.3450833559036255
1758274214805163800,1.687163818359375,-0.0819111093878746,0.3329143226146698,-0.31718912720680237
1758274214815122000,1.697121826171875,-0.07498662918806076,0.340565025806427,-0.29320046305656433
1758274214825079800,1.707079833984375,-0.054670702666044235,0.38803642988204956,-0.261813759803772
1758274214835039000,1.7170390625,-0.05636820197105408,0.3829457759857178,-0.20344392955303192
1758274214844996900,1.726996826171875,-0.07235915213823318,0.4825919568538666,-0.22189165651798248
1758274214854955000,1.736955078125,-0.06241357699036598,0.5401553511619568,-0.22453856468200684
1758274214864912600,1.74691259765625,-0.04122200608253479,0.5658876299858093,-0.2130132019519806
1758274214874872000,1.7568720703125,0.008261924609541893,0.513533353805542,-0.17435503005981445
1758274214884829700,1.76682958984375,0.04996543005108833,0.4859320819377899,-0.17012539505958557
1758274214894787800,1.776787841796875,0.0646013617515564,0.4166957437992096,-0.1706223338842392
1758274214904745700,1.786745849609375,0.07244330644607544,0.34760910272598267,-0.1625196635723114
1758274214914704000,1.796703857421875,0.08611144870519638,0.3051127791404724,-0.14243091642856598
1758274214924662800,1.806662841796875,0.12371501326560974,0.28168973326683044,-0.12087742239236832
1758274214934621000,1.816620849609375,0.17556703090667725,0.23800696432590485,-0.09278080612421036
1758274214944578800,1.826578857421875,0.223929762840271,0.2555675804615021,-0.10191890597343445
1758274214954537000,1.836536865234375,0.2535683512687683,0.25183090567588806,-0.0871540755033493
1758274214964496000,1.846495849609375,0.258670449256897,0.23251819610595703,-0.054004911333322525
1758274214974454000,1.8564541015625,0.2799576222896576,0.23304976522922516,-0.011508051306009293
1758274214984412000,1.866411865234375,0.3036954402923584,0.22903931140899658,0.029586920514702797
1758274214994370000,1.8763701171875,0.32294076681137085,0.23665568232536316,0.07991587370634079
1758274215004329000,1.886328857421875,0.3274574875831604,0.25908029079437256,0.11417131125926971
1758274215014286800,1.896286865234375,0.32431602478027344,0.2601969540119171,0.15714487433433533
1758274215024244700,1.90624462890625,0.34198397397994995,0.24910515546798706,0.22568079829216003
1758274215034203000,1.916202880859375,0.36371535062789917,0.22991734743118286,0.29568785429000854
1758274215044161800,1.926161865234375,0.3664994239807129,0.20046651363372803,0.34718966484069824
1758274215054120000,1.936119873046875,0.34942322969436646,0.19824917614459991,0.3638905882835388
1758274215064077800,1.946077880859375,0.33281365036964417,0.2126440852880478,0.37537282705307007
1758274215074036000,1.956035888671875,0.3287786841392517,0.23326121270656586,0.3876848816871643
1758274215083995000,1.965994873046875,0.32463639974594116,0.24712376296520233,0.38951340317726135
1758274215093952800,1.975952880859375,0.31119969487190247,0.26414936780929565,0.3574904799461365
1758274215103911000,1.985910888671875,0.3078875243663788,0.2740504741668701,0.2735109031200409
1758274215113869000,1.995869140625,0.28673988580703735,0.2660979926586151,0.15828470885753632
1758274215123828000,2.005827880859375,0.24173380434513092,0.2094927728176117,0.0864773690700531
1758274215133785900,2.015785888671875,0.19565579295158386,0.0774814784526825,0.09717714786529541
1758274215143743700,2.02574365234375,0.17105376720428467,-0.08069298416376114,0.18969856202602386
1758274215153702000,2.035701904296875,0.10970119386911392,-0.23789219558238983,0.3325193524360657
1758274215163660800,2.045660888671875,0.07319165766239166,-0.35887372493743896,0.3808618485927582
1758274215173618700,2.05561865234375,0.06978360563516617,-0.5375574827194214,0.33604511618614197
1758274215183576800,2.065576904296875,0.093180812895298,-0.7115119695663452,0.18426331877708435
1758274215193535000,2.075534912109375,0.11939910054206848,-0.8158473968505859,-0.032654084265232086
1758274215203494000,2.085493896484375,0.06901075690984726,-0.9375607967376709,-0.2512625753879547
1758274215213451800,2.09545166015625,-0.052089300006628036,-1.024807333946228,-0.3835122287273407
1758274215223410000,2.105409912109375,-0.1534862220287323,-1.0498154163360596,-0.44449329376220703
1758274215233367800,2.115367919921875,-0.21646146476268768,-1.046790599822998,-0.5348378419876099
1758274215243327000,2.125326904296875,-0.2903958857059479,-1.0942867994308472,-0.6904785633087158
1758274215253284900,2.135284912109375,-0.3867061734199524,-1.225460171699524,-0.8950692415237427
1758274215263243000,2.145242919921875,-0.5107181072235107,-1.3902395963668823,-1.086316466331482
1758274215273200600,2.15520068359375,-0.6079354882240295,-1.5816417932510376,-1.2046889066696167
1758274215283160000,2.16516015625,-0.6625800728797913,-1.7594048976898193,-1.279754877090454
1758274215293117700,2.17511767578125,-0.6911022663116455,-1.8388426303863525,-1.358425498008728
1758274215303075800,2.185075927734375,-0.74036705493927,-1.772609829902649,-1.4696382284164429
1758274215313033700,2.19503369140625,-0.7876932621002197,-1.638770341873169,-1.6027617454528809
1758274215322993000,2.204992919921875,-0.8427909016609192,-1.5211187601089478,-1.6960514783859253
1758274215332950800,2.21495068359375,-0.8535209894180298,-1.4531387090682983,-1.6992692947387695
1758274215342909000,2.224908935546875,-0.8262017965316772,-1.385623574256897,-1.70362389087677
1758274215352866800,2.23486669921875,-0.8516141772270203,-1.3121529817581177,-1.7390111684799194
1758274215362826000,2.244825927734375,-0.8950018882751465,-1.353270173072815,-1.6626032590866089
1758274215372783900,2.254783935546875,-0.982757031917572,-1.47432279586792,-1.4801836013793945
1758274215382742000,2.264741943359375,-1.0587642192840576,-1.5756416320800781,-1.4060784578323364
1758274215392700000,2.274699951171875,-1.0858298540115356,-1.6750636100769043,-1.318911075592041
1758274215402658800,2.284658935546875,-1.0945184230804443,-1.7025593519210815,-1.2910856008529663
1758274215412617000,2.294616943359375,-1.097006916999817,-1.6066203117370605,-1.4109385013580322
1758274215422574800,2.304574951171875,-1.1200262308120728,-1.4180048704147339,-1.5439814329147339
1758274215432532700,2.31453271484375,-1.1846797466278076,-1.4015833139419556,-1.5556455850601196
1758274215442491600,2.32449169921875,-1.2033189535140991,-1.4340571165084839,-1.3942431211471558
1758274215452449800,2.33444970703125,-1.1908881664276123,-1.3648788928985596,-1.2987802028656006
1758274215462408000,2.344407958984375,-1.1935869455337524,-1.266474723815918,-1.2135859727859497
1758274215472365800,2.35436572265625,-1.1479414701461792,-1.097913146018982,-1.2130240201950073
1758274215482324700,2.36432470703125,-1.1047897338867188,-1.2361629009246826,-1.0191975831985474
1758274215492283000,2.374282958984375,-1.1154311895370483,-1.5554850101470947,-0.784672737121582
1758274215502241000,2.384240966796875,-1.1589549779891968,-1.8802969455718994,-0.6712007522583008
1758274215512199000,2.394198974609375,-1.3132559061050415,-2.1994540691375732,-0.5422723293304443
1758274215522157800,2.40415771484375,-1.478721261024475,-2.5264694690704346,-0.3625291883945465
1758274215532116000,2.414115966796875,-1.5629948377609253,-2.8101706504821777,-0.17809277772903442
1758274215542073900,2.424073974609375,-1.6046419143676758,-2.987682580947876,0.02232847549021244
1758274215552031700,2.43403173828125,-1.5957903861999512,-3.162126302719116,0.15324121713638306
1758274215561991000,2.443990966796875,-1.5458779335021973,-3.1659417152404785,0.18176713585853577
1758274215571948800,2.45394873046875,-1.5004361867904663,-3.118535041809082,0.16960740089416504
1758274215581906700,2.46390673828125,-1.4412199258804321,-3.1305534839630127,0.18091093003749847
1758274215591864800,2.47386474609375,-1.3045613765716553,-3.135416030883789,0.17866136133670807
1758274215601823700,2.48382373046875,-1.1884212493896484,-2.973184823989868,0.10463160276412964
1758274215611782000,2.493781982421875,-1.1010546684265137,-2.687342882156372,0.002359827049076557
1758274215621739800,2.50373974609375,-1.0558440685272217,-2.3478739261627197,-0.03669676184654236
1758274215631698000,2.513697998046875,-0.9893379807472229,-2.06052303314209,-0.047998152673244476
1758274215641656800,2.52365673828125,-0.9028691053390503,-1.8570395708084106,-0.027750670909881592
1758274215651615000,2.533614990234375,-0.8313560485839844,-1.580495834350586,-0.021917017176747322
1758274215661572900,2.54357275390625,-0.7680684328079224,-1.26100754737854,-0.005313272587954998
1758274215671531000,2.553531005859375,-0.6892087459564209,-0.9397850632667542,0.030832746997475624
1758274215681490000,2.563489990234375,-0.5999212265014648,-0.6692116260528564,0.07878642529249191
1758274215691448000,2.573447998046875,-0.5524203181266785,-0.4476480782032013,0.1469564288854599
1758274215701406000,2.583406005859375,-0.5223694443702698,-0.2863776981830597,0.23133255541324615
1758274215711364000,2.593364013671875,-0.5198285579681396,-0.15926502645015717,0.3347921073436737
1758274215721323000,2.603322998046875,-0.5235977172851562,-0.0972120389342308,0.43617892265319824
1758274215731281200,2.61328125,-0.5088893175125122,-0.013684120960533619,0.5110843181610107
1758274215741239000,2.623239013671875,-0.540133535861969,0.17657290399074554,0.6320211291313171
1758274215751197200,2.633197265625,-0.580852746963501,0.3812195360660553,0.7766438126564026
1758274215761156000,2.643156005859375,-0.6088548302650452,0.5476548671722412,0.9334680438041687
1758274215771114000,2.653114013671875,-0.6343468427658081,0.6689988374710083,1.1332051753997803
1758274215781072000,2.66307177734375,-0.5844245553016663,0.8663612008094788,1.2765713930130005
1758274215791030000,2.673030029296875,-0.4792661964893341,1.0369659662246704,1.3473623991012573
1758274215800989000,2.682989013671875,-0.27266135811805725,1.1942501068115234,1.28102707862854
1758274215810946800,2.69294677734375,-0.03762487322092056,1.4294607639312744,1.0798673629760742
1758274215820905000,2.702905029296875,0.13843616843223572,1.9154906272888184,0.8922668099403381
1758274215830863000,2.712863037109375,0.29003047943115234,2.2873358726501465,0.9333450198173523
1758274215840822000,2.722822021484375,0.44580942392349243,2.065093994140625,1.0229934453964233
1758274215850780000,2.73277978515625,0.6326472163200378,1.7852628231048584,1.102687954902649
1758274215860738000,2.742738037109375,0.605205774307251,1.6626428365707397,1.0192642211914062
1758274215870696200,2.7526962890625,0.7564189434051514,1.2936105728149414,0.6984920501708984
1758274215880655000,2.762655029296875,0.8132809400558472,1.584158182144165,0.6150251030921936
1758274215890613000,2.772613037109375,0.7636886239051819,1.8466649055480957,0.49977466464042664
1758274215900571100,2.782571044921875,0.9034838080406189,2.30493426322937,0.3769882917404175
1758274215910529000,2.792529052734375,1.0893771648406982,2.7432827949523926,0.23386788368225098
1758274215920488000,2.802488037109375,1.2665005922317505,3.085231065750122,0.11695963889360428
1758274215930445800,2.81244580078125,1.4221136569976807,3.386169195175171,0.06187641620635986
1758274215940404000,2.822404052734375,1.5014779567718506,3.665386915206909,0.14022767543792725
1758274215950361900,2.83236181640625,1.4449928998947144,3.414883613586426,0.2250182032585144
1758274215960321000,2.842321044921875,1.3158729076385498,2.7688651084899902,0.28613775968551636
1758274215970279000,2.85227880859375,1.163415789604187,2.2979066371917725,0.3815883696079254
1758274215980237000,2.862237060546875,1.0351403951644897,2.0866897106170654,0.40374746918678284
1758274215990195000,2.87219482421875,0.9080756306648254,1.9726393222808838,0.35060861706733704
1758274216000154000,2.882154052734375,0.8025140166282654,1.7972701787948608,0.33476918935775757
1758274216010112000,2.892112060546875,0.7518582940101624,1.710748314857483,0.3420116603374481
1758274216020070100,2.902070068359375,0.7539190649986267,1.7472304105758667,0.291960209608078
1758274216030028000,2.912028076171875,0.7619133591651917,1.871759057044983,0.23811189830303192
1758274216039987200,2.9219873046875,0.743279755115509,1.8885554075241089,0.21521244943141937
1758274216049944800,2.93194482421875,0.781473696231842,1.8082722425460815,0.2363044172525406
1758274216059903000,2.941903076171875,0.8235623240470886,1.7452493906021118,0.3076030910015106
1758274216069860900,2.95186083984375,0.8044309616088867,1.9023902416229248,0.33161336183547974
1758274216079820000,2.961820068359375,0.7458842992782593,2.2289814949035645,0.2912030816078186
1758274216089778000,2.97177783203125,0.6623846292495728,2.4776194095611572,0.2804814577102661
1758274216099736000,2.981736083984375,0.5661595463752747,2.5608458518981934,0.3173734247684479
1758274216109694000,2.99169384765625,0.499561607837677,2.522562026977539,0.34392914175987244
1758274216119652900,3.00165283203125,0.4824678599834442,2.3832666873931885,0.30707207322120667
1758274216129611000,3.011611083984375,0.5152572393417358,1.8625408411026,0.31370121240615845
1758274216139569200,3.021569091796875,0.5505707263946533,1.0153969526290894,0.4360247254371643
1758274216149527000,3.031527099609375,0.5428577065467834,0.3025883734226227,0.5542552471160889
1758274216159486000,3.04148583984375,0.4429854154586792,0.01212670374661684,0.6155468225479126
1758274216169444000,3.051444091796875,0.37400928139686584,0.00839508231729269,0.5732589960098267
1758274216179402000,3.061402099609375,0.44052332639694214,0.08326692879199982,0.4453103542327881
1758274216189359900,3.07135986328125,0.5113216042518616,-0.09758168458938599,0.4822255074977875
1758274216199318800,3.08131884765625,0.4220753312110901,-0.13903431594371796,0.4617457985877991
1758274216209277000,3.09127685546875,0.3011800944805145,0.11967074126005173,0.29666176438331604
1758274216219234800,3.10123486328125,0.27793946862220764,0.4612605571746826,0.1677439957857132
1758274216229193000,3.11119287109375,0.2659991979598999,0.5785970687866211,0.11486320197582245
1758274216239151900,3.12115185546875,0.1295292228460312,0.6180983781814575,0.08041201531887054
1758274216249110000,3.131110107421875,0.0813923254609108,0.6389157772064209,0.09038102626800537
1758274216259068000,3.14106787109375,0.13370826840400696,0.6778069734573364,0.07328140735626221
1758274216269026000,3.151026123046875,0.2570240795612335,0.5610726475715637,0.030469492077827454
1758274216278985000,3.16098486328125,0.28267696499824524,0.3987812101840973,-0.02165069989860058
1758274216288943000,3.170943115234375,0.271638423204422,0.31639260053634644,-0.01209607720375061
1758274216298901000,3.18090087890625,0.2658596336841583,0.30879566073417664,0.036193691194057465
1758274216308859100,3.190859130859375,0.24637462198734283,0.35499030351638794,0.07928550243377686
1758274216318818000,3.200818115234375,0.23652838170528412,0.34268492460250854,0.08437240123748779
1758274216328776000,3.21077587890625,0.22225171327590942,0.2884001135826111,0.08698762953281403
1758274216338733800,3.22073388671875,0.27455592155456543,0.2661411464214325,0.09599816799163818
1758274216348692000,3.23069189453125,0.3382454216480255,0.32113513350486755,0.14737720787525177
1758274216358651000,3.24065087890625,0.4135124683380127,0.3169305622577667,0.1837565153837204
1758274216368609000,3.250609130859375,0.43265849351882935,0.25359046459198,0.24147866666316986
1758274216378567000,3.26056689453125,0.45856863260269165,0.21973688900470734,0.30540066957473755
1758274216388525000,3.270525146484375,0.5171584486961365,0.1892157346010208,0.3576015532016754
1758274216398484000,3.28048388671875,0.5815904140472412,0.1842457354068756,0.39935457706451416
1758274216408442000,3.290442138671875,0.6230441331863403,0.2447546273469925,0.42323461174964905
1758274216418400000,3.30039990234375,0.6416918635368347,0.29718586802482605,0.4372689425945282
1758274216428358100,3.310358154296875,0.659675121307373,0.3055085241794586,0.45755478739738464
1758274216438317000,3.320317138671875,0.6761065721511841,0.2761756479740143,0.5251375436782837
1758274216448275200,3.330275146484375,0.6710553169250488,0.24299666285514832,0.5662562251091003
1758274216458232800,3.34023291015625,0.6478528380393982,0.17196057736873627,0.4873286485671997
1758274216468191000,3.35019091796875,0.5826969742774963,0.01341487467288971,0.27081018686294556
1758274216478150000,3.36014990234375,0.4422919452190399,-0.27062511444091797,0.06536702066659927
1758274216488108000,3.37010791015625,0.2476540058851242,-0.5982732772827148,-0.02329413779079914
1758274216498066000,3.38006591796875,0.07382255792617798,-0.9511053562164307,-0.07730144262313843
1758274216508024000,3.390024169921875,-0.05704544112086296,-1.3355706930160522,-0.18503856658935547
1758274216517983000,3.39998291015625,-0.22378063201904297,-1.6216384172439575,-0.33174437284469604
1758274216527940900,3.40994091796875,-0.387821227312088,-1.737688422203064,-0.5095024108886719
1758274216537899000,3.41989892578125,-0.5184172987937927,-1.680377721786499,-0.7736866474151611
1758274216547857200,3.429857177734375,-0.614465057849884,-1.5274752378463745,-1.140242576599121
1758274216557816000,3.439816162109375,-0.6941635608673096,-1.409996509552002,-1.5097877979278564
1758274216567774000,3.44977392578125,-0.7402951121330261,-1.346475601196289,-1.8508633375167847
1758274216577732000,3.459732177734375,-0.7815884947776794,-1.2433819770812988,-2.1354212760925293
1758274216587691000,3.46969091796875,-0.847660481929779,-1.173282504081726,-2.2263879776000977
1758274216597649200,3.479649169921875,-0.802693784236908,-1.307472825050354,-2.1311001777648926
1758274216607606800,3.489606689453125,-0.8869431614875793,-1.3406521081924438,-2.128786563873291
1758274216617565000,3.49956494140625,-1.0761607885360718,-1.2471226453781128,-2.1477699279785156
1758274216627523000,3.509523193359375,-1.190851092338562,-1.2180858850479126,-2.0384669303894043
1758274216637482800,3.519482666015625,-1.18970787525177,-1.273559331893921,-1.867504358291626
1758274216647440600,3.529440673828125,-1.1575751304626465,-1.3244922161102295,-1.7507152557373047
1758274216657398800,3.539398681640625,-1.1536648273468018,-1.2945876121520996,-1.6046853065490723
1758274216667357700,3.549357666015625,-1.240290880203247,-1.2464302778244019,-1.4880527257919312
1758274216677315600,3.559315673828125,-1.2669658660888672,-1.1897661685943604,-1.358830213546753
1758274216687273500,3.5692734375,-1.1766763925552368,-1.197716236114502,-1.2707020044326782
1758274216697231600,3.579231689453125,-1.1270055770874023,-1.445711374282837,-1.2230479717254639
1758274216707190500,3.5891904296875,-1.0708924531936646,-1.688902497291565,-1.1251826286315918
1758274216717148400,3.5991484375,-1.0057646036148071,-1.8007259368896484,-1.00898277759552
1758274216727106600,3.6091064453125,-0.9714255332946777,-1.7617223262786865,-0.9187815189361572
1758274216737064700,3.619064697265625,-0.9885334372520447,-1.7044366598129272,-0.8421868681907654
1758274216747023600,3.629023681640625,-1.043957233428955,-1.787145972251892,-0.7958790063858032
1758274216756981500,3.6389814453125,-1.1741256713867188,-1.8083747625350952,-0.8714406490325928
1758274216766939600,3.648939697265625,-1.219456434249878,-2.428457021713257,-0.6207125186920166
1758274216776897800,3.658897705078125,-1.1739813089370728,-2.9932198524475098,-0.4046843647956848
1758274216786856700,3.668856689453125,-1.236796498298645,-3.149951696395874,-0.37417173385620117
1758274216796814600,3.678814697265625,-1.355234146118164,-3.3968076705932617,-0.25239044427871704
1758274216806772700,3.688772705078125,-1.4517165422439575,-3.2587454319000244,-0.25627198815345764
1758274216816730600,3.698730712890625,-1.4812930822372437,-2.909482479095459,-0.33788537979125977
1758274216826689800,3.708689697265625,-1.3573248386383057,-2.7369213104248047,-0.3951294720172882
1758274216836647400,3.7186474609375,-1.2977722883224487,-2.8044722080230713,-0.3355785310268402
1758274216846605600,3.72860546875,-1.2707949876785278,-2.8172390460968018,-0.2510066628456116
1758274216856563500,3.7385634765625,-1.2134530544281006,-2.6114768981933594,-0.17110809683799744
1758274216866522600,3.748522705078125,-1.1429882049560547,-2.2378077507019043,-0.13070128858089447
1758274216876480500,3.75848046875,-1.0784920454025269,-1.8431090116500854,-0.08951230347156525
1758274216886438700,3.768438720703125,-1.0516670942306519,-1.497572660446167,-0.046718768775463104
1758274216896396500,3.778396484375,-1.0005261898040771,-1.2289811372756958,0.007782822009176016
1758274216906355700,3.788355712890625,-0.869341254234314,-1.0093876123428345,0.04282283037900925
1758274216916313600,3.798313720703125,-0.7418889999389648,-0.8007169365882874,0.06489084661006927
1758274216926271700,3.808271728515625,-0.6431422233581543,-0.6146003007888794,0.09272967278957367
1758274216936229600,3.818229736328125,-0.5811352729797363,-0.4299186170101166,0.14104367792606354
1758274216946188800,3.828188720703125,-0.5172785520553589,-0.23716381192207336,0.2023341953754425
1758274216956146700,3.838146728515625,-0.4450078308582306,-0.06762644648551941,0.29077377915382385
1758274216966104600,3.8481044921875,-0.38321051001548767,0.10588941723108292,0.4305165112018585
1758274216976062500,3.8580625,-0.31686529517173767,0.33924490213394165,0.5822836756706238
1758274216986021600,3.868021728515625,-0.2536676824092865,0.6084460020065308,0.7017514705657959
1758274216995979500,3.8779794921875,-0.17652656137943268,0.8209753036499023,0.794625461101532
1758274217005937700,3.887937744140625,-0.09970156103372574,1.033848762512207,0.8062882423400879
1758274217015895600,3.8978955078125,0.009431584738194942,1.202290415763855,0.6707554459571838
1758274217025854500,3.9078544921875,0.15663674473762512,1.3450995683670044,0.38076892495155334
1758274217035812600,3.9178125,0.39551565051078796,1.638318419456482,0.05614263191819191
1758274217045770800,3.927770751953125,0.6591049432754517,2.078484058380127,0.05842842161655426
1758274217055728600,3.937728759765625,0.9286099076271057,2.233598470687866,0.3804836869239807
1758274217065687600,3.9476875,1.0690674781799316,1.5838854312896729,0.40431100130081177
1758274217075645700,3.957645751953125,0.944352924823761,0.9083384871482849,0.3742772042751312
1758274217085603800,3.967603759765625,0.8998605608940125,0.6909022927284241,0.0926380604505539
1758274217095561500,3.9775615234375,0.9796182513237,1.6190370321273804,0.08252017945051193
1758274217105520600,3.987520751953125,0.7839674949645996,2.982412576675415,0.6005574464797974
1758274217115478500,3.997478515625,0.6317436099052429,3.843841075897217,1.0354253053665161
1758274217125436700,4.007436767578125,0.7354236841201782,3.7471728324890137,1.0154592990875244
1758274217135394600,4.01739453125,0.866506040096283,3.000248908996582,0.6826009154319763
1758274217145353500,4.027353515625,0.8838059306144714,2.7613959312438965,0.35986095666885376
1758274217155311600,4.0373115234375,0.8988709449768066,3.125377655029297,0.3393876552581787
1758274217165269500,4.04726953125,0.9008880257606506,2.9425244331359863,0.42930155992507935
1758274217175227600,4.0572275390625,0.8472849726676941,2.4489879608154297,0.4844966530799866
1758274217185186600,4.0671865234375,0.8193598389625549,2.2330923080444336,0.5392328500747681
1758274217195144700,4.077144775390625,0.8795949816703796,2.1108622550964355,0.5773024559020996
1758274217205102600,4.0871025390625,0.991644024848938,2.007640838623047,0.540654182434082
1758274217215060700,4.097060791015625,1.0415836572647095,2.059997797012329,0.416925847530365
1758274217225019600,4.10701953125,0.9554593563079834,2.282785177230835,0.2993459701538086
1758274217234977800,4.116977783203125,0.9002102017402649,2.3290491104125977,0.24047891795635223
1758274217244935400,4.126935302734375,0.8794346451759338,2.3817179203033447,0.1795700192451477
1758274217254893600,4.1368935546875,0.8778436779975891,2.392988681793213,0.14983370900154114
1758274217264852500,4.1468525390625,0.8983814120292664,2.3237576484680176,0.14068707823753357
1758274217274810600,4.156810546875,0.8674911856651306,2.4960334300994873,0.08615139871835709
1758274217284768500,4.1667685546875,0.8031007051467896,2.7854268550872803,0.05257559195160866
1758274217294726700,4.1767265625,0.7672899961471558,2.987558603286743,-0.018144914880394936
1758274217304685600,4.186685546875,0.7905324697494507,2.843977689743042,0.05921831727027893
1758274217314643700,4.196643798828125,0.8175808787345886,2.4924488067626953,0.18393175303936005
1758274217324601600,4.2066015625,0.8789025545120239,1.9767438173294067,0.35477566719055176
1758274217334559700,4.216559814453125,0.9668832421302795,1.4297404289245605,0.5043020248413086
1758274217344518700,4.2265185546875,1.0211869478225708,1.0845513343811035,0.5208844542503357
1758274217354476800,4.236476806640625,0.9337223768234253,0.7659165859222412,0.6227709054946899
1758274217364434700,4.2464345703125,0.8236664533615112,0.4549941420555115,0.7629253268241882
1758274217374392600,4.256392578125,0.7752184867858887,0.29740583896636963,0.8449397683143616
1758274217384351700,4.266351806640625,0.7361525893211365,0.4040367007255554,0.76631098985672
1758274217394309600,4.2763095703125,0.6670296788215637,0.5049342513084412,0.6856228113174438
1758274217404267500,4.286267578125,0.5860722661018372,0.5472063422203064,0.672598123550415
1758274217414225700,4.2962255859375,0.5151296257972717,0.6512025594711304,0.5495715141296387
1758274217424183600,4.30618359375,0.4228724241256714,0.8291557431221008,0.3649934232234955
1758274217434142500,4.316142578125,0.32886549830436707,0.8152082562446594,0.28259333968162537
1758274217444100600,4.3261005859375,0.28546690940856934,0.7255942225456238,0.23761388659477234
1758274217454058800,4.336058837890625,0.2940675914287567,0.5344128012657166,0.16799193620681763
1758274217464016600,4.3460166015625,0.3228590190410614,0.36739903688430786,0.06971436738967896
1758274217473975600,4.3559755859375,0.3588401675224304,0.3188647925853729,0.029752302914857864
1758274217483933700,4.36593359375,0.4620792269706726,0.25050970911979675,-0.014563762582838535
1758274217493891800,4.375891845703125,0.4607953131198883,0.2513992190361023,-0.054419830441474915
1758274217503850800,4.385850830078125,0.444900244474411,0.2408493608236313,-0.039085883647203445
1758274217513808600,4.39580859375,0.41309595108032227,0.2347419410943985,-0.007861118763685226
1758274217523766500,4.4057666015625,0.3785339891910553,0.17606663703918457,0.018439460545778275
1758274217533724700,4.415724609375,0.3568209707736969,0.16109301149845123,0.03765762969851494
1758274217543683600,4.42568359375,0.34549668431282043,0.27859994769096375,0.12544047832489014
1758274217553641500,4.435641357421875,0.3911057114601135,0.2754630148410797,0.25602033734321594
1758274217563599600,4.445599609375,0.46580925583839417,0.137928307056427,0.3808338940143585
1758274217573557500,4.4555576171875,0.5262025594711304,0.002746518002822995,0.47247380018234253
1758274217583515600,4.465515625,0.6142394542694092,0.009075254201889038,0.5157975554466248
1758274217593474600,4.475474609375,0.6390358805656433,0.1465636044740677,0.4871582090854645
1758274217603432700,4.4854326171875,0.6264489889144897,0.2374413162469864,0.4745846092700958
1758274217613390600,4.495390625,0.5966471433639526,0.21645747125148773,0.5363705158233643
1758274217623348700,4.5053486328125,0.5885556936264038,0.14029613137245178,0.620305061340332
1758274217633307600,4.5153076171875,0.5615996718406677,0.04114876687526703,0.6651622653007507
1758274217643265300,4.525265380859375,0.4794861674308777,-0.054918643087148666,0.6318011283874512
1758274217653223200,4.53522314453125,0.36149054765701294,-0.04965197667479515,0.4988396167755127
1758274217663181000,4.54518115234375,0.2802830636501312,0.07274211198091507,0.3253653049468994
1758274217673140000,4.555139892578125,0.22088071703910828,0.12172270566225052,0.1273116171360016
1758274217683098000,4.56509814453125,0.13675199449062347,0.003165699541568756,-0.023035278543829918
1758274217693056000,4.575055908203125,0.03967124596238136,-0.2563132643699646,-0.09823069721460342
1758274217703014100,4.58501416015625,-0.06039782986044884,-0.6326485872268677,-0.11279179900884628
1758274217712973000,4.59497314453125,-0.16488775610923767,-1.0419650077819824,-0.1575760394334793
1758274217722931200,4.60493115234375,-0.2684796452522278,-1.2976313829421997,-0.33125996589660645
1758274217732889000,4.61488916015625,-0.3636234998703003,-1.3497337102890015,-0.670961856842041
1758274217742847200,4.62484716796875,-0.4590218961238861,-1.4257442951202393,-1.0661016702651978
1758274217752806100,4.63480615234375,-0.5675635933876038,-1.612401008605957,-1.3616766929626465
1758274217762764300,4.644764404296875,-0.6462234854698181,-1.7939660549163818,-1.5583481788635254
1758274217772722200,4.65472216796875,-0.6773361563682556,-1.8975927829742432,-1.684417724609375
1758274217782680300,4.664680419921875,-0.6797577738761902,-1.8877111673355103,-1.7514468431472778
1758274217792639200,4.67463916015625,-0.6959819793701172,-1.8452653884887695,-1.7893518209457397
1758274217802597000,4.68459716796875,-0.787903368473053,-1.877112865447998,-1.8503227233886719
1758274217812555000,4.694554931640625,-0.9422010779380798,-1.6303097009658813,-1.9743828773498535
1758274217822513200,4.70451318359375,-0.9971300959587097,-1.2931593656539917,-2.0504698753356934
1758274217832472000,4.71447216796875,-1.0978028774261475,-1.0356117486953735,-2.064648151397705
1758274217842430200,4.72443017578125,-1.1624882221221924,-0.9745949506759644,-2.067042589187622
1758274217852388000,4.73438818359375,-1.1913411617279053,-0.9717413783073425,-1.9630634784698486
1758274217862346200,4.74434619140625,-1.2625495195388794,-1.002634882926941,-1.8043848276138306
1758274217872305200,4.75430517578125,-1.3066471815109253,-0.896912693977356,-1.6409993171691895
1758274217882263300,4.76426318359375,-1.2196944952011108,-0.7760581970214844,-1.4234728813171387
1758274217892221200,4.77422119140625,-1.0892986059188843,-0.7979539036750793,-1.2833123207092285
1758274217902179300,4.784179443359375,-1.020337700843811,-0.9913651943206787,-1.179561972618103
1758274217912138200,4.79413818359375,-0.9636589884757996,-1.0600701570510864,-1.0849121809005737
1758274217922096000,4.80409619140625,-0.9771881103515625,-1.048345685005188,-1.0089260339736938
1758274217932054000,4.814053955078125,-1.0437830686569214,-0.9963327646255493,-0.9085877537727356
1758274217942012200,4.82401220703125,-1.1116183996200562,-0.9109193086624146,-0.8702331781387329
1758274217951971000,4.83397119140625,-1.1640114784240723,-1.0055252313613892,-0.8269962072372437
1758274217961929000,4.843928955078125,-1.2504994869232178,-1.1863394975662231,-0.817857027053833
1758274217971887000,4.85388720703125,-1.2720487117767334,-1.6121692657470703,-0.7373749613761902
1758274217981845200,4.86384521484375,-1.180330514907837,-2.3729045391082764,-0.43214982748031616
1758274217991804200,4.87380419921875,-1.2384666204452515,-2.998875856399536,-0.25755029916763306
1758274218001762000,4.883761962890625,-1.3275452852249146,-3.2761597633361816,-0.2902320921421051
1758274218011720200,4.89372021484375,-1.3032528162002563,-3.2074594497680664,-0.3650490641593933
1758274218021678300,4.90367822265625,-1.2365556955337524,-3.1443777084350586,-0.34318798780441284
1758274218031637200,4.91363720703125,-1.1661494970321655,-3.1119468212127686,-0.31242793798446655
1758274218041595100,4.92359521484375,-1.1195389032363892,-2.986652374267578,-0.33933892846107483
1758274218051553300,4.93355322265625,-1.120311975479126,-2.872403144836426,-0.2910323739051819
1758274218061511000,4.943510986328125,-1.0853286981582642,-2.920403003692627,-0.1944435089826584
1758274218071469000,4.953468994140625,-1.039691686630249,-2.891650438308716,-0.09287481009960175
1758274218081428000,4.963427978515625,-1.0519132614135742,-2.6120059490203857,-0.0022421153262257576
1758274218091386000,4.97338623046875,-0.9815943241119385,-2.241771936416626,0.05500359833240509
1758274218101344000,4.983343994140625,-0.8847417831420898,-1.853149175643921,0.08378171920776367
1758274218111302100,4.99330224609375,-0.7638111114501953,-1.543898105621338,0.10682445019483566
1758274218121261000,5.003260986328125,-0.6368129253387451,-1.2402628660202026,0.11557213217020035
1758274218131219200,5.01321923828125,-0.5049960613250732,-0.9023934602737427,0.10833286494016647
1758274218141177000,5.023177001953125,-0.345380574464798,-0.6638019680976868,0.08759190142154694
1758274218151135200,5.03313525390625,-0.19343870878219604,-0.5631624460220337,0.09061245620250702
1758274218161094100,5.04309423828125,-0.07032103091478348,-0.6168954372406006,0.16491279006004333
1758274218171052300,5.05305224609375,-0.005453355144709349,-0.6091576218605042,0.2666623294353485
1758274218181010200,5.06301025390625,0.01859179325401783,-0.5167059898376465,0.37724024057388306
1758274218190968300,5.07296826171875,-0.017317205667495728,-0.31438830494880676,0.44961535930633545
1758274218200927200,5.08292724609375,-0.08383284509181976,-0.01938648149371147,0.4493442475795746
1758274218210885000,5.092885009765625,-0.11412443965673447,0.24223873019218445,0.31340107321739197
1758274218220843000,5.102843017578125,-0.17634174227714539,0.47548237442970276,0.11537905782461166
1758274218230801200,5.11280126953125,-0.19924865663051605,0.5962692499160767,-0.016085226088762283
1758274218240760000,5.122760009765625,-0.19057101011276245,0.9001756310462952,0.08177795261144638
1758274218250718200,5.13271826171875,-0.05600893869996071,1.4613784551620483,0.6042606234550476
1758274218260676000,5.142676025390625,0.17053020000457764,2.2005650997161865,1.2295734882354736
1758274218270634200,5.15263427734375,0.423198401927948,2.7019577026367188,1.392502784729004
1758274218280593200,5.16259326171875,0.7352430820465088,2.6111233234405518,1.1737350225448608
1758274218290551300,5.17255126953125,0.9623143672943115,2.3171987533569336,0.839677631855011
1758274218300509200,5.18250927734375,0.8230634927749634,2.911590576171875,0.16740736365318298
1758274218310467300,5.19246728515625,0.7326153516769409,4.250743865966797,0.08990325778722763
1758274218320426200,5.20242626953125,0.75950688123703,5.1541032791137695,0.6321356296539307
1758274218330384100,5.212384033203125,0.77190101146698,4.524394989013672,0.7847632765769958
1758274218340342000,5.222342041015625,0.6559666395187378,3.0342319011688232,0.6887315511703491
1758274218350300200,5.232300048828125,0.48665672540664673,1.9992581605911255,0.7254424095153809
1758274218360259000,5.242259033203125,0.4241773784160614,1.5918630361557007,0.8494058847427368
1758274218370217000,5.252217041015625,0.4619721472263336,1.4094651937484741,0.9031676650047302
1758274218380175000,5.262175048828125,0.5602273344993591,1.268344521522522,0.8342583775520325
1758274218390133200,5.27213330078125,0.7062311768531799,1.4217793941497803,0.6970051527023315
1758274218400091100,5.282091064453125,0.8802258372306824,1.7781915664672852,0.5086110234260559
1758274218410050000,5.292050048828125,1.0820841789245605,2.051051139831543,0.33410659432411194
1758274218420008200,5.30200830078125,1.2755303382873535,2.225205898284912,0.2223891317844391
1758274218429966300,5.31196630859375,1.4278939962387085,2.3641538619995117,0.15840961039066315
1758274218439924200,5.32192431640625,1.5059784650802612,2.4746971130371094,0.15562741458415985
1758274218449883100,5.331883056640625,1.4891184568405151,2.5024075508117676,0.11917272955179214
1758274218459841300,5.34184130859375,1.3445048332214355,2.3668370246887207,0.14416782557964325
1758274218469799200,5.351799072265625,1.124263048171997,2.3448116779327393,0.13491681218147278
1758274218479757000,5.361757080078125,0.8780266046524048,2.5013222694396973,0.030338197946548462
1758274218489716000,5.371716064453125,0.7059161067008972,2.63623046875,-0.11488956958055496
1758274218499674000,5.381674072265625,0.6311257481575012,2.926546573638916,-0.2026793360710144
1758274218509632000,5.391632080078125,0.5644024014472961,3.3534364700317383,-0.206295907497406
1758274218519590100,5.401590087890625,0.5156779885292053,3.4618022441864014,-0.11147912591695786
1758274218529549000,5.411549072265625,0.5854166150093079,2.9586944580078125,0.11845634132623672
1758274218539507200,5.421507080078125,0.7302688360214233,2.056025743484497,0.4789913594722748
1758274218549465000,5.431465087890625,0.8302679061889648,1.2550231218338013,0.5622223019599915
1758274218559423200,5.44142333984375,0.869336724281311,0.7992420792579651,0.41153427958488464
1758274218569382100,5.451382080078125,0.8764234185218811,0.8105671405792236,0.27798953652381897
1758274218579340300,5.46134033203125,0.8509228229522705,0.835780918598175,0.2747338116168976
1758274218589298200,5.471298095703125,0.8124305605888367,0.6633151173591614,0.2925114929676056
1758274218599256300,5.48125634765625,0.7838737368583679,0.5414443612098694,0.33143094182014465
1758274218609215200,5.49121533203125,0.7149397134780884,0.46258842945098877,0.4034377336502075
1758274218619173000,5.501173095703125,0.6654595136642456,0.48896169662475586,0.43411868810653687
1758274218629131000,5.511131103515625,0.6761696934700012,0.3738439083099365,0.49648138880729675
1758274218639089000,5.5210888671875,0.6657548546791077,0.4586429297924042,0.5060970187187195
1758274218649047800,5.5310478515625,0.5586358308792114,0.6726841330528259,0.3815106153488159
1758274218659006000,5.541005859375,0.49165281653404236,0.5998983383178711,0.29550835490226746
1758274218668962800,5.550962890625,0.4693238139152527,0.5586017370223999,0.34456270933151245
1758274218678921700,5.560921630859375,0.46365341544151306,0.7165544033050537,0.3723807632923126
1758274218688879600,5.570879638671875,0.4868583381175995,0.8393349051475525,0.3531671166419983
1758274218698837800,5.580837646484375,0.529751718044281,0.8368583917617798,0.32196205854415894
1758274218708796000,5.5907958984375,0.5890054702758789,0.7510468363761902,0.29479488730430603
1758274218718754800,5.6007548828125,0.5656538009643555,0.7430184483528137,0.21122196316719055
1758274218728712700,5.610712646484375,0.49578818678855896,0.7555286884307861,0.11211242526769638
1758274218738670800,5.6206708984375,0.44486960768699646,0.7142685651779175,0.038484539836645126
1758274218748628700,5.630628662109375,0.44364455342292786,0.6300407648086548,0.016689764335751534
1758274218758588000,5.640587890625,0.44619986414909363,0.6075029969215393,-0.01581518165767193
1758274218768545800,5.6505458984375,0.43903782963752747,0.5675569176673889,-0.04723089560866356
1758274218778504000,5.66050390625,0.4217381775379181,0.48069578409194946,-0.017668476328253746
1758274218788461600,5.670461669921875,0.37425294518470764,0.37341541051864624,0.12183962017297745
1758274218798420700,5.680420654296875,0.30583396553993225,0.26308009028434753,0.33409807085990906
1758274218808378600,5.690378662109375,0.24372264742851257,0.250080406665802,0.5282489061355591
1758274218818336800,5.700336669921875,0.21251332759857178,0.33055633306503296,0.659744918346405
1758274218828294700,5.710294677734375,0.17771540582180023,0.3382906913757324,0.6973394155502319
1758274218838253800,5.72025390625,0.14234621822834015,0.25293079018592834,0.6706412434577942
1758274218848211700,5.730211669921875,0.10441535711288452,0.12105931341648102,0.5594683289527893
1758274218858169900,5.740169921875,0.07139375805854797,0.03922490030527115,0.38543397188186646
1758274218868127700,5.750127685546875,0.0857175663113594,-0.04373576119542122,0.14765603840351105
1758274218878087000,5.7600869140625,0.09556327760219574,-0.21334317326545715,-0.12013759464025497
1758274218888044800,5.770044921875,-0.004493285436183214,-0.5293543934822083,-0.24224752187728882
1758274218898003000,5.7800029296875,-0.11073317378759384,-0.992548942565918,-0.22087351977825165
1758274218907960800,5.7899609375,-0.1728665828704834,-1.327726125717163,-0.2233835607767105
1758274218917920000,5.799919921875,-0.22997301816940308,-1.4296629428863525,-0.49174630641937256
1758274218927877600,5.809877685546875,-0.2615530490875244,-1.5142760276794434,-0.8863162398338318
1758274218937835800,5.819835693359375,-0.28689223527908325,-1.660973072052002,-1.2676007747650146
1758274218947793700,5.829793701171875,-0.3568579852581024,-1.8383548259735107,-1.585141658782959
1758274218957752800,5.8397529296875,-0.4629748463630676,-1.9384560585021973,-1.8199992179870605
1758274218967710700,5.849710693359375,-0.5375872850418091,-1.938183069229126,-1.95010507106781
1758274218977668900,5.8596689453125,-0.5811169147491455,-1.9667702913284302,-2.058629274368286
1758274218987626800,5.869626708984375,-0.6504544615745544,-1.8736944198608398,-2.1088204383850098
1758274218997585700,5.879585693359375,-0.7152608633041382,-1.7438621520996094,-2.081434488296509
1758274219007543800,5.889543701171875,-0.846998393535614,-1.5266826152801514,-2.0955469608306885
1758274219017502000,5.899501953125,-0.9983956217765808,-1.2769920825958252,-2.121931314468384
1758274219027459800,5.9094599609375,-1.0480351448059082,-1.2163996696472168,-2.0687296390533447
1758274219037418800,5.919418701171875,-1.152057409286499,-1.2445158958435059,-1.9779869318008423
1758274219047377000,5.929376953125,-1.1633243560791016,-1.1408920288085938,-1.90192449092865
1758274219057334800,5.939334716796875,-1.1227538585662842,-1.0147171020507812,-1.8148033618927002
1758274219067292700,5.949292724609375,-1.1314269304275513,-0.7618629932403564,-1.7778714895248413
1758274219077251600,5.95925146484375,-1.19614839553833,-0.6724833250045776,-1.7083771228790283
1758274219087209700,5.969209716796875,-1.1930292844772339,-0.9806459546089172,-1.5294688940048218
1758274219097167600,5.979167724609375,-1.1430796384811401,-1.2886801958084106,-1.4516440629959106
1758274219107125800,5.989125732421875,-1.025132417678833,-1.6236110925674438,-1.310847520828247
1758274219117084700,5.999084716796875,-0.8616998791694641,-1.8860453367233276,-1.1483185291290283
1758274219127042800,6.009042724609375,-0.7790627479553223,-1.9509385824203491,-1.0901820659637451
1758274219137000700,6.019000732421875,-0.7790830135345459,-2.0608179569244385,-1.0494513511657715
1758274219146958800,6.028958740234375,-0.8569578528404236,-2.041421413421631,-1.0427974462509155
1758274219156917800,6.038917724609375,-1.02525794506073,-2.120962142944336,-0.9669634103775024
1758274219166876000,6.0488759765625,-1.1965880393981934,-2.3397953510284424,-0.8153661489486694
1758274219176833800,6.058833740234375,-1.2537909746170044,-2.3832850456237793,-0.7060636281967163
1758274219186792000,6.0687919921875,-1.4500200748443604,-2.9335427284240723,-0.34766849875450134
1758274219196750800,6.078750732421875,-1.7195314168930054,-3.3913421630859375,-0.133726105093956
1758274219206708700,6.088708740234375,-1.8362349271774292,-3.305889844894409,-0.17790554463863373
1758274219216666600,6.09866650390625,-1.7506563663482666,-3.277703285217285,-0.1789148896932602
1758274219226624800,6.108624755859375,-1.5521703958511353,-3.221798896789551,-0.13412317633628845
1758274219236583700,6.118583740234375,-1.3666008710861206,-3.187363624572754,-0.05284057930111885
1758274219246541800,6.128541748046875,-1.290964126586914,-3.1320784091949463,0.05398546904325485
1758274219256499700,6.138499755859375,-1.2594213485717773,-2.887869358062744,0.09894468635320663
1758274219266457900,6.148457763671875,-1.1935677528381348,-2.571870803833008,0.10293836891651154
1758274219276416800,6.158416748046875,-1.1100242137908936,-2.348738193511963,0.1232050210237503
1758274219286375000,6.168375,-1.041555404663086,-2.082303047180176,0.1462927609682083
1758274219296332800,6.178332763671875,-0.986571192741394,-1.7924946546554565,0.1859980970621109
1758274219306291000,6.188291015625,-0.9312986135482788,-1.5210380554199219,0.22210949659347534
1758274219316249900,6.198249755859375,-0.8840323090553284,-1.2056434154510498,0.2606680691242218
1758274219326208000,6.2082080078125,-0.8378451466560364,-0.9530872702598572,0.3126106262207031
1758274219336165600,6.21816552734375,-0.7637493014335632,-0.7447136044502258,0.35619139671325684
1758274219346123800,6.228123779296875,-0.7034777402877808,-0.489508718252182,0.39215391874313354
1758274219356082700,6.238082763671875,-0.6688907146453857,-0.18433256447315216,0.4493948519229889
1758274219366040800,6.248040771484375,-0.6227911114692688,0.10313144326210022,0.5291849970817566
1758274219375998700,6.257998779296875,-0.5612241625785828,0.24875229597091675,0.6147753000259399
1758274219385956900,6.267956787109375,-0.48670440912246704,0.2740887999534607,0.6704081892967224
1758274219395915800,6.277915771484375,-0.3872545063495636,0.3291318118572235,0.649898111820221
1758274219405873700,6.287873779296875,-0.3171981871128082,0.37277916073799133,0.5333877801895142
1758274219415831800,6.297831787109375,-0.24764175713062286,0.585188090801239,0.32372719049453735
1758274219425790000,6.3077900390625,-0.1208433285355568,1.0422136783599854,0.0861029252409935
1758274219435748900,6.317748779296875,0.1368686407804489,1.443557620048523,0.06049690023064613
1758274219445706800,6.327706787109375,0.4048617482185364,1.7775545120239258,0.4067709445953369
1758274219455665000,6.337664794921875,0.621196985244751,1.7395414113998413,0.7147341370582581
1758274219465622800,6.347622802734375,0.7091239094734192,1.2027263641357422,0.7224404811859131
1758274219475582000,6.35758203125,0.6981029510498047,0.7865790128707886,0.7409263253211975
1758274219485539600,6.36753955078125,0.7413057684898376,0.8649377226829529,0.5011278390884399
1758274219495497700,6.377497802734375,0.8597008585929871,1.6717787981033325,0.5620476007461548
1758274219505455600,6.38745556640625,0.6969583034515381,2.595816135406494,0.8843787908554077
1758274219515414800,6.397414794921875,0.6061570048332214,3.161609172821045,1.0356801748275757
1758274219525372700,6.40737255859375,0.7346699833869934,3.091874837875366,0.9327886700630188
1758274219535330800,6.417330810546875,0.8479254245758057,2.5700392723083496,0.60379958152771
1758274219545288700,6.427288818359375,0.8588238954544067,2.3586504459381104,0.3315443694591522
1758274219555247900,6.437247802734375,0.8955374360084534,2.5753707885742188,0.32900184392929077
1758274219565205800,6.447205810546875,0.9208763837814331,2.5385982990264893,0.38818714022636414
1758274219575164000,6.457163818359375,0.8462175726890564,2.4386913776397705,0.45040684938430786
1758274219585121800,6.467121826171875,0.776089072227478,2.65328049659729,0.5954668521881104
1758274219595080000,6.477079833984375,0.7673413753509521,2.8227765560150146,0.6462389230728149
1758274219605038800,6.487038818359375,0.7836529612541199,2.872974395751953,0.5370698571205139
1758274219614996700,6.496996826171875,0.810758113861084,2.876105546951294,0.45532864332199097
1758274219624954600,6.50695458984375,0.8639878034591675,2.8784847259521484,0.5051161646842957
1758274219634913000,6.5169130859375,0.7724461555480957,3.0125927925109863,0.6116753816604614
1758274219644872000,6.526871826171875,0.7428967952728271,2.9537580013275146,0.5999260544776917
1758274219654830000,6.536830078125,0.8238310217857361,2.615689754486084,0.5963717699050903
1758274219664788000,6.5467880859375,0.9144554734230042,2.1804492473602295,0.6363762021064758
1758274219674746000,6.55674609375,0.9303284287452698,1.8308268785476685,0.6483138203620911
1758274219684705000,6.566705078125,0.883540153503418,1.5788177251815796,0.657128095626831
1758274219694663200,6.5766630859375,0.8245226740837097,1.5307389497756958,0.6203263998031616
1758274219704621000,6.58662109375,0.7680000066757202,1.683534026145935,0.5317096710205078
1758274219714579200,6.5965791015625,0.7556607723236084,1.82379949092865,0.4713052213191986
1758274219724538000,6.6065380859375,0.788794219493866,1.7882574796676636,0.4832071363925934
1758274219734496000,6.61649609375,0.8858739137649536,1.36441171169281,0.6348398327827454
1758274219744454100,6.6264541015625,1.0323193073272705,0.8357968926429749,0.8116396069526672
1758274219754412000,6.636412109375,1.0412927865982056,0.6007582545280457,0.7930353283882141
1758274219764371000,6.646370849609375,0.972227156162262,0.32282304763793945,0.6888798475265503
1758274219774328800,6.656328857421875,0.9059304594993591,0.16828247904777527,0.7196295261383057
1758274219784287000,6.666286865234375,0.8412105441093445,0.3258076608181,0.760398805141449
1758274219794245000,6.6762451171875,0.800372302532196,0.42792391777038574,0.6939292550086975
1758274219804204000,6.6862041015625,0.7464057803153992,0.4853834807872772,0.6129478216171265
1758274219814162000,6.696161865234375,0.6883136630058289,0.6517381072044373,0.5201491713523865
1758274219824120000,6.7061201171875,0.6279155611991882,0.7251806259155273,0.4991410970687866
1758274219834078000,6.716077880859375,0.5808431506156921,0.6788640022277832,0.4163047969341278
1758274219844037000,6.726037109375,0.44790855050086975,0.638836681842804,0.37480130791664124
1758274219853995000,6.7359951171875,0.3561892807483673,0.6476219296455383,0.3910186290740967
1758274219863953200,6.745953125,0.3347140848636627,0.6963574886322021,0.3519841432571411
1758274219873911000,6.7559111328125,0.3588132858276367,0.7374439239501953,0.29574671387672424
1758274219883870200,6.7658701171875,0.4632427394390106,0.6799452304840088,0.2630119323730469
1758274219893827800,6.775827880859375,0.5233782529830933,0.5695473551750183,0.2606579661369324
1758274219903786000,6.785785888671875,0.5071849226951599,0.5466876029968262,0.25441044569015503
1758274219913744000,6.795743896484375,0.4924725294113159,0.5383159518241882,0.24242621660232544
1758274219923703000,6.805703125,0.4943452775478363,0.4450078308582306,0.23327507078647614
1758274219933661000,6.815660888671875,0.4871022701263428,0.3327116370201111,0.21714110672473907
1758274219943619000,6.825619140625,0.46471866965293884,0.27437323331832886,0.2064642310142517
1758274219953577000,6.835576904296875,0.44064316153526306,0.22990882396697998,0.20062178373336792
1758274219963536100,6.8455361328125,0.41607657074928284,0.19771254062652588,0.20337122678756714
1758274219973494000,6.855493896484375,0.3958472013473511,0.1727491319179535,0.22421659529209137
1758274219983452200,6.8654521484375,0.39641764760017395,0.13141261041164398,0.3138250410556793
1758274219993410000,6.87541015625,0.4099166691303253,0.06426846981048584,0.47174277901649475
1758274220003369200,6.885369140625,0.4190220236778259,-0.04809722304344177,0.5699740052223206
1758274220013327000,6.8953271484375,0.41962045431137085,-0.13256390392780304,0.601916491985321
1758274220023285200,6.90528515625,0.3999955952167511,-0.14283758401870728,0.5910904407501221
1758274220033243000,6.915242919921875,0.3859996199607849,-0.14705975353717804,0.6159907579421997
1758274220043201000,6.925200927734375,0.37657204270362854,-0.21033751964569092,0.6772453188896179
1758274220053160000,6.935159912109375,0.3968842327594757,-0.30788353085517883,0.727449357509613
1758274220063118000,6.9451181640625,0.41156625747680664,-0.35185950994491577,0.7061755061149597
1758274220073076000,6.955075927734375,0.37490278482437134,-0.35564786195755005,0.5625541806221008
1758274220083034000,6.9650341796875,0.3093053996562958,-0.39537927508354187,0.39181411266326904
1758274220092993000,6.974992919921875,0.26276877522468567,-0.5225827693939209,0.2789490818977356
1758274220102951200,6.984951171875,0.21103528141975403,-0.6107743978500366,0.2244940847158432
1758274220112909000,6.994908935546875,0.1643575131893158,-0.6816816329956055,0.16935786604881287
1758274220122867200,7.0048671875,0.08899432420730591,-0.7839720249176025,-0.001663410454057157
1758274220132826000,7.014826171875,-0.0019893813878297806,-0.7970257997512817,-0.2563633322715759
1758274220142784000,7.024783935546875,-0.06916043162345886,-0.8314689993858337,-0.5758052468299866
1758274220152742100,7.0347421875,-0.15627749264240265,-0.967292845249176,-0.9426136016845703
1758274220162700000,7.044699951171875,-0.25299176573753357,-1.113974928855896,-1.2677009105682373
1758274220172659000,7.054658935546875,-0.36492469906806946,-1.2400106191635132,-1.4865522384643555
1758274220182616800,7.064616943359375,-0.48468732833862305,-1.3914028406143188,-1.6423029899597168
1758274220192575000,7.074574951171875,-0.6440503597259521,-1.5133191347122192,-1.7862646579742432
1758274220202533000,7.084533203125,-0.7943820357322693,-1.652091145515442,-1.895345687866211
1758274220212492000,7.094491943359375,-0.8881173729896545,-1.8113391399383545,-1.9263978004455566
1758274220222450000,7.104449951171875,-0.9597254991531372,-1.8784723281860352,-1.9057165384292603
1758274220232408000,7.114407958984375,-1.0865377187728882,-1.6920952796936035,-1.931947112083435
1758274220242366000,7.124365966796875,-1.279901146888733,-1.4282106161117554,-1.964163064956665
1758274220252325000,7.1343251953125,-1.3728693723678589,-1.088388442993164,-2.0362188816070557
1758274220262283000,7.144282958984375,-1.3694666624069214,-0.6869022250175476,-2.0772414207458496
1758274220272241200,7.1542412109375,-1.388708233833313,-0.44812825322151184,-1.9888074398040771
1758274220282199000,7.164198974609375,-1.418002724647522,-0.3343457579612732,-1.8164092302322388
1758274220292157000,7.174156982421875,-1.441160798072815,-0.267711877822876,-1.636165976524353
1758274220302115800,7.18411572265625,-1.4373812675476074,-0.19651731848716736,-1.5353879928588867
1758274220312074000,7.194073974609375,-1.3747620582580566,-0.36444002389907837,-1.3719439506530762
1758274220322031900,7.204031982421875,-1.3070379495620728,-0.529667854309082,-1.2531027793884277
1758274220331990000,7.213989990234375,-1.3025920391082764,-0.7960971593856812,-1.0795434713363647
1758274220341949000,7.223948974609375,-1.2692795991897583,-1.2053016424179077,-0.8664232492446899
1758274220351907000,7.233906982421875,-1.2806556224822998,-1.4509503841400146,-0.8340916633605957
1758274220361865000,7.243864990234375,-1.349701166152954,-1.502270221710205,-0.8987973928451538
1758274220371823000,7.253822998046875,-1.374967098236084,-1.6273789405822754,-0.9220401644706726
1758274220381782000,7.263781982421875,-1.4226491451263428,-1.782312035560608,-0.987021267414093
1758274220391740200,7.273740234375,-1.474617600440979,-2.520665407180786,-0.7873028516769409
1758274220401698000,7.283697998046875,-1.5785818099975586,-3.1634323596954346,-0.6464200019836426
1758274220411656200,7.29365625,-1.7243674993515015,-3.57360577583313,-0.6119334101676941
1758274220421615000,7.303614990234375,-1.8454116582870483,-3.778433084487915,-0.4663437306880951
1758274220431573200,7.3135732421875,-1.8819557428359985,-3.570890426635742,-0.4074535369873047
1758274220441531000,7.32353076171875,-1.7897439002990723,-2.9626593589782715,-0.5123908519744873
1758274220451489000,7.333489013671875,-1.6679763793945312,-2.7668137550354004,-0.4587859511375427
1758274220461448000,7.343447998046875,-1.5475248098373413,-2.842839002609253,-0.375716894865036
1758274220471406000,7.353406005859375,-1.458850622177124,-3.072694778442383,-0.2542929947376251
1758274220481364000,7.363364013671875,-1.3246904611587524,-2.8998334407806396,-0.1837565153837204
1758274220491322000,7.373322021484375,-1.1260966062545776,-2.482997179031372,-0.10491682589054108
1758274220501280000,7.383280029296875,-1.0065470933914185,-2.2105214595794678,0.06029822677373886
1758274220511239200,7.3932392578125,-0.9110831022262573,-2.03867506980896,0.23376242816448212
1758274220521197000,7.403197021484375,-0.819127082824707,-1.791223168373108,0.3546164035797119
1758274220531155200,7.4131552734375,-0.7340750694274902,-1.4468547105789185,0.44504910707473755
1758274220541113000,7.423113037109375,-0.6474075317382812,-1.0665957927703857,0.5292494893074036
1758274220551072000,7.433072021484375,-0.5254334211349487,-0.7303304076194763,0.5866890549659729
1758274220561030100,7.443030029296875,-0.4036606550216675,-0.4576927125453949,0.6203186511993408
1758274220570988000,7.452988037109375,-0.3072451651096344,-0.23010483384132385,0.6969961524009705
1758274220580946000,7.46294580078125,-0.2116461992263794,-0.025437450036406517,0.7994135618209839
1758274220590904800,7.47290478515625,-0.11012810468673706,0.11495401710271835,0.886753261089325
1758274220600863000,7.482863037109375,-0.033732395619153976,0.1943196803331375,0.9351490139961243
1758274220610821000,7.492821044921875,0.02514556609094143,0.30149513483047485,0.888462483882904
1758274220620779000,7.502779052734375,0.11048736423254013,0.4796536862850189,0.7306174635887146
1758274220630738000,7.512738037109375,0.20834441483020782,0.7215145230293274,0.5029882788658142
1758274220640696800,7.52269677734375,0.30338117480278015,0.957733154296875,0.26330673694610596
1758274220650654700,7.53265478515625,0.4317428767681122,1.1802825927734375,0.16217878460884094
1758274220660612900,7.54261279296875,0.6052893996238708,1.557125210762024,0.41534367203712463
1758274220670570800,7.55257080078125,0.788860559463501,1.5739372968673706,0.6043921709060669
1758274220680530000,7.562530029296875,0.8292868137359619,1.0115396976470947,0.36342906951904297
1758274220690487800,7.57248779296875,0.7205914855003357,1.0152760744094849,0.34439945220947266
1758274220700446000,7.582446044921875,0.6514092087745667,1.5227528810501099,-0.08227170258760452
1758274220710403800,7.59240380859375,0.7122586965560913,2.881903648376465,0.3343691825866699
1758274220720363000,7.602363037109375,0.6798549294471741,3.8763651847839355,1.1312978267669678
1758274220730321000,7.61232080078125,0.8045042157173157,3.418421506881714,1.2571576833724976
1758274220740279000,7.622279052734375,0.8739773035049438,1.8262065649032593,0.8469957709312439
1758274220750236700,7.632236572265625,0.7270293831825256,1.256751298904419,0.4569859206676483
1758274220760196000,7.642196044921875,0.6885722875595093,1.8821467161178589,0.28797000646591187
1758274220770153700,7.65215380859375,0.7675262093544006,2.294649124145508,0.37116849422454834
1758274220780112000,7.66211181640625,0.8358978033065796,2.138327121734619,0.4283846318721771
1758274220790069800,7.67206982421875,0.9015476703643799,2.0601258277893066,0.4281923472881317
1758274220800029000,7.68202880859375,0.9981991052627563,2.34065318107605,0.4411233365535736
1758274220809986800,7.69198681640625,1.0865404605865479,2.569552183151245,0.47784194350242615
1758274220819945000,7.701945068359375,1.1125432252883911,2.674074172973633,0.4329359829425812
1758274220829902800,7.71190283203125,1.0654199123382568,2.616950273513794,0.3227735161781311
1758274220839861000,7.721861083984375,1.0169978141784668,2.4243686199188232,0.236855149269104
1758274220849820000,7.73181982421875,1.0178543329238892,2.1851203441619873,0.17990557849407196
1758274220859778000,7.741778076171875,1.0073853731155396,2.086693525314331,0.18425479531288147
1758274220869736000,7.75173583984375,0.98671954870224,2.130445957183838,0.21538661420345306
1758274220879694000,7.761694091796875,0.9642254114151001,2.219346046447754,0.23191499710083008
1758274220889653000,7.771653076171875,0.8873354196548462,2.5028672218322754,0.21599382162094116
1758274220899611000,7.78161083984375,0.7942054867744446,2.7845168113708496,0.15266092121601105
1758274220909568800,7.79156884765625,0.7403425574302673,2.8712921142578125,0.15571077167987823
1758274220919527000,7.80152685546875,0.7181320190429688,2.7586398124694824,0.2413649559020996
1758274220929485800,7.81148583984375,0.7448334097862244,2.3637807369232178,0.3824879825115204
1758274220939443700,7.821443603515625,0.8135344386100769,1.8113042116165161,0.6068958044052124
1758274220949401900,7.83140185546875,0.882704496383667,1.3180556297302246,0.7744139432907104
1758274220959360000,7.841360107421875,0.9038009643554688,0.7902754545211792,0.8740798234939575
1758274220969318000,7.85131787109375,0.8412212133407593,0.2569710612297058,0.9390335083007812
1758274220979276800,7.86127685546875,0.749407947063446,-0.06130783259868622,1.0045472383499146
1758274220989235000,7.87123486328125,0.6990140080451965,-0.054071225225925446,1.0729737281799316
1758274220999192800,7.88119287109375,0.6708582639694214,0.14675721526145935,1.020486831665039
1758274221009151000,7.89115087890625,0.6403325796127319,0.36399340629577637,0.845123827457428
1758274221019110000,7.90110986328125,0.6220055222511292,0.5698820948600769,0.6661295294761658
1758274221029067800,7.91106787109375,0.5780764222145081,0.64391028881073,0.5727356672286987
1758274221039025700,7.921025634765625,0.4818742275238037,0.7956910133361816,0.46824631094932556
1758274221048983800,7.93098388671875,0.4129401743412018,0.9049389362335205,0.35936322808265686
1758274221058942700,7.940942626953125,0.43075457215309143,0.8728758096694946,0.30339503288269043
1758274221068900900,7.95090087890625,0.48437121510505676,0.7600086331367493,0.3103488087654114
1758274221078858800,7.960858642578125,0.4856119751930237,0.7183301448822021,0.3247109651565552
1758274221088817000,7.97081689453125,0.5188769698143005,0.6934086084365845,0.3096795678138733
1758274221098774800,7.98077490234375,0.6355381011962891,0.6487915515899658,0.2663328945636749
1758274221108734000,7.99073388671875,0.6611419916152954,0.6267951726913452,0.24396686255931854
1758274221118691800,8.00069189453125,0.6449108123779297,0.6039562225341797,0.27059206366539
1758274221128650000,8.01064990234375,0.6205410361289978,0.49331462383270264,0.28234273195266724
1758274221138607900,8.02060791015625,0.5727769732475281,0.30155879259109497,0.3346900939941406
1758274221148567000,8.030567138671875,0.5242424607276917,0.14140532910823822,0.4428005814552307
1758274221158524700,8.040524658203125,0.4806821942329407,0.037699442356824875,0.5533526539802551
1758274221168482800,8.05048291015625,0.44475269317626953,0.003242664970457554,0.6009417772293091
1758274221178440700,8.060440673828126,0.42541760206222534,0.03723285719752312,0.6078957915306091
1758274221188399900,8.07039990234375,0.41153374314308167,0.047876179218292236,0.6096316576004028
1758274221198357800,8.080357666015624,0.3888382911682129,0.007090399973094463,0.6317055225372314
1758274221208316000,8.09031591796875,0.3546789884567261,-0.10544919222593307,0.6901728510856628
1758274221218273800,8.100273681640624,0.3267248570919037,-0.22707869112491608,0.745377242565155
1758274221228232000,8.11023193359375,0.3074353039264679,-0.29108962416648865,0.7683110237121582
1758274221238190800,8.12019091796875,0.27903270721435547,-0.35573866963386536,0.7428155541419983
1758274221248149000,8.13014892578125,0.23764638602733612,-0.4212968945503235,0.6551157832145691
1758274221258107000,8.14010693359375,0.1853163242340088,-0.4166555404663086,0.5311312675476074
1758274221268065000,8.15006494140625,0.18167684972286224,-0.4649919271469116,0.38462305068969727
1758274221278024000,8.16002392578125,0.16031962633132935,-0.638906717300415,0.23022042214870453
1758274221287981800,8.16998193359375,0.10622630268335342,-0.8068938851356506,0.06689567863941193
1758274221297939700,8.179939697265626,0.028431640937924385,-0.9048790335655212,-0.049620550125837326
1758274221307897900,8.18989794921875,-0.0816224217414856,-0.9206390976905823,-0.16521959006786346
1758274221317856800,8.199856689453124,-0.20464928448200226,-0.7726410627365112,-0.36774152517318726
1758274221327815000,8.20981494140625,-0.28528445959091187,-0.5873154401779175,-0.652141809463501
1758274221337772800,8.219772705078125,-0.3375878930091858,-0.49119022488594055,-0.9554897546768188
1758274221347731000,8.22973095703125,-0.40339645743370056,-0.49776825308799744,-1.2040859460830688
1758274221357688800,8.239688720703125,-0.4723808467388153,-0.6375796794891357,-1.3799219131469727
1758274221367648000,8.24964794921875,-0.5336908102035522,-0.8302095532417297,-1.5523576736450195
1758274221377606000,8.25960595703125,-0.5942351222038269,-1.0364465713500977,-1.7027308940887451
1758274221387564000,8.26956396484375,-0.6068776845932007,-1.390777587890625,-1.716478705406189
1758274221397522000,8.27952197265625,-0.639575183391571,-1.8138203620910645,-1.624511957168579
1758274221407480800,8.289480712890626,-0.7750757336616516,-1.852751612663269,-1.7053698301315308
1758274221417439000,8.29943896484375,-0.8689167499542236,-1.714542269706726,-1.862177848815918
1758274221427396900,8.30939697265625,-0.9374310970306396,-1.5311554670333862,-2.0074427127838135
1758274221437354800,8.319354736328124,-1.004817008972168,-1.3859753608703613,-2.0215208530426025
1758274221447313000,8.32931298828125,-1.1419285535812378,-1.1570558547973633,-1.9988142251968384
1758274221457271800,8.339271728515625,-1.236873984336853,-0.9557009339332581,-1.9432615041732788
1758274221467230000,8.34922998046875,-1.296291470527649,-0.9231767654418945,-1.7843985557556152
1758274221477187800,8.359187744140625,-1.3442590236663818,-1.0244001150131226,-1.5800974369049072
1758274221487146000,8.36914599609375,-1.3662059307098389,-0.9568913578987122,-1.4982528686523438
1758274221497105000,8.37910498046875,-1.358739972114563,-0.768986701965332,-1.482995867729187
1758274221507062800,8.389062744140626,-1.323777437210083,-0.6664485931396484,-1.527217149734497
1758274221517021000,8.39902099609375,-1.2952512502670288,-0.7154965996742249,-1.5457743406295776
1758274221526979000,8.40897900390625,-1.3245165348052979,-0.6663703322410583,-1.5724512338638306
1758274221536938000,8.41893798828125,-1.3766788244247437,-0.6314581036567688,-1.5962649583816528
1758274221546896000,8.428895751953124,-1.4481478929519653,-0.6204566359519958,-1.498748779296875
1758274221556853800,8.438853759765625,-1.4378407001495361,-0.683590829372406,-1.326908826828003
1758274221566812000,8.44881201171875,-1.437048316001892,-0.9644057154655457,-1.1580049991607666
1758274221576769800,8.458769775390625,-1.3893694877624512,-1.4489505290985107,-1.0346790552139282
1758274221586728700,8.468728759765625,-1.2812957763671875,-2.2146289348602295,-0.8270742297172546
1758274221596686800,8.478686767578125,-1.3278955221176147,-3.03947114944458,-0.5801299810409546
1758274221606645000,8.48864501953125,-1.4349271059036255,-3.436237335205078,-0.609399139881134
1758274221616603000,8.498602783203125,-1.580941915512085,-3.6073038578033447,-0.6067138910293579
1758274221626561800,8.508561767578126,-1.6618844270706177,-3.5638251304626465,-0.48680001497268677
1758274221636519200,8.518519287109376,-1.6348941326141357,-3.439229726791382,-0.4247049391269684
1758274221646477300,8.528477294921874,-1.531111240386963,-3.2556183338165283,-0.39482080936431885
1758274221656435000,8.53843505859375,-1.3982999324798584,-3.1382460594177246,-0.3647015392780304
1758274221666393000,8.54839306640625,-1.248367190361023,-3.009136199951172,-0.3297978639602661
1758274221676352000,8.55835205078125,-1.1180591583251953,-2.985050678253174,-0.2825499475002289
1758274221686310100,8.56831005859375,-1.0164135694503784,-2.881836414337158,-0.20207320153713226
1758274221696268000,8.57826806640625,-0.911254346370697,-2.654071092605591,-0.11878630518913269
1758274221706226200,8.58822607421875,-0.808294415473938,-2.4142563343048096,-0.05696634575724602
1758274221716185000,8.59818505859375,-0.74350506067276,-2.116584300994873,-0.021761488169431686
1758274221726143200,8.608143310546875,-0.6507982611656189,-1.8754528760910034,0.04427079111337662
1758274221736101000,8.61810107421875,-0.5220109820365906,-1.6382032632827759,0.14065085351467133
1758274221746059300,8.628059326171876,-0.38385844230651855,-1.264897108078003,0.22908218204975128
1758274221756018200,8.63801806640625,-0.27333006262779236,-0.8141059875488281,0.3129003942012787
1758274221765976000,8.64797607421875,-0.1860359162092209,-0.44082745909690857,0.4147673547267914
1758274221775934200,8.657934326171874,-0.13243260979652405,-0.19525152444839478,0.5436100363731384
1758274221785892000,8.66789208984375,-0.11174703389406204,-0.0062304651364684105,0.7274177074432373
1758274221795850000,8.67785009765625,-0.10626012831926346,0.21279801428318024,0.9355669021606445
1758274221805809000,8.687808837890625,-0.09258745610713959,0.4824976623058319,1.0973150730133057
1758274221815767000,8.69776708984375,-0.0851641595363617,0.7870972752571106,1.1510400772094727
1758274221825725200,8.70772509765625,-0.06502746790647507,1.0782170295715332,1.0599490404129028
1758274221835683000,8.71768310546875,0.0070371367037296295,1.3815968036651611,0.8418185710906982
1758274221845642000,8.72764208984375,0.10570858418941498,1.6239455938339233,0.5827997922897339
1758274221855600000,8.73760009765625,0.18467317521572113,1.629879117012024,0.362529456615448
1758274221865558300,8.747558349609376,0.1145380288362503,1.530747413635254,0.29939308762550354
1758274221875516200,8.75751611328125,-0.028557874262332916,0.9876735210418701,0.2023397833108902
1758274221885474300,8.767474365234374,0.1294219046831131,0.5931347012519836,0.5934995412826538
1758274221895433200,8.77743310546875,0.2220762073993683,0.8989460468292236,0.7971384525299072
1758274221905391000,8.78739111328125,0.4470347464084625,1.326156497001648,0.6743273138999939
1758274221915349000,8.797348876953125,0.7386208176612854,0.698233962059021,0.7201935648918152
1758274221925307100,8.80730712890625,0.5638875961303711,1.2204638719558716,0.4179104268550873
1758274221935266000,8.81726611328125,0.5812604427337646,1.8820117712020874,0.4755726456642151
1758274221945224000,8.827223876953125,0.7719305753707886,2.1385722160339355,0.515247106552124
1758274221955182000,8.83718212890625,0.9589521288871765,2.3563408851623535,0.49690166115760803
1758274221965140200,8.84714013671875,1.0489109754562378,2.411268472671509,0.3337787687778473
1758274221975098000,8.85709814453125,1.0418219566345215,2.7075555324554443,0.30275028944015503
1758274221985057000,8.86705712890625,1.0689268112182617,2.7278988361358643,0.3997995853424072
1758274221995015200,8.87701513671875,1.0614638328552246,2.34200119972229,0.4629306197166443
1758274222004973000,8.88697314453125,1.0047770738601685,1.9666922092437744,0.4900834262371063
1758274222014931200,8.89693115234375,0.9656637907028198,1.8311136960983276,0.4929468631744385
1758274222024890000,8.90689013671875,0.93195641040802,1.8594342470169067,0.4931449890136719
1758274222034848300,8.91684814453125,0.8820767402648926,1.976944923400879,0.4770539104938507
1758274222044806000,8.926805908203125,0.8387362360954285,1.993452548980713,0.47712022066116333
1758274222054764000,8.936763916015625,0.8016889691352844,1.9014434814453125,0.4895084500312805
1758274222064723000,8.946722900390625,0.7742038369178772,1.8674628734588623,0.5096752047538757
1758274222074681000,8.95668115234375,0.7599223852157593,1.838271975517273,0.5206676721572876
1758274222084639000,8.966638916015626,0.7460930943489075,1.8196325302124023,0.5203928351402283
1758274222094597000,8.97659716796875,0.7318938970565796,1.9346715211868286,0.5253274440765381
1758274222104555000,8.986554931640624,0.7646963596343994,2.060873508453369,0.5338290333747864
1758274222114514200,8.99651416015625,0.7904528379440308,2.2354257106781006,0.5181552767753601
1758274222124472000,9.00647216796875,0.7589513659477234,2.3728723526000977,0.5274670124053955
1758274222134430200,9.01643017578125,0.6837466359138489,2.43837571144104,0.4920128881931305
1758274222144388000,9.02638818359375,0.6507945656776428,2.3657643795013428,0.4615175724029541
1758274222154347300,9.03634716796875,0.6589099764823914,2.22900128364563,0.4736602306365967
1758274222164305200,9.04630517578125,0.7049925327301025,1.6964466571807861,0.612378716468811
1758274222174263000,9.056262939453125,0.7365522980690002,0.8019902110099792,0.8651478290557861
1758274222184221000,9.066220947265625,0.7556048631668091,-0.04830867797136307,1.085706353187561
1758274222194179000,9.076178955078126,0.7341861128807068,-0.2815142273902893,1.121059536933899
1758274222204138000,9.086137939453126,0.6643974184989929,-0.06880143284797668,0.9903494119644165
1758274222214096100,9.09609619140625,0.6364163756370544,0.2727484405040741,0.8429839611053467
1758274222224054000,9.106053955078124,0.6146826148033142,0.43691420555114746,0.7272632122039795
1758274222234012200,9.11601220703125,0.6006700992584229,0.44339555501937866,0.6919702291488647
1758274222243971000,9.12597119140625,0.5806607007980347,0.44484803080558777,0.6763228178024292
1758274222253929200,9.13592919921875,0.44485121965408325,0.37027233839035034,0.6393067240715027
1758274222263887000,9.14588720703125,0.3238382637500763,0.5847619771957397,0.5164268612861633
1758274222273845200,9.15584521484375,0.2874634563922882,0.6771529316902161,0.48120176792144775
1758274222283803100,9.16580322265625,0.31263086199760437,0.6495234370231628,0.4866205155849457
1758274222293762300,9.17576220703125,0.3045279383659363,0.5082994699478149,0.5108994841575623
1758274222303720200,9.18572021484375,0.26741281151771545,0.4448365867137909,0.49321264028549194
1758274222313678000,9.195677978515626,0.21881143748760223,0.4147157073020935,0.5328463315963745
1758274222323636000,9.205635986328126,0.2464691698551178,0.38639670610427856,0.6092745065689087
1758274222333595100,9.21559521484375,0.35479697585105896,0.21043473482131958,0.7158201336860657
1758274222343553000,9.225552978515625,0.4610999822616577,0.04964398592710495,0.7205275297164917
1758274222353511200,9.23551123046875,0.43387526273727417,0.044746432453393936,0.6198861598968506
1758274222363469000,9.245468994140625,0.4127771854400635,0.09679844975471497,0.5191488862037659
1758274222373427200,9.25542724609375,0.44207966327667236,0.14840012788772583,0.45083507895469666
1758274222383386000,9.26538623046875,0.4433712959289551,0.17241623997688293,0.38506433367729187
1758274222393344300,9.27534423828125,0.4378039836883545,0.22199764847755432,0.3406827449798584
1758274222403302100,9.28530224609375,0.46898984909057617,0.3350115418434143,0.2857566475868225
1758274222413260300,9.29526025390625,0.509578287601471,0.41122695803642273,0.2232048511505127
1758274222423219200,9.30521923828125,0.5386594533920288,0.43613097071647644,0.16291089355945587
1758274222433177300,9.31517724609375,0.5413714051246643,0.42892366647720337,0.12433286756277084
1758274222443135000,9.325135009765624,0.5161699056625366,0.42405086755752563,0.17365248501300812
1758274222453093000,9.335093017578124,0.49116411805152893,0.44102907180786133,0.29697227478027344
1758274222463051000,9.345051025390624,0.48177570104599,0.44378462433815,0.38889050483703613
1758274222473010200,9.35501025390625,0.4689829349517822,0.4464496672153473,0.44961827993392944
1758274222482968000,9.364968017578125,0.474569708108902,0.42593398690223694,0.5153075456619263
1758274222492926200,9.37492626953125,0.47437983751296997,0.4111052453517914,0.566580593585968
1758274222502884000,9.384884033203125,0.45758432149887085,0.44449782371520996,0.5934809446334839
1758274222512843000,9.394843017578125,0.4238886833190918,0.5373135209083557,0.5116057395935059
1758274222522801200,9.40480126953125,0.40098869800567627,0.7184518575668335,0.2778971195220947
1758274222532759300,9.41475927734375,0.27117425203323364,0.5911597013473511,0.12792201340198517
1758274222542717200,9.42471728515625,0.12779870629310608,0.0107107013463974,0.23966878652572632
1758274222552675000,9.434675048828124,0.06811434030532837,-0.4918416440486908,0.48634088039398193
1758274222562634200,9.44463427734375,0.07955767959356308,-0.6432785391807556,0.6449837684631348
1758274222572592000,9.454592041015625,0.048173386603593826,-0.665723979473114,0.5541231036186218
1758274222582550000,9.464550048828125,0.023331688717007637,-0.45249342918395996,0.22014382481575012
1758274222592508200,9.474508056640625,0.0371745340526104,-0.11284612119197845,-0.16798686981201172
1758274222602467000,9.484467041015625,0.023793745785951614,-0.05766036733984947,-0.49997013807296753
1758274222612425200,9.49442529296875,-0.002662894781678915,-0.19597457349300385,-0.7494302988052368
1758274222622383000,9.504383056640625,-0.04507187008857727,-0.3269405663013458,-0.8792780637741089
1758274222632341200,9.51434130859375,-0.1045442521572113,-0.5109743475914001,-0.886151134967804
1758274222642300700,9.52430078125,-0.1548260599374771,-0.9058393239974976,-0.7026162147521973
1758274222652258300,9.53425830078125,-0.2239886224269867,-0.9840137958526611,-0.7664694786071777
1758274222662216400,9.544216552734374,-0.27013614773750305,-0.8883639574050903,-0.9607406854629517
1758274222672174300,9.55417431640625,-0.33919429779052734,-0.8216227293014526,-1.1154404878616333
1758274222682132500,9.564132568359375,-0.4376921057701111,-0.8768990635871887,-1.171120524406433
1758274222692091400,9.57409130859375,-0.5064466595649719,-1.005455732345581,-1.1591970920562744
1758274222702049500,9.584049560546875,-0.550218403339386,-1.0813301801681519,-1.152660846710205
1758274222712007400,9.59400732421875,-0.5703673362731934,-1.143265962600708,-1.140567660331726
1758274222721965600,9.603965576171875,-0.5634351372718811,-1.1628082990646362,-1.123146414756775
1758274222731924500,9.613924560546875,-0.5731050968170166,-1.1078166961669922,-1.1393210887908936
1758274222741882600,9.623882568359376,-0.6099006533622742,-0.9671698212623596,-1.2087547779083252
1758274222751840500,9.633840576171876,-0.6408870220184326,-0.827939510345459,-1.2582639455795288
1758274222761798400,9.64379833984375,-0.6423360705375671,-0.7416922450065613,-1.257782220840454
1758274222771756300,9.65375634765625,-0.6075866222381592,-0.7097694277763367,-1.2324683666229248
1758274222781715500,9.663715576171874,-0.5785169005393982,-0.7201365828514099,-1.2259808778762817
1758274222791673300,9.67367333984375,-0.5489187836647034,-0.7334782481193542,-1.2183504104614258
1758274222801631500,9.683631591796875,-0.542962908744812,-0.7079819440841675,-1.186873435974121
1758274222811589400,9.69358935546875,-0.5403996109962463,-0.6527525186538696,-1.1377623081207275
1758274222821548500,9.703548583984375,-0.5188232064247131,-0.6180147528648376,-1.09760582447052
1758274222831506400,9.71350634765625,-0.4866575300693512,-0.6135814189910889,-1.0521728992462158
1758274222841464600,9.723464599609375,-0.4661045968532562,-0.5851859450340271,-1.0100504159927368
1758274222851422500,9.73342236328125,-0.4797849655151367,-0.5025699138641357,-0.9852018356323242
1758274222861380600,9.743380615234376,-0.45862430334091187,-0.3156367838382721,-0.9559440612792969
1758274222871339500,9.753339599609374,-0.41375401616096497,-0.1102314293384552,-0.9130839705467224
1758274222881297700,9.763297607421874,-0.3680632412433624,0.06461201608181,-0.8475017547607422
1758274222891255300,9.77325537109375,-0.3122577667236328,0.22243227064609528,-0.780653178691864
1758274222901213400,9.78321337890625,-0.27455511689186096,0.14564427733421326,-0.6810749769210815
1758274222911172400,9.79317236328125,-0.2892456650733948,0.02682974934577942,-0.594301700592041
1758274222921130500,9.803130615234375,-0.29366782307624817,-0.027905667200684547,-0.49709391593933105
1758274222931088400,9.81308837890625,-0.25149402022361755,-0.09434247761964798,-0.4170944392681122
1758274222941046500,9.823046630859375,-0.1702502965927124,-0.1795223504304886,-0.3247123062610626
1758274222951004400,9.83300439453125,-0.06323648989200592,-0.2619248330593109,-0.19221417605876923
1758274222960963600,9.842963623046876,0.04887939244508743,-0.3462032079696655,-0.02388828806579113
1758274222970921500,9.85292138671875,0.15689480304718018,-0.4341050982475281,0.1388649344444275
1758274222980879600,9.862879638671876,0.23913562297821045,-0.5337504744529724,0.2785738408565521
1758274222990837500,9.87283740234375,0.29688572883605957,-0.5636492371559143,0.38889822363853455
1758274223000796700,9.882796630859374,0.34912922978401184,-0.5433349013328552,0.4696069061756134
1758274223010754600,9.892754638671875,0.3935563564300537,-0.49117612838745117,0.5544232726097107
1758274223020712400,9.90271240234375,0.4234258234500885,-0.36635029315948486,0.6480762362480164
1758274223030670300,9.91267041015625,0.4521853029727936,-0.23313897848129272,0.7676907777786255
1758274223040628500,9.92262841796875,0.478153258562088,-0.1139870211482048,0.9052947163581848
1758274223050587400,9.93258740234375,0.49074575304985046,-0.005899967160075903,1.0424931049346924
1758274223060545500,9.942545654296875,0.5043691396713257,0.11092918366193771,1.1671627759933472
1758274223070503400,9.95250341796875,0.5296526551246643,0.21375729143619537,1.2450683116912842
1758274223080461600,9.962461669921876,0.5553873181343079,0.37224119901657104,1.2622778415679932
1758274223090419500,9.97241943359375,0.5571005344390869,0.5165195465087891,1.211909532546997
1758274223100378600,9.982378662109374,0.5067129731178284,0.5139541625976562,1.0861904621124268
1758274223110336500,9.99233642578125,0.39641711115837097,0.4797663390636444,0.9407888054847717
1758274223120294700,10.002294677734374,0.3137419521808624,0.17870263755321503,0.48292431235313416
1758274223130252500,10.01225244140625,0.12985067069530487,-0.13606728613376617,-0.08994293957948685
1758274223140211500,10.02221142578125,-0.11199817061424255,-0.5106515288352966,-0.5663174986839294
1758274223150169300,10.03216943359375,-0.26634860038757324,0.2693430483341217,-0.739695131778717
1758274223160127500,10.04212744140625,-0.23857742547988892,2.3918442726135254,-0.39147377014160156
1758274223170085400,10.05208544921875,-0.08728164434432983,3.800879955291748,0.13305819034576416
1758274223180043500,10.06204345703125,0.19435057044029236,3.6541435718536377,0.7301149368286133
1758274223190002400,10.07200244140625,0.4691227376461029,2.123784065246582,1.2732492685317993
1758274223199960600,10.081960693359376,0.4441654682159424,-1.2815845012664795,1.1344664096832275
1758274223209918500,10.09191845703125,0.31950289011001587,-2.8890981674194336,0.875390350818634
1758274223219876600,10.101876708984374,0.4930874705314636,-1.7380529642105103,0.7401033639907837
1758274223229835500,10.11183544921875,0.8137959837913513,-0.17809410393238068,0.6870332360267639
1758274223239793700,10.121793701171875,0.8516885042190552,0.6595249176025391,0.8108513355255127
1758274223249751600,10.13175146484375,0.707496702671051,0.6514555215835571,0.7585604190826416
1758274223259709700,10.141709716796875,0.6404420137405396,0.5997809171676636,0.3836999833583832
1758274223269667300,10.151667236328125,0.5100722908973694,0.5586643218994141,0.21847641468048096
1758274223279626500,10.16162646484375,0.2673022747039795,0.7493855357170105,0.533407986164093
1758274223289584400,10.17158447265625,0.06946216523647308,1.2316536903381348,0.8558254241943359
1758274223299542500,10.18154248046875,0.3062845766544342,1.1669154167175293,0.7777284979820251
1758274223309500400,10.19150048828125,0.3914186358451843,0.5366383790969849,0.4253060221672058
1758274223319459300,10.201459228515626,0.5162316560745239,0.043952278792858124,0.35557007789611816
1758274223329417500,10.21141748046875,0.5299043655395508,0.317365437746048,0.5004956126213074
1758274223339375600,10.221375732421874,0.5305389761924744,0.844758152961731,0.5101897716522217
1758274223349333500,10.23133349609375,0.5150577425956726,0.9070678949356079,0.31265297532081604
1758274223359291600,10.241291748046875,0.41041576862335205,0.6378523707389832,0.17816627025604248
1758274223369250600,10.25125048828125,0.38798341155052185,0.46556395292282104,0.1540801078081131
1758274223379208400,10.26120849609375,0.30983054637908936,0.3778975009918213,0.16683904826641083
1758274223389166600,10.27116650390625,0.28245672583580017,0.16463182866573334,0.16547125577926636
1758274223399124500,10.28112451171875,0.21476450562477112,0.31203752756118774,0.24116069078445435
1758274223409083600,10.291083740234376,0.17515556514263153,0.3945063054561615,0.22799615561962128
1758274223419041300,10.301041259765626,0.07317168265581131,0.019045863300561905,0.09348946809768677
1758274223428999400,10.31099951171875,0.01726500689983368,-0.0002689792599994689,0.08270073682069778
1758274223438957600,10.32095751953125,-0.012570386752486229,-0.08416787534952164,0.1891036033630371
1758274223448915500,10.33091552734375,-0.011492605321109295,-0.038599058985710144,0.2775450646877289
1758274223458874400,10.340874267578124,0.024094417691230774,0.0005635248962789774,0.28972795605659485
1758274223468832500,10.35083251953125,0.04917659983038902,0.0404166653752327,0.21568302810192108
1758274223478790400,10.360790283203125,0.09460587054491043,0.1427110731601715,0.12800537049770355
1758274223488748500,10.37074853515625,0.15868231654167175,0.29593443870544434,0.07933157682418823
1758274223498706700,10.380706787109375,0.22213320434093475,0.4801807105541229,0.07526972144842148
1758274223508665600,10.39066552734375,0.2472795695066452,0.5795302391052246,0.0819513276219368
1758274223518623500,10.40062353515625,0.25317633152008057,0.6103379130363464,0.03581605479121208
1758274223528581400,10.410581298828125,0.24369467794895172,0.5880270004272461,0.007396663539111614
1758274223538539500,10.42053955078125,0.21556983888149261,0.4688260853290558,0.04002571478486061
1758274223548498400,10.43049853515625,0.24056440591812134,0.3582462966442108,0.12634702026844025
1758274223558456300,10.440456298828124,0.3123302161693573,0.3378605842590332,0.21860051155090332
1758274223568414500,10.45041455078125,0.40135833621025085,0.31692415475845337,0.23975986242294312
1758274223578372400,10.460372314453124,0.46557381749153137,0.27769047021865845,0.153020977973938
1758274223588330500,10.47033056640625,0.5153919458389282,0.20507778227329254,0.012891297228634357
1758274223598289400,10.480289306640625,0.4889574348926544,0.14582617580890656,-0.09385006129741669
1758274223608247600,10.49024755859375,0.33150923252105713,0.04622102528810501,-0.14822755753993988
1758274223618205400,10.500205322265625,0.45465460419654846,-0.2225758135318756,-0.3566124439239502
1758274223628163600,10.51016357421875,0.7913729548454285,-0.1116812601685524,0.014022608287632465
1758274223638121700,10.520121826171875,1.1195085048675537,0.2653653621673584,0.4764198064804077
1758274223648080000,10.530079833984376,1.3485305309295654,0.40693899989128113,0.5858789086341858
1758274223658038000,10.5400380859375,1.2738341093063354,0.4842500388622284,0.6562724113464355
1758274223667996000,10.549995849609376,1.080023169517517,0.6561893224716187,0.6821290254592896
1758274223677954000,10.5599541015625,0.8044900894165039,1.052789330482483,0.5089886784553528
1758274223687913000,10.569912841796874,0.5624023675918579,1.3035153150558472,0.399626225233078
1758274223697870800,10.579870849609375,0.36660516262054443,1.3714605569839478,0.40365132689476013
1758274223707828700,10.589828857421875,0.34331849217414856,0.9624879956245422,0.5549537539482117
1758274223717787000,10.599786865234375,0.46740713715553284,0.13810940086841583,0.7941109538078308
1758274223727744800,10.609744873046875,0.7159586548805237,-0.4532572329044342,0.8522648215293884
1758274223737703700,10.61970361328125,1.3244956731796265,-1.3062280416488647,0.9145225882530212
1758274223747661800,10.629661865234375,1.9998011589050293,-2.5283656120300293,0.9100087881088257
1758274223757620000,10.639619873046875,1.8313299417495728,-4.089156627655029,1.302624225616455
1758274223767577900,10.649577880859376,1.662767767906189,-5.6290812492370605,1.8483030796051025
1758274223777536800,10.659536865234376,1.6184642314910889,-6.6168718338012695,2.1673781871795654
1758274223787495000,10.669494873046874,1.4074838161468506,-6.4425530433654785,2.282339096069336
1758274223797452800,10.679452880859374,0.7897611856460571,-5.0390167236328125,2.0868802070617676
1758274223807411000,10.689410888671874,-0.09110300987958908,-2.398970603942871,1.30463707447052
1758274223817369000,10.699369140625,-0.7108743786811829,0.11383841931819916,0.386809766292572
1758274223827328000,10.709327880859375,-1.0820205211639404,0.36101678013801575,-0.009555954486131668
1758274223837285600,10.71928564453125,-1.391624927520752,-0.6155002117156982,0.0496346652507782
1758274223847243800,10.729243896484375,-1.7474358081817627,-1.153321623802185,0.38248932361602783
1758274223857202000,10.739201904296875,-2.1044907569885254,-1.298119306564331,0.6813433766365051
1758274223867159800,10.749159912109375,-2.455444097518921,-1.2863209247589111,0.6306136250495911
1758274223877118700,10.75911865234375,-2.920597553253174,-1.951412320137024,0.20315231382846832
1758274223887076900,10.769076904296876,-3.447538375854492,-2.474461793899536,-0.09034428000450134
1758274223897035000,10.779034912109376,-3.9395058155059814,-2.734461545944214,-0.4353235065937042
1758274223906993000,10.788992919921874,-4.640237331390381,-2.9628138542175293,-0.6090007424354553
1758274223916951800,10.798951904296874,-5.436670303344727,-2.5415892601013184,-0.6433395743370056
1758274223926910000,10.808909912109375,-6.033225059509277,-1.2634952068328857,-0.8493680953979492
1758274223936867800,10.818867919921875,-5.9107537269592285,0.8661510348320007,-0.9539371132850647
1758274223946826000,10.828825927734375,-4.462181568145752,1.278393268585205,-0.8433000445365906
1758274223956783900,10.838783935546875,-2.48115873336792,1.110963225364685,0.01889246515929699
1758274223966742800,10.84874267578125,-1.3195499181747437,1.4699640274047852,0.3021364212036133
1758274223976700700,10.85870068359375,-0.3030930161476135,3.2461113929748535,0.5251977443695068
1758274223986658800,10.868658935546875,0.7086716890335083,4.5180182456970215,0.28518033027648926
1758274223996617000,10.878616943359376,1.1689082384109497,5.2012176513671875,0.5090278387069702
1758274224006575900,10.888575927734376,0.9541674852371216,4.841772079467773,0.8703228831291199
1758274224016533800,10.89853369140625,0.7074801921844482,5.199522972106934,0.5792191624641418
1758274224026492000,10.908491943359374,0.07765085250139236,5.3749589920043945,0.9370478987693787
1758274224036449800,10.91844970703125,-0.5056980848312378,7.094789028167725,1.1736787557601929
1758274224046408000,10.928407958984375,-1.2977447509765625,7.594267845153809,0.7245175242424011
1758274224056366800,10.938366943359375,-2.1923928260803223,6.858809471130371,0.7805935740470886
1758274224066325000,10.948324951171875,-2.9788119792938232,6.431084632873535,0.9241539239883423
1758274224076283000,10.958282958984375,-3.6472976207733154,7.063807964324951,1.1409668922424316
1758274224086240800,10.96824072265625,-4.309656620025635,8.072552680969238,1.5355626344680786
1758274224096199000,10.978198974609375,-5.030741214752197,8.797893524169922,2.080936908721924
1758274224106157800,10.98815771484375,-5.739776611328125,9.234790802001953,2.6222517490386963
1758274224116115700,10.99811572265625,-6.351281642913818,9.331533432006836,3.0837042331695557
1758274224126073900,11.008073974609376,-6.774267673492432,9.191493034362793,3.48921275138855
1758274224136031700,11.01803173828125,-6.99829626083374,8.857125282287598,3.783846378326416
1758274224145991000,11.027990966796875,-7.008774280548096,8.188942909240723,3.8841497898101807
1758274224155948800,11.03794873046875,-6.8524370193481445,7.296173095703125,3.73691463470459
1758274224165907000,11.047906982421875,-6.48668098449707,6.2311015129089355,3.413388252258301
1758274224175864800,11.05786474609375,-6.065382480621338,4.978425979614258,2.916900634765625
1758274224185823000,11.067822998046875,-5.919368743896484,3.7293474674224854,2.4095911979675293
1758274224195782000,11.077781982421875,-6.622631549835205,2.9733731746673584,2.0639772415161133
1758274224205740000,11.087739990234375,-7.238356590270996,2.517301082611084,1.764966368675232
1758274224215697700,11.09769775390625,-7.389482498168945,2.26983904838562,1.5084102153778076
1758274224225655800,11.10765576171875,-7.156923294067383,2.0225467681884766,1.2635564804077148
1758274224235613700,11.11761376953125,-6.80430793762207,1.630846381187439,1.1416937112808228
1758274224245572900,11.12757275390625,-6.236011028289795,1.0430747270584106,1.1160000562667847
1758274224255530800,11.13753076171875,-5.447916030883789,0.6281744241714478,1.2570298910140991
1758274224265489000,11.147489013671875,-4.518118858337402,0.6609864830970764,1.561596393585205
1758274224275446800,11.15744677734375,-3.3804523944854736,0.8415980339050293,1.9612681865692139
1758274224285406000,11.167406005859375,-2.1105234622955322,0.8518408536911011,2.314445972442627
1758274224295363800,11.17736376953125,-0.9655447602272034,0.8812618255615234,2.438577651977539
1758274224305322000,11.187322021484375,0.006956975441426039,0.7282845377922058,2.565633773803711
1758274224315280000,11.19727978515625,0.8038384318351746,0.6115959882736206,2.5093071460723877
1758274224325237800,11.20723779296875,1.4299752712249756,0.3420651853084564,2.2384369373321533
1758274224335197000,11.217197021484376,1.787529468536377,0.11669119447469711,1.8844770193099976
1758274224345154800,11.22715478515625,1.8871665000915527,-0.030967237427830696,1.4372707605361938
1758274224355112700,11.23711279296875,1.8693020343780518,-0.15071281790733337,0.9708609580993652
1758274224365070800,11.24707080078125,1.7250324487686157,-0.06621124595403671,0.6205684542655945
1758274224375028700,11.25702880859375,0.07892224937677383,3.0253241062164307,1.606418251991272
1758274224384988000,11.26698779296875,-0.9879547357559204,1.7486342191696167,2.1502041816711426
1758274224394945800,11.27694580078125,-1.2163220643997192,0.5808567404747009,1.8620965480804443
1758274224404904000,11.286904052734375,-1.3583698272705078,0.17442986369132996,1.5968643426895142
1758274224414861800,11.29686181640625,-1.45078706741333,0.03260774537920952,1.5178643465042114
1758274224424820000,11.306820068359375,-1.5633165836334229,-0.5385662913322449,1.4658912420272827
1758274224434779000,11.31677880859375,-1.644289493560791,-0.687772810459137,1.5968058109283447
1758274224444737000,11.326737060546876,-1.5564371347427368,-0.4065206050872803,1.56653892993927
1758274224454694700,11.336694580078126,-1.3970810174942017,-0.4365999698638916,1.1384800672531128
1758274224464652800,11.34665283203125,-1.4055922031402588,-0.8934463262557983,0.7703792452812195
1758274224474611700,11.35661181640625,-1.5583596229553223,-1.1615617275238037,0.6610440015792847
1758274224484569900,11.36656982421875,-1.7133129835128784,-1.345651388168335,0.7139700651168823
1758274224494527700,11.37652783203125,-1.330187439918518,-1.440345048904419,0.6817569732666016
1758274224504486000,11.38648583984375,-0.38178837299346924,-1.2205661535263062,0.46695518493652344
1758274224514443800,11.39644384765625,0.1819538176059723,-0.7627434730529785,0.23232698440551758
1758274224524403000,11.40640283203125,0.17410361766815186,-0.36413267254829407,0.09361570328474045
1758274224534360800,11.41636083984375,0.06511136144399643,-0.07914675027132034,0.057793792337179184
1758274224544319000,11.426319091796875,-0.03367886692285538,-0.006755640730261803,0.08397293090820312
1758274224554276900,11.43627685546875,-0.18669317662715912,-0.02743002586066723,0.1732945591211319
1758274224564235000,11.446235107421876,-0.22889895737171173,-0.09523650258779526,0.26311206817626953
1758274224574194000,11.45619384765625,-0.1569526046514511,-0.1728665828704834,0.255757212638855
1758274224584152000,11.466152099609374,-0.13409441709518433,-0.19895704090595245,0.1487463414669037
1758274224594109700,11.476109619140624,-0.17874391376972198,-0.15122520923614502,0.04560370370745659
1758274224604067800,11.48606787109375,-0.2658705711364746,-0.08520304411649704,-0.03279523178935051
1758274224614025700,11.496025634765624,-0.3674917221069336,0.01865943893790245,-0.10054445266723633
1758274224623985000,11.50598486328125,-0.3852917551994324,0.08306505531072617,-0.14541950821876526
1758274224633942800,11.51594287109375,-0.2997177541255951,0.11001758277416229,-0.20127399265766144
1758274224643901000,11.52590087890625,-0.18341536819934845,0.10469844937324524,-0.28426289558410645
1758274224653858800,11.53585888671875,-0.09068809449672699,0.0515311025083065,-0.3473483622074127
1758274224663818000,11.54581787109375,-0.01870737411081791,-0.024516262114048004,-0.3640455901622772
1758274224673775900,11.55577587890625,0.03538275882601738,-0.1046220138669014,-0.3144594132900238
1758274224683734000,11.565734130859376,0.0778828114271164,-0.14018534123897552,-0.20504316687583923
1758274224693692000,11.57569189453125,0.09832577407360077,-0.10987137258052826,-0.08620546013116837
1758274224703649800,11.58564990234375,0.1011657640337944,-0.06059011071920395,0.015199459157884121
1758274224713609000,11.59560888671875,0.10156337916851044,-0.02883244678378105,0.10123234242200851
1758274224723566800,11.60556689453125,0.12512250244617462,-0.04236236959695816,0.13855601847171783
1758274224733524700,11.615524658203125,0.167891263961792,-0.06790900975465775,0.12590280175209045
1758274224743483000,11.62548291015625,0.1967892199754715,-0.07222253084182739,0.06045988202095032
1758274224753440800,11.635440673828125,0.21253037452697754,-0.05777807906270027,-0.011750665493309498
1758274224763400000,11.64539990234375,0.21269576251506805,-0.0472484715282917,-0.046422626823186874
1758274224773357800,11.65535791015625,0.1998598575592041,-0.020185962319374084,-0.04839310050010681
1758274224783316000,11.66531591796875,0.2126171886920929,0.026987941935658455,-0.04902533441781998
1758274224793273900,11.67527392578125,0.23997318744659424,0.10292638093233109,-0.04669693112373352
1758274224803232000,11.68523193359375,0.24941222369670868,0.14576226472854614,-0.06652363389730453
1758274224813191000,11.69519091796875,0.24887533485889435,0.18033036589622498,-0.08811840415000916
1758274224823149000,11.705149169921874,0.24618953466415405,0.2182026356458664,-0.07867084443569183
1758274224833106700,11.715106689453124,0.24144618213176727,0.25008413195610046,-0.05668191984295845
1758274224843064800,11.72506494140625,0.22942706942558289,0.23782481253147125,-0.01380955521017313
1758274224853022700,11.735022705078125,0.2155996710062027,0.21130451560020447,0.04132373631000519
1758274224862982000,11.74498193359375,0.2081340253353119,0.18788814544677734,0.07885833084583282
1758274224872939800,11.754939697265625,0.2145908623933792,0.17788611352443695,0.09729433059692383
1758274224882898000,11.76489794921875,0.20299439132213593,0.18004487454891205,0.08255372941493988
1758274224892855800,11.774855712890625,0.199605792760849,0.19110098481178284,-0.0018426411552354693
1758274224902815000,11.78481494140625,0.22965875267982483,0.18415012955665588,-0.047390419989824295
1758274224912772900,11.79477294921875,0.23829112946987152,0.22899989783763885,0.030462834984064102
1758274224922731000,11.80473095703125,0.23764771223068237,0.32221320271492004,0.22037550806999207
1758274224932689000,11.81468896484375,0.21964581310749054,0.47431856393814087,0.4368920922279358
1758274224942647000,11.82464697265625,-0.12714357674121857,1.6229887008666992,1.8048796653747559
1758274224952606000,11.83460595703125,0.02527020312845707,1.2778462171554565,1.7264506816864014
1758274224962563800,11.844563720703125,0.15165796875953674,0.9969897866249084,0.7791005969047546
1758274224972521700,11.854521728515625,0.2493368536233902,0.5645406246185303,-0.24635304510593414
1758274224982480000,11.86447998046875,0.37367531657218933,0.009334379807114601,-0.961982250213623
1758274224992437800,11.874437744140625,0.4469439387321472,-0.503825306892395,-1.4398350715637207
1758274225002397000,11.88439697265625,0.28413504362106323,-0.8492080569267273,-1.5923115015029907
1758274225012354800,11.894354736328125,0.18111519515514374,-0.8783994913101196,-1.2899545431137085
