time,seconds_elapsed,z,y,x
1758272996965165600,0.04816552734375,0.4849216977715492,-0.23528145877569911,0.31801015699729324
1758272996975122700,0.058122802734375,0.5651859055757522,-0.4642909976750612,0.391020886541903
1758272996985080800,0.068080810546875,0.8668506385803222,-0.23774784888923167,0.711769236331433
1758272996995038700,0.078038818359375,1.2209908242315053,-0.3379103508621454,0.8183684933535754
1758272997004995600,0.08799560546875,1.2830565275222063,-0.5198296372845769,0.9031688832826912
1758272997014953700,0.09795361328125,0.888893543562293,-0.5007257083639503,1.0507152138516307
1758272997024911600,0.10791162109375,0.6057932257741689,-0.5464630849272012,1.1838840594999491
1758272997034868700,0.11786865234375,0.6483405741244554,-0.40924715584516524,1.1423315674059091
1758272997044826600,0.12782666015625,0.4011825073331594,-0.5976055354043841,0.8906799885876476
1758272997054784500,0.137784423828125,-0.39190497590005396,-1.1199003937587142,0.7658864648357033
1758272997064741600,0.14774169921875,-0.8944318884670733,-1.6836951372370124,0.5129759719975292
1758272997074699500,0.157699462890625,-0.9203829068034887,-1.3488497269034385,-0.4552798620931804
1758272997084657700,0.16765771484375,-1.3308657419234513,-1.6090592907086014,-0.7658340039961039
1758272997094614800,0.17761474609375,-1.3663000433981418,-2.2511101170390844,-0.6701350573033094
1758272997104572400,0.187572509765625,-0.30818039850890633,-1.9983748346373438,-1.1959119125545024
1758272997114530600,0.197530517578125,0.20053601634800433,-1.69991591193676,-1.0346893772020935
1758272997124487700,0.20748779296875,1.8483289423376321,-1.0377315213769673,-0.16394436153173444
1758272997134445600,0.217445556640625,2.5087919159322976,-0.7339175013840198,0.6375567297816276
1758272997144403700,0.22740380859375,2.1558196050167084,-0.35676644250154493,1.382021928665042
1758272997154360600,0.237360595703125,1.6495079132139683,-0.41394729636013505,1.0860082071594894
1758272997164318500,0.247318359375,-0.07774784106910228,-1.4631149885088204,0.730951929576695
1758272997174276600,0.257276611328125,-1.0092617982178926,-1.6741513560831547,0.810113729096949
1758272997184232700,0.267232666015625,-1.9257652332395314,-1.498211436331272,1.4740505162820219
1758272997194190800,0.27719091796875,-2.9966233636707065,-1.423686064440012,2.7011399496495723
1758272997204148700,0.287148681640625,-4.034939406937361,-1.7975228842079638,3.259521143646538
1758272997214105900,0.29710595703125,-4.547100993812084,-2.2313275582045313,3.5028251653581854
1758272997224064000,0.30706396484375,-3.7485546606510876,-2.3673937327295542,3.6631837773576374
1758272997234021600,0.317021728515625,-2.776204835245013,-2.78850025319457,3.3183030029609797
1758272997243978800,0.326978759765625,-0.005610825619101524,-2.2623042957484722,1.345953274809569
1758272997253936600,0.3369365234375,2.704450681632757,-0.3112991150513291,-0.023860329667478797
1758272997263894800,0.346894775390625,1.9065069905400276,1.6800611646488308,-3.2149338139012453
1758272997273852000,0.356851806640625,1.6719488776028155,3.6269562796786428,-8.607230371585487
1758272997283809500,0.3668095703125,-0.13864040892720222,0.494860615722835,-2.7435721471875905
1758272997293767700,0.376767578125,-2.2162638445854186,-4.254971274133027,1.3005642732925713
1758272997303724800,0.386724853515625,-3.017006811007857,-4.397141903012991,-0.18810708994558079
1758272997313682700,0.3966826171875,-3.917974823245406,-3.599966858205199,-0.41722259170375764
1758272997323640800,0.406640869140625,-3.853705472430587,-2.5572704078972337,0.22378902777209878
1758272997333597700,0.41659765625,-3.72229092310369,-1.5389987892717123,0.9389186073821038
1758272997343555600,0.4265556640625,-3.2843782292664048,-1.1800965037852524,1.550332668712735
1758272997353513700,0.436513671875,-1.6896031922370194,-0.7457523160845041,2.0022016994491216
1758272997363470800,0.446470947265625,-0.5283458289563655,-0.5625894593417644,2.268566132622212
1758272997373428700,0.4564287109375,-0.72921736086905,-1.0430965555414557,1.7936754149995744
1758272997383387000,0.466386962890625,-0.943480289274454,-1.854078884166479,0.8093655410781502
1758272997393344800,0.4763447265625,-0.2830290061175823,-2.2080857988268137,0.053238326777890324
1758272997403301600,0.486301513671875,0.2811106052756309,-2.2832415775761006,-0.3096205143146217
1758272997413259800,0.496259765625,0.5550818601906299,-2.0689907779999075,-0.4721525978956371
1758272997423217700,0.5062177734375,0.1488929228723049,-1.424772252241522,-0.199214777681604
1758272997433174800,0.5161748046875,-0.5328466475069522,-0.5529153298065066,0.17498685681074858
1758272997443133000,0.5261328125,-0.91648239223361,0.10671294652968645,0.3322065862625837
1758272997453090600,0.536090576171875,-0.8894657904922961,0.33332609181180595,0.20549188518971204
1758272997463047700,0.546047607421875,-0.7472434314250945,0.19538827819600701,-0.09752733116373419
1758272997473005800,0.556005859375,-0.3730447926074266,0.13753164396770298,-0.10763532207161187
1758272997482963700,0.565963623046875,0.3518815930694341,0.012467048189416527,0.028065087880939244
1758272997492920800,0.5759208984375,0.9839929169267415,-0.4442267358222976,-0.28810061029344797
1758272997502878700,0.585878662109375,2.2735832301318646,-0.5440759340623393,-0.4691192946143448
1758272997512836600,0.595836669921875,3.2814170413732526,-0.5597504365235567,-0.27184651784598823
1758272997522793700,0.605793701171875,3.3548487728089094,-0.602473104908131,-0.4191971797123551
1758272997532752000,0.615751953125,2.790185429802537,-0.3923260508563369,-0.5030484522230922
1758272997542709800,0.625709716796875,2.262176285454631,0.017044676569569855,-0.32548005448654294
1758272997552666600,0.63566650390625,2.027926800075173,0.3483835218206048,-0.034473785879462954
1758272997562624800,0.645624755859375,2.1166069540470835,0.50093704955969,0.27256562590077515
1758272997572582700,0.655582763671875,2.3101930051267145,0.5969136076174676,0.3804775729566812
1758272997582539800,0.665539794921875,2.363403201788664,0.6905608824774623,0.4375542357884347
1758272997592498000,0.675497802734375,2.2998756092518566,0.6375590678691864,0.23519494953602552
1758272997602455800,0.685455810546875,2.203049558225274,0.30594357936754824,-0.21381927629113195
1758272997612412700,0.69541259765625,2.2360908270835873,-0.2651122411549091,-0.7984070708207786
1758272997622370800,0.705370849609375,2.427299627637863,-0.4578134722240269,-1.1102173502646386
1758272997632328700,0.71532861328125,2.4109832836091516,-0.40910182909034193,-1.026920496766269
1758272997642285800,0.725285888671875,2.2058248681575057,-0.0222219148106873,-0.5744280734345316
1758272997652244000,0.735243896484375,1.777833848875761,0.35783524077683687,-0.12413900536596774
1758272997662201900,0.745201904296875,1.4084773893922566,0.3673664547100663,-0.16501900502592323
1758272997672158700,0.75515869140625,1.3571037605077028,-0.0022507015362381935,-0.6742661657586694
1758272997682116900,0.765116943359375,1.5506097320884464,0.077030340449512,-0.8976543576449155
1758272997692074800,0.77507470703125,1.7139193028479813,-0.11886954053044319,-1.348527947603166
1758272997702032000,0.785031982421875,2.1313912662029266,-0.5609694569244981,-1.7350807488203048
1758272997711989800,0.79498974609375,2.3134908776283263,-0.7418046013720333,-1.8485671350076793
1758272997721947600,0.80494775390625,2.170691595456004,-1.4465565062873065,-2.412280337682366
1758272997731904800,0.81490478515625,2.08334181330502,-2.6777783632844683,-3.774925657965243
1758272997741862700,0.824862548828125,1.897453330990672,-4.1708384082019325,-5.625799900871515
1758272997751820800,0.83482080078125,1.5151631556540728,-6.034613341474532,-7.8586723504304885
1758272997761778000,0.84477783203125,0.8977379442751408,-7.197387539058924,-9.319065805020928
1758272997771735600,0.854735595703125,0.4273901307791471,-7.508757673519849,-9.048023004773258
1758272997781693700,0.864693603515625,-0.16781389644145964,-7.547723071730136,-8.026475140956043
1758272997791650800,0.87465087890625,-0.8798533280164003,-6.97571988735497,-6.7621782589614385
1758272997801608700,0.884608642578125,-1.9529566070258617,-6.11214607848823,-5.343650600197911
1758272997811566800,0.89456689453125,-3.5070799001932143,-5.756708254241943,-4.401213097974658
1758272997821523700,0.904523681640625,-4.377639914685488,-5.756653309184313,-3.515217613941431
1758272997831481600,0.914481689453125,-4.678333756831288,-5.445270899763703,-2.2586457732409237
1758272997841439700,0.924439697265625,-4.896432902398705,-3.8242818095475433,-0.5777957963019609
1758272997851396900,0.93439697265625,-4.366942579582333,-2.011482153491676,2.6658552857786417
1758272997861354800,0.944354736328125,-3.1500346407502886,0.043021103341877455,5.641179840832948
1758272997871313000,0.95431298828125,-2.9820260985195635,2.148065922150016,7.328189509445428
1758272997881269800,0.964269775390625,-3.333248935419321,3.6878321886628864,8.244391915693878
1758272997891227600,0.9742275390625,-3.8355356094896793,5.113661694872379,8.406829964315891
1758272997901185800,0.984185791015625,-4.231612902638316,6.0983735737234355,8.552609139081834
1758272997911143000,0.994142822265625,-3.918133813199401,6.196386788707971,7.897527858525514
1758272997921100800,1.004100830078125,-3.694612642583251,5.089434431588649,6.499965246379375
1758272997931059000,1.014058837890625,-3.3048025931358334,3.4274174576744434,4.721393730878829
1758272997941015800,1.024015869140625,-3.6522330520153043,2.152358358646929,2.7990800993978975
1758272997950973700,1.0339736328125,-4.6080841625630855,0.9969061745136976,1.6809312254816293
1758272997960931800,1.043931884765625,-6.619301819899678,0.6239975755065679,1.0600164184212684
1758272997970889000,1.053888916015625,-8.698937764424086,0.6096560386821627,0.29019992066025735
1758272997980846800,1.063846923828125,-9.671339027756453,0.6023772798508406,2.294593869456649
1758272997990804700,1.0738046875,-9.21495544220507,0.21463556111007928,4.919734283009171
1758272998000761900,1.083761962890625,-6.741382723692059,-1.9610344072803854,3.7005443707197903
1758272998010719700,1.0937197265625,-0.7270277418702841,-4.644655943635106,3.5331437312543392
1758272998020678000,1.103677978515625,0.3306131795912981,-4.863180036616325,2.2023358569979665
1758272998030635000,1.113635009765625,2.152817500591278,-3.49483416660428,1.579721844804287
1758272998040592600,1.123592529296875,2.4632892249077556,-1.290744743937254,1.8614976359903812
1758272998050550800,1.13355078125,-0.17066665552407503,1.424277016070485,1.2101496967434882
1758272998060507600,1.143507568359375,-0.5825783544033766,4.079267793485522,2.2636410973101855
1758272998070465800,1.1534658203125,1.4279926755927503,5.500386637786031,4.345970518702268
1758272998080424000,1.163423828125,2.866303623843193,6.881493205171823,5.398881489032506
1758272998090380500,1.173380615234375,2.7901544501423836,7.708104187822341,4.229381782585382
1758272998100338700,1.183338623046875,3.036100803056359,5.603612034460902,1.4297031327724457
1758272998110296800,1.193296875,3.708243693050742,0.9985492655456065,-1.1204553972929716
1758272998120253700,1.203253662109375,-3.3004169253975153,-2.8359797972500322,-3.419628411233425
1758272998130211800,1.2132119140625,-9.24845146909356,-6.349485931098461,-1.2611807958006858
1758272998140170000,1.223169921875,-4.454396406629681,-6.987035646617412,1.2317746685743332
1758272998150126600,1.233126708984375,-5.195747857406735,-5.0086336326897145,-1.5456231758475303
1758272998160084700,1.243084716796875,-5.993258417779207,-2.12097800873816,-3.818251297211647
1758272998170043000,1.25304296875,-1.8785206669837236,-0.19582418539524077,-4.970428697457909
1758272998180000300,1.263000244140625,0.9358522786140442,1.4817086298197506,-4.506427038118243
1758272998189958400,1.27295849609375,1.468927474179864,2.467015551954508,-3.0254736105799673
1758272998199916300,1.282916259765625,2.7115035227537154,1.8384598747521639,-1.5114619630485773
1758272998209873400,1.292873291015625,2.993715367269516,1.4463865565478802,-0.24147242237031458
1758272998219831600,1.30283154296875,2.492083942237496,1.5690490596204996,0.32106910617649553
1758272998229789200,1.3127890625,1.462823312085867,1.9457225641191005,0.4143161296725273
1758272998239746300,1.322746337890625,0.40439854677021503,2.2302976306349036,0.3607902911901474
1758272998249704400,1.332704345703125,-3.5134552804440258,2.125030498999357,0.9307865196570754
1758272998259662300,1.342662353515625,-6.726282769715786,2.081779386293888,1.7541045982420445
1758272998269619500,1.352619384765625,-0.8095335911214351,2.245407521483302,0.9709861358374356
1758272998279577300,1.362577392578125,3.577441138142347,2.27407598208487,-0.3281950125336647
1758272998289535200,1.37253515625,0.5044253665994852,1.8277280528575182,-1.3135259000658988
1758272998299492400,1.382492431640625,-1.7257412580668925,1.4932605359256266,-2.1081465842157603
1758272998309450500,1.392450439453125,-0.6328606078546494,1.5268056626528501,-2.518427174761891
1758272998319408400,1.402408447265625,1.3689157788544892,1.8080577222257852,-2.2234401659555734
1758272998329365200,1.412365234375,2.921675966975093,2.8486422949463126,-1.945873516897112
1758272998339323400,1.422323486328125,0.45783889892622825,3.86166315343678,-1.0847575495112687
1758272998349281300,1.43228125,-2.6114655239433047,4.367725838914513,0.05384126110710203
1758272998359238400,1.44223828125,-2.316612809041142,4.808571079072356,1.11129155536741
1758272998369196300,1.4521962890625,-0.9301298093140125,4.879592242234945,1.9555219274692237
1758272998379154400,1.462154541015625,0.7629916201770305,5.171792981323599,2.486305358836055
1758272998389111300,1.472111328125,2.832715242496133,5.161876567465066,2.681490661805868
1758272998399069200,1.482069091796875,2.4471815551936626,-1.2365665790259837,1.4770098044790327
1758272998409027300,1.49202734375,-0.14286759816817937,-28.925879365611074,-6.0739428968220945
1758272998418984400,1.501984375,-4.039689231812954,-49.831884595966336,-9.36292774310112
1758272998428942300,1.5119423828125,0.7133522677391767,-19.28554454792738,5.66184152058959
1758272998438900500,1.521900390625,2.6120389399170874,3.8480730195015664,8.068790434116124
1758272998448857300,1.531857421875,-2.2367747176945207,7.53839117976129,3.29505569062531
1758272998458815200,1.541815185546875,-1.515095351114869,7.992549490478634,0.19939327605366705
1758272998468773400,1.5517734375,0.5610017517589032,4.303977881625294,-2.950624121300876
1758272998478730500,1.56173046875,-0.7117074962068348,-0.7522446007132529,-3.3964719920516013
1758272998488688400,1.5716884765625,-1.8008371233224867,-2.2899895905315875,-0.9201970288425684
1758272998498646300,1.581646240234375,-0.7023715125847607,-1.4848013351380824,1.2495996636003255
1758272998508603400,1.591603271484375,0.2955436197757721,-0.3597738076239824,2.3968270402237772
1758272998518561300,1.601561279296875,0.04386836782097816,-0.08985796557962894,2.6336779402732846
1758272998528519400,1.61151953125,-0.46541854040026664,0.034330139625072476,2.066848066882789
1758272998538476500,1.6214765625,-0.781827253550291,0.11730185282230376,1.096498475383222
1758272998548434200,1.63143408203125,-1.2590015520654618,0.5134001887589693,0.4924029934376478
1758272998558392300,1.641392333984375,-1.504991744121164,1.2033254036813974,0.44401159523427486
1758272998568349400,1.651349365234375,-1.530787425765395,1.6525012498110532,0.6717118051007389
1758272998578307300,1.661307373046875,-1.35097753271237,2.4073691847652197,0.6750444566547871
1758272998588265500,1.671265380859375,-1.7075070977181195,0.7918436206519603,-0.13485592195242643
1758272998598222300,1.681222412109375,-1.5079915104590356,0.2647510066270828,0.3333881972625851
1758272998608180200,1.69118017578125,-1.2027006959117947,0.3137994074344635,0.4062947357803583
1758272998618138400,1.701138427734375,-1.519945275364071,-0.14030921892225742,-0.21296499754935502
1758272998628095500,1.711095458984375,-1.916597591921687,-0.7759609918653965,-0.6338976227521896
1758272998638053400,1.721053466796875,-2.439967386031151,-0.811154470321536,-0.20192133322656153
1758272998648011500,1.731011474609375,-1.8184113584578037,-0.7767956891238689,0.061061202423274515
1758272998657968400,1.740968505859375,-1.7082618616081773,-0.6173404557049275,0.3356009048759937
1758272998667926300,1.75092626953125,-1.8425469979353248,-0.4851332946956157,0.5064756501927972
1758272998677884400,1.760884521484375,-1.9072000873707233,-0.3667833941251039,0.7037006422966718
1758272998687841500,1.770841552734375,-1.6955905960835516,-0.44045653310120103,0.845703805655241
1758272998697799400,1.78079931640625,-1.47260397073552,-0.5601046567887068,0.9491068969845772
1758272998707757600,1.790757568359375,-1.3634803098022936,-0.6515981146156787,1.0126938184931873
1758272998717714400,1.80071435546875,-1.523567995905876,-0.7478852364599704,1.0065338345587254
1758272998727672300,1.81067236328125,-1.7495836136862635,-0.7137877365469932,1.1510340754300354
1758272998737630500,1.82063037109375,-1.948681413924694,-0.8111193990081548,1.0058645569950342
1758272998747587300,1.83058740234375,-2.04932439289093,-1.2812971166342497,0.7726227873533964
1758272998757545500,1.84054541015625,-2.042714180970937,-2.0157944637328384,0.8130494902879
1758272998767503400,1.85050341796875,-2.1826398074030875,-2.7393706038445234,1.0529179845929144
1758272998777460200,1.860460205078125,-2.7348440663307905,-3.4133068069964647,1.4497206694066525
1758272998787418400,1.87041845703125,-3.6858676105916497,-3.921027196553349,1.973657742010057
1758272998797375500,1.88037548828125,-4.967895964109897,-4.2221828109920025,2.5173189212590454
1758272998807333400,1.89033349609375,-5.5547050879508255,-4.0652141336917875,3.2932509792909026
1758272998817291300,1.900291259765625,-5.586038383847475,-3.6620705554187296,3.8055531436800956
1758272998827248400,1.910248291015625,-5.645748463922739,-3.4592923131018876,4.065942740227282
1758272998837206300,1.920206298828125,-5.475180884858966,-3.5547973446577785,4.12689492931813
1758272998847164400,1.930164306640625,-5.110274975043535,-3.9699055014908313,4.253832333230972
1758272998857121500,1.94012158203125,-4.043633585524558,-4.788859831908345,3.901472601255774
1758272998867079200,1.9500791015625,-2.338929416397959,-5.61812454393804,3.505002509397268
1758272998877037300,1.960037353515625,-1.2103081021755933,-5.047292741429805,3.4454522960588334
1758272998886994400,1.969994384765625,-1.6752974573783574,-3.479271271291375,3.6451910245493053
1758272998896952300,1.979952392578125,-3.029318011048436,-2.851993358939886,3.682992055155337
1758272998906910500,1.989910400390625,-3.6219524800419807,-2.4680530783087016,2.6728026206985116
1758272998916867300,1.999867431640625,-2.850585245707631,-1.8475088581264019,1.3961384245619177
1758272998926825200,2.0098251953125,-2.7266321183025837,-1.0524486135154962,-0.18951310255229473
1758272998936783400,2.019783447265625,-2.4207266789883373,0.28530454983413217,-0.9511723050817846
1758272998946740500,2.029740478515625,-1.2976993853807448,-0.46684828094244,-1.7164631421118974
1758272998956698400,2.039698486328125,1.765362489837408,-2.566547939330339,-2.592397250857949
1758272998966656500,2.049656494140625,4.635636186355352,-3.297246478667855,-2.6122236488342283
1758272998976613400,2.05961328125,4.854145666289329,-3.438123852866888,-1.8839046981096266
1758272998986571300,2.0695712890625,3.1011762095570563,-3.864398715880513,-2.500822252227366
1758272998996529400,2.079529296875,2.234095123221725,-2.831757795640826,-3.170107414703071
1758272999006486500,2.089486572265625,1.2905248175762594,-1.5778168879657983,-2.768707465226948
1758272999016444400,2.0994443359375,0.7987716663494706,-0.892582461208105,-2.4740549490720034
1758272999026402600,2.109402587890625,-0.4606906350955367,-0.8165729882389307,-2.407705577112734
1758272999036359400,2.119359375,-1.3073217847287655,-2.06982065295279,-2.4139845112517473
1758272999046317300,2.1293173828125,-0.9787629073187708,-2.9346938539803027,-2.13175776142776
1758272999056275500,2.139275390625,0.37958413124829526,-2.9476614721029994,-1.3787676030442118
1758272999066232300,2.149232421875,1.4709063730373977,-2.2983453309446573,-0.8635197405919433
1758272999076190500,2.1591904296875,1.4067404825970529,-1.2169547005832195,-0.024868483796715735
1758272999086148400,2.1691484375,1.9118480593070386,-0.40759705055058,0.5249471264287829
1758272999096105200,2.179105224609375,1.9087348957225678,-0.020419687694311142,0.7560007383763789
1758272999106063400,2.1890634765625,2.339505024328828,0.45723055776953697,1.152034484644234
1758272999116021500,2.199021484375,3.155709179255366,0.8491694359391927,1.323525900554657
1758272999125978400,2.208978271484375,3.209607942703366,1.036292428484559,1.40793992151469
1758272999135936300,2.218936279296875,3.451323818440735,1.4266098429322243,0.7529536257654428
1758272999145894400,2.228894287109375,3.640801557418704,1.9048223984539507,-0.3046440410763025
1758272999155851300,2.238851318359375,4.36581211424768,2.635154442566633,0.04727963756918907
1758272999165809400,2.248809326171875,4.506361571666598,2.9083079513579606,0.03581891687810421
1758272999175767300,2.258767333984375,4.0536324169695375,2.8483278221696615,-0.6059560151204466
1758272999185724700,2.268724609375,3.598760405024886,2.82471898304522,-1.0913102590903638
1758272999195682800,2.278682861328125,3.424991984093189,2.8693425531476735,-1.1779846261978149
1758272999205640700,2.288640625,3.663685004878044,3.019997224995494,-1.0141545386955142
1758272999215597600,2.29859765625,3.8451995098918674,2.9398434918284413,-0.8272796756923199
1758272999225555700,2.3085556640625,3.7730794455766676,2.812421811529994,-0.8451017481088637
1758272999235513600,2.318513671875,3.707820499202609,2.741210678753257,-0.8310770221486687
1758272999245470700,2.328470703125,3.479420908895135,2.958270544400811,-0.5879881044924259
1758272999255428900,2.338428955078125,3.271787627762556,3.5300001725316044,-0.4738488073542714
1758272999265386800,2.34838671875,2.9279841272085902,4.217905279803276,-0.27232787162214517
1758272999275343600,2.358343505859375,2.5255302847653627,4.874088968643546,0.09769026664048433
1758272999285301800,2.3683017578125,2.1399451595366,5.301562686052918,0.6458350210443139
1758272999295259600,2.378259765625,1.8759417564064262,5.319083145174384,1.30630588568449
1758272999305216800,2.388216796875,1.7429127576202152,4.929707395491004,2.0165125488743185
1758272999315175000,2.3981748046875,1.018490814334154,4.063782055062055,1.6047931576967238
1758272999325132800,2.4081328125,-0.15173399151712655,3.06064312363863,0.7575070512861013
1758272999335089700,2.418089599609375,-0.9290338307708501,2.327879468464851,0.354323141002655
1758272999345047800,2.4280478515625,-1.752567013411224,1.3430758196771144,0.06501286265850066
1758272999355005700,2.438005615234375,-2.9977213880404827,0.005692074161767959,-0.16849223409444092
1758272999364962800,2.447962890625,-4.6954888897717,-1.572526380342245,-0.3205333918645978
1758272999374921000,2.4579208984375,-6.3472822835743425,-3.2668829045861956,-0.5030173264324664
1758272999384878600,2.467878662109375,-7.370145321643352,-4.709949376800656,-0.5636152952581643
1758272999394835700,2.477835693359375,-7.466105111229419,-5.475456194669008,-0.65159577652812
1758272999404793900,2.4877939453125,-6.831337719905376,-5.180585359588265,-0.7069768874883652
1758272999414751700,2.497751708984375,-5.7356906006544826,-3.988170056977868,-0.6375532226502895
1758272999424708900,2.507708984375,-4.839710898223519,-2.299122160536051,-0.40541123094409703
1758272999434666800,2.517666748046875,-3.9226112508743998,-0.6192424899339676,-0.12022037061750888
1758272999444624600,2.527624755859375,-3.067304042832553,1.0260866762906313,0.05270253940075636
1758272999454581800,2.537581787109375,-2.607869837538898,2.158335971751809,-0.20172288804501293
1758272999464539600,2.54753955078125,-2.3294231907755134,2.1842846520006653,-1.0636886771932244
1758272999474497800,2.557497802734375,-1.4077636881649493,0.6544371374338865,-3.0793083688810468
1758272999484454700,2.56745458984375,0.9593816227614879,-2.515428577467799,-6.191623519828915
1758272999494412500,2.57741259765625,3.188968474778533,-5.565076259839534,-7.904488345187902
1758272999504370700,2.58737060546875,3.251205442982912,-6.136349376374483,-6.166126090478897
1758272999514327800,2.597327880859375,2.52188842113167,-4.586522319096327,-2.953302108338475
1758272999524285700,2.60728564453125,2.4317563147857784,-1.9147002338677643,-0.3378448844105005
1758272999534243800,2.617243896484375,1.814669541580975,1.315252577728033,0.1296110070362687
1758272999544200700,2.62720068359375,1.2379483887732028,4.019063792413473,-0.25012948381751776
1758272999554158600,2.63715869140625,2.1347972752541304,5.696085735496879,0.1397743813931942
1758272999564116700,2.64711669921875,2.584391639056802,6.042229077175259,0.2894602082088589
1758272999574073900,2.657073974609375,0.8395069968417287,5.380241670492291,0.05655629221946001
1758272999584031700,2.66703173828125,-1.2676269032001495,3.319437852209806,0.08982610913664102
1758272999593990000,2.676989990234375,-1.058523549515009,-0.3300210589170456,0.8961945142254233
1758272999603946800,2.68694677734375,3.0886779625117775,-2.942757333448529,2.2452964623242617
1758272999613904600,2.696904541015625,7.378648946094512,-2.3656553646296263,5.770965912175178
1758272999623862800,2.70686279296875,7.062254261469841,-3.0672792006522416,6.163358379331231
1758272999633820000,2.71681982421875,4.407479464893043,-3.8601644393116232,4.8989931082755325
1758272999643777800,2.72677783203125,1.9640029016971587,-3.082545158845186,4.619174296376109
1758272999653735700,2.736735595703125,0.9139809308066964,-2.1610855627208947,3.627997605425119
1758272999663692800,2.74669287109375,1.6282511901736259,-1.356808576953411,2.409807225567102
1758272999673650700,2.756650634765625,2.3961259062170983,-0.7586252416610717,1.2310291109040379
1758272999683608800,2.76660888671875,2.693023570950329,-0.01298749186694622,0.400310400673747
1758272999693566000,2.77656591796875,2.405361352074146,0.7467272985965013,-0.5491325963973999
1758272999703523600,2.786523681640625,2.221279919181764,0.9449614677429199,-1.0490905352592468
1758272999713481700,2.796481689453125,2.2207273998655377,1.0074439351409674,-1.1932935467496513
1758272999723438800,2.80643896484375,1.7635763370729982,0.9262135126531124,-1.4451298344850538
1758272999733396700,2.816396728515625,1.367780052822828,0.7997457720786333,-1.8706500797390937
1758272999743355000,2.82635498046875,0.6804406166099012,0.8887018203824758,-1.9766049013778566
1758272999753311700,2.836311767578125,-1.0515594826560466,0.9612263738453387,-2.1171020440876482
1758272999763269600,2.84626953125,-1.433749193292856,1.3897645056158303,-1.9873694564983249
1758272999773227800,2.856227783203125,0.2659165432751179,1.5770710380345583,-1.4404147886618972
1758272999783184600,2.8661845703125,1.1102034678697585,1.4023901784330606,-0.5407113895326853
1758272999793142800,2.876142822265625,0.6449649602115154,1.1176146209090947,0.7201259996578097
1758272999803099600,2.886099609375,0.12539284135196357,0.1629617802351713,2.2233058720514176
1758272999813057500,2.8960576171875,0.557280868072249,-0.1679687947422266,3.2133447911441326
1758272999823015700,2.906015625,1.0336112265765667,0.11727379577159881,3.7143604223653672
1758272999832972800,2.915972900390625,0.6235293734729289,0.81737612131536,3.3018311761096117
1758272999842930700,2.9259306640625,0.4608101698219776,1.1901619707256554,2.4629487409070134
1758272999852888800,2.935888916015625,0.22336510327160358,1.216744857224822,1.4101511678233742
1758272999862845700,2.945845703125,-0.2793939010182395,1.1738947265356778,0.5362012186318635
1758272999872803600,2.955803466796875,-0.4662351540127769,1.2172884625822304,0.16053367630541324
1758272999882761700,2.96576171875,-0.6339567325282841,1.2243740369290113,0.005129764103889465
1758272999892718800,2.97571875,-0.5474006580382585,1.0792150398880243,0.039923429587483406
1758272999902676700,2.9856767578125,-0.7505144889850169,1.006165001246333,0.128079267424345
1758272999912635000,2.995634765625,-1.6079666731663047,0.8490431792110205,-0.39890053387582297
1758272999922591700,3.005591796875,-1.9138854103535412,0.9684469727486371,-0.5662786692485213
1758272999932549600,3.015549560546875,-1.5706355981595814,0.5929214692413807,-0.2793585009112954
1758272999942507800,3.0255078125,-0.9596475802212953,-0.05445522828698158,0.742542706388235
1758272999952465000,3.03546484375,-0.7024979885086416,-1.155952827131748,1.5973708987414836
1758272999962422800,3.0454228515625,-1.362046623737365,-2.7290871102392673,1.0366232678741216
1758272999972380700,3.055380615234375,-2.583337161567807,-2.9591520034104586,1.518043971787393
1758272999982337800,3.065337890625,-3.499885604774952,-2.999720160642266,1.8536916384145616
1758272999992295700,3.075295654296875,-4.536498643516004,-3.2475743930041787,1.0010241312265395
1758273000002253800,3.08525390625,-5.042711258858442,-3.4163884063988923,0.2533215578570962
1758273000012211000,3.0952109375,-3.8532302561342715,-4.016434612953662,0.1578486750051379
1758273000022168600,3.10516845703125,-3.030660950089991,-5.1157273952305315,1.134135839860141
1758273000032126700,3.115126708984375,-3.7737417088776826,-5.605687671691179,2.620454886084795
1758273000042083800,3.125083740234375,-5.163853420495987,-5.323409191679954,3.5193232956945892
1758273000052041700,3.135041748046875,-6.4719596336007115,-5.117299759113788,3.209190301813185
1758273000061999900,3.144999755859375,-6.617913580411672,-4.708814819812774,2.754199924185872
1758273000071956700,3.154956787109375,-5.030526900067925,-4.491183876278996,2.320875142660737
1758273000081914600,3.16491455078125,-3.5842180849313734,-5.148004109457135,1.655983246707916
1758273000091872800,3.174872802734375,-3.13802213139534,-5.255984007182717,2.324157525332272
1758273000101830000,3.184829833984375,-3.8027158744275567,-4.652283954295516,2.61266846999228
1758273000111787800,3.194787841796875,-5.165226462414861,-4.2060944305002685,1.0793319442659617
1758273000121746000,3.204745849609375,-5.5202258952438825,-3.52696884201169,0.7613266095742582
1758273000131702800,3.214702880859375,-4.384654761883616,-2.886651999866962,1.3979028038859367
1758273000141660700,3.22466064453125,-1.2042857731461525,-0.8694447467267513,1.2061930680721997
1758273000151618800,3.234618896484375,0.8020423585832118,0.5534288322865962,0.9326137350842356
1758273000161575700,3.24457568359375,1.6941127786159513,-0.42388066135346886,-0.02943886045217514
1758273000171533800,3.254533935546875,3.0606606592953205,-2.9664012438863514,-0.7397907773315906
1758273000181491500,3.264491455078125,4.621072238951921,-4.962196291163563,-1.174196632091701
1758273000191448600,3.274448486328125,3.854579332655668,-5.221418889757991,-1.8557085311949253
1758273000201406500,3.284406494140625,1.4148165292859076,-5.191005046793818,-3.088826138810813
1758273000211364400,3.2943642578125,0.30247254225611686,-4.904696872875094,-4.043400653551519
1758273000221321500,3.304321533203125,1.001701445966214,-3.812020293867588,-3.8969399262621995
1758273000231279400,3.314279296875,0.5821897934772073,-3.5130554674714802,-3.725942431348562
1758273000241237500,3.324237548828125,0.4269140376999974,-4.2994390691518785,-4.350691117483377
1758273000251194400,3.3341943359375,0.29489217012971636,-4.548691477873921,-4.974636670541763
1758273000261152300,3.34415234375,1.1609601338997482,-3.5442993315190074,-4.483291661724448
1758273000271110400,3.3541103515625,1.9939248694911598,-1.5987433561384676,-2.3512506994411346
1758273000281067300,3.3640673828125,2.2551789739131927,-0.3943991308033466,-0.4659890337646007
1758273000291025400,3.374025390625,2.232574343395233,0.004125555497407913,-0.4708145542249083
1758273000300983600,3.383983642578125,2.870160299271345,0.6223848796129227,0.40938744109869
1758273000310940200,3.393940185546875,3.4558807510927316,0.9527677575796842,1.2778078132137656
1758273000320898300,3.403898193359375,3.719928285625577,1.6619249117165802,1.743985647548735
1758273000330856400,3.4138564453125,3.220115015931427,1.9699650249719618,0.862951293054223
1758273000340813300,3.423813232421875,4.3072585107311605,2.594120421388745,1.7430694094866512
1758273000350771500,3.433771484375,6.362441858783364,3.206882901653647,2.230629639068246
1758273000360729300,3.443729248046875,6.797714267244935,3.3517876316726207,1.8175351601451635
1758273000370687200,3.453687255859375,7.04996527326107,3.2426404437333343,1.4043489112854004
1758273000380644400,3.463644287109375,7.181292728826403,3.370360230195522,1.1502271429613231
1758273000390602200,3.473602294921875,7.355273331204057,3.4880075354546305,1.3114432485729455
1758273000400560400,3.483560302734375,7.498023513537645,3.499638936537504,1.2130392807051538
1758273000410517500,3.493517578125,6.997878527671098,3.9983758091717956,0.8112389337345958
1758273000420475100,3.50347509765625,6.622757513311505,4.62170761424601,0.6471744529545307
1758273000430433300,3.513433349609375,6.067329616162181,4.953057875940203,0.5401555092155933
1758273000440390400,3.523390380859375,5.442324909439683,4.825575405365228,0.5534332162007689
1758273000450348300,3.533348388671875,5.173863942378759,4.992437115648388,0.6127578040897846
1758273000460306400,3.543306396484375,4.474541953557729,5.888501573753357,0.8666557005301118
1758273000470263300,3.55326318359375,3.5803421202808616,6.820463859191537,0.9253773540899157
1758273000480221200,3.56322119140625,2.148986544126272,7.278971012768149,1.3608324256420135
1758273000490179300,3.573179443359375,0.6636392655432224,6.890712868937849,1.7327774403139948
1758273000500136400,3.583136474609375,-0.5017720025464892,5.397056611692905,0.8874348691865801
1758273000510094300,3.59309423828125,-1.8518059707984327,3.0287182915896174,-0.6458803214907646
1758273000520052500,3.603052490234375,-4.340916157922148,0.3032119624465704,-1.85599786953032
1758273000530009300,3.61300927734375,-8.360297930243611,-3.178718298920989,-3.150315503518283
1758273000539967200,3.62296728515625,-12.23054186502099,-7.2137716876268385,-4.248904813700914
1758273000549925400,3.63292529296875,-13.607018434518574,-10.589098015797138,-4.973642983329296
1758273000559882500,3.642882568359375,-11.449963150227068,-11.488396633517741,-4.555606079567968
1758273000569840400,3.65284033203125,-9.096354197221993,-9.477617367598414,-3.344270972432196
1758273000579798500,3.662798583984375,-6.970047686937451,-6.0837114266425365,-2.283728192049265
1758273000589755400,3.67275537109375,-4.484563581356406,-2.067636879172921,-1.3570707350209354
1758273000599713300,3.68271337890625,-2.313881338250637,1.3690695081114768,-1.4822764928355812
1758273000609671400,3.69267138671875,0.411802685546875,3.6557238167405126,-1.5982801225408911
1758273000619628500,3.702628662109375,2.1863252179175614,4.335576550459861,-2.2401085382923482
1758273000629586400,3.71258642578125,2.007147046896815,1.2797557324111462,-5.412616584396362
1758273000639544300,3.72254443359375,2.9786288572967052,-3.8890976883292194,-8.516802497163415
1758273000649501400,3.73250146484375,5.601299081343412,-6.4446595387429,-7.089802778130769
1758273000659459300,3.742459228515625,6.72226418172419,-3.443371690392494,-1.8614310004949568
1758273000669417500,3.75241748046875,6.8577627854943275,0.4986725752264261,-0.10713672489970921
1758273000679374300,3.762374267578125,6.980502445456385,2.790069109946489,-1.5268492095336317
1758273000689332200,3.772332275390625,6.693747112292051,5.111324776357412,-1.4522548640593886
1758273000699290400,3.782290283203125,5.656033711093664,6.25142536984086,-0.9732470665067434
1758273000709247200,3.792247314453125,2.892805554060638,5.260572504016757,-1.032049676348269
1758273000719205400,3.802205322265625,0.5856406645834445,2.6923031477212906,-0.5860869470462202
1758273000729163500,3.81216357421875,2.378570960304141,-0.5338976178646088,0.6662468176931142
1758273000739120000,3.8221201171875,5.764653075766563,-2.7620956458717583,3.1171608374133704
1758273000749078300,3.832078369140625,6.568729570525885,-4.602233098447322,4.075668015427887
1758273000759036400,3.842036376953125,5.458224489361047,-6.2121770630359645,3.4823122464224694
1758273000768993300,3.8519931640625,4.556741805599629,-6.53580052987039,3.7363951440408822
1758273000778951400,3.861951416015625,3.46175928773731,-5.543325615802407,3.1457007031992075
1758273000788909300,3.871909423828125,2.74369460452348,-3.796514681699872,2.6216008412495255
1758273000798866200,3.8818662109375,1.669182335498929,-1.8941566275328396,1.9190417702034115
1758273000808824300,3.89182421875,1.1343287320837379,-0.4080243360519409,1.2701634359404443
1758273000818782200,3.9017822265625,0.7024655475437641,0.5152478624522686,0.2601078569963574
1758273000828739300,3.9117392578125,-0.33939430580958724,1.071997948116064,-0.6806053056523204
1758273000838697500,3.921697509765625,-0.5530778268918395,1.065809614869952,-0.8898965831249952
1758273000848655400,3.9316552734375,-0.009093845429271458,0.9791086520165204,-0.8746846932068466
1758273000858612200,3.9416123046875,0.08458981591835618,0.9463011919140815,-0.8853013642892241
1758273000868570400,3.9515703125,0.23106837112531065,1.0980068341195584,-0.10250994188189506
1758273000878528300,3.9615283203125,0.26079846960902214,1.2508411880940198,0.25481939519941804
1758273000888485400,3.9714853515625,-0.10039280359745024,1.4178332467585801,0.17966916940808295
1758273000898443500,3.981443603515625,-0.5896130753457546,1.8739976366013287,0.0808323630809784
1758273000908401200,3.991401123046875,-0.6534884584069252,2.313061838561296,0.5605401255965232
1758273000918359300,4.001359375,0.4011480205416679,2.493565120705962,0.5930898115456104
1758273000928316400,4.01131640625,0.7397194656610488,2.518554016011953,0.8850938590183853
1758273000938274300,4.0212744140625,0.8615122001618146,2.567189744365215,1.216890110914409
1758273000948232400,4.031232421875,0.9906050285428761,2.4701667094618083,1.290942312335968
1758273000958189300,4.041189208984375,0.30504034691751003,2.0377029286801815,1.0949500768974423
1758273000968147200,4.051147216796875,-0.36375790882408615,1.5345827263951302,0.7880208474934101
1758273000978105300,4.061105224609375,-0.5214402873516083,1.1329711799949407,0.5575467889994382
1758273000988062500,4.0710625,-0.5808399863034487,1.1695447146326303,0.47714697211682794
1758273000998020400,4.081020263671875,-0.8313777586609125,1.2487526913821696,0.5055991596192121
1758273001007978500,4.090978515625,-1.4950491729080677,1.1611124018520116,0.8556167123824358
1758273001017935400,4.100935302734375,-2.7706910402595994,0.8388672376334667,1.0138836127996445
1758273001027893200,4.110893310546875,-3.824448398286104,0.36129648714661594,1.2370599155008792
1758273001037851400,4.120851318359375,-3.5772727958381174,-0.1688666203647852,1.5554586334243417
1758273001047808500,4.13080859375,-2.221914271562546,-0.7636135514676571,1.8509350331827996
1758273001057766400,4.140766357421875,-1.145437862858176,-1.6878016957730053,2.471261518961191
1758273001067724500,4.150724609375,-1.2258353416532277,-2.8798201080203056,2.496847211116552
1758273001077681400,4.160681396484375,-1.695620552830398,-3.822697170704603,2.4519433627679943
1758273001087639300,4.170639404296875,-3.0958038688689467,-4.828004093816876,2.5778067077085374
1758273001097597400,4.180597412109375,-5.024098912847042,-5.083675721931457,1.841530952760577
1758273001107554600,4.190554443359375,-5.508422644725441,-4.076225941571593,0.9738178521320223
1758273001117512400,4.200512451171875,-4.910265028396249,-3.115955261015892,0.37100685703903435
1758273001127470300,4.21047021484375,-4.515685572589933,-2.9713550669014452,0.7361322548240423
1758273001137427500,4.220427490234375,-4.167327769732475,-4.071452151298523,1.5456979946494103
1758273001147385300,4.23038525390625,-4.50708520976603,-5.030017196980118,1.4359721300393342
1758273001157343500,4.240343505859375,-4.399689833930134,-5.253225063863396,0.8787059115469456
1758273001167300400,4.25030029296875,-4.503018106457591,-5.530603496873378,1.270446052274108
1758273001177258200,4.26025830078125,-3.449679558365047,-5.733912485066056,2.456947454665601
1758273001187216600,4.270216552734375,-1.8467462031908333,-5.838536058101058,3.13708017437011
1758273001197174800,4.2801748046875,-3.7822289667159317,-6.038156128647923,1.7304893293768167
1758273001207132000,4.2901318359375,-6.933230991193652,-4.693312714776397,0.4972928113058209
1758273001217089800,4.30008984375,-7.401240717130899,-2.7007980043441058,0.7624620433449745
1758273001227047700,4.310047607421875,-6.0150166606009,-1.4035995542228221,1.3414973183140158
1758273001237004800,4.3200048828125,-2.5225112292051315,-0.6322983708620071,1.7183783280834555
1758273001246962700,4.329962646484375,1.5410101290941238,-0.5482417850375175,2.172864555580914
1758273001256920800,4.3399208984375,4.033718925231695,-2.511110714268684,1.9809975833788513
1758273001266878000,4.3498779296875,6.290726283615827,-5.030206582072377,0.9882119959264993
1758273001276835600,4.359835693359375,5.117103359758854,-6.027837563729286,-0.7480971256449818
1758273001286793700,4.369793701171875,1.7350548837266861,-5.900799329790472,-3.3878388960018753
1758273001296750800,4.379750732421875,0.38970995007380843,-5.261083376148343,-4.756266014556586
1758273001306708700,4.389708740234375,1.0897238666817546,-3.8587136559814215,-4.549320715688169
1758273001316667000,4.3996669921875,1.795624357110262,-2.6459242583841083,-4.402757404807209
1758273001326623700,4.409623779296875,1.8825471460208296,-2.651447405719757,-5.010509947955608
1758273001336581600,4.41958154296875,1.0001751131817698,-2.6679554729282855,-5.558377054461836
1758273001346539800,4.429539794921875,0.5455170362487435,-2.2042121722638606,-5.027763865095377
1758273001356497000,4.439496826171875,1.1338555616140364,-1.547044733083248,-3.8887747399851675
1758273001366454800,4.449454833984375,2.4757047621056434,-0.7939993373811245,-2.371394200542569
1758273001376413000,4.459412841796875,3.169970928841829,0.07114625084698199,-0.7816358226314186
1758273001386369800,4.469369873046875,3.2628309988468884,0.6958686334967613,-0.8828262063473462
1758273001396327700,4.47932763671875,3.30978856485486,1.1706044528186321,-0.3438689670056104
1758273001406285800,4.489285888671875,3.737153268931806,2.1116069538027045,0.5517199825420975
1758273001416243000,4.499242919921875,5.093064897045493,2.273472755494714,3.2150843282878396
1758273001426200800,4.509200927734375,4.857674132676422,1.2826602216809988,2.380107960613072
1758273001436159000,4.519158935546875,4.5918607575148345,2.3573896405875683,-0.46107583502084015
1758273001446116600,4.52911669921875,4.831796471837163,4.257065323802829,0.3620481822967529
1758273001456073700,4.53907373046875,6.476527672168612,3.390556630527973,1.9123221065595746
1758273001466031900,4.549031982421875,6.887348945462703,2.5514970851927994,0.3557403143242001
1758273001475989800,4.55898974609375,7.396305598816276,3.350069721838832,0.32561814778298137
1758273001485947000,4.56894677734375,7.37464438662827,3.99601726334691,1.0221046209171414
1758273001495904800,4.57890478515625,7.228871057081222,4.046370901533961,1.3287351596355437
1758273001505862700,4.588862548828125,7.2038862534284585,4.172119095662236,1.4964049714311956
1758273001515819800,4.59881982421875,6.880495426306128,4.907582657444477,2.020965144369006
1758273001525778000,4.60877783203125,5.73838115491271,4.128125640156865,0.7639338694632053
1758273001535735800,4.61873583984375,4.794733692377806,4.171097935920954,0.3926552097454667
1758273001545692700,4.628692626953125,3.626736791709065,5.80690114890933,0.81161332000494
1758273001555650800,4.63865087890625,2.6108769104003904,6.8958958245337,0.7731991259366273
1758273001565608700,4.648608642578125,1.4294637710586189,7.364830848622321,0.6687292821586132
1758273001575565800,4.65856591796875,-0.007409107212722301,6.993683414068817,0.874879923518002
1758273001585524000,4.66852392578125,-1.6319596893027424,5.652881969064474,0.9902475934073328
1758273001595481900,4.67848193359375,-2.9919962883919475,3.5998844406187533,-0.33935353540778157
1758273001605438700,4.688438720703125,-5.240203669726848,0.6376473306745291,-1.099435990139842
1758273001615396900,4.69839697265625,-8.769264515581726,-2.8687901799619198,-1.5180343271762131
1758273001625354800,4.708354736328125,-11.950634205794334,-6.6012886088252065,-2.028265238249302
1758273001635311900,4.718311767578125,-12.668883013403414,-10.274274526011943,-3.046956543591618
1758273001645269800,4.728269775390625,-10.287346773552894,-12.16647709686756,-4.336545687752962
1758273001655227600,4.7382275390625,-7.868163816875219,-10.51928505938053,-4.25287634768039
1758273001665185800,4.748185791015625,-6.592450637853145,-6.336005102756619,-2.9663205798655747
1758273001675142700,4.758142578125,-4.958445414197445,-2.3401976827681064,-2.375342353646457
1758273001685100800,4.768100830078125,-3.0072277597934005,1.0977975752830504,-2.340045414815843
1758273001695059000,4.778058837890625,-1.0123895748496055,3.5029818172246214,-2.422228900244832
1758273001705015600,4.788015625,0.4019280650034547,2.7261037105143067,-4.268556731893122
1758273001714973700,4.7979736328125,0.8926806608855724,-1.7524124073714016,-7.7017101028710595
1758273001724931800,4.807931884765625,2.3111007676213977,-6.087408527594804,-8.865483248364924
1758273001734888700,4.817888671875,4.229616760385036,-6.276239493101835,-4.609017059499025
1758273001744846800,4.827846923828125,6.575178016012907,-2.2657459606349466,1.271527710030973
1758273001754804700,4.8378046875,7.359626265716552,1.9116583819538353,1.57292736235857
1758273001764761600,4.84776171875,8.59726719597578,4.76868973506093,-0.10111322682648896
1758273001774719700,4.8577197265625,8.633029414230585,6.893294117602705,0.07656564554721117
1758273001784677600,4.867677734375,5.125636794826388,7.47235131214261,-0.7325640409484505
1758273001794634800,4.877634765625,1.0397545516371727,6.293970380103588,-1.2920830068036913
1758273001804593000,4.887593017578125,-2.0500340024650097,3.433745199391246,-0.1680512123286724
1758273001814550800,4.89755078125,3.435995608666539,-0.9856219794332981,1.1466823099613188
1758273001824507600,4.907507568359375,9.84519804958105,-4.107164685192704,2.206977253063023
1758273001834465800,4.9174658203125,8.418242169690132,-5.366756165975332,1.5667451665922998
1758273001844423700,4.927423583984375,5.571495479232072,-5.717552301895618,1.451201847875118
1758273001854380800,4.937380859375,4.090410242007673,-6.058784490656852,2.1839564429596066
1758273001864339000,4.9473388671875,3.312319544637203,-5.657518396693468,2.1639763157263396
1758273001874296600,4.957296630859375,2.8896099728897213,-3.8723295088797807,2.1357146823599935
1758273001884254700,4.967254638671875,3.0564816200450062,-2.1498832007050512,1.3525272463724016
1758273001894211800,4.9772119140625,2.3107626217082142,-0.7897410954147577,0.8753025328442454
1758273001904169700,4.987169677734375,1.3261068569585681,0.07934417034983635,0.4187669716015458
1758273001914128000,4.9971279296875,0.3989221611857414,0.106577629712224,-0.4567150094628334
1758273001924084700,5.007084716796875,0.3640843642994761,0.3914017025530338,-0.08667290580272674
1758273001934042600,5.017042724609375,0.7917128338791429,0.9909738618552684,0.28888971484452486
1758273001944000800,5.027000732421875,0.7423558055140078,1.2244178760707378,-0.06850041251331568
1758273001953958000,5.0369580078125,0.7273660339139402,1.5932915204733609,0.04123129731565714
1758273001963915800,5.046915771484375,0.6114052204370498,1.9019477198004722,0.5898442537531257
1758273001973874000,5.0568740234375,0.5644750538926572,2.0920529430270194,1.0433528683900832
1758273001983830800,5.066830810546875,0.5532874875871464,2.039656400835514,1.0985285199061035
1758273001993788700,5.07678857421875,1.0279413642466069,2.1623685882687567,0.9683417588084936
1758273002003746800,5.086746826171875,1.1064040755867957,2.3393653235971925,1.345749130539596
1758273002013704000,5.096703857421875,1.1370300999969243,2.24854465046525,1.366903854510188
1758273002023661800,5.106661865234375,0.7880904055982828,2.3913170446306466,1.2641522128269076
1758273002033620000,5.116619873046875,0.8454378481954336,2.4592086775958535,0.8827645392879844
1758273002043577600,5.12657763671875,1.0631927103698253,2.743473947510123,0.5916466269999742
1758273002053534700,5.13653466796875,0.9754921420197933,2.801953024485707,0.3457406060963869
1758273002063492900,5.146492919921875,-0.17041618789434432,1.7642513137251137,0.01198182195574045
1758273002073450800,5.15645068359375,-1.9868045160919428,0.7936953859984874,-0.20669979967474936
1758273002083408000,5.166407958984375,-3.366352163597941,0.4377390908360481,0.2832207292973995
1758273002093365800,5.17636572265625,-3.6883424762725827,0.6431804148823023,1.4482079267561434
1758273002103323600,5.18632373046875,-3.057811115083098,0.9191314454376697,2.6716253936126826
1758273002113280800,5.19628076171875,-2.0228952356487513,0.6844394769877195,3.3854882412225007
1758273002123239000,5.206239013671875,-1.422172298876196,-0.36369244237244125,3.1004855969443916
1758273002133196800,5.21619677734375,-1.2517040885336697,-1.7880588902920485,2.4941551955536005
1758273002143153700,5.226153564453125,-1.4544798466324806,-3.384073698249459,1.9748288316160438
1758273002153111800,5.23611181640625,-2.2700914424933494,-4.744508649006486,1.8891665641605853
1758273002163069700,5.246069580078125,-4.165840161523223,-5.525020728304982,1.9629384873360394
1758273002173026800,5.25602685546875,-6.283703837633133,-6.079053956225514,1.285442545875907
1758273002182984700,5.265984619140625,-7.273291213566065,-5.739118237015605,-0.3080126407265663
1758273002192942800,5.27594287109375,-7.165841477194428,-4.644768756359816,-0.9164496590077876
1758273002202900000,5.28589990234375,-6.102427233028411,-4.619871630990505,0.19524433968067167
1758273002212857900,5.29585791015625,-3.5694448786914346,-5.401792408043145,1.7465423462942242
1758273002222816000,5.30581591796875,-3.103223205214739,-5.337952096295356,2.6155358421221373
1758273002232774100,5.315774169921875,-4.224348464593291,-4.944088387542963,3.0820892317712305
1758273002242730800,5.325730712890625,-3.5273704085499045,-4.285996234732866,3.2738530358597635
1758273002252689000,5.33568896484375,-3.0400410651147363,-4.178021597704291,3.587290624244511
1758273002262647000,5.34564697265625,-4.061467932900786,-5.413569355076551,3.4638217732250687
1758273002272604000,5.35560400390625,-4.265903879296779,-6.845627526542544,3.3967166144624352
1758273002282562000,5.36556201171875,-3.903451792374253,-6.02592734619379,3.5907656068786977
1758273002292519700,5.375519775390625,-4.8885675758510825,-4.788603226798773,2.096694046831131
1758273002302476800,5.385476806640625,-6.3006520498245955,-2.92516848526597,0.9308902722924948
1758273002312435000,5.39543505859375,-5.263343137773871,-0.7706845127671956,0.13216273734569547
1758273002322392800,5.405392822265625,-1.0783826807171106,0.04849193596839905,0.021503099016845224
1758273002332350000,5.415349853515625,1.5789339092969894,-0.3043693157881498,0.2342725739941001
1758273002342307800,5.425307861328125,3.6204958514928816,-2.494130353373289,-0.45105216139554977
1758273002352265700,5.435265625,6.600508856624365,-4.8340293454557655,-0.5682628288030624
1758273002362222800,5.445222900390625,6.9368450900375835,-5.513895523178577,-1.3001903254136442
1758273002372181000,5.455180908203125,4.164199408578872,-5.279184850028157,-3.1284833186775445
1758273002382139000,5.465138916015625,1.249467123261839,-4.8530122783452265,-4.6842158006072045
1758273002392097000,5.475096923828125,0.552380346146971,-3.5370793171375987,-5.788239118537306
1758273002402054000,5.485053955078125,0.5475358287252485,-2.1379519398927687,-6.251663270249963
1758273002412011800,5.49501171875,0.6784793995395303,-2.7614000648230315,-6.663251436263322
1758273002421970000,5.504969970703125,1.5714730718970298,-3.4899721135258672,-5.866014432135224
1758273002431927000,5.514927001953125,2.171667162489891,-3.230212923836708,-4.344351685328781
1758273002441885000,5.524885009765625,2.51373843242377,-2.463606035771966,-3.2808795734956857
1758273002451842800,5.5348427734375,3.0370377916455267,-1.1925345450758933,-1.4429083590433
1758273002461800000,5.544800048828125,2.887776619982719,0.19106793077886103,-0.6059998542621732
1758273002471757800,5.5547578125,3.017829525567591,1.5804928291767835,0.17589257347881793
1758273002481716000,5.564716064453125,3.67749375,2.082040667578578,1.6369181884929538
1758273002491673000,5.574673095703125,4.604294707152247,2.0019711055636407,2.155508639371395
1758273002501630700,5.584630615234375,5.442374593800306,1.2282470789700746,2.5350010006830095
1758273002511588900,5.5945888671875,4.516616131438314,0.6789122379988431,2.0396996554553506
1758273002521546000,5.6045458984375,4.100119735117256,1.5203706611692904,1.4893354714363813
1758273002531503900,5.61450390625,5.327703674003482,2.521454998150468,1.0253381960108876
1758273002541462000,5.6244619140625,5.732499695658683,3.4643560262322426,1.481144858457148
1758273002551419100,5.634419189453125,5.781012674415111,4.461785932359099,0.8879626924529671
1758273002561376800,5.644376708984375,6.6043754689246414,4.484547799265385,0.9273702814728021
1758273002571335000,5.6543349609375,6.878261383643746,4.095338638320565,1.2012857145473361
1758273002581292800,5.664292724609375,7.186472177290916,3.051464376404881,1.393652160704136
1758273002591250000,5.67425,7.4914523184537885,3.1489497681230305,1.2433879494786262
1758273002601208000,5.6842080078125,5.781389106512069,4.328755764529109,0.6631970747336745
1758273002611166000,5.694166015625,5.124692207452655,5.8167900902390475,0.36165333776026964
1758273002621122800,5.704122802734375,4.831152328714728,7.234678282055258,0.35812136424183844
1758273002631081000,5.7140810546875,4.68672281499207,8.380472118744253,0.15885142230689525
1758273002641038800,5.724038818359375,3.7895243844211097,8.879880607029795,0.21756109316796063
1758273002650996000,5.733995849609375,2.099664587074518,8.467057930785417,0.48502895753830666
1758273002660954000,5.7439541015625,0.3729717273712158,7.2850313357204195,0.2842825133100152
1758273002670911700,5.753911865234375,-1.1984610125154256,5.519715023112297,-0.4366419432491064
1758273002680868900,5.763868896484375,-2.7502076396793127,3.1928929547458886,-1.3766986878156662
1758273002690827000,5.773826904296875,-4.926934423646331,0.29010698167979715,-2.530783675248921
1758273002700785000,5.783784912109375,-8.569770117241143,-3.5893110241562125,-3.3686329680114984
1758273002710742000,5.793741943359375,-12.63664546214342,-8.741258902803063,-3.475279571306705
1758273002720700000,5.803699951171875,-14.11691792168021,-14.168452878606319,-4.603049675527215
1758273002730657800,5.81365771484375,-11.902339838224648,-17.410917381250858,-5.64867458050251
1758273002740615000,5.823614990234375,-8.020989403021336,-13.934376411706209,-4.472581174878775
1758273002750572800,5.83357275390625,-6.461116168025136,-6.6499348585724825,-2.3263889376461506
1758273002760531000,5.843531005859375,-4.316908090347051,-0.44370355219841,-1.953140439160168
1758273002770489000,5.853489013671875,-1.4591647895783184,4.309163175308704,-2.318693122446537
1758273002780445700,5.86344580078125,1.072033603951335,5.917143146347999,-3.4112934213474393
1758273002790403800,5.87340380859375,3.139524937173724,2.950424507075548,-5.902924066859484
1758273002800362000,5.883362060546875,5.77579289394021,-1.9939163939237594,-6.781015061378478
1758273002810318800,5.89331884765625,8.173096027243137,-4.280988635703921,-3.870392987859249
1758273002820277000,5.903277099609375,8.701114523941278,-2.475016487580538,1.079937508943677
1758273002830235000,5.91323486328125,8.022218068033457,-0.04251929129958153,3.090516868376732
1758273002840191700,5.923191650390625,6.495459751653671,0.8641869723290204,0.8221782609000802
1758273002850150000,5.93314990234375,6.2068579138398166,2.099302768024802,-1.4457047117635606
1758273002860107800,5.943107666015625,5.805846086898446,3.9148037919938563,-1.5063681470409034
1758273002870065000,5.95306494140625,3.4493145244449375,4.019501599308848,-1.8970251687064765
1758273002880023000,5.96302294921875,-0.5641173995614052,2.0969950756043194,-1.4218909977167844
1758273002889980700,5.972980712890625,-0.560175091676414,-0.7033166114151478,0.07454203076511622
1758273002899937800,5.982937744140625,4.458270617714524,-2.6682483183950185,1.8800094442367552
1758273002909896000,5.99289599609375,9.174389038538932,-2.1158535053312777,5.5037832944869995
1758273002919853800,6.002853759765625,7.406991243481635,-3.704246732369065,3.773451201498508
1758273002929811000,6.01281103515625,4.265954148179293,-4.625269690641761,1.9707266569942234
1758273002939768800,6.022768798828125,3.086561993271112,-3.752363405284285,2.4969211531355975
1758273002949726700,6.032726806640625,2.949766335427761,-2.58045897578299,2.406437164612114
1758273002959684900,6.042684814453125,3.518451189035177,-1.6081401300370692,1.6156363310113548
1758273002969642000,6.05264208984375,3.545393264235556,-0.9266583338111638,1.0933677761420606
1758273002979600000,6.062599853515625,2.573497904598713,-0.689668025290966,0.9606769232690334
1758273002989558000,6.07255810546875,0.7918706547893584,-0.620625468724966,0.4946195004433393
1758273002999515000,6.082514892578125,-0.36689503780603405,0.22146131547689438,0.16325374891906977
1758273003009472800,6.09247265625,0.25698490267023444,0.3820873462408781,0.36971681722849603
1758273003019431000,6.102430908203125,0.4373265645124018,0.5541238288134336,0.26076544412225483
1758273003029388000,6.112387939453125,-0.4527544352687895,1.5600041678994894,-0.023200550584495067
1758273003039346000,6.122345947265625,-0.12514964371323584,1.8416998795866966,0.3545665943697095
1758273003049304000,6.132303955078125,-0.4314461281716823,1.8771049549669026,-0.028586335276067257
1758273003059261000,6.142260986328125,-0.5228887325942516,2.1225936272412538,0.44609658481478687
1758273003069218800,6.15221875,0.3191021534850821,1.9607132125020026,1.459290754045546
1758273003079177000,6.162177001953125,0.367048182541132,1.8147288705527782,1.693084312351048
1758273003089134000,6.172134033203125,0.22142858225107193,1.7283055555969475,1.2241811447054147
1758273003099092000,6.182092041015625,0.19799159256219862,1.9526234295487404,0.8979641542464494
1758273003109049900,6.1920498046875,0.550264194243215,2.3479759155541657,1.016965212202072
1758273003119007700,6.2020078125,0.8897948763161897,2.3128712844252584,0.5285492425739765
1758273003128964900,6.21196484375,0.4936223791647702,1.981300073456764,-0.3394523196071386
1758273003138923000,6.221923095703125,-0.5965875174682587,1.8386884228110312,-0.6641542293280362
1758273003148881000,6.231880859375,-1.7588152601510285,1.7298042697221039,-0.28335195446163414
1758273003158837800,6.241837646484375,-2.829223308727145,1.4219547106027601,0.27416064000725743
1758273003168796000,6.2517958984375,-3.819156137096882,1.0085241315931082,0.8003589355409145
1758273003178753800,6.26175390625,-3.5501591634631153,0.6314040523707867,1.626850383464992
1758273003188710400,6.27171044921875,-1.7974422201871871,0.11795125664174556,2.3196824257448316
1758273003198668500,6.28166845703125,0.14207330598533152,-0.7260650343179702,2.923671524706483
1758273003208626400,6.29162646484375,1.2548285041645169,-2.1701351306170222,3.016857757925987
1758273003218583600,6.30158349609375,0.7278375969484449,-3.894133928930759,2.7142598357245324
1758273003228541400,6.31154150390625,-1.404004627892375,-4.46478745226264,2.447818684053421
1758273003238499300,6.321499267578125,-5.038893161875009,-4.480536225536466,1.8878052126795053
1758273003248456400,6.33145654296875,-7.75531017563343,-4.075381891962886,0.6419952967509627
1758273003258414600,6.34141455078125,-7.293792149803042,-3.454039799401164,0.2866054032996297
1758273003268372500,6.35137255859375,-5.5353720264494415,-3.460335100153088,1.3312553257629274
1758273003278329300,6.361329345703125,-4.363336664044857,-4.447832225808501,2.963765050163865
1758273003288287500,6.37128759765625,-3.6093566178411245,-5.912688505026698,5.292109798052906
1758273003298245400,6.381245361328125,-3.734760528576374,-6.7174097274303435,6.096843295416235
1758273003308203500,6.39120361328125,-3.400696331748366,-7.039889284926653,6.01971738563776
1758273003318160600,6.40116064453125,-2.846551460146904,-7.168592237207293,5.600216546803712
1758273003328118500,6.411118408203125,-2.248577529821545,-6.839837252703308,4.7593327086508275
1758273003338076700,6.42107666015625,-3.1775071695655583,-5.676017345458269,3.286355082297325
1758273003348033500,6.431033447265625,-4.582184582152962,-4.915207745495438,1.2096721423596144
1758273003357991400,6.440991455078125,-4.6133740856647485,-4.0643940494805575,0.10640490349382162
1758273003367949600,6.450949462890625,-4.744149752566218,-3.1229683546483513,0.5557838709801435
1758273003377906700,6.46090673828125,-5.05873475742042,-1.6659212878763674,-0.7143193592056631
1758273003387864600,6.470864501953125,-3.572196807748079,0.7109907993048429,-0.6351245341986418
1758273003397822500,6.480822509765625,-0.31056345772054045,0.9926707289010286,-0.8168550200507044
1758273003407779300,6.490779296875,4.0828117497026915,-1.1239818178534506,-1.716398844704032
1758273003417737500,6.500737548828125,6.977345442730188,-4.241944327038526,-2.529000591224432
1758273003427695600,6.510695556640625,6.832033300954103,-5.452548197290301,-2.797923330578208
1758273003437652500,6.520652587890625,3.720511346210539,-4.924166712498665,-3.6667429311439395
1758273003447610400,6.5306103515625,1.2318144160628317,-3.7403409590572116,-5.062137843862176
1758273003457568500,6.540568603515625,0.07827420303076506,-2.6541899824261663,-6.056888886168599
1758273003467525400,6.550525390625,-0.2034089414358139,-1.5444254904955625,-6.140629830172657
1758273003477483500,6.5604833984375,-0.021195932763814925,-1.3588123179912566,-5.750713982263207
1758273003487441700,6.570441650390625,0.5733481692433356,-2.432840310630202,-5.488084205573797
1758273003497398300,6.580398193359375,1.4085317499279975,-3.0064252112388608,-4.6161780371695755
1758273003507356400,6.5903564453125,1.5664152039855719,-2.3969594344317913,-3.2544676596492526
1758273003517314600,6.600314453125,2.0136460535272955,-1.594410295370221,-1.9034563707977532
1758273003527271400,6.610271484375,2.772463602890074,-0.05038286428153515,-0.03052373307943344
1758273003537229600,6.6202294921875,3.1927865717619657,1.4321516949683426,1.645371544061601
1758273003547187500,6.6301875,3.1127070728749033,2.008870801949501,2.3562863555207847
1758273003557145600,6.6401455078125,4.075141653466225,2.0225772557407615,3.346419967159629
1758273003567102500,6.6501025390625,4.9383355231046675,0.9031523705393075,3.830075005996227
1758273003577060400,6.660060302734375,4.7856996143117545,0.06742050832211971,2.778845705142617
1758273003587018500,6.6700185546875,4.468391906495392,1.1250818880498408,1.6356676039099691
1758273003596975600,6.6799755859375,4.979504568839073,2.797233010226488,1.059819434544444
1758273003606933500,6.68993359375,5.776542251002788,3.20385683183074,0.9784572023704647
1758273003616891400,6.699891357421875,6.222450619769096,3.6962662550091743,0.6855845553696155
1758273003626848500,6.7098486328125,7.147257188233732,4.182463964065909,0.8730942091450095
1758273003636806400,6.719806396484375,7.0128761903166765,3.3465520691066977,-0.3809136262863874
1758273003646764500,6.7297646484375,7.493330387285352,2.6703473365008827,0.45332449024170635
1758273003656721700,6.7397216796875,6.812619575431943,2.647597744554281,0.36991321658343074
1758273003666679300,6.74967919921875,5.678397518593073,3.2948896864086388,-0.3183350050374865
1758273003676637400,6.759637451171875,4.722240118575096,4.211848463982343,-0.3808241944372654
1758273003686594600,6.769594482421875,4.421746182915568,5.264290063235164,0.01910422118157148
1758273003696552400,6.779552490234375,4.407907042655348,6.424784040927887,0.3247778975665569
1758273003706510600,6.789510498046875,3.8112434642761945,7.466900060999393,0.47913434654176235
1758273003716467500,6.799467529296875,2.943686138731241,8.112956323578953,0.27358020977079867
1758273003726425300,6.80942529296875,1.8311539356529711,8.036001094192265,-0.2683782572135329
1758273003736383500,6.819383544921875,0.34839082834422586,7.015172776821255,-0.7467468800798058
1758273003746341400,6.82934130859375,-1.650136858767271,5.355343376079201,-0.8743325187683105
1758273003756298500,6.839298583984375,-4.147686665195226,2.915145688423514,-1.0545412018805742
1758273003766256600,6.849256591796875,-7.402028652638196,-0.3541957152307033,-1.8157143744587898
1758273003776214500,6.859214599609375,-11.635576907253265,-4.937858553242683,-2.548580613224208
1758273003786171400,6.86917138671875,-13.922380853486061,-10.092041643595694,-3.962768489217758
1758273003796129500,6.879129638671875,-13.120490470594167,-14.195572356200218,-5.562134945690632
1758273003806087400,6.88908740234375,-9.070031422963737,-14.555705644786357,-5.546795337739587
1758273003816044500,6.89904443359375,-7.820689533516764,-10.110264698028564,-3.746103175845742
1758273003826002700,6.909002685546875,-7.429766554391383,-4.347744542637467,-2.480404318098724
1758273003835960300,6.918960205078125,-4.412774064169824,1.0400269388377665,-1.9412486335754393
1758273003845917400,6.92891748046875,-0.3978536551713943,5.216400769335031,-0.838819891360402
1758273003855875600,6.93887548828125,4.012541112646461,6.884326382771134,-0.6325964770257473
1758273003865833500,6.94883349609375,6.080137075287103,5.22729450379312,-3.2817873359903693
1758273003875790600,6.95879052734375,6.655557959151268,-0.5246142412126064,-7.424871768087148
1758273003885748500,6.96874853515625,7.42790777478218,-5.615940185636282,-8.098747180962562
1758273003895706400,6.978706298828125,7.534674205064773,-5.639839532139897,-4.147681989020109
1758273003905663500,6.98866357421875,6.252347745382785,-2.7275013023525476,-0.2481640289634466
1758273003915621600,6.99862158203125,5.081860196942091,-1.3212544484913349,-0.977268577107787
1758273003925579500,7.00857958984375,5.624380097201466,0.6683762309372425,-2.269134141768515
1758273003935536400,7.018536376953125,6.53942047393322,2.7541543314784764,-0.9711372347459196
1758273003945494500,7.02849462890625,5.159979209411144,3.3606144967287777,-0.4615843690648675
1758273003955452400,7.038452392578125,1.9875188018411396,2.9010774155825376,-0.913737477439642
1758273003965409500,7.048409423828125,-0.6789291891336441,1.5783488028854131,-0.34101796148866415
1758273003975367400,7.058367431640625,2.5330928289741275,-1.0352817901372908,0.19015140045583248
1758273003985325600,7.06832568359375,6.6936413138300175,-2.427503041255474,1.4971800474569201
1758273003995282400,7.078282470703125,7.449264451065659,-2.719711963650584,3.194535168994963
1758273004005240300,7.088240234375,6.272906549286842,-3.689308106434345,3.029784459516406
1758273004015198500,7.098198486328125,4.406370626868307,-4.506950769731402,2.1813547360286116
1758273004025155600,7.108155517578125,3.0569790481731296,-4.200542057070136,2.6991955375835297
1758273004035113500,7.118113525390625,2.1856106399074196,-3.325689898341894,2.251866196103394
1758273004045071600,7.128071533203125,2.0928166208758947,-2.0655963132560253,2.018350285695493
1758273004055029500,7.138029541015625,1.9838509269833564,-1.1230261245638131,1.5541051729887723
1758273004074322400,7.157322509765625,1.782837356251478,-0.5204308180481195,0.7838987991273403
1758273004084280600,7.167280517578125,0.2908192216023803,-0.5900409453690052,0.7327732997849583
1758273004094237400,7.177237548828125,-0.18984803359508512,-0.0593693038135767,1.0385197491452098
1758273004104195600,7.187195556640625,-0.42826735200509425,0.3690776425421238,1.0055106289908289
1758273004114153500,7.197153564453125,-1.0524268400751053,0.559291002318263,0.967197557209432
1758273004124110300,7.2071103515625,-1.0797346798479557,1.2788035462528466,-0.04489508052021265
1758273004134068500,7.217068359375,-1.4020435569524765,2.7139947550475596,0.5712506124421953
1758273004144026600,7.227026611328125,-0.6337596755862236,3.1266607794255017,1.0900728262498973
1758273004153983500,7.2369833984375,0.00655011576320976,3.109735363587737,1.1539885413214563
1758273004163941400,7.24694140625,0.3431517951795831,2.744183557084203,1.67811382997334
1758273004173899500,7.2568994140625,0.8497954588830471,1.9406459915071725,1.3346622115969657
1758273004183856400,7.2668564453125,1.4345073181837795,1.5820587633192538,1.076727314725518
1758273004193814000,7.27681396484375,1.7591776637226342,2.051053408640623,1.522563202777505
1758273004203772200,7.286772216796875,1.8728759390950203,2.0614011996537447,1.7506357530876993
1758273004213730000,7.29672998046875,0.8365590337563306,1.694266507872939,0.8453644906982779
1758273004223687000,7.30668701171875,-0.9637895753968506,1.5348054292351005,0.44488545545935626
1758273004233645000,7.31664501953125,-2.7668606683164834,1.5486404778420924,0.6742930537655949
1758273004243603000,7.32660302734375,-4.37043626691699,1.4362082768827675,0.7366048407718538
1758273004253560000,7.33656005859375,-5.07255460845828,1.0891659405380487,1.0637392383366822
1758273004263518200,7.346518310546875,-4.016514692452549,0.6391460447996854,1.5856816299915313
1758273004273476000,7.35647607421875,-2.0072591289691624,0.09498129994273186,2.2249717594370244
1758273004283433000,7.366432861328125,-0.6883833923079073,-0.7074965274482965,2.7942066481426355
1758273004293391000,7.37639111328125,-0.24116774033531546,-1.7853005314946173,2.7432684880658984
1758273004303349000,7.386348876953125,-0.22458733854293822,-2.8807915834009648,2.795779888808727
1758273004313306000,7.39630615234375,-1.271560297126323,-3.6670711401849982,2.619098503039777
1758273004323264000,7.406263916015625,-3.493040853446722,-3.9300124670416112,1.9792536623209713
1758273004333222000,7.416221923828125,-5.838734795543551,-3.5600247239172456,0.7954685331508516
1758273004343179000,7.426178955078125,-6.396227224007249,-2.799500955158472,-0.09454057043790817
1758273004353137000,7.436136962890625,-5.447713616740703,-2.639048527395725,0.16682751575261354
1758273004363095000,7.446094970703125,-4.230203620362282,-3.1370512405365703,0.7592465884298085
1758273004373052200,7.45605224609375,-2.472278587049246,-4.154256691235304,2.3888337033823133
1758273004383009800,7.466009765625,-1.7940104921728373,-5.591301418942213,3.9142251153230663
1758273004392968000,7.475968017578125,-2.8806927992016074,-6.209582370367646,4.0887934544608
1758273004402925000,7.485925048828125,-2.56949334513247,-6.436387384960055,3.5704283367708323
1758273004412883000,7.495883056640625,-1.4398492637336253,-6.774046975931525,3.393879637470841
1758273004422841000,7.505841064453125,-1.7199767031908035,-7.107021039435267,2.8513880865231154
1758273004432798000,7.5157978515625,-4.1261552168667315,-6.651932169869542,1.6971400174826383
1758273004442755800,7.525755859375,-5.5987949895679945,-5.246882416838408,1.1439178136840462
1758273004453336000,7.536336181640625,-5.40277323577404,-3.6962025421231983,1.4663132000282406
1758273004463294000,7.5462939453125,-5.291406033697724,-2.334530743047595,1.6055810932040213
1758273004473251000,7.5562509765625,-4.939397014856338,-0.973109703862667,0.5007169405356049
1758273004483209200,7.566209228515625,-3.5483605896085497,0.3469827151119709,-0.3380678795114159
1758273004493166800,7.576166748046875,-0.45546647070646284,0.22424305514991283,-0.09702011229395865
1758273004503124000,7.5861240234375,2.7147172241032123,-0.7677157260894775,-0.2503606622248888
1758273004513082000,7.59608203125,4.752507831066847,-3.30482772757709,-1.1247709224045277
1758273004523040000,7.6060400390625,6.5351406046569345,-4.680117133116722,-1.224072423633933
1758273004532998100,7.615998046875,4.882673841637373,-4.237145986846089,-1.48652158305943
1758273004542955000,7.625955078125,2.0810510720193385,-4.049639547941088,-2.5730557137891648
1758273004552913000,7.635912841796875,0.8216473688937723,-3.540499354714155,-3.9574394031494853
1758273004562871000,7.64587109375,0.29759967552274463,-2.6134564054995773,-4.558891969370841
1758273004572828200,7.655828125,0.11440072455331682,-2.535332132333517,-5.208276499590277
1758273004582786000,7.6657861328125,0.05290186136513948,-3.239056740027666,-5.176134225398302
1758273004592744200,7.675744140625,1.0719055936574935,-3.1496132004678246,-3.5377345661759376
1758273004602701000,7.685701171875,1.9399331670626996,-2.462874798887968,-2.065608295954764
1758273004612659000,7.695658935546875,2.538807699489593,-1.57367321228981,-1.4060571765080094
1758273004622617000,7.7056171875,2.6033871391668915,-0.30765666689574717,-0.6831886001437902
1758273004632574200,7.71557421875,2.6548306184172628,1.1170353597164153,0.3175362558752298
1758273004642532000,7.725531982421875,3.2944723377794025,2.0420225454449654,1.7814795119017361
1758273004652490200,7.735490234375,3.9983799008250234,1.3793407267570494,2.9007179346203804
1758273004662446800,7.74544677734375,3.897608911564946,0.23814240116477012,2.3412013068526982
1758273004672405000,7.755405029296875,4.035500840212404,-0.09830079975426197,1.596866456350684
1758273004682363100,7.765363037109375,4.348626586169004,1.202783551889658,-0.15633330200612544
1758273004692320000,7.775320068359375,5.091740954965353,4.881303137806058,-0.48786622679084535
1758273004702278100,7.785278076171875,6.861679082155227,5.5667912470638745,2.6774849332958457
1758273004712236000,7.795236083984375,6.787381673800945,2.861769487544894,2.6834961564093827
1758273004722193000,7.80519287109375,5.967630055525898,2.0748294210255143,0.5580673057422042
1758273004732151000,7.815151123046875,6.568482902288436,2.331229363414645,0.6927782662659883
1758273004742109200,7.825109130859375,6.351152403005957,2.309744092315435,1.264539458578825
1758273004752066000,7.835066162109375,6.955225380858779,1.975695677578449,1.1345789074525237
1758273004762024000,7.84502392578125,7.5587939163208,3.174784466603398,0.6062699033752084
1758273004771982000,7.854982177734375,6.361854414284229,4.6813902217924594,0.5311339983701706
1758273004781940000,7.86493994140625,5.211680755075812,5.743693289846181,0.41194823149740695
1758273004791897000,7.87489697265625,4.586913948762416,6.443802629652619,0.12308131300657987
1758273004801855000,7.88485498046875,3.825143979334831,6.980470296752452,0.13072452123612166
1758273004811811800,7.894811767578125,2.945005112375319,7.269397713258862,0.2767290291905403
1758273004821770000,7.90477001953125,1.5129218064680694,7.164810965102911,0.5367004003256559
1758273004831727900,7.914727783203125,-0.08648527427613735,6.2156292493164536,0.7211191023483872
1758273004841686000,7.92468603515625,-1.3631561924144624,4.6171600339442485,0.641884529852867
1758273004851643100,7.93464306640625,-2.6952976533621547,2.5609470505833625,-0.009447335042059421
1758273004861601000,7.94460107421875,-4.599667047351598,-0.06961188088655472,-1.2121975691840052
1758273004871559200,7.95455908203125,-7.84613669398427,-3.113810065680742,-2.515765846598148
1758273004881516000,7.96451611328125,-11.562275524199007,-7.1405205734550945,-3.5350820058405397
1758273004891474000,7.974473876953125,-13.355690388566254,-11.195424910056591,-4.784329495002329
1758273004901432000,7.98443212890625,-11.83372281359434,-13.321258542132377,-5.704240400379896
1758273004911389200,7.99438916015625,-8.308092526710032,-11.12420208684206,-5.042086989480257
1758273004921347000,8.00434716796875,-8.07236361642778,-6.172291042849421,-3.688983404524624
1758273004931305000,8.014304931640625,-5.945384905970096,-1.0269295568555592,-1.8233201732873916
1758273004941262000,8.024261962890625,-2.915541409742832,2.8026404222279786,-0.2523500824764371
1758273004951220000,8.034219970703125,-0.6796981276795268,4.131897559911012,-0.7101552252635359
1758273004961178000,8.04417822265625,1.2239523043856024,2.3138129491895434,-3.739562668161094
1758273004971135200,8.05413525390625,2.711481895443797,-2.5758815848648546,-7.420377963799238
1758273004981092900,8.0640927734375,5.109215236857533,-6.339186070880293,-7.883243312585353
1758273004991051000,8.074051025390625,6.860030145904421,-5.225749027916788,-2.8585981640323994
1758273005001008000,8.084008056640625,8.295802953979372,-2.427983518248796,2.0319713992908595
1758273005010966000,8.093966064453125,8.732397550955413,-0.3192810537159443,2.8348563461780545
1758273005020924200,8.103924072265626,7.707264814388751,2.118279855695367,1.0253399495765567
1758273005030881000,8.113881103515626,8.24233732125163,4.679157348173857,0.5405909780234098
1758273005040839000,8.1238388671875,7.321060680478811,6.258189457148313,-0.47019086936861276
1758273005050797000,8.133797119140626,2.6808833435624835,5.943051494586467,-1.6372537040576338
1758273005060755000,8.1437548828125,-3.4516587494835256,3.9209593920141455,-0.6684636169597507
1758273005070712000,8.153712158203126,-3.36059111585319,-0.05147182856202125,0.4003913569554686
1758273005080670200,8.163670166015624,7.047230879861116,-3.10637202463448,3.0018340840563176
1758273005090627800,8.1736279296875,12.034817048346996,-4.044667020225525,5.062165316390991
1758273005100585000,8.1835849609375,7.411770294451713,-4.680603455328941,3.3092841224640606
1758273005110543000,8.193543212890624,4.048884637920558,-4.876926237896084,1.1697340997248888
1758273005120501000,8.2035009765625,2.611924373626709,-3.4539036058008667,2.053973680001497
1758273005130458000,8.2134580078125,2.5804005235940215,-2.1787492297053337,1.818641952343285
1758273005140416300,8.223416259765624,2.8192680241629477,-1.4756360319077968,0.9931015215337275
1758273005150374000,8.233373779296874,2.6027584858745336,-1.015820133820176,0.41618952232897277
1758273005160331000,8.2433310546875,1.7392520431555807,-0.2991647328823805,0.5895920325577259
1758273005170289200,8.2532890625,0.019607494528591632,0.6157312669426203,0.7318518010258674
1758273005180247000,8.2632470703125,-0.5651730460941791,0.767006116515398,0.26808278139829633
1758273005190204700,8.27320458984375,-0.17484218764305115,0.8832657668083905,0.33792671747505665
1758273005200162300,8.283162353515625,0.0959131739653647,1.545879196435213,0.9571768061935901
1758273005210120400,8.293120361328125,0.23020225581526754,1.5525550209373236,0.9565046060204505
1758273005220077600,8.30307763671875,0.3554080136299133,1.3416969325393437,1.2090639473333955
1758273005230035500,8.313035400390625,0.5512007079083472,1.2243348739624023,1.373798582459986
1758273005239993600,8.32299365234375,0.8381576280593872,1.300285894742608,1.6465627996727823
1758273005249950500,8.332950439453125,0.5146001756658777,1.3775743016064166,1.3676713317513465
1758273005259908400,8.342908447265625,0.8401882571041583,1.5820798061072825,1.319478963251412
1758273005269866500,8.352866455078125,0.6345820978850126,2.04710554779768,1.129376954895258
1758273005279823600,8.36282373046875,0.15236852656099945,2.636543851098418,-0.10987287186533212
1758273005289781500,8.372781494140625,0.02148760918676853,2.9145465534865855,-0.5123872123241424
1758273005299739600,8.38273974609375,0.13679616930000482,2.847580218672752,-0.08239069843888282
1758273005309696500,8.392696533203125,-0.13807641836889087,2.352380287992954,-0.3260840117290616
1758273005319654400,8.402654296875,-1.3198451662153006,1.5725678813964128,-0.7746957942351699
1758273005329612500,8.412612548828125,-3.0317466995000837,0.9303139337092637,-0.3067427669212222
1758273005339569700,8.422569580078125,-4.226024873372912,0.35914603111445903,0.7597367100343108
1758273005349527600,8.432527587890625,-4.416144125124812,-0.04739361933767795,1.666021241119504
1758273005359485700,8.442485595703126,-3.140589936056733,-0.3058820584386587,2.1638649643063546
1758273005369442600,8.452442626953125,-1.116887621808797,-0.6074684655100107,2.5219068335711956
1758273005379400400,8.462400390625,0.2885316951870918,-1.2123089206039905,2.812529363557696
1758273005389358600,8.472358642578126,0.6377548827022314,-1.9468769948512314,2.8717744564697143
1758273005399315700,8.482315673828126,-0.040927784324437375,-2.688533566054702,2.577665837933123
1758273005409273600,8.492273681640626,-2.1493771508790553,-3.5701147407770155,2.0523846572443842
1758273005419231500,8.5022314453125,-5.446601856106519,-3.804783912873268,1.6381734492510556
1758273005429188600,8.512188720703126,-7.690788311362266,-3.4246552994847295,0.7554694079786539
1758273005439146500,8.522146484375,-7.529224122965336,-2.7847546369254585,0.3591828559935093
1758273005449104600,8.532104736328124,-5.4197641180634495,-2.8499896179020405,1.9905740977585316
1758273005459062500,8.5420625,-3.12127382569015,-4.427836901006103,3.866955706886947
1758273005469019400,8.552019287109376,-3.0079157420575617,-5.581149442762136,4.687304998794198
1758273005478977500,8.5619775390625,-3.652153557038307,-5.900260400608182,4.888035660931468
1758273005488935400,8.571935302734374,-2.4138187992960214,-5.998059680581092,4.756914833854139
1758273005498892500,8.581892578125,-1.314088794645667,-6.042368777906894,4.18263113732636
1758273005508850700,8.5918505859375,-3.2017063757985826,-6.836998229885101,2.7637644558668133
1758273005518808600,8.60180859375,-4.5266970882087945,-6.890474384006858,1.581139018125832
1758273005528765400,8.611765380859374,-3.763593239828944,-5.150941916474699,0.8484916828081012
1758273005538723600,8.6217236328125,-3.8079064288079736,-4.267967241567373,0.19709025980830192
1758273005548681500,8.631681396484375,-4.277847415068745,-2.881598223608732,0.6614341567143798
1758273005558638600,8.641638671875,-4.169153231593966,-0.8848439759105443,0.05051671979427337
1758273005568596500,8.651596435546875,-3.6116093652039765,0.13129647590517998,-1.6609999058261513
1758273005578554600,8.6615546875,-0.9290513664275407,0.5044739549815654,-2.547902275571227
1758273005588511500,8.671511474609375,1.8994225852370261,0.10656126309931277,-2.4023314828589557
1758273005598469400,8.681469482421875,2.9809307044982907,-2.386407645279169,-3.542066457900405
1758273005608427500,8.691427490234375,4.346697663933038,-4.121258092474937,-3.7027851353839036
1758273005618384600,8.701384521484375,4.894601595318317,-4.137752715680003,-3.0941373969614503
1758273005628342500,8.711342529296875,3.0724656633794307,-4.03460447589457,-3.812616798456013
1758273005638300400,8.721300537109375,0.8029637112118303,-4.144422110441327,-5.574183695402741
1758273005648257500,8.731257568359375,0.04628375839963555,-3.8498786076188085,-7.07974900162816
1758273005658215400,8.74121533203125,-0.18104162680506705,-3.2606337810635564,-7.318523855477571
1758273005668173600,8.751173583984375,0.09274155819192528,-3.4434622912853956,-7.32320704485774
1758273005678130700,8.761130615234375,0.6015501813769341,-2.8403561126381156,-6.21037556657195
1758273005688088300,8.77108837890625,1.3973425396546721,-2.1745845112413167,-3.224544815072417
1758273005698046500,8.78104638671875,2.398390636278689,-0.8707774566352366,-0.7238380059182643
1758273005708003600,8.791003662109375,3.14971490727663,0.04921206693649292,0.20205255839079617
1758273005717961500,8.80096142578125,3.0946620053574443,0.9851876796692609,0.4132771420136094
1758273005727919600,8.810919677734375,3.021228812617063,2.223656292924285,0.6189663033410906
1758273005737876500,8.82087646484375,4.3919867122069,3.313789617189765,2.9206209049642085
1758273005747834400,8.83083447265625,4.571652374483644,2.086609290668368,3.0775591871261594
1758273005757792500,8.84079248046875,4.816635143062472,1.302857791057229,2.028162362396717
1758273005767749600,8.85074951171875,4.86138029371798,1.3058172253847122,1.081333931738138
1758273005777707500,8.86070751953125,5.178318583700061,2.0288082590848204,1.7701073462769388
1758273005787665700,8.870665771484376,5.443256052809954,2.3279010957747697,1.5726824476867913
1758273005797622500,8.88062255859375,5.821843866497278,2.6594413270831105,1.0038961795315147
1758273005807580400,8.890580322265626,7.2629527749031775,3.2804140018105503,1.5398428388804197
1758273005817538600,8.90053857421875,6.700852560383081,3.324624314936995,1.4952271598234772
1758273005827495700,8.91049560546875,6.4739920162111515,2.5765064387649295,1.1431672875776886
1758273005837453600,8.92045361328125,7.310455699834227,2.5429642346471546,0.8261553478375077
1758273005847411700,8.93041162109375,6.533106468480825,3.4015888966739176,0.6954965853139757
1758273005857368600,8.94036865234375,5.258684498313069,4.700902146992087,0.7054881102353334
1758273005867326500,8.950326416015624,4.476215439727902,5.879209429273009,0.4175733779028058
1758273005877284600,8.96028466796875,3.9599084236115214,6.839544991758466,0.4330754829391837
1758273005887241700,8.97024169921875,3.498014550206065,7.851393883860111,0.49172640935033557
1758273005897199600,8.98019970703125,2.5259841660127043,8.558654264464973,0.3484513263598084
1758273005907157500,8.990157470703124,0.6627437780082226,7.946387458762526,0.5053171278074383
1758273005917114600,9.000114501953124,-1.2334569225728511,6.467121545919776,0.8039651433393359
1758273005927072500,9.010072509765624,-2.9664085504099726,4.6049949643760915,0.5219266095638275
1758273005937029600,9.020029541015624,-4.96606407250762,2.4262118324011563,-0.3736030110120773
1758273005946987500,9.029987548828124,-8.123376010784506,-0.31190555651187896,-1.6002213197365402
1758273005956945400,9.0399453125,-11.528166333848237,-4.186871843636036,-2.1207292946740983
1758273005966902500,9.049902587890625,-12.637011372846365,-8.643001942190528,-3.20583368486166
1758273005976860400,9.0598603515625,-11.052592310136555,-12.591765871453285,-5.316077533617616
1758273005986818600,9.069818603515625,-8.577297590136528,-13.851606943082809,-6.396251773926616
1758273005996775700,9.079775634765625,-8.415890053606033,-10.959919871658085,-5.6022319782793515
1758273006006733300,9.0897333984375,-7.424283739066124,-5.064399943575263,-3.575714752741158
1758273006016691500,9.09969140625,-3.8005040435969826,0.5134206470251083,-2.021891903825104
1758273006026648600,9.109648681640625,-0.6885799377933144,4.161693563237786,-1.610429117757082
1758273006036606500,9.1196064453125,3.1952377643063663,4.514387641733885,-3.6193469737187027
1758273006046564600,9.129564697265625,5.655767169111967,0.37561025918126106,-7.970246473255753
1758273006056521500,9.139521484375,5.728022257983684,-4.777327215024829,-9.829092133432626
1758273006066479400,9.149479248046875,5.1261961822748185,-4.893654669857025,-4.935862995511293
1758273006076437500,9.1594375,6.179556065416335,-1.348296769195795,1.5282640447676181
1758273006086394600,9.16939453125,6.479153929018974,1.0999836871504782,2.5764678603202102
1758273006096352500,9.1793525390625,6.5975652043879025,2.5400813726872205,0.030916531789302825
1758273006106310700,9.189310546875,8.537569390860199,3.859370658585429,0.6544061577737331
1758273006116267500,9.199267578125,7.336928111696243,4.721947857630252,1.1165887849926948
1758273006126225400,9.209225341796875,2.9650208954438564,3.8001387174159285,0.0823284468576312
1758273006136183600,9.21918359375,-1.6185636166349053,1.5130091924905775,0.8795227808877826
1758273006146140700,9.229140625,2.347682485565543,-2.052549200156331,0.8530711195528506
1758273006156098600,9.2390986328125,7.955223676168918,-3.3748423440456388,2.9821774896889925
1758273006166056700,9.249056640625,7.5603101661026475,-4.18893462138474,3.85244027480036
1758273006176013600,9.259013671875,4.646840301936865,-5.1028825267046685,2.30511906286329
1758273006185971500,9.268971435546876,2.2629826334014536,-4.484190656390786,2.0114342226967215
1758273006195929000,9.27892919921875,2.282006190562248,-3.091696433550119,1.9121134322449564
1758273006205886200,9.28888623046875,3.069128335650265,-1.692425848442316,1.4999556496500968
1758273006215843800,9.29884375,3.187893539023399,-0.6396078170925379,1.0598498296827077
1758273006225802000,9.308802001953126,2.696526902896166,0.15650281335413455,0.7421773802071809
1758273006235759000,9.318759033203126,1.6519969535507262,0.3740811499178409,0.2903159482553601
1758273006245717000,9.328717041015626,1.2500745876356958,0.2040840642184019,0.12299217341840267
1758273006255675100,9.338675048828126,1.572539239823818,0.09895371070504189,0.3817714121595025
1758273006265632000,9.348632080078126,0.7952363318301737,0.33576398648321626,0.6622820057153701
1758273006275590000,9.35858984375,0.6919874081492423,0.6722866823792457,0.7401224935039877
1758273006285547000,9.368547119140626,0.724053109973669,0.8567880942493676,0.6273784501165152
1758273006295505200,9.378505126953126,0.28328035053014755,1.3472247560501098,0.46666854046136136
1758273006305463000,9.388463134765624,-0.22122874883003532,1.9451935718089342,0.528112020200491
1758273006315420000,9.398419921875,-0.5567348880946635,2.540242700728774,0.8686994813174009
1758273006325378000,9.4083779296875,-0.3079588647127151,2.7685177878737446,0.4583198143109679
1758273006335336000,9.4183359375,-0.5285024808228016,2.9553993728786705,0.3707248252272606
1758273006345293000,9.42829296875,-0.27317981227636334,2.789776264479756,0.6869760097280144
1758273006355251200,9.438251220703124,0.6626666211187839,2.164567559617758,0.8075628755703568
1758273006365209000,9.448208984375,1.2253934431046247,1.6460247472733258,0.9743222945228218
1758273006375166000,9.458166015625,1.5356483098000286,1.1531377697110174,1.2005553544461727
1758273006385124000,9.4681240234375,1.5223159500181673,0.997532197457552,1.5538430149212479
1758273006395082000,9.47808203125,0.7980955937188118,0.8690876038521528,1.5295368411824106
1758273006405039000,9.4880390625,-1.2378133642166853,0.6251093361407518,1.0176409195065497
1758273006414997000,9.4979970703125,-3.8082758466422555,0.7955208478599787,0.8118368996277451
1758273006424955100,9.507955078125,-5.195580684146285,1.0652642559468746,0.44991263597160575
1758273006434912000,9.517912109375,-4.928331430962682,1.1678624606341124,0.15701660809516907
1758273006444870000,9.527869873046875,-3.4619980649292468,0.6536147151350975,0.6959270856857299
1758273006454828000,9.537828125,-1.9807116060443222,-0.5224491721332073,1.1745537749662995
1758273006464785200,9.54778515625,-0.6051813774861395,-1.8599346244573591,1.6868281745657323
1758273006474743000,9.557742919921875,0.5130626273676753,-3.258105139368772,2.053271376951039
1758273006484701000,9.567700927734375,-0.7140275366522372,-4.572650445610284,1.9176991234228014
1758273006494658000,9.577657958984375,-3.9456355681091546,-5.196958986762166,1.5279787980854511
1758273006504616000,9.587615966796875,-6.183748256409168,-4.136811050915718,0.4185618044182658
1758273006514573000,9.597572998046875,-5.914170268017053,-2.4101129305154085,-0.42449411707669493
1758273006524531200,9.60753125,-3.933077699831128,-2.670862300285697,0.9371873266100883
1758273006534488800,9.61748876953125,-3.393193408772349,-4.287320176813006,2.198150095745921
1758273006544446000,9.627446044921875,-3.3808751944690942,-4.734797986853122,3.387313118562102
1758273006554404000,9.637404052734375,-2.8536779510259627,-5.169270769369602,4.204091858506202
1758273006564362000,9.647362060546875,-1.9221037881225347,-5.823972695219516,4.8266097168490285
1758273006574319000,9.657319091796875,-2.2535095793962476,-6.762993082475662,4.48832264162898
1758273006584277000,9.667277099609375,-4.017490259486436,-7.986038501149416,3.47173707639426
1758273006594235000,9.67723486328125,-5.0200703879833215,-7.555500135472417,2.153188671991229
1758273006604192000,9.68719189453125,-5.1800838398069144,-5.491911070385575,0.8202323875293135
1758273006614150100,9.697150146484375,-5.593640675544738,-4.1576597776770585,0.8572446058452129
1758273006624108000,9.70710791015625,-5.554288323843479,-2.572591311147809,1.111381571738422
1758273006634065000,9.71706494140625,-5.176795904177427,-0.6358470032542943,0.5929574173375963
1758273006644023000,9.72702294921875,-3.931887613263726,0.5477852734416723,-0.489841910777986
1758273006653981000,9.73698095703125,-0.46882396492958067,0.26861820344924925,-0.8149863035693764
1758273006663938000,9.74693798828125,2.3719933354794978,-0.03186579533815384,-0.17885960659086703
1758273006673896200,9.756896240234376,3.3145115017235276,-1.958880736377835,-0.9547273672148585
1758273006683852800,9.766852783203126,4.855278469711542,-4.107655683580041,-1.4728817647635937
1758273006693811000,9.77681103515625,5.47418427503705,-4.404069071927666,-1.6295385996356606
1758273006703769000,9.78676904296875,3.292075213509798,-4.340453801107406,-2.3178189699605105
1758273006713726000,9.796725830078126,1.0474375073552131,-4.422873725640773,-4.204221330104768
1758273006723684000,9.80668408203125,0.22217677026987073,-4.057962555128336,-6.16343495169878
1758273006733642000,9.81664208984375,0.7343537008441984,-3.2524235866010187,-6.355240549102425
1758273006743598800,9.826598876953126,0.7886008393384516,-3.056097296902537,-5.890978777521848
1758273006753557000,9.836556884765624,1.1442211805447935,-2.9146640423864123,-5.367406154316663
1758273006763515000,9.846514892578124,1.7283409191712735,-2.459375850856304,-4.876302845300733
1758273006773472000,9.856471923828124,2.4237477803751823,-1.443091606655717,-3.052804392836988
1758273006783430100,9.86643017578125,2.182668741236627,-0.2635544903188944,-0.24968992335647344
1758273006793388000,9.876387939453124,2.655107681792974,0.5692582695811986,0.5078305719330907
1758273006803345000,9.886344970703124,3.3926369439333675,1.5293004020780323,1.4275591064810753
1758273006813303000,9.896302978515624,4.36333987891525,2.5062556754529473,1.4203621807143092
1758273006823261000,9.906260986328125,4.907729956960678,1.9712620790451765,3.864004748126864
1758273006833218000,9.916218017578124,4.744844164571166,0.29000995104610916,3.8976097883477805
1758273006843176200,9.92617626953125,4.3101217912077905,0.02699146730005741,1.9910843853682278
1758273006853133000,9.936133056640625,4.229038668236136,1.11284901394248,1.0030573906198144
1758273006863091000,9.946091064453125,5.11783810377419,2.860540822532773,2.035954331447184
1758273006873049000,9.956049072265625,6.337714829283953,3.331169206535816,1.7999822600588202
1758273006883006200,9.966006103515625,6.8306427233785385,3.5426451345711945,1.473360195930302
1758273006892964000,9.975964111328125,6.52884413486123,3.7738364014238117,1.5141358584329485
1758273006902922000,9.985921875,6.947325567519664,3.6675077780365943,0.9839777193576097
1758273006912879000,9.995879150390625,6.817965612635016,3.7220664666980503,0.7436112124025821
1758273006922837000,10.0058369140625,6.741199183818697,3.0888591642975807,0.9690846861302852
1758273006932795100,10.015795166015625,6.003362463164329,3.574576980882883,1.1113093832850456
1758273006942752000,10.025751953125,5.841138934075832,5.297708933234214,1.2378694783180952
1758273006952710000,10.0357099609375,5.12677135181427,6.510729801499843,0.9434481405705213
1758273006962668000,10.04566796875,4.13970648009628,7.3528183392673725,0.6777689131826162
1758273006972625000,10.055625,3.429236197534203,7.885780722108483,0.649717707696557
1758273006982583000,10.0655830078125,2.1616233228594064,7.964349231910705,0.6515665504336356
1758273006992540200,10.0755400390625,0.4163163635790348,6.824017752280831,0.5782914708644151
1758273007002497800,10.085497802734375,-1.4137591291874647,5.014582896482944,0.3776052323907614
1758273007012456000,10.0954560546875,-3.235333920112252,2.899771009159088,-0.45864568526446814
1758273007022413000,10.1054130859375,-5.788949312633275,0.1847954263806343,-1.9500196767911313
1758273007032371000,10.115370849609375,-9.747140995454787,-3.5502842511475086,-3.049323857244849
1758273007042329000,10.1253291015625,-13.161643149715662,-8.22092979156375,-3.925528599625826
1758273007052286000,10.135285888671875,-13.473429463762043,-12.726403474479913,-5.544119981050491
1758273007062243800,10.145243896484375,-10.557419267463683,-14.50489432595968,-6.321473304057121
1758273007072202000,10.155201904296876,-8.420548108544946,-11.828851408165693,-5.296428245773911
1758273007082159000,10.1651591796875,-7.841638213521241,-6.2849354252547025,-3.490191016973555
1758273007092117000,10.175116943359376,-5.412270547437667,-0.8871580980718136,-1.8354188996210694
1758273007102073900,10.185073974609375,-2.433746904081106,3.38198344797194,-0.6286836874961853
1758273007112032000,10.195031982421876,0.42428222789168357,4.927118548041582,-1.4145651848733425
1758273007121990000,10.204989990234376,3.1042791440084576,2.480362524783611,-5.299794507336617
1758273007131947000,10.214947021484376,4.266602967476844,-3.0764252146601674,-8.71196558830142
1758273007141905200,10.2249052734375,4.763415009528398,-6.45788083936572,-7.974645000475644
1758273007151863000,10.234863037109376,6.094676472771168,-4.302362263122201,-2.279272381684184
1758273007161820000,10.24481982421875,8.320608893933892,0.37425533744096756,2.1213804520592094
1758273007171778000,10.254778076171876,8.184763668683171,3.380049265038967,1.1599579711198806
1758273007181736000,10.26473583984375,7.897370037615299,4.502250044694542,-0.45566637719273567
1758273007191693600,10.274693603515624,7.068892092049121,5.188863943111897,-0.684222327105701
1758273007201651500,10.2846513671875,3.9115266700193283,4.684449024841189,-1.7526915165737271
1758273007211608300,10.2946083984375,-2.1706202837854622,2.5399352422147987,-1.7264724949508905
1758273007221566500,10.30456640625,-3.844122236049175,-0.838603618261218,0.30928835975080726
1758273007231524400,10.3145244140625,5.636065274298191,-4.005236342591047,1.272243749345839
1758273007241481500,10.3244814453125,9.526965628135203,-3.6410891421884295,3.2630428880318996
1758273007251439600,10.334439697265625,8.236896591502427,-1.9710639261245726,6.954780559700727
1758273007261397500,10.3443974609375,6.343921282708645,-3.870388896206021,4.617991808593273
1758273007271354400,10.354354248046874,3.9306104329347606,-4.932953830066323,2.168642553971708
1758273007281312500,10.3643125,2.8527567445278166,-3.71874755140841,2.328176113323867
1758273007291270400,10.3742705078125,2.98316153229028,-2.3102099562615153,2.00895584988445
1758273007301227500,10.3842275390625,2.8839097154214977,-0.9581348375707864,1.2917252794072032
1758273007311185700,10.394185546875,3.0043524966180324,0.0885047974050045,1.1904933946371077
1758273007321142500,10.404142578125,2.985214080905914,0.2845855879098177,0.7226090486451983
1758273007331100400,10.414100341796875,1.9493252647861836,0.0672813921123743,0.06050473758429289
1758273007341058600,10.42405859375,0.873608003886044,-0.025840543699264525,-0.3297583163276315
1758273007351015700,10.434015625,0.005774637878686189,-0.01683598398864269,-0.3381099650874734
1758273007360973600,10.4439736328125,-1.6133273234166203,0.7438789234280586,-0.41069793917536734
1758273007370931500,10.453931396484375,-2.004065885885805,1.736143409615755,0.0686842446476221
1758273007380888600,10.463888671875,-0.8455542411167174,1.6754314590215682,0.5763628408893943
1758273007390846500,10.473846435546875,0.16049918951392173,1.4479483990371227,1.5732660927936435
1758273007400804600,10.4838046875,0.888102685445547,1.8496815259903667,1.4481107499919832
1758273007410761500,10.493761474609375,1.0710311489105224,2.155892670252919,1.5265313757561145
1758273007420719400,10.50371923828125,1.2384709513425827,2.2640941017746923,1.1191589277416467
1758273007430676500,10.513676513671875,1.5170944159775972,2.1818623932898045,0.21653438046872614
1758273007440634400,10.52363427734375,1.7678379400402306,2.135402255409956,-0.2760410469263792
1758273007450592500,10.533592529296875,2.002138278824091,2.680975698021054,0.534656327277422
1758273007460549600,10.543549560546875,1.397376149663329,2.8605975211560724,0.9866448927402496
1758273007470507300,10.55350732421875,0.24385259550511837,2.6684756974101065,0.47231502191573377
1758273007480465400,10.56346533203125,-1.573563322174549,2.090591638302803,-0.5949620351582765
1758273007490422500,10.573422607421875,-3.3377222814410925,1.7725585388213394,-1.212746142977476
1758273007500380400,10.58338037109375,-4.063932277187705,1.5732359899163246,-0.6509282525300979
1758273007510338600,10.593338623046876,-4.367169374075532,1.0307195967882872,0.001939443629980087
1758273007520295400,10.60329541015625,-3.5755285825192926,0.3304986133009195,0.9271592690706253
1758273007530253300,10.61325341796875,-2.0464649118065834,-0.6441659187883139,1.6603358889594673
1758273007540210400,10.62321044921875,-0.6759208010978996,-1.6738760462731122,2.0979820408150553
1758273007550168600,10.63316845703125,0.3776971484579146,-2.327197915941477,2.5222262747839093
1758273007560126500,10.64312646484375,0.3484533721864223,-2.9713825394302606,2.794299587123096
1758273007570083300,10.653083251953126,-1.2207467863425612,-3.7536487689197062,2.457180678899586
1758273007580041500,10.66304150390625,-4.3934407104074955,-4.141911588925123,1.9851380441844462
1758273007589999400,10.672999267578126,-7.528999082037806,-3.9503982524663206,1.3526526263177394
1758273007599956500,10.68295654296875,-8.167759342390298,-3.341038858643174,0.6998281847774982
1758273007609914600,10.69291455078125,-6.717198130506277,-3.2990415453910824,1.3648267559751868
1758273007619872500,10.70287255859375,-3.9916269194334744,-4.267103318214416,2.8225571288362143
1758273007629829400,10.712829345703126,-2.753368149536848,-4.946474990418553,4.1918493397876615
1758273007639787500,10.72278759765625,-3.6978058856666087,-4.784767594158649,4.721232402837276
1758273007649744400,10.732744384765626,-4.142408432531356,-4.6188574855118985,4.108231729902327
1758273007659702500,10.74270263671875,-3.267833337178826,-4.589625545808673,3.4484926866680383
1758273007669660700,10.75266064453125,-3.4767221713304517,-4.478018105235695,2.8197295041948554
1758273007679617300,10.7626171875,-4.790890460953116,-5.31595712210834,2.3280340745046733
1758273007689575400,10.772575439453124,-3.4571102928876876,-6.042164195245504,2.490562139497697
1758273007699533600,10.782533447265624,-2.439623248768598,-5.518171885323524,2.4177856571003793
1758273007709490400,10.792490478515624,-3.644852294114232,-4.830367315816879,1.884782357726991
1758273007719448600,10.802448486328124,-5.4806262907832854,-3.922401992037892,1.3190113457396626
1758273007729405400,10.812405517578124,-5.736518283650279,-2.690641936510801,-0.390410937950015
1758273007739363300,10.82236328125,-3.644055590778589,-0.9664110830068587,-0.9967436774283647
1758273007749321500,10.832321533203125,-0.14897009802805258,-0.321032865819335,-0.24833383257240055
1758273007759278600,10.842278564453125,4.606999874457717,-1.1804688442289828,0.06966244203001261
1758273007769236500,10.852236572265625,7.122296349978447,-3.268784938815236,-0.2641279062926769
1758273007779194600,10.862194580078125,6.60773588526845,-4.692213813623786,-1.1561664698824285
1758273007789151500,10.8721513671875,4.385383660680056,-4.829987961110472,-2.525867553895712
1758273007799109400,10.882109375,1.9849790542304515,-4.256384940323233,-3.5816678159266706
1758273007809066500,10.89206640625,0.8746072440564632,-3.7431256213396784,-4.379626120066643
1758273007819024600,10.902024658203125,0.34989480316638943,-3.507134260728955,-5.292629438012838
1758273007828982500,10.911982421875,0.24570143824219703,-3.407257589960098,-5.619206493955851
1758273007838939400,10.921939453125,0.923179844045639,-3.6151293560236692,-5.331833905676007
1758273007848897500,10.9318974609375,2.008278242883831,-3.6813153541147705,-4.794344985321164
1758273007858855400,10.94185546875,1.947217186591029,-2.9861475623637435,-4.1047132003873585
1758273007868812500,10.9518125,1.8176394973024725,-1.5777648655176162,-3.071823273822665
1758273007878770700,10.961770751953125,2.454913318489492,-0.4471329421252012,-1.7985814533501863
1758273007888728300,10.971728271484375,2.0621923500314354,0.3579395779341459,-0.6794894533649086
1758273007898685400,10.981685546875,2.3973043023467064,0.9219488409459591,1.9420579041317103
1758273007908643600,10.9916435546875,3.773541510130465,0.9871195245146751,2.80329041056931
1758273007918600400,11.001600341796875,4.766742400385439,0.7882283527642489,4.037865523517132
1758273007928558600,11.01155859375,4.699041613817215,0.1376782858967781,4.1991725222826
1758273007938516500,11.0215166015625,4.10180052781105,0.7228022331297397,2.395873100499809
1758273007948473300,11.031473388671875,4.425858878931403,1.8862281726211307,1.912375005790591
1758273007958431500,11.041431396484375,5.214468924489617,3.3538971711724996,1.6373329067736864
1758273007968389600,11.0513896484375,5.971493160694838,4.48397847494483,1.780951980896294
1758273007978346500,11.061346435546875,6.6654387171745295,4.163873245364427,2.3797592933058738
1758273007988304400,11.071304443359375,6.519526855939627,3.401486020821333,1.2278425898224115
1758273007998261500,11.081261474609375,6.346035498383641,3.6640900785475967,1.4867928012162446
1758273008008219400,11.091219482421875,6.267734699606895,4.082595476603508,1.2883788915887475
1758273008018177500,11.101177490234376,6.435554441267252,3.614909575793147,1.108637825988233
1758273008028134700,11.111134765625,6.230308347532152,3.388527755048871,0.6775321818172931
1758273008038092300,11.12109228515625,5.512407330447435,4.512964330932498,0.2533767951756716
1758273008048050400,11.131050537109376,4.897994452627003,5.938599191352725,0.01929243723005056
1758273008058007600,11.141007568359376,4.34867159435451,6.953777520138025,-0.20393413435369728
1758273008067965400,11.15096533203125,3.6874943350106477,7.319658996987342,-0.06386661523282527
1758273008077922600,11.160922607421876,2.9361861383646723,7.106767941457033,0.06104571259319782
1758273008087880400,11.17088037109375,1.9519816245138644,6.399070338478684,0.11427987465262412
1758273008097838300,11.18083837890625,1.1478618751347065,5.1768964419424535,-0.1157312425047159
1758273008107795500,11.19079541015625,0.22380115660130975,3.4769442896485327,-0.5047030875623226
1758273008117753600,11.200753662109374,-1.0592913190171123,1.3235662325650452,-1.0681582238227127
1758273008127711500,11.21071142578125,-2.8251711107268926,-0.9697112935960293,-1.8314701619952916
1758273008137668400,11.22066845703125,-5.912850417590141,-3.1115432897925377,-1.914264472799003
1758273008147626500,11.23062646484375,-9.447612105435132,-6.313339097440243,-2.1362384139731527
1758273008157583400,11.240583251953124,-12.422081504964828,-9.588452654755114,-3.6897958899512884
1758273008167541500,11.25054150390625,-12.66249535819292,-11.433965955150127,-4.9053182196438305
1758273008177499600,11.260499755859374,-10.164199701833724,-10.222558367300033,-3.975706004463136
1758273008187456300,11.270456298828124,-7.80947080488801,-6.648264879533648,-2.6278239535480736
1758273008197414000,11.280413818359374,-6.005648528274893,-2.7842922801107166,-1.512605872386694
1758273008207372000,11.2903720703125,-3.7959856893897053,0.48576048668324945,0.14814678068012
1758273008217329200,11.3003291015625,-1.8553969810277222,2.3508967714369295,0.9512138061359524
1758273008227287000,11.310287109375,-1.377169227936864,1.7167612482756376,-1.0243111910507083
1758273008237244200,11.320244140625,-0.675932345405221,-2.1403958259135485,-4.699480882017314
1758273008247201800,11.330201904296874,2.577649179059267,-6.552123888161778,-7.035183883714676
1758273008257160000,11.340159912109375,6.412769778007268,-7.123196513688564,-5.2338160145163535
1758273008267117000,11.350116943359374,7.919055215200781,-2.9683675755232573,-0.26585283038914204
1758273008277075000,11.360074951171875,8.840317827448247,0.9261831175148486,1.561390361560881
1758273008287033000,11.370033203125,8.669449804133176,3.5788545120716093,0.29028233824670313
1758273008296990000,11.379989990234375,9.151506175601481,5.6749698822319505,-0.7989949537113309
1758273008306947800,11.38994775390625,8.187353685176372,7.7421362212836735,-1.6439812587469815
1758273008316905000,11.399905029296875,3.1843694565504785,7.712973255163431,-4.5945738158658145
1758273008326863000,11.409863037109375,-4.547606605246663,5.901019110020995,-5.3932794312417505
1758273008336821000,11.419821044921875,-7.544431044447421,1.645813734871149,-3.1090418283656236
1758273008346777900,11.42977783203125,4.818194647464156,-3.1682506809204813,-0.24469985998421906
1758273008356736000,11.439736083984375,14.309699086117744,-4.714872220155597,2.7194813697651026
1758273008366694000,11.44969384765625,14.473333651047945,-3.4653462063133715,6.3182432360947125
1758273008376651000,11.459651123046875,8.69348242162764,-5.552411424055695,3.0793457782819864
1758273008386609200,11.469609130859375,4.017994409616291,-5.525309482118487,1.7878043310090899
1758273008396566000,11.47956591796875,1.6542457553908227,-4.242323097223043,2.5694120965898035
1758273008406524000,11.48952392578125,0.36881226960420604,-3.3908868853956458,1.3861103670224546
1758273008416482000,11.49948193359375,1.208418489036709,-2.142971813881397,-0.002589139710366726
1758273008426439200,11.509439208984375,2.8466882382690906,-0.8597481130987406,0.5174705069378018
1758273008436397000,11.51939697265625,2.5911390674903987,0.22399930952191352,0.7330225983709097
1758273008446355200,11.529355224609375,1.5557061784446238,0.5893675761520862,0.7578186014533043
1758273008456312000,11.53931201171875,0.773348032888025,0.29937048458755017,0.15401041201651094
1758273008466270000,11.54927001953125,0.6060100833952426,0.294622413277626,-0.6001207330957055
1758273008476227000,11.55922705078125,0.45565819388628004,1.0468792889505625,-0.10189034867882728
1758273008486185000,11.56918505859375,0.4431996943295002,1.8519325197875498,0.5822706036284565
1758273008496143000,11.57914306640625,0.45543366441540417,1.4927064091742037,1.6409100346080958
1758273008506100000,11.589099853515625,0.6923065571010112,0.5778612627536058,1.3478900880910456
1758273008516057900,11.599057861328125,0.2738403220117092,0.829437145987153,1.2233948166333137
1758273008526016000,11.60901611328125,0.17525602914094923,1.0584417164504527,0.4803660802938044
1758273008535973000,11.61897314453125,0.4052963723927736,1.5522639290362596,0.15683964409306644
1758273008545931000,11.628930908203126,0.017398878568410873,1.9294816234141587,-0.34239012662470336
1758273008555887900,11.638887939453125,-0.3030897973716259,2.6007149973481893,-0.12881123496070504
1758273008565846000,11.648845947265626,0.13435582694318143,3.0535698242515323,0.3883579509429633
1758273008575804000,11.658803955078126,0.3937063992988318,2.938799535733461,0.5101604761853814
1758273008585761000,11.668760986328126,-0.3532032701272517,2.506877606743574,0.08749196710065006
1758273008595719200,11.67871923828125,-1.4118290379077196,1.9801631783813236,-0.08436857438310981
1758273008605677000,11.688677001953126,-2.371087180420011,1.4745178415328264,0.05466828651577234
1758273008615634000,11.698634033203126,-2.661952433121204,1.012621630039811,0.4405994487032294
1758273008625592000,11.708592041015624,-2.4131191265940664,0.6507832911014556,1.151462237714231
1758273008635549200,11.718549072265626,-1.635422835368663,0.2578285138875246,2.07975197211951
1758273008645507000,11.728507080078124,-1.3061667694747447,-0.27718378722071646,2.789437826305628
1758273008655465200,11.73846533203125,-2.0661849267989396,-1.1986825463116169,3.1215342301920055
1758273008665422000,11.748422119140624,-3.148792531734705,-2.17146433339417,3.229040080665052
1758273008675380000,11.7583798828125,-3.9321968253433703,-3.0574802756935355,3.221533358296752
1758273008685338000,11.768338134765624,-4.695380168700218,-3.746939042147994,3.255513369309902
1758273008695295000,11.778294921875,-5.36657262610197,-4.20325716124773,2.6412504213541745
1758273008705253000,11.788253173828124,-5.467903002810478,-4.1642777345120905,1.8505740909159183
1758273008715210000,11.7982099609375,-4.830624505448341,-3.90444606410861,1.6443138517022131
1758273008725167900,11.80816796875,-3.8042180956840514,-4.01761593169272,1.6762120880052447
1758273008735126000,11.8181259765625,-4.243555269366502,-4.087892998489737,2.0224688269302247
1758273008745083100,11.828083251953124,-4.872426003867387,-4.306524058976769,2.993104834155738
1758273008755041000,11.838041015625,-4.768692657670378,-4.148246637165546,3.0440880024179813
1758273008764998000,11.847997802734374,-4.379970403459668,-3.7464807769864796,2.1657003630399703
1758273008774956000,11.8579560546875,-2.805998500484228,-3.681023677691817,1.173672608217597
1758273008784914000,11.867913818359375,-3.3309202002108096,-3.6242929056882858,0.4673559382036328
1758273008794871000,11.87787109375,-4.553425228397548,-4.168273526149988,1.062376133289933
1758273008804829200,11.8878291015625,-3.5129613594472406,-5.0019864497601985,1.1741305811181664
1758273008814786800,11.897786865234375,-3.330200653764605,-4.570585914295911,1.1850649398475885
1758273008824744000,11.907743896484375,-4.570218250027299,-4.339555975484847,0.9122712042793631
1758273008834702000,11.9177021484375,-5.136968920701742,-3.6544197484046217,1.2577984598860144
1758273008844659200,11.9276591796875,-3.929938817283511,-2.5301363172560927,1.0540911200255154
1758273008854617000,11.9376171875,-1.5383943936377762,-1.665634872150421,0.1661763583675027
1758273008864575000,11.947574951171875,0.4798281009595841,-0.8523948277264833,0.5454159139618278
1758273008874532000,11.957531982421875,2.920014171242714,-1.2348656203269959,0.8311775599136948
1758273008884490000,11.967489990234375,4.925445646393299,-3.5926761166751384,-0.2409378771021962
1758273008894448000,11.9774482421875,5.2358559959113595,-5.238247274962068,-1.9146230769783257
1758273008904405000,11.987405029296875,3.9977848575413226,-5.324217585453391,-3.4062256165638565
1758273008914363100,11.997363037109375,1.8221639889895915,-4.759571193581819,-4.423995715408027
1758273008924320000,12.007320068359375,0.6905974150955677,-3.878600844234228,-5.174119962966442
1758273008934278000,12.01727783203125,0.45499651510715483,-3.190643129992485,-5.655674814653397
1758273008944236000,12.027236083984375,0.35152678828239436,-3.1655075196921825,-5.935862459865212
1758273008954193200,12.037193115234375,0.964224971139431,-3.507360470700264,-5.518380559638143
1758273008964151000,12.047151123046875,1.779995118562877,-3.7568186311274765,-5.228433736956119
1758273008974108000,12.05710791015625,1.9926994193494318,-3.009937018752098,-3.4841894384711978
1758273008984066000,12.067066162109375,1.98898215239197,-1.52982705630064,-1.0811167818561196
1758273008994024000,12.07702392578125,2.1550933365687728,-0.617934329944849,-0.39818332551717756
1758273009003981000,12.08698095703125,2.3741201183751226,0.3541670736581087,-0.3195928961440921
1758273009013939200,12.096939208984375,3.00267784140408,1.1696154417812823,0.42586014473289246
1758273009023896800,12.106896728515625,4.345093735867739,1.7385709290236233,1.7729235727414487
1758273009033854000,12.11685400390625,4.604510687990486,1.6100304738283155,2.0716253642871973
1758273009043812000,12.12681201171875,3.9678696117490526,1.2222685890823601,3.123459645296633
1758273009053769200,12.136769287109376,4.486105550101399,0.9116524878591299,3.400079368893802
1758273009063727000,12.14672705078125,5.343717235693335,1.1476064390689134,2.9669533248111604
1758273009073685000,12.15668505859375,5.2422652784317725,1.537544498810172,2.2789541095152495
1758273009083642000,12.16664208984375,5.5697863372266285,2.3198165735185143,1.5701511756435036
1758273009093600000,12.17660009765625,6.280826236370205,3.496862457561493,1.081328671041131
1758273009103557000,12.18655712890625,6.976525358518957,3.994247915586829,0.5339215832620858
1758273009113515300,12.196515380859376,7.206260581344366,4.166933801978827,1.1517369630023837
1758273009123473000,12.206472900390626,6.470514695489406,4.740020689937472,0.9662634912297129
1758273009133430000,12.216429931640626,6.9617176654875275,4.427563344761729,0.7758519785329699
1758273009143388200,12.22638818359375,6.957492156746983,3.9156168619424103,0.5782444168522953
1758273009153346000,12.236345947265624,6.147950966840982,4.8596442637056105,0.5268091209083795
1758273009163303200,12.24630322265625,5.266501309543847,6.2966433987051245,0.7655357517018914
1758273009173260800,12.2562607421875,4.1716368651032445,7.313139824351668,0.727285223762691
1758273009183218000,12.266218017578124,3.425079662376642,7.712588055238127,0.8599807528108357
1758273009193176000,12.276176025390624,2.509108142274618,7.613260250523686,1.3256091365695
1758273009203134000,12.286134033203124,1.2737819186985493,7.02465605995953,1.1276046845257282
1758273009213091000,12.296091064453124,-0.12210370014607906,5.275590040406584,0.46807577691078184
1758273009223049000,12.306049072265624,-1.851201282903552,2.8563106376171112,-0.34346827725023027
1758273009233006000,12.316006103515624,-4.250059828954935,-0.055765141841769214,-1.4937863133653997
1758273009242964000,12.3259638671875,-7.980354025772214,-3.558634146341681,-2.6590371301963924
1758273009252922000,12.335922119140625,-12.319345937633514,-7.851399144557118,-3.7595901416674256
1758273009262879200,12.345879150390624,-14.554566996145248,-12.155490423429011,-5.58664277948141
1758273009272836900,12.3558369140625,-12.447993360334634,-14.290554825186728,-6.199748958617448
1758273009282795000,12.365794921875,-8.482388186386228,-12.181017663395403,-4.871693305678665
1758273009292752100,12.375752197265625,-6.6950956042915575,-7.212102877631783,-3.5074499025493857
1758273009302710000,12.3857099609375,-5.0539434314906595,-2.3302754236906766,-2.338985968890786
1758273009312667100,12.395667236328125,-2.5580542517513036,1.6369295866698026,-0.9186290488734841
1758273009322625000,12.405625,-0.38020226314663885,4.113217993882298,-0.7525716407105326
1758273009332583000,12.4155830078125,1.598060050049424,3.9547792440295217,-2.813518374595046
1758273009342540000,12.4255400390625,2.8492794238060712,0.4185825549453497,-6.280229439520835
1758273009352498200,12.435498291015625,3.617555706387758,-3.6919910619080065,-7.675895862656831
1758273009362455000,12.445455078125,4.87269956011176,-4.15523284279108,-5.249678769558668
1758273009372413000,12.455412841796875,4.7861803835660215,-1.1075678586691617,-0.15191694686859844
1758273009382371000,12.46537109375,6.167249541550874,0.48129766205549235,1.5476234097540378
1758273009392328000,12.475327880859375,6.1737657915771,1.7732313235163688,0.09221534236073493
1758273009402286000,12.4852861328125,6.389879316285252,3.5550942817777393,-0.4252840984106064
1758273009412243200,12.4952431640625,7.79462453341186,5.558281777393818,0.04559299965649843
1758273009422200800,12.505200927734375,4.775345101296901,6.180284964212775,-0.8190010921686888
1758273009432159000,12.515158935546875,-0.8805021473139524,4.463075387647748,-0.8753340970262885
1758273009442116000,12.5251162109375,-3.226165694272518,0.7906967887043952,0.2800909068390727
1758273009452074000,12.535073974609375,5.368508562600613,-2.8572803594321012,2.6458400872319934
1758273009462031000,12.545031005859375,12.163089207994938,-4.053153693541884,5.578146169292927
1758273009471989000,12.554989013671875,10.085555788707733,-4.903056704452633,3.591792319577932
1758273009481947000,12.56494677734375,5.59686372924447,-4.949195939815044,1.4474036246359347
1758273009491904000,12.574904052734375,3.1568995580837127,-3.997039592131972,1.6137237753883003
1758273009501862100,12.584862060546875,1.8899042307853697,-3.2145787168532607,1.3766072101399303
1758273009511820000,12.594820068359375,1.9067714866951107,-2.5291519823938606,0.7569795202806592
1758273009521777000,12.60477685546875,2.448231064246595,-1.84650523404181,0.0843085147589445
1758273009531735000,12.614735107421875,2.122900793494284,-0.9643640873491763,0.13364537711888552
1758273009541692000,12.62469189453125,1.4558606334663926,-0.5306745641648769,0.3433861519247293
1758273009551650000,12.634650146484375,0.7531412572920322,-0.531940638577938,0.18973434408754108
1758273009561608200,12.644608154296876,0.46593540388122195,-0.018841478592157363,0.17324907323271035
1758273009571564800,12.654564697265625,0.5173967110492289,0.5600386058151722,-0.12701280723661185
1758273009581523000,12.66452294921875,0.057914282699674365,1.4929852261155843,-0.6684189010351896
1758273009591480000,12.67447998046875,-0.08841127390265464,2.337594806793332,-0.01895049192458391
1758273009601438000,12.68443798828125,0.028817002226784825,2.35994107863605,0.48322161585539575
1758273009611396000,12.69439599609375,-0.8178828287284821,2.411269699335098,0.36532735009789463
1758273009621353000,12.70435302734375,-1.4025614433467388,2.2190262950360773,0.22650325516685843
