time,seconds_elapsed,z,y,x
1758272996965165600,0.04816552734375,-0.03348159417510033,-0.4721670150756836,0.1412954479455948
1758272996975122700,0.058122802734375,0.016777247190475464,-0.5680436491966248,0.2776975929737091
1758272996985080800,0.068080810546875,0.04148685559630394,-0.6068815588951111,0.3669832646846771
1758272996995038700,0.078038818359375,0.0990302637219429,-0.6069181561470032,0.44322144985198975
1758272997004995600,0.08799560546875,0.14805692434310913,-0.5258696675300598,0.5634186863899231
1758272997014953700,0.09795361328125,0.20776627957820892,-0.3757001459598541,0.7325509190559387
1758272997024911600,0.10791162109375,0.231561079621315,-0.358187735080719,0.9250058531761169
1758272997034868700,0.11786865234375,0.23171792924404144,-0.48951974511146545,1.0881457328796387
1758272997044826600,0.12782666015625,0.22289808094501495,-0.4370459020137787,1.1899484395980835
1758272997054784500,0.137784423828125,0.23062089085578918,-0.08027343451976776,1.1964340209960938
1758272997064741600,0.14774169921875,0.2737957835197449,0.41441965103149414,1.1439419984817505
1758272997074699500,0.157699462890625,0.2971135079860687,0.46798208355903625,1.036560297012329
1758272997084657700,0.16765771484375,0.3957015872001648,0.026056870818138123,0.8748457431793213
1758272997094614800,0.17761474609375,0.5710836052894592,-0.26715168356895447,0.8025262951850891
1758272997104572400,0.187572509765625,0.765658438205719,-0.4438476264476776,0.887775719165802
1758272997114530600,0.197530517578125,0.8985776305198669,-0.7105011343955994,1.107433557510376
1758272997124487700,0.20748779296875,0.9039074182510376,-0.770980715751648,1.4168803691864014
1758272997134445600,0.217445556640625,0.7587710618972778,-0.8539987802505493,1.68685781955719
1758272997144403700,0.22740380859375,0.5531867742538452,-0.8112561106681824,1.8359365463256836
1758272997154360600,0.237360595703125,0.4022730588912964,-0.8779402375221252,1.7836023569107056
1758272997164318500,0.247318359375,0.32927900552749634,-0.9620678424835205,1.4869353771209717
1758272997174276600,0.257276611328125,0.2596185505390167,-0.9477044939994812,1.0104737281799316
1758272997184232700,0.267232666015625,0.06742405891418457,-1.0287501811981201,0.4785371422767639
1758272997194190800,0.27719091796875,-0.2205432951450348,-1.425801396369934,-0.09769394993782043
1758272997204148700,0.287148681640625,-0.513577401638031,-2.1584320068359375,-0.6650876998901367
1758272997214105900,0.29710595703125,-0.7969789505004883,-2.635571002960205,-1.1651219129562378
1758272997224064000,0.30706396484375,-1.0437325239181519,-2.5299694538116455,-1.6333324909210205
1758272997234021600,0.317021728515625,-1.1741341352462769,-2.047015905380249,-2.0016918182373047
1758272997243978800,0.326978759765625,-1.0021942853927612,-1.145554780960083,-1.9047911167144775
1758272997253936600,0.3369365234375,-0.7835006713867188,-0.34055253863334656,-1.5883477926254272
1758272997263894800,0.346894775390625,-0.07048138976097107,-0.09244099259376526,-1.3079168796539307
1758272997273852000,0.356851806640625,0.7003695368766785,0.18873965740203857,-1.115648627281189
1758272997283809500,0.3668095703125,0.7284384369850159,0.11993741989135742,-1.2148876190185547
1758272997293767700,0.376767578125,0.784394383430481,-0.28434422612190247,-1.4244776964187622
1758272997303724800,0.386724853515625,1.0969983339309692,-0.8325918912887573,-1.6167925596237183
1758272997313682700,0.3966826171875,1.4077898263931274,-1.3640565872192383,-1.8143179416656494
1758272997323640800,0.406640869140625,1.5688776969909668,-1.7120918035507202,-1.972542405128479
1758272997333597700,0.41659765625,1.586258888244629,-1.9348584413528442,-2.0770318508148193
1758272997343555600,0.4265556640625,1.3881030082702637,-1.7923601865768433,-2.1179707050323486
1758272997353513700,0.436513671875,0.9800668954849243,-1.286886215209961,-2.1678473949432373
1758272997363470800,0.446470947265625,0.5752483010292053,-0.6581972241401672,-2.347719192504883
1758272997373428700,0.4564287109375,0.4239470958709717,-0.42057961225509644,-2.5673575401306152
1758272997383387000,0.466386962890625,0.530388593673706,-0.40718284249305725,-2.6091530323028564
1758272997393344800,0.4763447265625,0.7016826272010803,-0.3756214678287506,-2.4921164512634277
1758272997403301600,0.486301513671875,0.8430594801902771,-0.3041344881057739,-2.2620553970336914
1758272997413259800,0.496259765625,0.903843343257904,-0.3380935490131378,-2.002276659011841
1758272997423217700,0.5062177734375,0.8292077779769897,-0.5783849954605103,-1.7939897775650024
1758272997433174800,0.5161748046875,0.684786319732666,-0.8810535073280334,-1.6794342994689941
1758272997443133000,0.5261328125,0.5538261532783508,-1.0486968755722046,-1.6740059852600098
1758272997453090600,0.536090576171875,0.47709739208221436,-0.9884642362594604,-1.7804323434829712
1758272997463047700,0.546047607421875,0.4608020484447479,-0.8604572415351868,-1.9412322044372559
1758272997473005800,0.556005859375,0.46841108798980713,-0.7439733743667603,-2.101529598236084
1758272997482963700,0.565963623046875,0.4922703504562378,-0.6101165413856506,-2.211259365081787
1758272997492920800,0.5759208984375,0.5374681949615479,-0.5190140604972839,-2.1935207843780518
1758272997502878700,0.585878662109375,0.5255444645881653,-0.4783329367637634,-2.0036802291870117
1758272997512836600,0.595836669921875,0.48273056745529175,-0.48303061723709106,-1.7079296112060547
1758272997522793700,0.605793701171875,0.403324693441391,-0.5892305374145508,-1.4185066223144531
1758272997532752000,0.615751953125,0.34178397059440613,-0.7724798917770386,-1.185331106185913
1758272997542709800,0.625709716796875,0.3195186257362366,-0.8968737721443176,-1.0477145910263062
1758272997552666600,0.63566650390625,0.3172076940536499,-0.8969887495040894,-0.9876707196235657
1758272997562624800,0.645624755859375,0.3232048749923706,-0.7789121866226196,-0.942062497138977
1758272997572582700,0.655582763671875,0.31197234988212585,-0.6374484300613403,-0.9064894318580627
1758272997582539800,0.665539794921875,0.28470131754875183,-0.4675557613372803,-0.9180275797843933
1758272997592498000,0.675497802734375,0.2849370539188385,-0.324065625667572,-0.9426201581954956
1758272997602455800,0.685455810546875,0.37892425060272217,-0.2636600732803345,-0.94012850522995
1758272997612412700,0.69541259765625,0.5474752187728882,-0.22952832281589508,-0.9040290117263794
1758272997622370800,0.705370849609375,0.700515627861023,-0.26954126358032227,-0.8362566232681274
1758272997632328700,0.71532861328125,0.8392424583435059,-0.3641292154788971,-0.7349336743354797
1758272997642285800,0.725285888671875,0.9015194177627563,-0.41162431240081787,-0.6804414391517639
1758272997652244000,0.735243896484375,0.8853461742401123,-0.4243011474609375,-0.6722757816314697
1758272997662201900,0.745201904296875,0.8985333442687988,-0.41290363669395447,-0.6580267548561096
1758272997672158700,0.75515869140625,0.9625877141952515,-0.4121340215206146,-0.6348417401313782
1758272997682116900,0.765116943359375,1.0184634923934937,-0.496830016374588,-0.5864558219909668
1758272997692074800,0.77507470703125,1.1010738611221313,-0.5957325100898743,-0.5154072046279907
1758272997702032000,0.785031982421875,1.1867636442184448,-0.6455573439598083,-0.43130725622177124
1758272997711989800,0.79498974609375,1.2942464351654053,-0.7807985544204712,-0.3003504276275635
1758272997721947600,0.80494775390625,1.5403823852539062,-1.0703845024108887,-0.11338774114847183
1758272997731904800,0.81490478515625,1.945617914199829,-1.540995717048645,0.1426771581172943
1758272997741862700,0.824862548828125,2.568772077560425,-2.198758840560913,0.5338134765625
1758272997751820800,0.83482080078125,3.346799373626709,-3.1301426887512207,1.0809473991394043
1758272997761778000,0.84477783203125,4.093169689178467,-4.235231876373291,1.7663297653198242
1758272997771735600,0.854735595703125,4.748286724090576,-5.322110176086426,2.549395799636841
1758272997781693700,0.864693603515625,5.2241668701171875,-6.110459804534912,3.316680908203125
1758272997791650800,0.87465087890625,5.517892360687256,-6.46134614944458,3.943655014038086
1758272997801608700,0.884608642578125,5.809944152832031,-6.4228715896606445,4.227739334106445
1758272997811566800,0.89456689453125,6.087757110595703,-6.268626689910889,4.1502275466918945
1758272997821523700,0.904523681640625,6.341424942016602,-6.098012447357178,3.8765525817871094
1758272997831481600,0.914481689453125,6.448440074920654,-5.97360897064209,3.5518276691436768
1758272997841439700,0.924439697265625,6.329395771026611,-5.901975631713867,3.2812790870666504
1758272997851396900,0.93439697265625,6.028592586517334,-5.523048400878906,3.056891918182373
1758272997861354800,0.944354736328125,5.568673610687256,-4.834889888763428,2.8935484886169434
1758272997871313000,0.95431298828125,5.042184829711914,-4.163267135620117,2.7291038036346436
1758272997881269800,0.964269775390625,4.483136177062988,-3.6662895679473877,2.4785819053649902
1758272997891227600,0.9742275390625,3.89247465133667,-3.361128807067871,2.1808390617370605
1758272997901185800,0.984185791015625,3.2895238399505615,-3.1105475425720215,1.8907326459884644
1758272997911143000,0.994142822265625,2.7881693840026855,-2.742480516433716,1.6149216890335083
1758272997921100800,1.004100830078125,2.491616725921631,-2.477796792984009,1.361143946647644
1758272997931059000,1.014058837890625,2.359391689300537,-2.3873839378356934,1.1542490720748901
1758272997941015800,1.024015869140625,2.353400945663452,-2.5256025791168213,0.9209313988685608
1758272997950973700,1.0339736328125,2.428922653198242,-2.841541051864624,0.6252679824829102
1758272997960931800,1.043931884765625,2.481447458267212,-3.1266298294067383,0.06123441830277443
1758272997970889000,1.053888916015625,2.598146915435791,-3.2171413898468018,-0.5665040612220764
1758272997980846800,1.063846923828125,2.3778154850006104,-3.1648519039154053,-1.220104455947876
1758272997990804700,1.0738046875,2.3666129112243652,-3.0160839557647705,-1.8437763452529907
1758272998000761900,1.083761962890625,2.6971113681793213,-2.5701427459716797,-2.1127822399139404
1758272998010719700,1.0937197265625,2.9734296798706055,-2.1779181957244873,-1.8293081521987915
1758272998020678000,1.103677978515625,3.2771828174591064,-2.247344493865967,-1.568560242652893
1758272998030635000,1.113635009765625,3.259493589401245,-2.7429091930389404,-0.9800900816917419
1758272998040592600,1.123592529296875,3.168766736984253,-3.605502128601074,-0.5985275506973267
1758272998050550800,1.13355078125,2.9891602993011475,-3.865060806274414,-0.6065459847450256
1758272998060507600,1.143507568359375,2.5999841690063477,-3.141155958175659,-0.8955594301223755
1758272998070465800,1.1534658203125,2.131077766418457,-2.0180585384368896,-1.3502975702285767
1758272998080424000,1.163423828125,1.5628989934921265,-0.9703011512756348,-1.8366930484771729
1758272998090380500,1.173380615234375,0.9216516017913818,-0.08622997999191284,-2.213270425796509
1758272998100338700,1.183338623046875,0.46592003107070923,0.8060083389282227,-2.1528589725494385
1758272998110296800,1.193296875,0.25090092420578003,1.0727993249893188,-1.6329907178878784
1758272998120253700,1.203253662109375,0.5849220752716064,0.4027291536331177,-1.494465947151184
1758272998130211800,1.2132119140625,0.5706592202186584,0.2979975938796997,-1.7036147117614746
1758272998140170000,1.223169921875,0.7881763577461243,0.9542796015739441,-1.9145162105560303
1758272998150126600,1.233126708984375,1.8014007806777954,0.3121577203273773,-2.295118808746338
1758272998160084700,1.243084716796875,2.5602145195007324,-0.5601189136505127,-2.3999972343444824
1758272998170043000,1.25304296875,3.026292562484741,-0.37422531843185425,-2.196127414703369
1758272998180000300,1.263000244140625,3.1309361457824707,-0.21269795298576355,-1.58799409866333
1758272998189958400,1.27295849609375,3.0244202613830566,-0.2134433388710022,-0.7056336402893066
1758272998199916300,1.282916259765625,2.885814666748047,-0.19377350807189941,0.27867865562438965
1758272998209873400,1.292873291015625,2.772034168243408,-0.030072318390011787,1.20697021484375
1758272998219831600,1.30283154296875,2.7284598350524902,0.10949517041444778,1.965491533279419
1758272998229789200,1.3127890625,2.780604600906372,0.1433897465467453,2.5138025283813477
1758272998239746300,1.322746337890625,2.9411566257476807,-0.004255110863596201,2.66339373588562
1758272998249704400,1.332704345703125,3.0848453044891357,-0.7647074460983276,2.0490458011627197
1758272998259662300,1.342662353515625,3.1828315258026123,-0.8518497943878174,0.89696204662323
1758272998269619500,1.352619384765625,3.40444016456604,0.6419022083282471,-0.008185865357518196
1758272998279577300,1.362577392578125,3.734149932861328,1.8530136346817017,-0.6877036690711975
1758272998289535200,1.37253515625,4.084804058074951,1.5954216718673706,-1.1522929668426514
1758272998299492400,1.382492431640625,4.3903632164001465,0.6453805565834045,-1.1290574073791504
1758272998309450500,1.392450439453125,4.611903190612793,-0.5197823643684387,-0.41658395528793335
1758272998319408400,1.402408447265625,4.745240211486816,-1.0532617568969727,0.6176770329475403
1758272998329365200,1.412365234375,4.908175468444824,-0.8925389051437378,1.2456032037734985
1758272998339323400,1.422323486328125,5.040515422821045,-0.8596664071083069,1.1986095905303955
1758272998349281300,1.43228125,5.126157283782959,-0.883490800857544,0.7709781527519226
1758272998359238400,1.44223828125,5.051988124847412,-0.8943053483963013,0.3365217447280884
1758272998369196300,1.4521962890625,4.704170227050781,-0.877086341381073,-0.22170495986938477
1758272998379154400,1.462154541015625,4.0730109214782715,-0.8011569380760193,-0.6416489481925964
1758272998389111300,1.472111328125,3.4486966133117676,-0.6519264578819275,-0.7551906704902649
1758272998399069200,1.482069091796875,3.7398135662078857,-0.951515793800354,-0.7791069149971008
1758272998409027300,1.49202734375,5.120237350463867,-1.8838587999343872,-1.2158524990081787
1758272998418984400,1.501984375,4.636908054351807,-2.5152153968811035,-1.903401255607605
1758272998428942300,1.5119423828125,2.234081983566284,-2.1810266971588135,-1.1919803619384766
1758272998438900500,1.521900390625,0.5845124125480652,-1.81846284866333,-0.22953663766384125
1758272998448857300,1.531857421875,-0.18720722198486328,-0.9599517583847046,0.2465965449810028
1758272998458815200,1.541815185546875,-0.35609158873558044,0.3412626087665558,0.549766480922699
1758272998468773400,1.5517734375,-0.2256915271282196,1.2624789476394653,0.7206177115440369
1758272998478730500,1.56173046875,-0.06351779401302338,0.8930119276046753,0.6118707060813904
1758272998488688400,1.5716884765625,-0.012288814410567284,-0.04992854967713356,0.47508320212364197
1758272998498646300,1.581646240234375,0.02035168558359146,-0.4630303680896759,0.4410988688468933
1758272998508603400,1.591603271484375,-0.03973863273859024,-0.10692476481199265,0.48651379346847534
1758272998518561300,1.601561279296875,-0.06098293513059616,0.27915796637535095,0.5230598449707031
1758272998528519400,1.61151953125,-0.043813034892082214,0.4542672038078308,0.5430399179458618
1758272998538476500,1.6214765625,-0.036602262407541275,0.39290955662727356,0.5267655849456787
1758272998548434200,1.63143408203125,0.015574159100651741,0.16587162017822266,0.5148023962974548
1758272998558392300,1.641392333984375,0.08880549669265747,-0.11953669786453247,0.5068947076797485
1758272998568349400,1.651349365234375,0.14699971675872803,-0.2409471571445465,0.5206117033958435
1758272998578307300,1.661307373046875,0.17500579357147217,-0.23531323671340942,0.5237036347389221
1758272998588265500,1.671265380859375,0.17224377393722534,-0.07908021658658981,0.480462908744812
1758272998598222300,1.681222412109375,0.12376973032951355,0.1126822978258133,0.5303857326507568
1758272998608180200,1.69118017578125,0.10197018086910248,0.2722644805908203,0.5896561145782471
1758272998618138400,1.701138427734375,0.10920785367488861,0.4551994204521179,0.5784609913825989
1758272998628095500,1.711095458984375,0.1138916090130806,0.47912365198135376,0.5813487768173218
1758272998638053400,1.721053466796875,0.08081887662410736,0.5832000374794006,0.6216809749603271
1758272998648011500,1.731011474609375,0.06243423372507095,0.7916195392608643,0.6533089876174927
1758272998657968400,1.740968505859375,0.04419025033712387,0.9091589450836182,0.6673433184623718
1758272998667926300,1.75092626953125,0.0312926359474659,0.9210799932479858,0.667410135269165
1758272998677884400,1.760884521484375,0.02853466384112835,0.909571647644043,0.6656903028488159
1758272998687841500,1.770841552734375,0.03973930701613426,0.8768513202667236,0.6595112681388855
1758272998697799400,1.78079931640625,0.05055680125951767,0.841031014919281,0.657166063785553
1758272998707757600,1.790757568359375,0.060040585696697235,0.763550877571106,0.6485278606414795
1758272998717714400,1.80071435546875,0.06144114211201668,0.670305073261261,0.6372597217559814
1758272998727672300,1.81067236328125,0.05001383647322655,0.6056618094444275,0.6239953637123108
1758272998737630500,1.82063037109375,0.05773220956325531,0.6263673305511475,0.589836597442627
1758272998747587300,1.83058740234375,0.067807137966156,0.6854724884033203,0.5552277565002441
1758272998757545500,1.84054541015625,0.05804399400949478,0.6671760082244873,0.5612885355949402
1758272998767503400,1.85050341796875,0.040724288672208786,0.6208612322807312,0.5514624714851379
1758272998777460200,1.860460205078125,0.004902908578515053,0.5654314756393433,0.4616486728191376
1758272998787418400,1.87041845703125,-0.011673263274133205,0.45340046286582947,0.29317304491996765
1758272998797375500,1.88037548828125,-0.029371831566095352,0.27575960755348206,0.09685972332954407
1758272998807333400,1.89033349609375,-0.06236369162797928,0.18653613328933716,-0.06819719821214676
1758272998817291300,1.900291259765625,-0.06129230186343193,0.16212213039398193,-0.2152486890554428
1758272998827248400,1.910248291015625,0.004843732342123985,0.19215542078018188,-0.37112513184547424
1758272998837206300,1.920206298828125,0.08278913050889969,0.279859721660614,-0.5657814741134644
1758272998847164400,1.930164306640625,0.0979098305106163,0.46642664074897766,-0.8425459265708923
1758272998857121500,1.94012158203125,0.024199392646551132,0.7424068450927734,-1.1709836721420288
1758272998867079200,1.9500791015625,-0.1303333044052124,0.8928182721138,-1.4248062372207642
1758272998877037300,1.960037353515625,-0.3275550305843353,0.5391284227371216,-1.5808906555175781
1758272998886994400,1.969994384765625,-0.47169438004493713,-0.18301285803318024,-1.8237041234970093
1758272998896952300,1.979952392578125,-0.4961744248867035,-0.7756087779998779,-2.261246681213379
1758272998906910500,1.989910400390625,-0.4268569350242615,-0.8845793008804321,-2.6230084896087646
1758272998916867300,1.999867431640625,-0.34078356623649597,-0.6954258680343628,-2.8355414867401123
1758272998926825200,2.0098251953125,-0.2319074273109436,-0.5218378305435181,-2.942131280899048
1758272998936783400,2.019783447265625,-0.22202709317207336,-0.5177362561225891,-3.0160651206970215
1758272998946740500,2.029740478515625,-0.2009405642747879,-0.23150734603405,-3.138712167739868
1758272998956698400,2.039698486328125,-0.11422111839056015,0.3954572379589081,-3.0726993083953857
1758272998966656500,2.049656494140625,-0.1267196089029312,0.8766307830810547,-2.8412137031555176
1758272998976613400,2.05961328125,-0.17514359951019287,0.9477648735046387,-2.684260606765747
1758272998986571300,2.0695712890625,-0.18356859683990479,0.8274469375610352,-2.574599266052246
1758272998996529400,2.079529296875,-0.17001497745513916,0.7595173716545105,-2.4745919704437256
1758272999006486500,2.089486572265625,-0.21763619780540466,0.7521491646766663,-2.373699903488159
1758272999016444400,2.0994443359375,-0.26536720991134644,0.6069190502166748,-2.230558395385742
1758272999026402600,2.109402587890625,-0.22985051572322845,0.09068098664283752,-2.197499990463257
1758272999036359400,2.119359375,-0.11510955542325974,-0.3947512209415436,-2.3176565170288086
1758272999046317300,2.1293173828125,-0.02439150959253311,-0.6254186034202576,-2.5401546955108643
1758272999056275500,2.139275390625,0.019625749439001083,-0.39676523208618164,-2.6601600646972656
1758272999066232300,2.149232421875,-0.03973357379436493,-0.21977435052394867,-2.6207222938537598
1758272999076190500,2.1591904296875,-0.11639026552438736,-0.14083291590213776,-2.456096649169922
1758272999086148400,2.1691484375,-0.18573476374149323,-0.015804700553417206,-2.214007616043091
1758272999096105200,2.179105224609375,-0.19063737988471985,0.1404205858707428,-2.0169296264648438
1758272999106063400,2.1890634765625,-0.23538263142108917,0.2886890470981598,-1.8339648246765137
1758272999116021500,2.199021484375,-0.2499871402978897,0.256283700466156,-1.6898947954177856
1758272999125978400,2.208978271484375,-0.2655830979347229,-0.031564462929964066,-1.5774304866790771
1758272999135936300,2.218936279296875,-0.1605094075202942,-0.36364442110061646,-1.5804691314697266
1758272999145894400,2.228894287109375,-0.04042403772473335,-0.6438289284706116,-1.5835158824920654
1758272999155851300,2.238851318359375,-0.051398128271102905,-0.9097434878349304,-1.573324203491211
1758272999165809400,2.248809326171875,-0.06436049193143845,-1.2213267087936401,-1.5476890802383423
1758272999175767300,2.258767333984375,-0.02961583249270916,-1.514133095741272,-1.5332698822021484
1758272999185724700,2.268724609375,0.020801816135644913,-1.745827317237854,-1.5071463584899902
1758272999195682800,2.278682861328125,0.03270002454519272,-1.920142650604248,-1.4373235702514648
1758272999205640700,2.288640625,-0.05777968466281891,-2.0749454498291016,-1.324549913406372
1758272999215597600,2.29859765625,-0.21121157705783844,-2.1595773696899414,-1.2825590372085571
1758272999225555700,2.3085556640625,-0.32340556383132935,-2.1332123279571533,-1.2234662771224976
1758272999235513600,2.318513671875,-0.35634753108024597,-2.0139129161834717,-1.0975037813186646
1758272999245470700,2.328470703125,-0.3422703444957733,-1.833956003189087,-0.8789793848991394
1758272999255428900,2.338428955078125,-0.28377479314804077,-1.6138285398483276,-0.5725022554397583
1758272999265386800,2.34838671875,-0.23104199767112732,-1.4353573322296143,-0.21997538208961487
1758272999275343600,2.358343505859375,-0.184850811958313,-1.2702754735946655,0.1392190009355545
1758272999285301800,2.3683017578125,-0.1842740774154663,-1.086409091949463,0.47933006286621094
1758272999295259600,2.378259765625,-0.1931019276380539,-0.7961370348930359,0.8103125095367432
1758272999305216800,2.388216796875,-0.2212618589401245,-0.46743884682655334,1.0774006843566895
1758272999315175000,2.3981748046875,-0.14553594589233398,-0.28973808884620667,1.2298376560211182
1758272999325132800,2.4081328125,-0.08357250690460205,-0.26391851902008057,1.2540863752365112
1758272999335089700,2.418089599609375,-0.060906607657670975,-0.2418030947446823,1.1847409009933472
1758272999345047800,2.4280478515625,-0.0663614347577095,-0.23098163306713104,1.0409518480300903
1758272999355005700,2.438005615234375,-0.07901331037282944,-0.25924310088157654,0.8034626841545105
1758272999364962800,2.447962890625,-0.0898146703839302,-0.355610728263855,0.4658256769180298
1758272999374921000,2.4579208984375,-0.10074242204427719,-0.5037432312965393,0.0818047821521759
1758272999384878600,2.467878662109375,-0.14474304020404816,-0.6897137761116028,-0.24924097955226898
1758272999394835700,2.477835693359375,-0.22691966593265533,-0.9449790716171265,-0.4552457928657532
1758272999404793900,2.4877939453125,-0.2963484525680542,-1.1065717935562134,-0.5612294673919678
1758272999414751700,2.497751708984375,-0.35223010182380676,-1.0420351028442383,-0.6125874519348145
1758272999424708900,2.507708984375,-0.4154629111289978,-0.8397703170776367,-0.6340675950050354
1758272999434666800,2.517666748046875,-0.5089731216430664,-0.4957898259162903,-0.5741486549377441
1758272999444624600,2.527624755859375,-0.6500949859619141,-0.18231341242790222,-0.46939992904663086
1758272999454581800,2.537581787109375,-0.7436073422431946,0.0487472265958786,-0.36057227849960327
1758272999464539600,2.54753955078125,-0.6940422058105469,0.20838509500026703,-0.26381805539131165
1758272999474497800,2.557497802734375,-0.39877912402153015,0.3782753348350525,-0.039728473871946335
1758272999484454700,2.56745458984375,0.13522599637508392,0.5859016180038452,0.4131042957305908
1758272999494412500,2.57741259765625,0.5608760714530945,0.7902491688728333,0.7730928063392639
1758272999504370700,2.58737060546875,0.540815532207489,0.9023215174674988,0.6088564395904541
1758272999514327800,2.597327880859375,0.23818086087703705,1.058017611503601,0.2502487599849701
1758272999524285700,2.60728564453125,0.009731661528348923,0.9794028997421265,0.23886364698410034
1758272999534243800,2.617243896484375,0.11073310673236847,0.7440012693405151,0.49188417196273804
1758272999544200700,2.62720068359375,0.2969866394996643,0.8476177453994751,0.7444032430648804
1758272999554158600,2.63715869140625,0.4781319200992584,1.1411817073822021,1.07266104221344
1758272999564116700,2.64711669921875,0.6284857988357544,1.2605215311050415,1.2814393043518066
1758272999574073900,2.657073974609375,0.7199491262435913,1.1197715997695923,1.1504673957824707
1758272999584031700,2.66703173828125,0.7486425638198853,0.9085525274276733,0.9073695540428162
1758272999593990000,2.676989990234375,0.7051259875297546,0.6316357254981995,1.1232919692993164
1758272999603946800,2.68694677734375,0.48847365379333496,0.3146494925022125,1.9218637943267822
1758272999613904600,2.696904541015625,0.029351631179451942,0.24857273697853088,2.738621711730957
1758272999623862800,2.70686279296875,-0.1333337277173996,0.173091858625412,3.078373908996582
1758272999633820000,2.71681982421875,-0.1809702217578888,0.3415761888027191,2.8039863109588623
1758272999643777800,2.72677783203125,-0.2084469497203827,0.5892927050590515,2.1676957607269287
1758272999653735700,2.736735595703125,-0.22237874567508698,0.783586323261261,1.5899111032485962
1758272999663692800,2.74669287109375,-0.20921708643436432,0.821278989315033,1.2962608337402344
1758272999673650700,2.756650634765625,-0.177989661693573,0.7566909790039062,1.271241545677185
1758272999683608800,2.76660888671875,-0.06846921890974045,0.5686966180801392,1.384505271911621
1758272999693566000,2.77656591796875,0.11664523929357529,0.27573928236961365,1.5330380201339722
1758272999703523600,2.786523681640625,0.35666391253471375,-0.04316923767328262,1.7741950750350952
1758272999713481700,2.796481689453125,0.566718339920044,-0.4182906746864319,2.024980306625366
1758272999723438800,2.80643896484375,0.7202141284942627,-0.879587709903717,2.1770200729370117
1758272999733396700,2.816396728515625,0.8356876969337463,-1.289920449256897,2.2223076820373535
1758272999743355000,2.82635498046875,0.8467328548431396,-1.5974304676055908,2.0715503692626953
1758272999753311700,2.836311767578125,0.7244762182235718,-1.6344527006149292,1.6478922367095947
1758272999763269600,2.84626953125,0.42214176058769226,-1.2786976099014282,1.1988874673843384
1758272999773227800,2.856227783203125,0.028259433805942535,-0.6890431642532349,1.005180835723877
1758272999783184600,2.8661845703125,-0.237404465675354,-0.17590609192848206,1.0790205001831055
1758272999793142800,2.876142822265625,-0.3446153402328491,0.16111987829208374,1.2860628366470337
1758272999803099600,2.886099609375,-0.34935319423675537,0.3919447064399719,1.5745253562927246
1758272999813057500,2.8960576171875,-0.34972789883613586,0.6241267919540405,1.9274650812149048
1758272999823015700,2.906015625,-0.31302523612976074,0.6523836255073547,2.137143850326538
1758272999832972800,2.915972900390625,-0.22046175599098206,0.6056779026985168,2.0266594886779785
1758272999842930700,2.9259306640625,-0.1274719089269638,0.5418196320533752,1.7192587852478027
1758272999852888800,2.935888916015625,-0.03687862679362297,0.4157000780105591,1.399675965309143
1758272999862845700,2.945845703125,0.05518405884504318,0.17263393104076385,1.265518069267273
1758272999872803600,2.955803466796875,0.1288127303123474,-0.0824393704533577,1.3116120100021362
1758272999882761700,2.96576171875,0.159844309091568,-0.1305057406425476,1.3718171119689941
1758272999892718800,2.97571875,0.1597612202167511,0.03188450261950493,1.393639087677002
1758272999902676700,2.9856767578125,0.2142171710729599,0.1095392033457756,1.3947780132293701
1758272999912635000,2.995634765625,0.3105860650539398,-0.0556659922003746,1.3583910465240479
1758272999922591700,3.005591796875,0.41614535450935364,-0.26958954334259033,1.30668044090271
1758272999932549600,3.015549560546875,0.44012367725372314,-0.40612155199050903,1.2768259048461914
1758272999942507800,3.0255078125,0.3256078064441681,-0.46057015657424927,1.3281254768371582
1758272999952465000,3.03546484375,0.2624746263027191,-0.3407074213027954,1.3900237083435059
1758272999962422800,3.0454228515625,0.25512728095054626,-0.06799013167619705,1.3100939989089966
1758272999972380700,3.055380615234375,0.17272882163524628,0.018171384930610657,1.1442503929138184
1758272999982337800,3.065337890625,0.12195298820734024,-0.13885903358459473,0.9048393368721008
1758272999992295700,3.075295654296875,0.12822234630584717,-0.5010108947753906,0.54573655128479
1758273000002253800,3.08525390625,0.20749987661838531,-0.8026122450828552,0.14012949168682098
1758273000012211000,3.0952109375,0.22723762691020966,-0.9136490225791931,-0.1945965737104416
1758273000022168600,3.10516845703125,0.2321019172668457,-1.0308345556259155,-0.3595953583717346
1758273000032126700,3.115126708984375,0.25856679677963257,-1.1473745107650757,-0.5357477068901062
1758273000042083800,3.125083740234375,0.1614048033952713,-1.1024796962738037,-0.7128556370735168
1758273000052041700,3.135041748046875,0.03593156859278679,-0.7990292906761169,-0.8266546726226807
1758273000061999900,3.144999755859375,-0.12352883815765381,-0.0836176872253418,-0.8257546424865723
1758273000071956700,3.154956787109375,-0.1876489669084549,1.0006515979766846,-0.873891294002533
1758273000081914600,3.16491455078125,-0.30123406648635864,1.8911638259887695,-1.0456960201263428
1758273000091872800,3.174872802734375,-0.5306629538536072,1.940510630607605,-1.322521686553955
1758273000101830000,3.184829833984375,-0.6606424450874329,1.3963266611099243,-1.6841262578964233
1758273000111787800,3.194787841796875,-0.5576119422912598,0.8448011875152588,-2.2557740211486816
1758273000121746000,3.204745849609375,-0.5327692627906799,0.45375269651412964,-2.872144937515259
1758273000131702800,3.214702880859375,-0.5091030597686768,0.2960629165172577,-3.2660133838653564
1758273000141660700,3.22466064453125,-0.5211308002471924,0.04272310063242912,-3.2389094829559326
1758273000151618800,3.234618896484375,-0.48504015803337097,-0.32436782121658325,-3.142981767654419
1758273000161575700,3.24457568359375,-0.3667755126953125,-0.4303532838821411,-3.1558890342712402
1758273000171533800,3.254533935546875,-0.22647911310195923,-0.09513107687234879,-3.206838369369507
1758273000181491500,3.264491455078125,-0.14877046644687653,0.43163007497787476,-3.1690585613250732
1758273000191448600,3.274448486328125,-0.05296030640602112,0.6714584231376648,-3.1598167419433594
1758273000201406500,3.284406494140625,0.12427011132240295,0.4616791605949402,-3.1496145725250244
1758273000211364400,3.2943642578125,0.2924143970012665,0.1971026510000229,-3.01407790184021
1758273000221321500,3.304321533203125,0.33583763241767883,0.14148175716400146,-2.7712063789367676
1758273000231279400,3.314279296875,0.3793632686138153,0.25573402643203735,-2.6043965816497803
1758273000241237500,3.324237548828125,0.5419382452964783,0.5289614200592041,-2.5243778228759766
1758273000251194400,3.3341943359375,0.7543625831604004,0.8066167831420898,-2.5188210010528564
1758273000261152300,3.34415234375,0.7705397605895996,1.062744379043579,-2.415004014968872
1758273000271110400,3.3541103515625,0.41026654839515686,1.33517324924469,-2.232085943222046
1758273000281067300,3.3640673828125,0.06352866441011429,1.4023388624191284,-2.01177978515625
1758273000291025400,3.374025390625,-0.06285909563302994,1.3869465589523315,-1.798818826675415
1758273000300983600,3.383983642578125,-0.17857301235198975,1.4837406873703003,-1.5093733072280884
1758273000310940200,3.393940185546875,-0.17577029764652252,1.5438679456710815,-1.2809745073318481
1758273000320898300,3.403898193359375,-0.1000564843416214,1.4089864492416382,-1.2528678178787231
1758273000330856400,3.4138564453125,0.1203422024846077,0.8601157069206238,-1.4721804857254028
1758273000340813300,3.423813232421875,0.09831146895885468,0.2573437988758087,-1.5506154298782349
1758273000350771500,3.433771484375,-0.057278335094451904,-0.3497568368911743,-1.565076231956482
1758273000360729300,3.443729248046875,-0.1750970035791397,-1.2362452745437622,-1.5781406164169312
1758273000370687200,3.453687255859375,-0.2429753839969635,-1.9077227115631104,-1.7037475109100342
1758273000380644400,3.463644287109375,-0.34805604815483093,-2.349048614501953,-1.863847017288208
1758273000390602200,3.473602294921875,-0.5157225728034973,-2.587892532348633,-1.9904416799545288
1758273000400560400,3.483560302734375,-0.6585713028907776,-2.6215548515319824,-2.093461275100708
1758273000410517500,3.493517578125,-0.760823130607605,-2.5711939334869385,-2.07480525970459
1758273000420475100,3.50347509765625,-0.8619124293327332,-2.5231995582580566,-1.918603777885437
1758273000430433300,3.513433349609375,-0.9902592301368713,-2.5170347690582275,-1.6932659149169922
1758273000440390400,3.523390380859375,-1.0503182411193848,-2.541057825088501,-1.47312331199646
1758273000450348300,3.533348388671875,-1.1174039840698242,-2.4702727794647217,-1.060328483581543
1758273000460306400,3.543306396484375,-1.1190953254699707,-2.3490779399871826,-0.4686051905155182
1758273000470263300,3.55326318359375,-1.0050352811813354,-2.1713979244232178,0.16882559657096863
1758273000480221200,3.56322119140625,-0.8745072484016418,-2.0044093132019043,0.7137917280197144
1758273000490179300,3.573179443359375,-0.7932193279266357,-1.7714533805847168,1.2315376996994019
1758273000500136400,3.583136474609375,-0.7234397530555725,-1.4760078191757202,1.7103437185287476
1758273000510094300,3.59309423828125,-0.6531133651733398,-1.1459344625473022,1.9747140407562256
1758273000520052500,3.603052490234375,-0.5652816295623779,-0.829124927520752,1.7710665464401245
1758273000530009300,3.61300927734375,-0.4188743829727173,-0.5354520082473755,0.999345064163208
1758273000539967200,3.62296728515625,-0.26576608419418335,-0.42928677797317505,-0.04900451749563217
1758273000549925400,3.63292529296875,-0.13241522014141083,-0.6597349047660828,-0.8001731038093567
1758273000559882500,3.642882568359375,-0.10068866610527039,-0.8709812164306641,-1.0300663709640503
1758273000569840400,3.65284033203125,-0.11178552359342575,-0.6410103440284729,-1.012521505355835
1758273000579798500,3.662798583984375,-0.2653821110725403,-0.11749948561191559,-0.8857343792915344
1758273000589755400,3.67275537109375,-0.5053102970123291,0.06900780647993088,-0.868645429611206
1758273000599713300,3.68271337890625,-0.6487563252449036,-0.2385297268629074,-0.9090266823768616
1758273000609671400,3.69267138671875,-0.6653499007225037,-0.5747956037521362,-0.8773449063301086
1758273000619628500,3.702628662109375,-0.42289429903030396,-0.6187041401863098,-0.8933531641960144
1758273000629586400,3.71258642578125,0.12023260444402695,-0.5283167362213135,-0.9107539653778076
1758273000639544300,3.72254443359375,0.6684656143188477,0.014878382906317711,-0.6309239268302917
1758273000649501400,3.73250146484375,0.8181312680244446,0.8600972890853882,-0.04095654934644699
1758273000659459300,3.742459228515625,0.4787044823169708,1.3107913732528687,0.5813359618186951
1758273000669417500,3.75241748046875,0.2691355347633362,1.5750800371170044,1.0630197525024414
1758273000679374300,3.762374267578125,0.20820759236812592,1.5970022678375244,1.4624208211898804
1758273000689332200,3.772332275390625,0.14547735452651978,1.443187952041626,1.7087395191192627
1758273000699290400,3.782290283203125,0.15347625315189362,1.3083771467208862,1.710059404373169
1758273000709247200,3.792247314453125,0.2439800500869751,1.2460626363754272,1.3308916091918945
1758273000719205400,3.802205322265625,0.2715279161930084,1.2642419338226318,1.162489414215088
1758273000729163500,3.81216357421875,0.15402525663375854,1.1506601572036743,1.6612387895584106
1758273000739120000,3.8221201171875,-0.12266204506158829,0.9252840280532837,2.5348010063171387
1758273000749078300,3.832078369140625,-0.14194466173648834,0.5452861189842224,3.2099645137786865
1758273000759036400,3.842036376953125,-0.18685020506381989,0.4590206742286682,3.5459752082824707
1758273000768993300,3.8519931640625,-0.2716678977012634,0.8326805830001831,3.5028505325317383
1758273000778951400,3.861951416015625,-0.40955084562301636,1.4372717142105103,3.272876501083374
1758273000788909300,3.871909423828125,-0.5509729385375977,1.9297703504562378,3.0091123580932617
1758273000798866200,3.8818662109375,-0.6593466997146606,2.074711561203003,2.782078742980957
1758273000808824300,3.89182421875,-0.7122077941894531,2.0195462703704834,2.718108654022217
1758273000818782200,3.9017822265625,-0.6908439993858337,1.5779701471328735,2.7401297092437744
1758273000828739300,3.9117392578125,-0.5714656710624695,0.7346946597099304,2.722318172454834
1758273000838697500,3.921697509765625,-0.49932974576950073,-0.03498844429850578,2.7231483459472656
1758273000848655400,3.9316552734375,-0.42791998386383057,-0.5701562762260437,2.6705784797668457
1758273000858612200,3.9416123046875,-0.33986780047416687,-0.77698814868927,2.5032050609588623
1758273000868570400,3.9515703125,-0.2842327654361725,-0.5187361240386963,2.285891532897949
1758273000878528300,3.9615283203125,-0.2057957649230957,0.0018024095334112644,2.080294609069824
1758273000888485400,3.9714853515625,-0.10470163822174072,0.6120729446411133,1.9611077308654785
1758273000898443500,3.981443603515625,0.020968865603208542,0.9822701811790466,1.9378782510757446
1758273000908401200,3.991401123046875,0.05827841907739639,1.0997958183288574,2.05911922454834
1758273000918359300,4.001359375,0.08730050176382065,1.3046075105667114,2.246467351913452
1758273000928316400,4.01131640625,0.14660723507404327,1.5196212530136108,2.369821786880493
1758273000938274300,4.0212744140625,0.1938571184873581,1.6410949230194092,2.411742925643921
1758273000948232400,4.031232421875,0.2155408412218094,1.6047019958496094,2.3703463077545166
1758273000958189300,4.041189208984375,0.24080890417099,1.3230646848678589,2.209812641143799
1758273000968147200,4.051147216796875,0.2920076549053192,0.9444393515586853,2.014974594116211
1758273000978105300,4.061105224609375,0.39809614419937134,0.6116520166397095,1.8354151248931885
1758273000988062500,4.0710625,0.5334558486938477,0.44530272483825684,1.6400128602981567
1758273000998020400,4.081020263671875,0.6193539500236511,0.39574217796325684,1.4340293407440186
1758273001007978500,4.090978515625,0.687794029712677,0.30371078848838806,1.223266839981079
1758273001017935400,4.100935302734375,0.7455901503562927,-0.026862485334277153,1.0215997695922852
1758273001027893200,4.110893310546875,0.7850233316421509,-0.5140353441238403,0.9059399366378784
1758273001037851400,4.120851318359375,0.7868452668190002,-0.8198779225349426,0.9072479009628296
1758273001047808500,4.13080859375,0.7044649124145508,-0.7458567023277283,1.0158270597457886
1758273001057766400,4.140766357421875,0.5770528316497803,-0.41433098912239075,1.1484962701797485
1758273001067724500,4.150724609375,0.49295714497566223,-0.012703636661171913,1.2048412561416626
1758273001077681400,4.160681396484375,0.39353567361831665,0.28042247891426086,1.1336597204208374
1758273001087639300,4.170639404296875,0.30925512313842773,0.32370710372924805,0.8195188641548157
1758273001097597400,4.180597412109375,0.23272083699703217,0.09274457395076752,0.3179098963737488
1758273001107554600,4.190554443359375,0.16541050374507904,-0.2567836046218872,-0.08758965134620667
1758273001117512400,4.200512451171875,0.1830398440361023,-0.7386990189552307,-0.3928118348121643
1758273001127470300,4.21047021484375,0.1242646798491478,-1.2426705360412598,-0.7564401030540466
1758273001137427500,4.220427490234375,0.020237484946846962,-1.4535998106002808,-1.101073980331421
1758273001147385300,4.23038525390625,0.0377190075814724,-1.3263052701950073,-1.3000906705856323
1758273001157343500,4.240343505859375,0.07854911684989929,-0.7559679746627808,-1.4455636739730835
1758273001167300400,4.25030029296875,0.00831836648285389,-0.06951207667589188,-1.6385037899017334
1758273001177258200,4.26025830078125,-0.24554690718650818,0.7942904829978943,-1.7178480625152588
1758273001187216600,4.270216552734375,-0.5566014647483826,1.5027605295181274,-1.7401677370071411
1758273001197174800,4.2801748046875,-0.5361725091934204,1.405059576034546,-1.9783297777175903
1758273001207132000,4.2901318359375,-0.41804608702659607,1.1317696571350098,-2.558614492416382
1758273001217089800,4.30008984375,-0.3921375870704651,0.6707883477210999,-3.1364850997924805
1758273001227047700,4.310047607421875,-0.4173326790332794,-0.15112175047397614,-3.4818403720855713
1758273001237004800,4.3200048828125,-0.4165087640285492,-0.6783826947212219,-3.5297486782073975
1758273001246962700,4.329962646484375,-0.3621573746204376,-0.6632649898529053,-3.4852378368377686
1758273001256920800,4.3399208984375,-0.22828136384487152,-0.23094475269317627,-3.3045108318328857
1758273001266878000,4.3498779296875,-0.10504917800426483,0.24290962517261505,-2.993921995162964
1758273001276835600,4.359835693359375,0.08684893697500229,0.3286827504634857,-2.8848397731781006
1758273001286793700,4.369793701171875,0.3504241108894348,0.13839775323867798,-2.978008270263672
1758273001296750800,4.379750732421875,0.4707033932209015,-0.020366055890917778,-3.0329060554504395
1758273001306708700,4.389708740234375,0.33273619413375854,0.06224280595779419,-2.954484224319458
1758273001316667000,4.3996669921875,0.15106339752674103,0.3770173192024231,-2.7326550483703613
1758273001326623700,4.409623779296875,0.1094650998711586,0.5901610255241394,-2.4793403148651123
1758273001336581600,4.41958154296875,0.20165526866912842,0.6452392339706421,-2.3112943172454834
1758273001346539800,4.429539794921875,0.2988201677799225,0.6643487215042114,-2.2419841289520264
1758273001356497000,4.439496826171875,0.3383263051509857,0.9709216952323914,-2.1451969146728516
1758273001366454800,4.449454833984375,0.18107755482196808,1.325775384902954,-1.942185640335083
1758273001376413000,4.459412841796875,-0.012304306030273438,1.4838204383850098,-1.7250813245773315
1758273001386369800,4.469369873046875,-0.06965813785791397,1.421329379081726,-1.5418840646743774
1758273001396327700,4.47932763671875,0.0329233855009079,1.1487658023834229,-1.3689427375793457
1758273001406285800,4.489285888671875,-0.03408121317625046,1.14216148853302,-1.1821422576904297
1758273001416243000,4.499242919921875,-0.13997101783752441,1.3229790925979614,-1.092734456062317
1758273001426200800,4.509200927734375,-0.03417188301682472,1.2343006134033203,-1.095653772354126
1758273001436159000,4.519158935546875,0.31381547451019287,1.2317219972610474,-1.2747091054916382
1758273001446116600,4.52911669921875,0.14547784626483917,0.09637035429477692,-1.1906527280807495
1758273001456073700,4.53907373046875,-0.1409309357404709,-1.3001246452331543,-1.0213408470153809
1758273001466031900,4.549031982421875,-0.19215843081474304,-2.1449735164642334,-1.2288756370544434
1758273001475989800,4.55898974609375,-0.2877422273159027,-2.3991897106170654,-1.5926786661148071
1758273001485947000,4.56894677734375,-0.5081222653388977,-2.534752368927002,-1.977095365524292
1758273001495904800,4.57890478515625,-0.7053667306900024,-2.6430697441101074,-2.211230516433716
1758273001505862700,4.588862548828125,-0.9071301817893982,-2.5984914302825928,-2.2087202072143555
1758273001515819800,4.59881982421875,-1.026274561882019,-2.5737404823303223,-2.050515651702881
1758273001525778000,4.60877783203125,-0.954310417175293,-2.6265480518341064,-1.740160584449768
1758273001535735800,4.61873583984375,-0.924856424331665,-2.6843249797821045,-1.192756175994873
1758273001545692700,4.628692626953125,-0.9034198522567749,-2.564328193664551,-0.4965406358242035
1758273001555650800,4.63865087890625,-0.8192672729492188,-2.360203266143799,0.274414598941803
1758273001565608700,4.648608642578125,-0.7051652073860168,-2.135281562805176,0.9833582043647766
1758273001575565800,4.65856591796875,-0.6517821550369263,-1.9652267694473267,1.521569013595581
1758273001585524000,4.66852392578125,-0.6141170859336853,-1.7784539461135864,1.8642579317092896
1758273001595481900,4.67848193359375,-0.5107397437095642,-1.4551243782043457,1.953037977218628
1758273001605438700,4.688438720703125,-0.3814413845539093,-1.0672014951705933,1.6453088521957397
1758273001615396900,4.69839697265625,-0.19076943397521973,-0.8350226283073425,0.8530740737915039
1758273001625354800,4.708354736328125,-0.05497351288795471,-0.6239599585533142,-0.13107767701148987
1758273001635311900,4.718311767578125,0.04921445623040199,-0.3997732996940613,-0.8356531262397766
1758273001645269800,4.728269775390625,0.10718934237957001,-0.013999235816299915,-1.092969298362732
1758273001655227600,4.7382275390625,0.012086348608136177,0.5484543442726135,-1.1223957538604736
1758273001665185800,4.748185791015625,-0.2792035639286041,0.9316390156745911,-1.0614850521087646
1758273001675142700,4.758142578125,-0.49662333726882935,0.5758811831474304,-1.04865562915802
1758273001685100800,4.768100830078125,-0.5677340030670166,-0.3913232386112213,-1.075486660003662
1758273001695059000,4.778058837890625,-0.48699885606765747,-1.1508203744888306,-1.078798532485962
1758273001705015600,4.788015625,-0.10290444642305374,-1.4588301181793213,-1.0570766925811768
1758273001714973700,4.7979736328125,0.48412176966667175,-1.235573172569275,-0.9340882301330566
1758273001724931800,4.807931884765625,0.947609007358551,-0.1785154938697815,-0.8714804649353027
1758273001734888700,4.817888671875,0.7151994705200195,1.0779850482940674,-0.6325556635856628
1758273001744846800,4.827846923828125,0.18512499332427979,1.4700078964233398,0.033739276230335236
1758273001754804700,4.8378046875,-0.06373890489339828,1.3532848358154297,0.7908425331115723
1758273001764761600,4.84776171875,-0.12260568141937256,1.2465906143188477,1.481246829032898
1758273001774719700,4.8577197265625,-0.1529376357793808,0.8423659801483154,1.7831212282180786
1758273001784677600,4.867677734375,-0.07081373780965805,0.5567073225975037,1.63498854637146
1758273001794634800,4.877634765625,-0.013589092530310154,0.6644906997680664,1.0915741920471191
1758273001804593000,4.887593017578125,0.05510155111551285,0.9278701543807983,0.8355621695518494
1758273001814550800,4.89755078125,0.10586240142583847,1.146881103515625,1.86312997341156
1758273001824507600,4.907507568359375,0.20951716601848602,0.8068181276321411,3.2034218311309814
1758273001834465800,4.9174658203125,0.34390154480934143,0.5081509947776794,3.907487392425537
1758273001844423700,4.927423583984375,0.29122501611709595,0.6475661396980286,3.8915786743164062
1758273001854380800,4.937380859375,0.09972455352544785,1.112694263458252,3.488886833190918
1758273001864339000,4.9473388671875,-0.1725732684135437,1.302255392074585,3.040940761566162
1758273001874296600,4.957296630859375,-0.4425734281539917,1.2895370721817017,2.6893837451934814
1758273001884254700,4.967254638671875,-0.6531745791435242,1.4664958715438843,2.430476427078247
1758273001894211800,4.9772119140625,-0.8398964405059814,1.6417402029037476,2.2892556190490723
1758273001904169700,4.987169677734375,-0.9216775894165039,1.487121343612671,2.4053966999053955
1758273001914128000,4.9971279296875,-0.8310130834579468,0.7865623235702515,2.7022252082824707
1758273001924084700,5.007084716796875,-0.7740307450294495,0.15640057623386383,3.073695182800293
1758273001934042600,5.017042724609375,-0.6985225081443787,-0.025856714695692062,3.2746572494506836
1758273001944000800,5.027000732421875,-0.531360924243927,0.28743064403533936,3.185563325881958
1758273001953958000,5.0369580078125,-0.36455538868904114,0.8452357649803162,2.906048059463501
1758273001963915800,5.046915771484375,-0.2415546327829361,1.3092209100723267,2.612643241882324
1758273001973874000,5.0568740234375,-0.14688795804977417,1.43574059009552,2.400240182876587
1758273001983830800,5.066830810546875,-0.04943942651152611,1.3484740257263184,2.358297824859619
1758273001993788700,5.07678857421875,0.040288444608449936,1.0737979412078857,2.4122889041900635
1758273002003746800,5.086746826171875,0.10211265832185745,0.7682788372039795,2.469949960708618
1758273002013704000,5.096703857421875,0.2369750440120697,0.5769140720367432,2.386655807495117
1758273002023661800,5.106661865234375,0.4144454002380371,0.7762234210968018,2.1705634593963623
1758273002033620000,5.116619873046875,0.5938552618026733,0.7787619829177856,1.9715497493743896
1758273002043577600,5.12657763671875,0.7213312387466431,0.580584704875946,1.8206924200057983
1758273002053534700,5.13653466796875,0.8244127631187439,0.5254049301147461,1.6209702491760254
1758273002063492900,5.146492919921875,0.9246240854263306,0.5119746327400208,1.355738878250122
1758273002073450800,5.15645068359375,1.0143629312515259,0.36508679389953613,1.1420358419418335
1758273002083408000,5.166407958984375,1.0517139434814453,0.09159000217914581,1.0708402395248413
1758273002093365800,5.17636572265625,0.9687201380729675,-0.14953355491161346,1.143237590789795
1758273002103323600,5.18632373046875,0.768444836139679,-0.2589823007583618,1.27952241897583
1758273002113280800,5.19628076171875,0.5569747090339661,-0.22119851410388947,1.4065126180648804
1758273002123239000,5.206239013671875,0.41715237498283386,-0.16492965817451477,1.5428168773651123
1758273002133196800,5.21619677734375,0.33093395829200745,-0.15735352039337158,1.69685959815979
1758273002143153700,5.226153564453125,0.28003430366516113,-0.06301157176494598,1.7476650476455688
1758273002153111800,5.23611181640625,0.22528432309627533,0.11626341938972473,1.5018353462219238
1758273002163069700,5.246069580078125,0.19655415415763855,0.14242365956306458,0.9174424409866333
1758273002173026800,5.25602685546875,0.24448920786380768,-0.18040543794631958,0.2482323944568634
1758273002182984700,5.265984619140625,0.3389427363872528,-0.7958699464797974,-0.32596513628959656
1758273002192942800,5.27594287109375,0.36383891105651855,-1.4551146030426025,-0.838111400604248
1758273002202900000,5.28589990234375,0.27245521545410156,-1.7652738094329834,-1.1466748714447021
1758273002212857900,5.29585791015625,0.22066043317317963,-1.1683404445648193,-1.1012645959854126
1758273002222816000,5.30581591796875,0.17135439813137054,-0.29975417256355286,-0.8744362592697144
1758273002232774100,5.315774169921875,0.053335707634687424,0.4054202437400818,-0.6678914427757263
1758273002242730800,5.325730712890625,-0.11972502619028091,1.1656765937805176,-0.5753434300422668
1758273002252689000,5.33568896484375,-0.31406867504119873,1.580260157585144,-0.8300884962081909
1758273002262647000,5.34564697265625,-0.4471702575683594,1.2995879650115967,-1.3721234798431396
1758273002272604000,5.35560400390625,-0.6222521066665649,0.9274096488952637,-1.937640905380249
1758273002282562000,5.36556201171875,-0.6938977837562561,0.6404186487197876,-2.2487850189208984
1758273002292519700,5.375519775390625,-0.6680564880371094,0.3290846049785614,-2.5925772190093994
1758273002302476800,5.385476806640625,-0.5573605895042419,-0.015392088331282139,-3.1061456203460693
1758273002312435000,5.39543505859375,-0.4685382843017578,-0.3544657826423645,-3.4334793090820312
1758273002322392800,5.405392822265625,-0.5094106793403625,-0.7425171136856079,-3.3865089416503906
1758273002332350000,5.415349853515625,-0.47924724221229553,-1.0515419244766235,-3.262578010559082
1758273002342307800,5.425307861328125,-0.31972602009773254,-0.8774891495704651,-3.0392303466796875
1758273002352265700,5.435265625,-0.1965993195772171,-0.2054191529750824,-2.76478910446167
1758273002362222800,5.445222900390625,-0.04069031402468681,0.5565239787101746,-2.691319227218628
1758273002372181000,5.455180908203125,0.08810513466596603,0.8686043620109558,-2.875152587890625
1758273002382139000,5.465138916015625,0.10060334950685501,0.6832254528999329,-3.0668721199035645
1758273002392097000,5.475096923828125,-0.019034896045923233,0.3955276608467102,-3.0100622177124023
1758273002402054000,5.485053955078125,-0.08549781143665314,0.1924869269132614,-2.8248090744018555
1758273002412011800,5.49501171875,0.018026642501354218,0.2055196464061737,-2.625349283218384
1758273002421970000,5.504969970703125,0.16536550223827362,0.559310257434845,-2.4767892360687256
1758273002431927000,5.514927001953125,0.27286818623542786,1.03643000125885,-2.398428440093994
1758273002441885000,5.524885009765625,0.2950288653373718,1.4492887258529663,-2.2782981395721436
1758273002451842800,5.5348427734375,0.180265411734581,1.5678271055221558,-2.1116573810577393
1758273002461800000,5.544800048828125,0.14135609567165375,1.5583686828613281,-1.924735188484192
1758273002471757800,5.5547578125,0.0017167984042316675,1.4157577753067017,-1.6047323942184448
1758273002481716000,5.564716064453125,-0.1690051406621933,1.214135766029358,-1.1551803350448608
1758273002491673000,5.574673095703125,-0.3836565613746643,1.2549203634262085,-0.673601508140564
1758273002501630700,5.584630615234375,-0.5524362921714783,1.1232174634933472,-0.36410200595855713
1758273002511588900,5.5945888671875,-0.5901668071746826,0.4491719901561737,-0.3860674500465393
1758273002521546000,5.6045458984375,-0.4674030542373657,-0.23040787875652313,-0.6868350505828857
1758273002531503900,5.61450390625,-0.42839017510414124,-0.6166825890541077,-0.9449982643127441
1758273002541462000,5.6244619140625,-0.4697362780570984,-1.3675884008407593,-1.247183084487915
1758273002551419100,5.634419189453125,-0.5051496028900146,-2.1442906856536865,-1.6004763841629028
1758273002561376800,5.644376708984375,-0.6286859512329102,-2.797441005706787,-1.971748948097229
1758273002571335000,5.6543349609375,-0.8020105361938477,-3.3146326541900635,-2.4959452152252197
1758273002581292800,5.664292724609375,-0.9436430335044861,-3.282660484313965,-2.89168381690979
1758273002591250000,5.67425,-1.0452539920806885,-3.1530847549438477,-2.892071485519409
1758273002601208000,5.6842080078125,-1.041566014289856,-3.186049461364746,-2.545773983001709
1758273002611166000,5.694166015625,-1.0023261308670044,-3.191697835922241,-2.0163962841033936
1758273002621122800,5.704122802734375,-0.9273378849029541,-3.0205585956573486,-1.3242624998092651
1758273002631081000,5.7140810546875,-0.8011539578437805,-2.6576547622680664,-0.5718662738800049
1758273002641038800,5.724038818359375,-0.6721440553665161,-2.4502079486846924,0.24820280075073242
1758273002650996000,5.733995849609375,-0.5927537083625793,-2.366039752960205,1.0330477952957153
1758273002660954000,5.7439541015625,-0.5344563126564026,-2.221886157989502,1.70321786403656
1758273002670911700,5.753911865234375,-0.4464084208011627,-2.0314300060272217,2.170379638671875
1758273002680868900,5.763868896484375,-0.3236124813556671,-1.7938591241836548,2.266535997390747
1758273002690827000,5.773826904296875,-0.14779874682426453,-1.5845483541488647,1.8363312482833862
1758273002700785000,5.783784912109375,-0.04808812960982323,-1.4306573867797852,0.781425416469574
1758273002710742000,5.793741943359375,-0.07304733991622925,-1.0647578239440918,-0.6560893654823303
1758273002720700000,5.803699951171875,-0.023340238258242607,-0.7351375818252563,-1.7475287914276123
1758273002730657800,5.81365771484375,0.11680273711681366,-0.3550935983657837,-1.9056603908538818
1758273002740615000,5.823614990234375,0.002889482770115137,0.46033063530921936,-1.6341484785079956
1758273002750572800,5.83357275390625,-0.2911445200443268,0.8964800834655762,-1.4602642059326172
1758273002760531000,5.843531005859375,-0.5119131207466125,0.4367987811565399,-1.4359525442123413
1758273002770489000,5.853489013671875,-0.5667586922645569,-0.579962432384491,-1.4106085300445557
1758273002780445700,5.86344580078125,-0.30791011452674866,-1.2815239429473877,-1.280196189880371
1758273002790403800,5.87340380859375,0.37198182940483093,-1.6600103378295898,-0.9815811514854431
1758273002800362000,5.883362060546875,0.9211117625236511,-1.0995405912399292,-0.4694769084453583
1758273002810318800,5.89331884765625,0.9820647239685059,0.10841677337884903,-0.142694354057312
1758273002820277000,5.903277099609375,0.4977869689464569,1.6600745916366577,0.18469496071338654
1758273002830235000,5.91323486328125,-0.045605625957250595,2.3124446868896484,0.8217515349388123
1758273002840191700,5.923191650390625,-0.19300119578838348,2.120333433151245,1.4049859046936035
1758273002850150000,5.93314990234375,-0.2110014706850052,1.638144850730896,1.8155556917190552
1758273002860107800,5.943107666015625,-0.24144433438777924,1.2754651308059692,1.9261735677719116
1758273002870065000,5.95306494140625,-0.14438049495220184,1.1425455808639526,1.6248492002487183
1758273002880023000,5.96302294921875,-0.014891216531395912,1.2690351009368896,1.0425513982772827
1758273002889980700,5.972980712890625,0.10830241441726685,1.1815613508224487,1.2433565855026245
1758273002899937800,5.982937744140625,-0.09139445424079895,1.040252447128296,2.325885772705078
1758273002909896000,5.99289599609375,-0.3605562746524811,1.0024104118347168,3.53336238861084
1758273002919853800,6.002853759765625,-0.18759700655937195,0.9116091132164001,4.007683753967285
1758273002929811000,6.01281103515625,-0.032787468284368515,1.0879701375961304,3.8149614334106445
1758273002939768800,6.022768798828125,-0.027176188305020332,1.267157793045044,3.3458948135375977
1758273002949726700,6.032726806640625,-0.13736140727996826,1.3379034996032715,2.890361785888672
1758273002959684900,6.042684814453125,-0.21215681731700897,1.589417815208435,2.5584635734558105
1758273002969642000,6.05264208984375,-0.2894595265388489,1.8031909465789795,2.4475889205932617
1758273002979600000,6.062599853515625,-0.3834536671638489,1.611355185508728,2.5378496646881104
1758273002989558000,6.07255810546875,-0.4714345932006836,0.9944280982017517,2.5819289684295654
1758273002999515000,6.082514892578125,-0.5270957350730896,0.4463897943496704,2.642652750015259
1758273003009472800,6.09247265625,-0.5325570106506348,0.13052020967006683,2.8155221939086914
1758273003019431000,6.102430908203125,-0.5048923492431641,-0.04887217655777931,2.834449529647827
1758273003029388000,6.112387939453125,-0.3602004945278168,0.011189310811460018,2.5964066982269287
1758273003039346000,6.122345947265625,-0.17341916263103485,0.60728520154953,2.372370958328247
1758273003049304000,6.132303955078125,-0.014259066432714462,0.9096741080284119,2.17954158782959
1758273003059261000,6.142260986328125,0.06126990169286728,0.8864410519599915,2.150512933731079
1758273003069218800,6.15221875,0.09318175911903381,1.0343588590621948,2.1511592864990234
1758273003079177000,6.162177001953125,0.1612538993358612,1.3030035495758057,2.089848756790161
1758273003089134000,6.172134033203125,0.23110701143741608,1.4883612394332886,1.9465394020080566
1758273003099092000,6.182092041015625,0.2596800625324249,1.448485016822815,1.7924896478652954
1758273003109049900,6.1920498046875,0.2911797761917114,1.1136455535888672,1.7643882036209106
1758273003119007700,6.2020078125,0.3785114884376526,0.6403323411941528,1.7596086263656616
1758273003128964900,6.21196484375,0.501682460308075,0.28633007407188416,1.5923713445663452
1758273003138923000,6.221923095703125,0.6267373561859131,0.23356622457504272,1.2902491092681885
1758273003148881000,6.231880859375,0.7580488324165344,0.1952616274356842,1.0692052841186523
1758273003158837800,6.241837646484375,0.8783941268920898,-0.07654698193073273,0.9888094663619995
1758273003168796000,6.2517958984375,0.9592545032501221,-0.4365135133266449,0.954670250415802
1758273003178753800,6.26175390625,0.954326331615448,-0.587765097618103,0.955108642578125
1758273003188710400,6.27171044921875,0.8327081203460693,-0.4638258218765259,1.0425750017166138
1758273003198668500,6.28166845703125,0.5911937355995178,-0.1956433802843094,1.2492802143096924
1758273003208626400,6.29162646484375,0.4028923511505127,0.12603583931922913,1.4678912162780762
1758273003218583600,6.30158349609375,0.2921924889087677,0.3659890592098236,1.507739543914795
1758273003228541400,6.31154150390625,0.26299628615379333,0.367901474237442,1.3388680219650269
1758273003238499300,6.321499267578125,0.25951075553894043,0.1235276609659195,0.9179556965827942
1758273003248456400,6.33145654296875,0.30428823828697205,-0.13880592584609985,0.3268769085407257
1758273003258414600,6.34141455078125,0.34705913066864014,-0.32051312923431396,-0.20605622231960297
1758273003268372500,6.35137255859375,0.40466803312301636,-0.5996677875518799,-0.6227384209632874
1758273003278329300,6.361329345703125,0.35525283217430115,-0.9331512451171875,-0.9113385081291199
1758273003288287500,6.37128759765625,0.21494244039058685,-1.0886276960372925,-1.07854425907135
1758273003298245400,6.381245361328125,0.09192250669002533,-0.9000545740127563,-1.0908105373382568
1758273003308203500,6.39120361328125,-0.032173041254282,-0.3331277370452881,-1.0652183294296265
1758273003318160600,6.40116064453125,-0.20542551577091217,0.39482229948043823,-1.1145429611206055
1758273003328118500,6.411118408203125,-0.4932502508163452,0.9234976172447205,-1.3108924627304077
1758273003338076700,6.42107666015625,-0.7522804737091064,0.734496533870697,-1.6319998502731323
1758273003348033500,6.431033447265625,-0.7748371362686157,0.2221602499485016,-2.0334818363189697
1758273003357991400,6.440991455078125,-0.8354336023330688,-0.14127682149410248,-2.37237548828125
1758273003367949600,6.450949462890625,-0.6778584122657776,-0.27538082003593445,-2.8426241874694824
1758273003377906700,6.46090673828125,-0.3971292972564697,-0.4435165524482727,-3.2777411937713623
1758273003387864600,6.470864501953125,-0.2981381118297577,-0.6914153099060059,-3.4737424850463867
1758273003397822500,6.480822509765625,-0.2880053222179413,-0.7056642770767212,-3.3307247161865234
1758273003407779300,6.490779296875,-0.17159129679203033,-0.34275001287460327,-2.9436821937561035
1758273003417737500,6.500737548828125,0.0016513324808329344,0.2655913531780243,-2.555935859680176
1758273003427695600,6.510695556640625,0.12700419127941132,0.8179141879081726,-2.460543394088745
1758273003437652500,6.520652587890625,0.21721625328063965,1.0287485122680664,-2.6780295372009277
1758273003447610400,6.5306103515625,0.25522083044052124,0.8710951209068298,-2.9080491065979004
1758273003457568500,6.540568603515625,0.2404831349849701,0.4682331383228302,-2.912341833114624
1758273003467525400,6.550525390625,0.14910946786403656,0.10282093286514282,-2.706230640411377
1758273003477483500,6.5604833984375,0.12980447709560394,-0.02248265966773033,-2.4737918376922607
1758273003487441700,6.570441650390625,0.239817276597023,0.19322672486305237,-2.3226256370544434
1758273003497398300,6.580398193359375,0.3830077350139618,0.7045517563819885,-2.2694995403289795
1758273003507356400,6.5903564453125,0.4722478687763214,1.0992811918258667,-2.223836660385132
1758273003517314600,6.600314453125,0.4259040653705597,1.144408106803894,-2.0832791328430176
1758273003527271400,6.610271484375,0.26348280906677246,1.1894475221633911,-1.9079583883285522
1758273003537229600,6.6202294921875,0.028294507414102554,1.1409186124801636,-1.7117068767547607
1758273003547187500,6.6301875,-0.11005700379610062,1.0034106969833374,-1.4509844779968262
1758273003557145600,6.6401455078125,-0.3022863566875458,0.6734638810157776,-1.069413185119629
1758273003567102500,6.6501025390625,-0.4692656695842743,0.5354655981063843,-0.8288983106613159
1758273003577060400,6.660060302734375,-0.5022129416465759,0.386841744184494,-0.8051106929779053
1758273003587018500,6.6700185546875,-0.43297573924064636,0.35944604873657227,-0.9197537302970886
1758273003596975600,6.6799755859375,-0.39167675375938416,0.13967479765415192,-0.9741296172142029
1758273003606933500,6.68993359375,-0.37944379448890686,-0.7323843836784363,-1.0626742839813232
1758273003616891400,6.699891357421875,-0.4555835723876953,-1.6236320734024048,-1.2883872985839844
1758273003626848500,6.7098486328125,-0.39373329281806946,-2.152742862701416,-1.7890892028808594
1758273003636806400,6.719806396484375,-0.4578116238117218,-2.4595797061920166,-2.3221046924591064
1758273003646764500,6.7297646484375,-0.678500771522522,-2.569040298461914,-2.617109537124634
1758273003656721700,6.7397216796875,-0.8466935157775879,-2.584388017654419,-2.6562795639038086
1758273003666679300,6.74967919921875,-0.9919819831848145,-2.677156448364258,-2.3954100608825684
1758273003676637400,6.759637451171875,-1.0317782163619995,-2.918215036392212,-1.9491682052612305
1758273003686594600,6.769594482421875,-1.036686658859253,-2.9244353771209717,-1.3914833068847656
1758273003696552400,6.779552490234375,-1.0396560430526733,-2.7414393424987793,-0.7084964513778687
1758273003706510600,6.789510498046875,-1.0364084243774414,-2.4852004051208496,-0.03887757658958435
1758273003716467500,6.799467529296875,-0.9918486475944519,-2.2120020389556885,0.6233687996864319
1758273003726425300,6.80942529296875,-0.9473656415939331,-1.9939392805099487,1.2941285371780396
1758273003736383500,6.819383544921875,-0.9126009941101074,-1.8358434438705444,1.8487951755523682
1758273003746341400,6.82934130859375,-0.8757160305976868,-1.7716275453567505,2.144650459289551
1758273003756298500,6.839298583984375,-0.7321074604988098,-1.643308162689209,2.0794308185577393
1758273003766256600,6.849256591796875,-0.5184406042098999,-1.333105444908142,1.483418345451355
1758273003776214500,6.859214599609375,-0.20348003506660461,-0.7575926184654236,0.49380820989608765
1758273003786171400,6.86917138671875,0.14873486757278442,-0.2175048440694809,-0.4556640386581421
1758273003796129500,6.879129638671875,0.4685874283313751,0.25745075941085815,-0.9102000594139099
1758273003806087400,6.88908740234375,0.49009355902671814,0.8253791332244873,-0.9979023337364197
1758273003816044500,6.89904443359375,0.1210518628358841,0.9352835416793823,-1.1771754026412964
1758273003826002700,6.909002685546875,-0.25957462191581726,0.41580721735954285,-1.4965815544128418
1758273003835960300,6.918960205078125,-0.43720585107803345,-0.7039010524749756,-1.6876716613769531
1758273003845917400,6.92891748046875,-0.4667973220348358,-1.694912314414978,-1.500975251197815
1758273003855875600,6.93887548828125,-0.19558686017990112,-1.696273684501648,-1.1620526313781738
1758273003865833500,6.94883349609375,0.26692599058151245,-1.2321497201919556,-0.8312404751777649
1758273003875790600,6.95879052734375,0.8806743621826172,-0.6275497674942017,-0.3429884910583496
1758273003885748500,6.96874853515625,1.2638792991638184,0.3850192725658417,0.06418286263942719
1758273003895706400,6.978706298828125,0.9431079626083374,1.6759690046310425,0.30094560980796814
1758273003905663500,6.98866357421875,0.3296247124671936,2.2122888565063477,0.5487372875213623
1758273003915621600,6.99862158203125,0.15188561379909515,2.0759289264678955,0.8855688571929932
1758273003925579500,7.00857958984375,0.1852552443742752,1.7728251218795776,1.2563029527664185
1758273003935536400,7.018536376953125,0.12752509117126465,1.6837538480758667,1.544596791267395
1758273003945494500,7.02849462890625,0.1334361732006073,1.6022534370422363,1.553955078125
1758273003955452400,7.038452392578125,0.22530537843704224,1.336288332939148,1.2167553901672363
1758273003965409500,7.048409423828125,0.31012919545173645,0.8674250841140747,1.0103354454040527
1758273003975367400,7.058367431640625,0.3728245496749878,0.6553910970687866,1.6019058227539062
1758273003985325600,7.06832568359375,0.20685261487960815,0.5920695066452026,2.5235540866851807
1758273003995282400,7.078282470703125,-0.07948939502239227,0.6865576505661011,3.270704507827759
1758273004005240300,7.088240234375,-0.1492239385843277,1.0707639455795288,3.5674550533294678
1758273004015198500,7.098198486328125,-0.17745904624462128,1.5287704467773438,3.4676547050476074
1758273004025155600,7.108155517578125,-0.1903872787952423,2.0070981979370117,3.1592044830322266
1758273004035113500,7.118113525390625,-0.18715792894363403,2.1915667057037354,2.8519675731658936
1758273004045071600,7.128071533203125,-0.33957943320274353,1.9859596490859985,2.704458236694336
1758273004055029500,7.138029541015625,-0.46697041392326355,1.7774277925491333,2.649820327758789
1758273004074322400,7.157322509765625,-0.6660488843917847,1.2112839221954346,3.0118069648742676
1758273004084280600,7.167280517578125,-0.6608248353004456,0.4886515438556671,3.168541431427002
1758273004094237400,7.177237548828125,-0.6530730724334717,0.021298587322235107,3.209627151489258
1758273004104195600,7.187195556640625,-0.5876098871231079,-0.04102684184908867,3.0708134174346924
1758273004114153500,7.197153564453125,-0.4395291209220886,0.03903685510158539,2.8240151405334473
1758273004124110300,7.2071103515625,-0.20724235475063324,0.5001408457756042,2.386678695678711
1758273004134068500,7.217068359375,-0.11097390204668045,0.9231606721878052,2.017481565475464
1758273004144026600,7.227026611328125,-0.08396411687135696,1.2012269496917725,1.91143000125885
1758273004153983500,7.2369833984375,-0.05346846953034401,1.3363003730773926,2.0129125118255615
1758273004163941400,7.24694140625,0.01265915110707283,1.5504670143127441,2.2118687629699707
1758273004173899500,7.2568994140625,0.16742263734340668,1.757126808166504,2.420469284057617
1758273004183856400,7.2668564453125,0.3376343250274658,1.898760199546814,2.4465034008026123
1758273004193814000,7.27681396484375,0.39553844928741455,1.9543495178222656,2.3121891021728516
1758273004203772200,7.286772216796875,0.38464346528053284,1.815799355506897,2.08457350730896
1758273004213730000,7.29672998046875,0.5117715001106262,1.338591456413269,1.738566517829895
1758273004223687000,7.30668701171875,0.6346460580825806,0.6550538539886475,1.3491532802581787
1758273004233645000,7.31664501953125,0.7054318785667419,-0.15902240574359894,1.0910465717315674
1758273004243603000,7.32660302734375,0.7954033017158508,-0.9326286315917969,0.9285131096839905
1758273004253560000,7.33656005859375,0.8792581558227539,-1.332702398300171,0.7757554054260254
1758273004263518200,7.346518310546875,0.8826720714569092,-1.3170441389083862,0.7188399434089661
1758273004273476000,7.35647607421875,0.7513882517814636,-1.0441327095031738,0.8286477327346802
1758273004283433000,7.366432861328125,0.5460675954818726,-0.6753964424133301,1.0503288507461548
1758273004293391000,7.37639111328125,0.40353548526763916,-0.1968715488910675,1.307319164276123
1758273004303349000,7.386348876953125,0.30218490958213806,0.29375970363616943,1.429216742515564
1758273004313306000,7.39630615234375,0.29747530817985535,0.5855920910835266,1.300410509109497
1758273004323264000,7.406263916015625,0.37718266248703003,0.44120296835899353,0.9377611875534058
1758273004333222000,7.416221923828125,0.4473940432071686,-0.06674123555421829,0.4230414032936096
1758273004343179000,7.426178955078125,0.45058557391166687,-0.6724031567573547,-0.10062635689973831
1758273004353137000,7.436136962890625,0.4413582980632782,-1.2090165615081787,-0.5405197143554688
1758273004363095000,7.446094970703125,0.4673057496547699,-1.758398175239563,-0.8671055436134338
1758273004373052200,7.45605224609375,0.38258400559425354,-1.9676127433776855,-0.9552767276763916
1758273004383009800,7.466009765625,0.27055680751800537,-1.6887315511703491,-0.9526734948158264
1758273004392968000,7.475968017578125,0.14225907623767853,-1.0700993537902832,-0.9211883544921875
1758273004402925000,7.485925048828125,0.019658856093883514,-0.23270462453365326,-0.9131869077682495
1758273004412883000,7.495883056640625,-0.20211154222488403,0.5251376628875732,-0.941924512386322
1758273004422841000,7.505841064453125,-0.4548766613006592,0.8175026774406433,-1.1065139770507812
1758273004432798000,7.5157978515625,-0.6362937688827515,0.713182806968689,-1.528374433517456
1758273004442755800,7.525755859375,-0.6809288859367371,0.49749499559402466,-1.9719535112380981
1758273004453336000,7.536336181640625,-0.6713401675224304,0.24621416628360748,-2.313469648361206
1758273004463294000,7.5462939453125,-0.5327239632606506,0.1144111230969429,-2.6872050762176514
1758273004473251000,7.5562509765625,-0.3079991638660431,0.02273130603134632,-3.0986006259918213
1758273004483209200,7.566209228515625,-0.18372541666030884,-0.4368927478790283,-3.320436716079712
1758273004493166800,7.576166748046875,-0.21291974186897278,-0.7623468041419983,-3.2699673175811768
1758273004503124000,7.5861240234375,-0.1411781758069992,-0.6962644457817078,-3.114715099334717
1758273004513082000,7.59608203125,0.06779329478740692,-0.21832183003425598,-2.8660104274749756
1758273004523040000,7.6060400390625,0.227421835064888,0.3860207796096802,-2.6003289222717285
1758273004532998100,7.615998046875,0.29821494221687317,0.5749436616897583,-2.5906410217285156
1758273004542955000,7.625955078125,0.2934896945953369,0.436729371547699,-2.7593834400177
1758273004552913000,7.635912841796875,0.2306070178747177,0.31169185042381287,-2.8847854137420654
1758273004562871000,7.64587109375,0.17074528336524963,0.21615253388881683,-2.8521971702575684
1758273004572828200,7.655828125,0.21111978590488434,0.16892896592617035,-2.7689640522003174
1758273004582786000,7.6657861328125,0.3147902488708496,0.29881906509399414,-2.682793378829956
1758273004592744200,7.675744140625,0.29585447907447815,0.5348423719406128,-2.5730977058410645
1758273004602701000,7.685701171875,0.2495543360710144,0.8852797746658325,-2.4805989265441895
1758273004612659000,7.695658935546875,0.25793522596359253,1.0588409900665283,-2.2823574542999268
1758273004622617000,7.7056171875,0.2561176121234894,0.8495479822158813,-2.00073504447937
1758273004632574200,7.71557421875,0.17047639191150665,0.5517980456352234,-1.6959705352783203
1758273004642532000,7.725531982421875,-0.06982408463954926,0.30023080110549927,-1.3847814798355103
1758273004652490200,7.735490234375,-0.323235422372818,0.4674040377140045,-1.1869467496871948
1758273004662446800,7.74544677734375,-0.4422486126422882,0.47065868973731995,-1.0868622064590454
1758273004672405000,7.755405029296875,-0.4115983545780182,0.12336872518062592,-1.091694712638855
1758273004682363100,7.765363037109375,0.0032108218874782324,0.14691372215747833,-1.3673057556152344
1758273004692320000,7.775320068359375,0.1308424025774002,-0.21640698611736298,-1.4513477087020874
1758273004702278100,7.785278076171875,-0.21502472460269928,-0.93849116563797,-1.2752245664596558
1758273004712236000,7.795236083984375,-0.47223785519599915,-1.7669814825057983,-1.2192827463150024
1758273004722193000,7.80519287109375,-0.46972593665122986,-2.2711586952209473,-1.4399019479751587
1758273004732151000,7.815151123046875,-0.5222508311271667,-2.5127391815185547,-1.6781963109970093
1758273004742109200,7.825109130859375,-0.6630414724349976,-3.043523073196411,-2.072260856628418
1758273004752066000,7.835066162109375,-0.7214988470077515,-3.123711109161377,-2.360203981399536
1758273004762024000,7.84502392578125,-0.7976292967796326,-2.8925936222076416,-2.4432663917541504
1758273004771982000,7.854982177734375,-0.9234428405761719,-2.8763926029205322,-2.2910425662994385
1758273004781940000,7.86493994140625,-1.0425561666488647,-2.9549453258514404,-1.8770952224731445
1758273004791897000,7.87489697265625,-1.0615366697311401,-2.8895046710968018,-1.2157764434814453
1758273004801855000,7.88485498046875,-1.0221935510635376,-2.599792718887329,-0.4632292091846466
1758273004811811800,7.894811767578125,-0.9766944646835327,-2.1926021575927734,0.26531633734703064
1758273004821770000,7.90477001953125,-0.9993060827255249,-1.9140543937683105,0.9099944233894348
1758273004831727900,7.914727783203125,-1.0131711959838867,-1.7531018257141113,1.4318428039550781
1758273004841686000,7.92468603515625,-0.9987413883209229,-1.5713499784469604,1.807968258857727
1758273004851643100,7.93464306640625,-0.8988030552864075,-1.3088396787643433,1.9689279794692993
1758273004861601000,7.94460107421875,-0.687466561794281,-0.8947373032569885,1.8129889965057373
1758273004871559200,7.95455908203125,-0.4038263261318207,-0.48436376452445984,1.217150330543518
1758273004881516000,7.96451611328125,-0.14373645186424255,-0.14270548522472382,0.2574986219406128
1758273004891474000,7.974473876953125,0.08984015882015228,0.09004747867584229,-0.7802695631980896
1758273004901432000,7.98443212890625,0.1735113561153412,0.22491209208965302,-1.3677623271942139
1758273004911389200,7.99438916015625,0.024615196511149406,0.3068538010120392,-1.4761559963226318
1758273004921347000,8.00434716796875,-0.2913912236690521,0.18804912269115448,-1.5219191312789917
1758273004931305000,8.014304931640625,-0.6182718276977539,0.011598602868616581,-1.4513672590255737
1758273004941262000,8.024261962890625,-0.8209519982337952,-0.5976500511169434,-1.2103103399276733
1758273004951220000,8.034219970703125,-0.6686874032020569,-1.2717180252075195,-0.9443573355674744
1758273004961178000,8.04417822265625,-0.1570749431848526,-1.5171676874160767,-0.6980351805686951
1758273004971135200,8.05413525390625,0.5479660630226135,-1.2477329969406128,-0.3790864944458008
1758273004981092900,8.0640927734375,1.0575296878814697,-0.4356633126735687,-0.08332942426204681
1758273004991051000,8.074051025390625,0.9612842202186584,0.7002012729644775,-0.12990228831768036
1758273005001008000,8.084008056640625,0.3445057272911072,1.8551380634307861,-0.046532563865184784
1758273005010966000,8.093966064453125,-0.15024334192276,1.9129523038864136,0.6103070378303528
1758273005020924200,8.103924072265626,-0.31965845823287964,1.5523335933685303,1.2307265996932983
1758273005030881000,8.113881103515626,-0.47129204869270325,1.383245587348938,1.7140244245529175
1758273005040839000,8.1238388671875,-0.5141229033470154,1.1976091861724854,1.921775221824646
1758273005050797000,8.133797119140626,-0.39101001620292664,1.0608917474746704,1.6490086317062378
1758273005060755000,8.1437548828125,-0.2713274657726288,0.7940588593482971,0.8637360334396362
1758273005070712000,8.153712158203126,-0.11614544689655304,0.6548219919204712,0.7710623741149902
1758273005080670200,8.163670166015624,-0.21759378910064697,1.035429835319519,2.2303223609924316
1758273005090627800,8.1736279296875,-0.38669514656066895,1.2682316303253174,3.934995174407959
1758273005100585000,8.1835849609375,-0.23991158604621887,1.2111060619354248,4.5669121742248535
1758273005110543000,8.193543212890624,-0.03165474906563759,1.3762645721435547,4.2395100593566895
1758273005120501000,8.2035009765625,-0.049253448843955994,1.535523533821106,3.41731333732605
1758273005130458000,8.2134580078125,-0.14081242680549622,1.5481860637664795,2.563993215560913
1758273005140416300,8.223416259765624,-0.23773843050003052,1.4604918956756592,1.9378918409347534
1758273005150374000,8.233373779296874,-0.33902209997177124,1.3321070671081543,1.6201061010360718
1758273005160331000,8.2433310546875,-0.45473140478134155,1.0358551740646362,1.5543569326400757
1758273005170289200,8.2532890625,-0.5384076833724976,0.3700678050518036,1.655562162399292
1758273005180247000,8.2632470703125,-0.4625486135482788,-0.42002737522125244,1.9531501531600952
1758273005190204700,8.27320458984375,-0.38785549998283386,-1.0282535552978516,2.355407476425171
1758273005200162300,8.283162353515625,-0.34650060534477234,-0.9552413821220398,2.6276700496673584
1758273005210120400,8.293120361328125,-0.3014218807220459,-0.2208731323480606,2.691826105117798
1758273005220077600,8.30307763671875,-0.26787883043289185,0.5704793334007263,2.6675140857696533
1758273005230035500,8.313035400390625,-0.20955896377563477,1.2473312616348267,2.6456902027130127
1758273005239993600,8.32299365234375,-0.19254988431930542,1.6734873056411743,2.636754035949707
1758273005249950500,8.332950439453125,-0.06465811282396317,1.8702603578567505,2.5661027431488037
1758273005259908400,8.342908447265625,-0.031123323366045952,1.6063594818115234,2.5515878200531006
1758273005269866500,8.352866455078125,-0.012993643060326576,1.220334529876709,2.4195613861083984
1758273005279823600,8.36282373046875,0.1387293040752411,0.8575473427772522,2.1424267292022705
1758273005289781500,8.372781494140625,0.4108652174472809,0.5403968095779419,1.7833901643753052
1758273005299739600,8.38273974609375,0.5799328088760376,0.34563764929771423,1.444200873374939
1758273005309696500,8.392696533203125,0.6576334834098816,0.28772738575935364,1.1297532320022583
1758273005319654400,8.402654296875,0.743608832359314,0.13896428048610687,0.8749233484268188
1758273005329612500,8.412612548828125,0.8249499797821045,-0.2135864794254303,0.7469508647918701
1758273005339569700,8.422569580078125,0.8383424878120422,-0.5103148221969604,0.7884058952331543
1758273005349527600,8.432527587890625,0.7441512942314148,-0.6714467406272888,0.9362366199493408
1758273005359485700,8.442485595703126,0.6199614405632019,-0.5509874224662781,1.1212722063064575
1758273005369442600,8.452442626953125,0.4867895841598511,-0.14873291552066803,1.3021996021270752
1758273005379400400,8.462400390625,0.3336218595504761,0.32963791489601135,1.475660800933838
1758273005389358600,8.472358642578126,0.18839238584041595,0.760806143283844,1.5655840635299683
1758273005399315700,8.482315673828126,0.1252637505531311,1.0121408700942993,1.5346684455871582
1758273005409273600,8.492273681640626,0.1380201131105423,0.9450297355651855,1.2780364751815796
1758273005419231500,8.5022314453125,0.18646781146526337,0.35109955072402954,0.8444913625717163
1758273005429188600,8.512188720703126,0.253533273935318,-0.49033403396606445,0.34990739822387695
1758273005439146500,8.522146484375,0.3074479103088379,-1.0939456224441528,-0.23414991796016693
1758273005449104600,8.532104736328124,0.3035332262516022,-1.398284912109375,-0.6701816320419312
1758273005459062500,8.5420625,0.22001783549785614,-1.5283502340316772,-0.823279857635498
1758273005469019400,8.552019287109376,0.15904587507247925,-1.3461799621582031,-0.8521275520324707
1758273005478977500,8.5619775390625,0.03791119158267975,-0.8956273794174194,-0.7591936588287354
1758273005488935400,8.571935302734374,-0.1357141137123108,-0.03785393014550209,-0.5830302834510803
1758273005498892500,8.581892578125,-0.2865566313266754,0.7879414558410645,-0.5138109922409058
1758273005508850700,8.5918505859375,-0.4527396559715271,0.9779123663902283,-0.9400612115859985
1758273005518808600,8.60180859375,-0.6575364470481873,0.6885023713111877,-1.4942072629928589
1758273005528765400,8.611765380859374,-0.8585470914840698,0.3889627754688263,-1.7929373979568481
1758273005538723600,8.6217236328125,-0.8734666109085083,0.10754947364330292,-2.058149576187134
1758273005548681500,8.631681396484375,-0.8245435357093811,-0.16725295782089233,-2.4130232334136963
1758273005558638600,8.641638671875,-0.6269358992576599,-0.1943223923444748,-2.8642494678497314
1758273005568596500,8.651596435546875,-0.3047723174095154,-0.30473971366882324,-3.2471096515655518
1758273005578554600,8.6615546875,-0.14947886765003204,-0.6260572671890259,-3.223768472671509
1758273005588511500,8.671511474609375,-0.13541577756404877,-0.7222076058387756,-3.048386573791504
1758273005598469400,8.681469482421875,0.05240499600768089,-0.3365049362182617,-2.945478677749634
1758273005608427500,8.691427490234375,0.3044963777065277,0.385494202375412,-2.817641019821167
1758273005618384600,8.701384521484375,0.429437518119812,1.0225293636322021,-2.680758476257324
1758273005628342500,8.711342529296875,0.490205854177475,1.1720861196517944,-2.6651883125305176
1758273005638300400,8.721300537109375,0.5409910678863525,0.853808581829071,-2.6945016384124756
1758273005648257500,8.731257568359375,0.53733229637146,0.5041798949241638,-2.6286468505859375
1758273005658215400,8.74121533203125,0.4695274531841278,0.3258759379386902,-2.5270087718963623
1758273005668173600,8.751173583984375,0.5269389152526855,0.32745757699012756,-2.4298555850982666
1758273005678130700,8.761130615234375,0.633604109287262,0.8182951807975769,-2.477139472961426
1758273005688088300,8.77108837890625,0.5709088444709778,1.4423818588256836,-2.524731397628784
1758273005698046500,8.78104638671875,0.463665246963501,1.7798000574111938,-2.42668080329895
1758273005708003600,8.791003662109375,0.44478127360343933,1.50973641872406,-2.1094858646392822
1758273005717961500,8.80096142578125,0.4712355434894562,1.1125613451004028,-1.8607500791549683
1758273005727919600,8.810919677734375,0.4502699077129364,0.8324319124221802,-1.641502857208252
1758273005737876500,8.82087646484375,0.18932193517684937,0.7899073362350464,-1.3037152290344238
1758273005747834400,8.83083447265625,-0.04622536152601242,0.8556270003318787,-1.1003050804138184
1758273005757792500,8.84079248046875,-0.10075757652521133,0.9429672360420227,-1.019274115562439
1758273005767749600,8.85074951171875,-0.02253553457558155,0.9843154549598694,-1.0702234506607056
1758273005777707500,8.86070751953125,-0.08570517599582672,0.437669962644577,-1.0360740423202515
1758273005787665700,8.870665771484376,-0.1440332978963852,-0.37377873063087463,-1.081992506980896
1758273005797622500,8.88062255859375,-0.11513586342334747,-1.1991865634918213,-1.318172812461853
1758273005807580400,8.890580322265626,-0.16386659443378448,-1.6176079511642456,-1.5486429929733276
1758273005817538600,8.90053857421875,-0.30533477663993835,-2.114419460296631,-1.883799433708191
1758273005827495700,8.91049560546875,-0.49739912152290344,-2.5965993404388428,-2.3470442295074463
1758273005837453600,8.92045361328125,-0.6537005305290222,-2.5910727977752686,-2.621335983276367
1758273005847411700,8.93041162109375,-0.8310061693191528,-2.5784826278686523,-2.590834856033325
1758273005857368600,8.94036865234375,-1.0366088151931763,-2.7151896953582764,-2.2462077140808105
1758273005867326500,8.950326416015624,-1.1140391826629639,-2.9467380046844482,-1.7135295867919922
1758273005877284600,8.96028466796875,-1.1115390062332153,-3.014129877090454,-1.0419001579284668
1758273005887241700,8.97024169921875,-1.0861074924468994,-2.8102996349334717,-0.22907596826553345
1758273005897199600,8.98019970703125,-1.058098554611206,-2.5348591804504395,0.5910120010375977
1758273005907157500,8.990157470703124,-1.0511959791183472,-2.416057586669922,1.2675386667251587
1758273005917114600,9.000114501953124,-1.0493320226669312,-2.359793186187744,1.7729147672653198
1758273005927072500,9.010072509765624,-0.9686602354049683,-2.2019834518432617,2.095216751098633
1758273005937029600,9.020029541015624,-0.787268340587616,-1.7522181272506714,2.1339304447174072
1758273005946987500,9.029987548828124,-0.4959973096847534,-1.0849677324295044,1.7297128438949585
1758273005956945400,9.0399453125,-0.18743546307086945,-0.4303991198539734,1.0003997087478638
1758273005966902500,9.049902587890625,0.0946066826581955,0.2967570424079895,0.18584313988685608
1758273005976860400,9.0598603515625,0.3309105634689331,0.9115434885025024,-0.4021996259689331
1758273005986818600,9.069818603515625,0.35924792289733887,1.332681655883789,-0.7746114730834961
1758273005996775700,9.079775634765625,0.020277461037039757,1.247728943824768,-1.1597956418991089
1758273006006733300,9.0897333984375,-0.4093770384788513,0.6082506775856018,-1.5315788984298706
1758273006016691500,9.09969140625,-0.6282806396484375,-0.5211862921714783,-1.660593032836914
1758273006026648600,9.109648681640625,-0.5997088551521301,-1.647253394126892,-1.5963995456695557
1758273006036606500,9.1196064453125,-0.28893524408340454,-1.7765072584152222,-1.2853015661239624
1758273006046564600,9.129564697265625,0.3554381728172302,-1.2596421241760254,-0.7463736534118652
1758273006056521500,9.139521484375,1.0597840547561646,-0.5575470924377441,-0.32573777437210083
1758273006066479400,9.149479248046875,1.1082217693328857,0.49792981147766113,-0.35152605175971985
1758273006076437500,9.1594375,0.606867253780365,1.5931098461151123,-0.14876653254032135
1758273006086394600,9.16939453125,0.2464994192123413,1.8073160648345947,0.44661402702331543
1758273006096352500,9.1793525390625,0.20783191919326782,1.6177674531936646,1.066264271736145
1758273006106310700,9.189310546875,0.05647781118750572,1.5408717393875122,1.703981876373291
1758273006116267500,9.199267578125,-0.10461626946926117,1.4305680990219116,1.982845425605774
1758273006126225400,9.209225341796875,-0.14923764765262604,1.3109958171844482,1.60012948513031
1758273006136183600,9.21918359375,-0.1915065348148346,1.2037396430969238,0.9152765274047852
1758273006146140700,9.229140625,-0.11848713457584381,1.2340173721313477,1.2904703617095947
1758273006156098600,9.2390986328125,-0.34155404567718506,1.1701723337173462,2.452162742614746
1758273006166056700,9.249056640625,-0.4891129732131958,1.0626572370529175,3.3572945594787598
1758273006176013600,9.259013671875,-0.4437686800956726,0.9926246404647827,3.585609197616577
1758273006185971500,9.268971435546876,-0.35168537497520447,1.056373119354248,3.2970950603485107
1758273006195929000,9.27892919921875,-0.31237363815307617,1.3324071168899536,2.8997385501861572
1758273006205886200,9.28888623046875,-0.30884426832199097,1.6990411281585693,2.6108782291412354
1758273006215843800,9.29884375,-0.32627013325691223,1.933592438697815,2.466759204864502
1758273006225802000,9.308802001953126,-0.383482962846756,1.9635772705078125,2.470104932785034
1758273006235759000,9.318759033203126,-0.42737293243408203,1.5417588949203491,2.5608832836151123
1758273006245717000,9.328717041015626,-0.42113521695137024,0.9598634243011475,2.7570855617523193
1758273006255675100,9.338675048828126,-0.4336531460285187,0.44323843717575073,2.9768636226654053
1758273006265632000,9.348632080078126,-0.39902210235595703,-0.17679910361766815,2.9990286827087402
1758273006275590000,9.35858984375,-0.417892187833786,-0.33731210231781006,2.8660404682159424
1758273006285547000,9.368547119140626,-0.416415810585022,-0.053521741181612015,2.602848768234253
1758273006295505200,9.378505126953126,-0.33265113830566406,0.19773951172828674,2.360995292663574
1758273006305463000,9.388463134765624,-0.19960647821426392,0.25767314434051514,2.1876654624938965
1758273006315420000,9.398419921875,-0.06782020628452301,0.26491987705230713,2.093763589859009
1758273006325378000,9.4083779296875,0.09962886571884155,0.5776552557945251,2.002932071685791
1758273006335336000,9.4183359375,0.27083736658096313,0.7676718235015869,1.9694746732711792
1758273006345293000,9.42829296875,0.34265562891960144,0.8872295022010803,1.9625887870788574
1758273006355251200,9.438251220703124,0.4173714220523834,1.145128846168518,1.9940305948257446
1758273006365209000,9.448208984375,0.4542112648487091,1.3778116703033447,2.055673360824585
1758273006375166000,9.458166015625,0.45794209837913513,1.4608378410339355,2.109771490097046
1758273006385124000,9.4681240234375,0.3879918158054352,1.4974095821380615,2.1335926055908203
1758273006395082000,9.47808203125,0.31877171993255615,1.4374152421951294,2.067525625228882
1758273006405039000,9.4880390625,0.3820441961288452,0.9974641799926758,1.8605960607528687
1758273006414997000,9.4979970703125,0.5313183665275574,0.1766609400510788,1.5460304021835327
1758273006424955100,9.507955078125,0.6805541515350342,-0.7273655533790588,1.236688494682312
1758273006434912000,9.517912109375,0.7866899371147156,-1.3572276830673218,1.024217963218689
1758273006444870000,9.527869873046875,0.7557705044746399,-1.4952362775802612,0.9063897132873535
1758273006454828000,9.537828125,0.6184070706367493,-1.110521912574768,0.8716554045677185
1758273006464785200,9.54778515625,0.4176292419433594,-0.3155977725982666,0.9629697799682617
1758273006474743000,9.557742919921875,0.25150683522224426,0.589636504650116,1.1599113941192627
1758273006484701000,9.567700927734375,0.18579745292663574,1.0791853666305542,1.2418699264526367
1758273006494658000,9.577657958984375,0.20585717260837555,1.000858187675476,1.0138458013534546
1758273006504616000,9.587615966796875,0.32953256368637085,0.587322473526001,0.4882163405418396
1758273006514573000,9.597572998046875,0.4519125521183014,-0.17767290771007538,-0.1663079559803009
1758273006524531200,9.60753125,0.36944061517715454,-1.03553307056427,-0.6396642923355103
1758273006534488800,9.61748876953125,0.29609155654907227,-1.6418107748031616,-0.9007864594459534
1758273006544446000,9.627446044921875,0.21292731165885925,-1.7746508121490479,-0.8787046670913696
1758273006554404000,9.637404052734375,0.0956701934337616,-1.1815427541732788,-0.7336678504943848
1758273006564362000,9.647362060546875,-0.05173315852880478,-0.03754070773720741,-0.572084367275238
1758273006574319000,9.657319091796875,-0.18357880413532257,0.8808935284614563,-0.6609159708023071
1758273006584277000,9.667277099609375,-0.3892118036746979,0.9135342240333557,-1.0806154012680054
1758273006594235000,9.67723486328125,-0.604284405708313,0.3700580894947052,-1.5178192853927612
1758273006604192000,9.68719189453125,-0.73646479845047,0.2718285620212555,-1.8641626834869385
1758273006614150100,9.697150146484375,-0.7394241094589233,0.2984474003314972,-2.1926705837249756
1758273006624108000,9.70710791015625,-0.6521444320678711,0.09913421422243118,-2.516068696975708
1758273006634065000,9.71706494140625,-0.422552227973938,-0.09387678653001785,-2.9550437927246094
1758273006644023000,9.72702294921875,-0.16680996119976044,-0.36137497425079346,-3.305567979812622
1758273006653981000,9.73698095703125,-0.08601871132850647,-0.703079879283905,-3.2444446086883545
1758273006663938000,9.74693798828125,-0.12195383012294769,-0.9334930777549744,-3.0002357959747314
1758273006673896200,9.756896240234376,0.03769628703594208,-0.8322820067405701,-2.8473753929138184
1758273006683852800,9.766852783203126,0.2912360727787018,-0.2567795515060425,-2.7076735496520996
1758273006693811000,9.77681103515625,0.4762650430202484,0.38636690378189087,-2.6513466835021973
1758273006703769000,9.78676904296875,0.5052244663238525,0.6062413454055786,-2.8071699142456055
1758273006713726000,9.796725830078126,0.5096396803855896,0.4328770041465759,-3.0321812629699707
1758273006723684000,9.80668408203125,0.46991875767707825,0.10840799659490585,-3.094195604324341
1758273006733642000,9.81664208984375,0.38269463181495667,-0.25711512565612793,-2.925138235092163
1758273006743598800,9.826598876953126,0.4306042790412903,-0.3473276197910309,-2.7549521923065186
1758273006753557000,9.836556884765624,0.625643789768219,-0.023570582270622253,-2.696016311645508
1758273006763515000,9.846514892578124,0.8382343649864197,0.5749122500419617,-2.6774067878723145
1758273006773472000,9.856471923828124,0.8291530013084412,1.0512642860412598,-2.572334051132202
1758273006783430100,9.86643017578125,0.5741186738014221,1.1058379411697388,-2.425137996673584
1758273006793388000,9.876387939453124,0.4743345379829407,1.083167552947998,-2.208876609802246
1758273006803345000,9.886344970703124,0.3961726129055023,1.0513417720794678,-1.8123162984848022
1758273006813303000,9.896302978515624,0.4406348764896393,1.0834773778915405,-1.3440375328063965
1758273006823261000,9.906260986328125,0.008407680317759514,0.9780117273330688,-0.8821473121643066
1758273006833218000,9.916218017578124,-0.2656712830066681,1.0250537395477295,-0.7474403381347656
1758273006843176200,9.92617626953125,-0.28355416655540466,0.824263870716095,-0.8321099281311035
1758273006853133000,9.936133056640625,-0.17994841933250427,0.5022459030151367,-1.0018526315689087
1758273006863091000,9.946091064453125,-0.28005948662757874,-0.4770844280719757,-1.053799033164978
1758273006873049000,9.956049072265625,-0.4081079959869385,-1.1367734670639038,-1.2365294694900513
1758273006883006200,9.966006103515625,-0.4987201690673828,-1.6578320264816284,-1.5643985271453857
1758273006892964000,9.975964111328125,-0.5711616277694702,-2.27074933052063,-1.9666152000427246
1758273006902922000,9.985921875,-0.6990416049957275,-2.6592674255371094,-2.2328741550445557
1758273006912879000,9.995879150390625,-0.8801429271697998,-2.9828991889953613,-2.369966745376587
1758273006922837000,10.0058369140625,-1.146713137626648,-3.245821714401245,-2.45123553276062
1758273006932795100,10.015795166015625,-1.2118710279464722,-3.5684385299682617,-2.3724896907806396
1758273006942752000,10.025751953125,-1.282283067703247,-3.438375234603882,-1.9619516134262085
1758273006952710000,10.0357099609375,-1.272483468055725,-3.2497825622558594,-1.3222198486328125
1758273006962668000,10.04566796875,-1.148893117904663,-2.9444284439086914,-0.5776299238204956
1758273006972625000,10.055625,-1.0614991188049316,-2.4509265422821045,0.17615066468715668
1758273006982583000,10.0655830078125,-1.0694890022277832,-1.966097354888916,0.8820787072181702
1758273006992540200,10.0755400390625,-1.116958498954773,-1.644364595413208,1.4711339473724365
1758273007002497800,10.085497802734375,-1.1387193202972412,-1.412308692932129,1.8806464672088623
1758273007012456000,10.0954560546875,-1.0516395568847656,-1.0892565250396729,2.054536819458008
1758273007022413000,10.1054130859375,-0.8139569163322449,-0.6789436340332031,1.8544503450393677
1758273007032371000,10.115370849609375,-0.49377092719078064,-0.37889647483825684,1.1560370922088623
1758273007042329000,10.1253291015625,-0.16550077497959137,-0.05470253527164459,0.15293382108211517
1758273007052286000,10.135285888671875,0.16177402436733246,0.2813630998134613,-0.6694194674491882
1758273007062243800,10.145243896484375,0.33800309896469116,0.48342469334602356,-1.0181328058242798
1758273007072202000,10.155201904296876,0.20271795988082886,0.5771178603172302,-1.209246277809143
1758273007082159000,10.1651591796875,-0.21371252834796906,0.4983031451702118,-1.3798459768295288
1758273007092117000,10.175116943359376,-0.586015522480011,0.1706046164035797,-1.4968887567520142
1758273007102073900,10.185073974609375,-0.78193598985672,-0.5848686695098877,-1.4465157985687256
1758273007112032000,10.195031982421876,-0.6631073355674744,-1.1847643852233887,-1.174513578414917
1758273007121990000,10.204989990234376,-0.1402638554573059,-1.2097125053405762,-0.7241001129150391
1758273007131947000,10.214947021484376,0.5807742476463318,-0.9510605335235596,-0.23421108722686768
1758273007141905200,10.2249052734375,1.1089471578598022,-0.43935033679008484,0.012639693915843964
1758273007151863000,10.234863037109376,0.8823076486587524,0.6029949188232422,0.09310097992420197
1758273007161820000,10.24481982421875,0.3954601585865021,1.6593624353408813,0.4589703679084778
1758273007171778000,10.254778076171876,0.184987872838974,2.087629556655884,0.8263034224510193
1758273007181736000,10.26473583984375,0.08506029844284058,2.2235219478607178,1.2420448064804077
1758273007191693600,10.274693603515624,-0.02179691381752491,2.0567405223846436,1.51959228515625
1758273007201651500,10.2846513671875,0.05391012132167816,1.6962249279022217,1.4773670434951782
1758273007211608300,10.2946083984375,0.17179521918296814,1.0072853565216064,0.7884725332260132
1758273007221566500,10.30456640625,0.2052321583032608,0.6553571820259094,0.5555975437164307
1758273007231524400,10.3145244140625,0.2961176037788391,0.9642366766929626,1.5676628351211548
1758273007241481500,10.3244814453125,0.07920072227716446,1.1965510845184326,2.8232920169830322
1758273007251439600,10.334439697265625,-0.4932236671447754,1.0945693254470825,3.653653860092163
1758273007261397500,10.3443974609375,-0.5565613508224487,1.226131558418274,3.9182851314544678
1758273007271354400,10.354354248046874,-0.3866260349750519,1.5109246969223022,3.6524572372436523
1758273007281312500,10.3643125,-0.3008207380771637,1.786260724067688,3.2002902030944824
1758273007291270400,10.3742705078125,-0.2524998188018799,2.0449469089508057,2.75278377532959
1758273007301227500,10.3842275390625,-0.21253187954425812,2.0600156784057617,2.407066583633423
1758273007311185700,10.394185546875,-0.2737278640270233,1.8569120168685913,2.2824296951293945
1758273007321142500,10.404142578125,-0.382671058177948,1.508615493774414,2.357693672180176
1758273007331100400,10.414100341796875,-0.44602128863334656,0.9103379845619202,2.489633083343506
1758273007341058600,10.42405859375,-0.4733325242996216,0.1203644871711731,2.6664271354675293
1758273007351015700,10.434015625,-0.45985162258148193,-0.7521759867668152,2.804567575454712
1758273007360973600,10.4439736328125,-0.37785202264785767,-1.240454077720642,2.635073661804199
1758273007370931500,10.453931396484375,-0.3605864644050598,-0.9096635580062866,2.3099851608276367
1758273007380888600,10.463888671875,-0.3986934423446655,-0.03325878828763962,2.1218535900115967
1758273007390846500,10.473846435546875,-0.47564199566841125,0.8868876099586487,2.1813337802886963
1758273007400804600,10.4838046875,-0.38027939200401306,1.9089635610580444,2.3722805976867676
1758273007410761500,10.493761474609375,-0.2870330810546875,2.452812671661377,2.5923895835876465
1758273007420719400,10.50371923828125,-0.15299105644226074,2.6605372428894043,2.691392421722412
1758273007430676500,10.513676513671875,0.044354766607284546,2.8447189331054688,2.608649969100952
1758273007440634400,10.52363427734375,0.2547414004802704,2.8324134349823,2.4722278118133545
1758273007450592500,10.533592529296875,0.2747468054294586,2.3863353729248047,2.372819185256958
1758273007460549600,10.543549560546875,0.24338066577911377,1.6968648433685303,2.2301623821258545
1758273007470507300,10.55350732421875,0.3201904892921448,0.982659101486206,1.942882776260376
1758273007480465400,10.56346533203125,0.576653003692627,0.3561936318874359,1.4608474969863892
1758273007490422500,10.573422607421875,0.8555980920791626,-0.19321061670780182,0.9182745218276978
1758273007500380400,10.58338037109375,1.039671540260315,-0.6577191948890686,0.5667462944984436
1758273007510338600,10.593338623046876,1.0953474044799805,-1.091326355934143,0.47061365842819214
1758273007520295400,10.60329541015625,0.9949050545692444,-1.2920496463775635,0.6219282150268555
1758273007530253300,10.61325341796875,0.7775388956069946,-1.0976388454437256,0.9161508083343506
1758273007540210400,10.62321044921875,0.5154150724411011,-0.5189579129219055,1.270302653312683
1758273007550168600,10.63316845703125,0.28475335240364075,0.33370471000671387,1.6208447217941284
1758273007560126500,10.64312646484375,0.13308818638324738,1.190946340560913,1.822956919670105
1758273007570083300,10.653083251953126,0.104911670088768,1.7040852308273315,1.7483688592910767
1758273007580041500,10.66304150390625,0.17498140037059784,1.4796950817108154,1.3865718841552734
1758273007589999400,10.672999267578126,0.31613078713417053,0.574365496635437,0.8190898299217224
1758273007599956500,10.68295654296875,0.3725208044052124,-0.48967188596725464,0.20578984916210175
1758273007609914600,10.69291455078125,0.37797364592552185,-1.1850186586380005,-0.3496437966823578
1758273007619872500,10.70287255859375,0.29398131370544434,-1.3352127075195312,-0.5728706121444702
1758273007629829400,10.712829345703126,0.2147890031337738,-1.0455551147460938,-0.547554075717926
1758273007639787500,10.72278759765625,0.12217947095632553,-0.6575384736061096,-0.4696572422981262
1758273007649744400,10.732744384765626,0.02960985153913498,-0.20951518416404724,-0.46069303154945374
1758273007659702500,10.74270263671875,-0.06317763775587082,0.4035925567150116,-0.46306997537612915
1758273007669660700,10.75266064453125,-0.08580492436885834,0.6937918663024902,-0.6495975255966187
1758273007679617300,10.7626171875,-0.15932895243167877,0.7434852719306946,-1.203214168548584
1758273007689575400,10.772575439453124,-0.34720537066459656,0.9219178557395935,-1.633389949798584
1758273007699533600,10.782533447265624,-0.5267794728279114,0.8312726616859436,-1.7815117835998535
1758273007709490400,10.792490478515624,-0.6119612455368042,0.396750271320343,-2.013148069381714
1758273007719448600,10.802448486328124,-0.5244684815406799,0.005307898856699467,-2.564493417739868
1758273007729405400,10.812405517578124,-0.279682993888855,-0.40949806571006775,-3.1067869663238525
1758273007739363300,10.82236328125,-0.1909492313861847,-0.9316640496253967,-3.3666093349456787
1758273007749321500,10.832321533203125,-0.2627240717411041,-1.2555691003799438,-3.2808544635772705
1758273007759278600,10.842278564453125,-0.302384614944458,-1.1738295555114746,-2.8688578605651855
1758273007769236500,10.852236572265625,-0.18258684873580933,-0.7653190493583679,-2.491872549057007
1758273007779194600,10.862194580078125,0.03253958374261856,-0.1018572598695755,-2.3956332206726074
1758273007789151500,10.8721513671875,0.24323877692222595,0.48524272441864014,-2.6593666076660156
1758273007799109400,10.882109375,0.34411004185676575,0.6743836998939514,-3.052940607070923
1758273007809066500,10.89206640625,0.35059404373168945,0.4825138747692108,-3.2825605869293213
1758273007819024600,10.902024658203125,0.3488166928291321,0.03166135773062706,-3.236738443374634
1758273007828982500,10.911982421875,0.3659922182559967,-0.34022459387779236,-2.9912502765655518
1758273007838939400,10.921939453125,0.4031870663166046,-0.4033242166042328,-2.689870834350586
1758273007848897500,10.9318974609375,0.46539822220802307,-0.11212165653705597,-2.42014217376709
1758273007858855400,10.94185546875,0.5354292392730713,0.32144907116889954,-2.3549530506134033
1758273007868812500,10.9518125,0.5324084162712097,0.7834411859512329,-2.359840154647827
1758273007878770700,10.961770751953125,0.47614622116088867,1.0121233463287354,-2.2428641319274902
1758273007888728300,10.971728271484375,0.37398576736450195,0.8084432482719421,-2.0690011978149414
1758273007898685400,10.981685546875,0.08905283361673355,0.5499475002288818,-1.8240786790847778
1758273007908643600,10.9916435546875,-0.12051264196634293,0.5973456501960754,-1.4886246919631958
1758273007918600400,11.001600341796875,-0.4451269507408142,0.6550101637840271,-1.0821701288223267
1758273007928558600,11.01155859375,-0.6570762395858765,0.2916441857814789,-0.7833439707756042
1758273007938516500,11.0215166015625,-0.5793476700782776,0.06768923252820969,-0.8442432284355164
1758273007948473300,11.031473388671875,-0.43602243065834045,-0.1503506749868393,-1.0117884874343872
1758273007958431500,11.041431396484375,-0.28780972957611084,-0.4035218060016632,-1.262515664100647
1758273007968389600,11.0513896484375,-0.3826044201850891,-0.9142415523529053,-1.4368501901626587
1758273007978346500,11.061346435546875,-0.4686834514141083,-1.6583213806152344,-1.5321346521377563
1758273007988304400,11.071304443359375,-0.4635198414325714,-2.2026638984680176,-1.6829359531402588
1758273007998261500,11.081261474609375,-0.5157339572906494,-2.5958821773529053,-1.9174861907958984
1758273008008219400,11.091219482421875,-0.6271238327026367,-2.8249239921569824,-2.157008647918701
1758273008018177500,11.101177490234376,-0.8988720774650574,-2.945124387741089,-2.310962677001953
1758273008028134700,11.111134765625,-1.069994330406189,-3.1256775856018066,-2.348938465118408
1758273008038092300,11.12109228515625,-1.1625012159347534,-3.276960611343384,-2.112879991531372
1758273008048050400,11.131050537109376,-1.2570836544036865,-3.34303617477417,-1.6128525733947754
1758273008058007600,11.141007568359376,-1.2273286581039429,-3.3032219409942627,-0.9685115814208984
1758273008067965400,11.15096533203125,-1.1433719396591187,-3.020395040512085,-0.30015215277671814
1758273008077922600,11.160922607421876,-1.0633600950241089,-2.504798412322998,0.36532339453697205
1758273008087880400,11.17088037109375,-0.9728853702545166,-1.9323508739471436,0.9543781280517578
1758273008097838300,11.18083837890625,-0.9114291071891785,-1.3996700048446655,1.4430229663848877
1758273008107795500,11.19079541015625,-0.8839330077171326,-1.0745691061019897,1.8104432821273804
1758273008117753600,11.200753662109374,-0.7780892848968506,-0.7750300168991089,1.9496973752975464
1758273008127711500,11.21071142578125,-0.5704513788223267,-0.3679940402507782,1.8350552320480347
1758273008137668400,11.22066845703125,-0.38779371976852417,-0.09086018055677414,1.3269822597503662
1758273008147626500,11.23062646484375,-0.2927500307559967,0.06634248793125153,0.4709944427013397
1758273008157583400,11.240583251953124,-0.12678435444831848,0.1294153332710266,-0.6061663031578064
1758273008167541500,11.25054150390625,0.022002719342708588,0.013348646461963654,-1.4050475358963013
1758273008177499600,11.260499755859374,-0.026507964357733727,-0.2737303674221039,-1.6605364084243774
1758273008187456300,11.270456298828124,-0.16748718917369843,-0.4487650394439697,-1.6886578798294067
1758273008197414000,11.280413818359374,-0.37115561962127686,-0.5601606965065002,-1.6656931638717651
1758273008207372000,11.2903720703125,-0.6203454732894897,-0.7396734952926636,-1.500227451324463
1758273008217329200,11.3003291015625,-0.7868419885635376,-0.9832453727722168,-1.2214478254318237
1758273008227287000,11.310287109375,-0.6004063487052917,-1.280347228050232,-0.99174964427948
1758273008237244200,11.320244140625,-0.013470270670950413,-1.2729758024215698,-0.7056341171264648
1758273008247201800,11.330201904296874,0.6333186030387878,-0.41610977053642273,-0.2750460207462311
1758273008257160000,11.340159912109375,0.8163745403289795,0.7099193334579468,-0.07278019189834595
1758273008267117000,11.350116943359374,0.3246991038322449,1.587683081626892,-0.1333197057247162
1758273008277075000,11.360074951171875,-0.20249874889850616,1.732825517654419,0.2896796762943268
1758273008287033000,11.370033203125,-0.3300127685070038,1.3858158588409424,0.9547889828681946
1758273008296990000,11.379989990234375,-0.3204807937145233,1.469946265220642,1.5121885538101196
1758273008306947800,11.38994775390625,-0.30781078338623047,1.5527009963989258,1.7060173749923706
1758273008316905000,11.399905029296875,0.010567013174295425,1.4603424072265625,1.3113842010498047
1758273008326863000,11.409863037109375,0.36791953444480896,0.5330194234848022,0.33901482820510864
1758273008336821000,11.419821044921875,0.5598188638687134,-0.04426699876785278,-0.38279950618743896
1758273008346777900,11.42977783203125,0.5884824395179749,0.7799124121665955,0.7863420248031616
1758273008356736000,11.439736083984375,0.31768789887428284,1.6953859329223633,3.06457257270813
1758273008366694000,11.44969384765625,-0.18665753304958344,2.2392208576202393,4.915405750274658
1758273008376651000,11.459651123046875,-0.045422375202178955,2.379026174545288,5.397234916687012
1758273008386609200,11.469609130859375,0.06570255011320114,2.5640599727630615,4.814968109130859
1758273008396566000,11.47956591796875,-0.05051443353295326,2.664492607116699,3.724651575088501
1758273008406524000,11.48952392578125,-0.07352200895547867,2.459033966064453,2.6009199619293213
1758273008416482000,11.49948193359375,-0.07201459258794785,2.099177360534668,1.9717291593551636
1758273008426439200,11.509439208984375,-0.1552404910326004,1.810338020324707,1.79268479347229
1758273008436397000,11.51939697265625,-0.23578575253486633,1.2725720405578613,1.7471613883972168
1758273008446355200,11.529355224609375,-0.2889363169670105,0.5079800486564636,1.8307708501815796
1758273008456312000,11.53931201171875,-0.27973753213882446,-0.3152669370174408,2.104482650756836
1758273008466270000,11.54927001953125,-0.24333849549293518,-1.0644687414169312,2.4546730518341064
1758273008476227000,11.55922705078125,-0.25996339321136475,-1.346119999885559,2.5511884689331055
1758273008486185000,11.56918505859375,-0.331194669008255,-0.454974889755249,2.3466105461120605
1758273008496143000,11.57914306640625,-0.48511579632759094,0.35257473587989807,2.2383828163146973
1758273008506100000,11.589099853515625,-0.5114187598228455,1.2057151794433594,2.2894287109375
1758273008516057900,11.599057861328125,-0.507598876953125,1.805264949798584,2.3682475090026855
1758273008526016000,11.60901611328125,-0.4151374101638794,2.264632225036621,2.4766499996185303
1758273008535973000,11.61897314453125,-0.28068530559539795,2.6380958557128906,2.513751268386841
1758273008545931000,11.628930908203126,-0.07358971983194351,2.782637119293213,2.432675838470459
1758273008555887900,11.638887939453125,0.07342743873596191,2.5803439617156982,2.2443816661834717
1758273008565846000,11.648845947265626,0.14046798646450043,2.1797008514404297,2.090456962585449
1758273008575804000,11.658803955078126,0.22770000994205475,1.7124762535095215,1.9274786710739136
1758273008585761000,11.668760986328126,0.39676788449287415,1.3351551294326782,1.6550769805908203
1758273008595719200,11.67871923828125,0.567896842956543,1.0058287382125854,1.380037784576416
1758273008605677000,11.688677001953126,0.708656907081604,0.5699787735939026,1.2648009061813354
1758273008615634000,11.698634033203126,0.8220841884613037,0.020333316177129745,1.3409361839294434
1758273008625592000,11.708592041015624,0.8616052269935608,-0.31784605979919434,1.4318429231643677
1758273008635549200,11.718549072265626,0.7774434089660645,-0.36943310499191284,1.4449427127838135
1758273008645507000,11.728507080078124,0.6295626163482666,-0.3595344126224518,1.3707555532455444
1758273008655465200,11.73846533203125,0.46829602122306824,-0.33914485573768616,1.2561225891113281
1758273008665422000,11.748422119140624,0.3292081952095032,-0.2910076677799225,1.2313263416290283
1758273008675380000,11.7583798828125,0.22091293334960938,-0.17114520072937012,1.301836371421814
1758273008685338000,11.768338134765624,0.14775483310222626,0.09289123862981796,1.2693780660629272
1758273008695295000,11.778294921875,0.1581609696149826,0.38385826349258423,1.0417689085006714
1758273008705253000,11.788253173828124,0.2559245526790619,0.38220763206481934,0.6415075063705444
1758273008715210000,11.7982099609375,0.3012617826461792,0.12215965241193771,0.19352059066295624
1758273008725167900,11.80816796875,0.3128763437271118,-0.16058842837810516,-0.11657761037349701
1758273008735126000,11.8181259765625,0.3124139904975891,-0.5729210376739502,-0.3566322326660156
1758273008745083100,11.828083251953124,0.1981276273727417,-1.145655870437622,-0.5334807634353638
1758273008755041000,11.838041015625,0.08136968314647675,-1.3083221912384033,-0.6661139726638794
1758273008764998000,11.847997802734374,-0.012196747586131096,-0.9411388635635376,-0.6622971296310425
1758273008774956000,11.8579560546875,-0.040124282240867615,0.013546888716518879,-0.5034116506576538
1758273008784914000,11.867913818359375,-0.060534216463565826,0.8829925656318665,-0.6196998953819275
1758273008794871000,11.87787109375,-0.19816423952579498,1.2646805047988892,-1.0694631338119507
1758273008804829200,11.8878291015625,-0.3440615236759186,1.4448143243789673,-1.5141217708587646
1758273008814786800,11.897786865234375,-0.5111857056617737,1.2189117670059204,-1.7710334062576294
1758273008824744000,11.907743896484375,-0.5633155107498169,0.731098473072052,-2.157851457595825
1758273008834702000,11.9177021484375,-0.5495608448982239,0.37131354212760925,-2.724649429321289
1758273008844659200,11.9276591796875,-0.39543065428733826,0.09209361672401428,-3.2206687927246094
1758273008854617000,11.9376171875,-0.26510879397392273,-0.5813778638839722,-3.3371875286102295
1758273008864575000,11.947574951171875,-0.3001091182231903,-1.3899726867675781,-3.2288763523101807
1758273008874532000,11.957531982421875,-0.3570168614387512,-1.6465797424316406,-3.0092380046844482
1758273008884490000,11.967489990234375,-0.18594656884670258,-1.382419228553772,-2.8045058250427246
1758273008894448000,11.9774482421875,0.1428210586309433,-0.5685051083564758,-2.7455334663391113
1758273008904405000,11.987405029296875,0.5022455453872681,0.3238573372364044,-2.903963327407837
1758273008914363100,11.997363037109375,0.7149544954299927,0.7756686210632324,-3.167205810546875
1758273008924320000,12.007320068359375,0.7179422974586487,0.7416353225708008,-3.272205114364624
1758273008934278000,12.01727783203125,0.5729944705963135,0.4029654562473297,-3.120312213897705
1758273008944236000,12.027236083984375,0.4713362753391266,-0.058580607175827026,-2.8705697059631348
1758273008954193200,12.037193115234375,0.5155398845672607,-0.11604506522417068,-2.6834771633148193
1758273008964151000,12.047151123046875,0.7566624879837036,0.44097959995269775,-2.6556806564331055
1758273008974108000,12.05710791015625,0.7953736186027527,1.1989322900772095,-2.699756383895874
1758273008984066000,12.067066162109375,0.5983687043190002,1.6125643253326416,-2.631160020828247
1758273008994024000,12.07702392578125,0.45166000723838806,1.5388445854187012,-2.334573268890381
1758273009003981000,12.08698095703125,0.42531415820121765,1.1786805391311646,-2.0007503032684326
1758273009013939200,12.096939208984375,0.4136343002319336,0.8438156843185425,-1.63861083984375
1758273009023896800,12.106896728515625,0.23720304667949677,0.918637216091156,-1.2630486488342285
1758273009033854000,12.11685400390625,0.138839453458786,1.1737488508224487,-1.086052417755127
1758273009043812000,12.12681201171875,-0.07948169857263565,0.9201182126998901,-0.9388531446456909
1758273009053769200,12.136769287109376,-0.2712899148464203,0.5520797371864319,-0.8377100229263306
1758273009063727000,12.14672705078125,-0.3945673704147339,0.22610321640968323,-0.7569558024406433
1758273009073685000,12.15668505859375,-0.44718512892723083,-0.4133342504501343,-0.6997159123420715
1758273009083642000,12.16664208984375,-0.4966384172439575,-1.1064307689666748,-0.7513724565505981
1758273009093600000,12.17660009765625,-0.5199496746063232,-1.6962025165557861,-0.9489633440971375
1758273009103557000,12.18655712890625,-0.4644680619239807,-1.972058892250061,-1.245529294013977
1758273009113515300,12.196515380859376,-0.5138976573944092,-2.088107109069824,-1.5293798446655273
1758273009123473000,12.206472900390626,-0.5508519411087036,-2.379526376724243,-1.9070723056793213
1758273009133430000,12.216429931640626,-0.737215518951416,-2.498352527618408,-2.1653873920440674
1758273009143388200,12.22638818359375,-0.8760373592376709,-2.6568264961242676,-2.3100335597991943
1758273009153346000,12.236345947265624,-0.95915687084198,-2.7550647258758545,-2.169210195541382
1758273009163303200,12.24630322265625,-1.033814549446106,-2.879566192626953,-1.7249138355255127
1758273009173260800,12.2562607421875,-1.0308387279510498,-2.9961748123168945,-1.0145153999328613
1758273009183218000,12.266218017578124,-0.965221643447876,-2.898453950881958,-0.21243736147880554
1758273009193176000,12.276176025390624,-0.9121471643447876,-2.5898523330688477,0.5515170693397522
1758273009203134000,12.286134033203124,-0.8686894774436951,-2.179323673248291,1.2427308559417725
1758273009213091000,12.296091064453124,-0.8554403185844421,-1.847102165222168,1.8053585290908813
1758273009223049000,12.306049072265624,-0.8183350563049316,-1.590498447418213,2.121457815170288
1758273009233006000,12.316006103515624,-0.7143275737762451,-1.309767246246338,2.069958448410034
1758273009242964000,12.3259638671875,-0.5634600520133972,-1.0422353744506836,1.506897211074829
1758273009252922000,12.335922119140625,-0.33718425035476685,-0.796720027923584,0.4719165861606598
1758273009262879200,12.345879150390624,-0.041938211768865585,-0.6310929656028748,-0.6528332233428955
1758273009272836900,12.3558369140625,0.09022282063961029,-0.5981494784355164,-1.2754021883010864
1758273009282795000,12.365794921875,0.02312394417822361,-0.5051311254501343,-1.4425383806228638
1758273009292752100,12.375752197265625,-0.182456374168396,-0.2484157532453537,-1.5211554765701294
1758273009302710000,12.3857099609375,-0.45322954654693604,0.04238332435488701,-1.5745468139648438
1758273009312667100,12.395667236328125,-0.7658836841583252,0.19840846955776215,-1.4646234512329102
1758273009322625000,12.405625,-0.8772158026695251,-0.043325334787368774,-1.1707137823104858
1758273009332583000,12.4155830078125,-0.642932116985321,-0.3505096435546875,-0.7368443608283997
1758273009342540000,12.4255400390625,-0.01537762675434351,-0.5300599336624146,-0.29084235429763794
1758273009352498200,12.435498291015625,0.6529330015182495,-0.11986670643091202,0.0565730519592762
1758273009362455000,12.445455078125,0.8943021893501282,0.5679753422737122,0.04881579801440239
1758273009372413000,12.455412841796875,0.5477446913719177,1.301100492477417,-0.28235527873039246
1758273009382371000,12.46537109375,0.12098591774702072,1.7548589706420898,-0.022890420630574226
1758273009392328000,12.475327880859375,0.03870817646384239,1.41426420211792,0.5472651720046997
1758273009402286000,12.4852861328125,0.03796275705099106,1.2881402969360352,1.0376205444335938
1758273009412243200,12.4952431640625,-0.04200915992259979,1.3596916198730469,1.4338537454605103
1758273009422200800,12.505200927734375,-0.023436272516846657,1.1558468341827393,1.4243156909942627
1758273009432159000,12.515158935546875,0.024136630818247795,0.5891717672348022,0.9346416592597961
