time,seconds_elapsed,z,y,x
1759338862619829800,0.112829833984375,9.212176322937012,3.3372647762298584,0.4843263626098633
1759338862629869800,0.122869873046875,9.213382720947266,3.3413403034210205,0.43027541041374207
1759338862659986700,0.152986572265625,9.199980735778809,3.394737958908081,0.26875045895576477
1759338862670041000,0.163041015625,9.19637393951416,3.407069683074951,0.23387643694877625
1759338862680084200,0.173084228515625,9.202657699584961,3.391118049621582,0.21798011660575867
1759338862690128000,0.1831279296875,9.257210731506348,3.2382278442382812,0.23245607316493988
1759338862705181000,0.198180908203125,9.294610023498535,3.125392436981201,0.27973541617393494
1759338862715229700,0.208229736328125,9.324982643127441,3.0279927253723145,0.3347756862640381
1759338862725286400,0.218286376953125,9.357982635498047,2.9160690307617188,0.40102025866508484
1759338862735328800,0.228328857421875,9.388338088989258,2.808584451675415,0.45504745841026306
1759338862745386000,0.238385986328125,9.41720199584961,2.6969335079193115,0.5281690955162048
1759338862755411500,0.248411376953125,9.444437980651855,2.5775327682495117,0.6285046935081482
1759338862765473300,0.258473388671875,9.46694564819336,2.462995767593384,0.7394013404846191
1759338862780536600,0.27353662109375,9.49367904663086,2.3088085651397705,0.8806604146957397
1759338862795600000,0.288599853515625,9.51513385772705,2.192546844482422,0.9439648985862732
1759338862805643000,0.29864306640625,9.525551795959473,2.1475698947906494,0.9422987699508667
1759338862815686700,0.308686767578125,9.530078887939453,2.129134178161621,0.9383449554443359
1759338862825728000,0.31872802734375,9.529870986938477,2.120723247528076,0.9592677354812622
1759338862835747000,0.3287470703125,9.525609970092773,2.1171770095825195,1.0081837177276611
1759338862845789700,0.338789794921875,9.518007278442383,2.118399143218994,1.075190782546997
1759338862855839200,0.348839111328125,9.508214950561523,2.1267800331115723,1.1431370973587036
1759338862865919000,0.3589189453125,9.497614860534668,2.1459290981292725,1.1943285465240479
1759338862875917800,0.368917724609375,9.48714542388916,2.177340030670166,1.2204010486602783
1759338862885985300,0.3789853515625,9.477165222167969,2.2201626300811768,1.2207897901535034
1759338862896029200,0.389029296875,9.46752643585205,2.2731575965881348,1.1978391408920288
1759338862906071600,0.399071533203125,9.456879615783691,2.3352930545806885,1.1618729829788208
1759338862916114200,0.4091142578125,9.444036483764648,2.406093120574951,1.1211615800857544
1759338862926158800,0.419158935546875,9.425498962402344,2.483222484588623,1.108912467956543
1759338862936199700,0.42919970703125,9.39367961883545,2.5499649047851562,1.2217047214508057
1759338862946241500,0.439241455078125,9.368908882141113,2.630108118057251,1.2418476343154907
1759338862956306400,0.449306396484375,9.344581604003906,2.705826759338379,1.2623019218444824
1759338862966328300,0.459328369140625,9.323582649230957,2.776829957962036,1.2633839845657349
1759338862976369700,0.46936962890625,9.295649528503418,2.8740813732147217,1.251662254333496
1759338862986413300,0.479413330078125,9.26871109008789,2.976710081100464,1.2109090089797974
1759338862996458000,0.4894580078125,9.246159553527832,3.069777250289917,1.1493918895721436
1759338863006474000,0.499473876953125,9.226153373718262,3.162679672241211,1.0543488264083862
1759338863016542700,0.509542724609375,9.212226867675781,3.2383410930633545,0.9402883052825928
1759338863026559000,0.51955908203125,9.204573631286621,3.292057514190674,0.8211528658866882
1759338863036627000,0.529626953125,9.201189041137695,3.3270938396453857,0.7103995084762573
1759338863046696000,0.539696044921875,9.197800636291504,3.3555660247802734,0.6137998104095459
1759338863056712700,0.549712646484375,9.196137428283691,3.373206853866577,0.53725665807724
1759338863066755300,0.55975537109375,9.134151458740234,3.567432403564453,0.2771313488483429
1759338863076797200,0.569797119140625,9.100541114807129,3.6612610816955566,0.10689719021320343
1759338863086841000,0.579841064453125,9.086324691772461,3.6977310180664062,0.040071554481983185
1759338863096883700,0.5898837890625,9.075705528259277,3.7238998413085938,-0.016091976314783096
1759338863106902500,0.599902587890625,9.073298454284668,3.729536771774292,-0.04391990229487419
1759338863116970000,0.609969970703125,9.082260131835938,3.707744836807251,-0.03599853068590164
1759338863127010800,0.6200107421875,9.100384712219238,3.6632020473480225,-0.008258899673819542
1759338863137029600,0.630029541015625,9.116934776306152,3.621731996536255,0.025840308517217636
1759338863147096300,0.640096435546875,9.129866600036621,3.5887022018432617,0.05345451831817627
1759338863162162000,0.655161865234375,9.140567779541016,3.5611748695373535,0.06445590406656265
1759338863177225200,0.67022509765625,9.145992279052734,3.547595977783203,0.038690004497766495
1759338863187268600,0.6802685546875,9.148528099060059,3.5412614345550537,0.003648078069090843
1759338863197311000,0.69031103515625,9.148892402648926,3.539958953857422,-0.05066276341676712
1759338863207353000,0.70035302734375,9.149303436279297,3.537642240524292,-0.10693885385990143
1759338863217395700,0.710395751953125,9.156261444091797,3.517876386642456,-0.1533973217010498
1759338863227414500,0.72041455078125,9.16185474395752,3.5016367435455322,-0.18725284934043884
1759338863237482200,0.730482177734375,9.171677589416504,3.4742214679718018,-0.21501295268535614
1759338863247500800,0.740500732421875,9.183544158935547,3.440704107284546,-0.24534596502780914
1759338863257568500,0.750568603515625,9.195761680603027,3.40531849861145,-0.279060423374176
1759338863267573200,0.7605732421875,9.20722484588623,3.37070369720459,-0.31856581568717957
1759338863277654300,0.770654296875,9.21737289428711,3.3385937213897705,-0.36048173904418945
1759338863287697000,0.78069677734375,9.227238655090332,3.3067433834075928,-0.3995162844657898
1759338863297739500,0.790739501953125,9.23760986328125,3.273902654647827,-0.4292345345020294
1759338863307782000,0.800781982421875,9.2453031539917,3.2478232383728027,-0.4605649411678314
1759338863317824300,0.81082421875,9.252735137939453,3.222703456878662,-0.48702478408813477
1759338863327868000,0.820867919921875,9.261794090270996,3.193218469619751,-0.5085690021514893
1759338863337910500,0.83091064453125,9.272960662841797,3.1580052375793457,-0.5247011780738831
1759338863347927800,0.840927734375,9.284914016723633,3.1201694011688232,-0.539466381072998
1759338863357982500,0.850982421875,9.296741485595703,3.0820186138153076,-0.5548592209815979
1759338863368019200,0.861019287109375,9.307392120361328,3.047196388244629,-0.5684697031974792
1759338863378110700,0.87111083984375,9.316498756408691,3.017380952835083,-0.5782498717308044
1759338863388123600,0.88112353515625,9.324399948120117,2.991309404373169,-0.5862946510314941
1759338863398168000,0.89116796875,9.331902503967285,2.96653413772583,-0.5927629470825195
1759338863408187000,0.901186767578125,9.33918285369873,2.9421684741973877,-0.5995107293128967
1759338863418254600,0.911254638671875,9.345634460449219,2.9198474884033203,-0.6080401539802551
1759338863428295000,0.921294921875,9.350903511047363,2.9005942344665527,-0.619077205657959
1759338863438338600,0.931338623046875,9.355191230773926,2.883732557296753,-0.6329333186149597
1759338863448373200,0.941373291015625,9.358819007873535,2.8685359954833984,-0.6481744050979614
1759338863458423300,0.95142333984375,9.361637115478516,2.8561089038848877,-0.6621947288513184
1759338863468458000,0.9614580078125,9.364517211914062,2.845440149307251,-0.6673811078071594
1759338863478521300,0.971521240234375,9.365880012512207,2.839146137237549,-0.6750224232673645
1759338863488508700,0.9815087890625,9.366877555847168,2.8347558975219727,-0.6796181201934814
1759338863498570000,0.991570068359375,9.36830997467041,2.8294732570648193,-0.6818802952766418
1759338863508637700,1.0016376953125,9.371354103088379,2.8204147815704346,-0.6775565147399902
1759338863518680800,1.011680908203125,9.37635612487793,2.806713819503784,-0.6651340126991272
1759338863528723000,1.021722900390625,9.38340950012207,2.7878785133361816,-0.6445668935775757
1759338863543769000,1.03676904296875,9.395346641540527,2.7542672157287598,-0.6144727468490601
1759338863558851300,1.051851318359375,9.406364440917969,2.7192065715789795,-0.6019378900527954
1759338863568895200,1.061895263671875,9.411308288574219,2.701098680496216,-0.606184184551239
1759338863578936800,1.071936767578125,9.41642951965332,2.6825711727142334,-0.6089089512825012
1759338863588946400,1.081946533203125,9.421187400817871,2.665806531906128,-0.6089490056037903
1759338863599018000,1.09201806640625,9.424764633178711,2.65326189994812,-0.6083833575248718
1759338863609027600,1.102027587890625,9.426713943481445,2.6460916996002197,-0.609405517578125
1759338863619108900,1.11210888671875,9.427525520324707,2.642773151397705,-0.61124587059021
1759338863629149700,1.122149658203125,9.427886962890625,2.641279458999634,-0.6121304631233215
1759338863639194400,1.1321943359375,9.428237915039062,2.640219211578369,-0.611295223236084
1759338863649236700,1.14223681640625,9.42879581451416,2.6389098167419434,-0.6083308458328247
1759338863659279400,1.152279296875,9.429802894592285,2.6367225646972656,-0.6021808385848999
1759338863669321700,1.16232177734375,9.431464195251465,2.6330103874206543,-0.5923207998275757
1759338863679364600,1.172364501953125,9.433411598205566,2.6288492679595947,-0.5796564221382141
1759338863694436000,1.18743603515625,9.43545150756836,2.6261608600616455,-0.5582610964775085
1759338863709492000,1.202491943359375,9.437033653259277,2.6265780925750732,-0.5287542343139648
1759338863719513600,1.212513671875,9.43636417388916,2.6319186687469482,-0.5139481425285339
1759338863729595600,1.222595703125,9.434183120727539,2.6412301063537598,-0.5061551928520203
1759338863739623000,1.232622802734375,9.430977821350098,2.6529788970947266,-0.5044586062431335
1759338863749663200,1.242663330078125,9.427080154418945,2.6662354469299316,-0.5074087381362915
1759338863759706400,1.252706298828125,9.423070907592773,2.6796486377716064,-0.5112016797065735
1759338863769750000,1.26275,9.419144630432129,2.6923513412475586,-0.5167762637138367
1759338863779791000,1.272791015625,9.41553783416748,2.7037675380706787,-0.5228743553161621
1759338863789809400,1.282809326171875,9.412310600280762,2.7139644622802734,-0.5281285643577576
1759338863799877600,1.292877685546875,9.409364700317383,2.723435163497925,-0.5318548083305359
1759338863809914400,1.302914306640625,9.406763076782227,2.7321817874908447,-0.5330042243003845
1759338863819938800,1.312938720703125,9.404062271118164,2.741319417953491,-0.5337504148483276
1759338863829994800,1.322994873046875,9.400992393493652,2.7516937255859375,-0.5344429016113281
1759338863840049000,1.333048828125,9.397371292114258,2.7635200023651123,-0.5371101498603821
1759338863850091500,1.343091552734375,9.393397331237793,2.775784730911255,-0.5433331727981567
1759338863860133000,1.353133056640625,9.389544486999512,2.787226915359497,-0.5513023138046265
1759338863870178600,1.363178466796875,9.385784149169922,2.7981150150299072,-0.5601186752319336
1759338863880221400,1.373221435546875,9.382058143615723,2.809079885482788,-0.5675984621047974
1759338863890262300,1.38326220703125,9.377805709838867,2.821749210357666,-0.5749732851982117
1759338863905326000,1.398326171875,9.36943244934082,2.8464231491088867,-0.5896885991096497
1759338863915351000,1.40835107421875,9.36319637298584,2.864873170852661,-0.5993030071258545
1759338863930402800,1.42340283203125,9.354130744934082,2.8918941020965576,-0.6109793186187744
1759338863940483600,1.433483642578125,9.348917961120605,2.9073591232299805,-0.6173353791236877
1759338863950524000,1.44352392578125,9.344789505004883,2.919067621231079,-0.6245520710945129
1759338863960561700,1.453561767578125,9.341580390930176,2.9270665645599365,-0.6350330114364624
1759338863970604800,1.463604736328125,9.338872909545898,2.932460308074951,-0.6497968435287476
1759338863980650200,1.473650146484375,9.335636138916016,2.938444137573242,-0.6690029501914978
1759338864000731400,1.4937314453125,9.325413703918457,2.9597785472869873,-0.7158806324005127
1759338864020819000,1.51381884765625,9.31294059753418,2.9880688190460205,-0.7594035267829895
1759338864035871500,1.52887158203125,9.305810928344727,3.0029070377349854,-0.7877442836761475
1759338864050917600,1.543917724609375,9.303271293640137,3.0072383880615234,-0.8011032938957214
1759338864065976000,1.55897607421875,9.302838325500488,3.004995822906494,-0.8144360184669495
1759338864081054500,1.574054443359375,9.300628662109375,3.0063419342041016,-0.8344541192054749
1759338864096145200,1.589145263671875,9.299246788024902,3.002703905105591,-0.8624895811080933
1759338864106192000,1.59919189453125,9.29887580871582,2.998276710510254,-0.8816797137260437
1759338864136291600,1.62929150390625,9.301997184753418,2.9735262393951416,-0.9311836957931519
1759338864151356700,1.644356689453125,9.306243896484375,2.951521635055542,-0.9583601951599121
1759338864166406100,1.65940625,9.336007118225098,2.836439371109009,-1.014739990234375
1759338864176459000,1.669458984375,9.400835990905762,2.5598278045654297,-1.143539547920227
1759338864186510300,1.67951025390625,9.450658798217773,2.2823171615600586,-1.3085081577301025
1759338864196552700,1.689552734375,9.463054656982422,2.175922155380249,-1.3971655368804932
1759338864211631600,1.704631591796875,9.457984924316406,2.1566333770751953,-1.4599900245666504
1759338864221674800,1.7146748046875,9.447684288024902,2.1476213932037354,-1.5378891229629517
1759338864231716000,1.724716064453125,9.427230834960938,2.145444631576538,-1.6614714860916138
1759338864241760500,1.734760498046875,9.39616584777832,2.144333600997925,-1.8303030729293823
1759338864251802600,1.744802734375,9.348529815673828,2.150359630584717,-2.0535471439361572
1759338864261819100,1.754819091796875,9.278191566467285,2.1680290699005127,-2.334721326828003
1759338864271887400,1.764887451171875,9.185270309448242,2.196810483932495,-2.653477668762207
1759338864281932000,1.77493212890625,9.07041072845459,2.236140727996826,-2.993899345397949
1759338864296995300,1.789995361328125,8.860754013061523,2.319857597351074,-3.5130341053009033
1759338864317055000,1.810054931640625,8.49271011352539,2.4731249809265137,-4.241892337799072
1759338864332142600,1.825142578125,8.064446449279785,2.6059017181396484,-4.940657138824463
1759338864347208000,1.8402080078125,7.537354469299316,2.725642681121826,-5.656436920166016
1759338864362273000,1.85527294921875,7.035408973693848,2.781768321990967,-6.2450690269470215
1759338864372314400,1.865314453125,6.7227301597595215,2.718442916870117,-6.606895923614502
1759338864382358000,1.87535791015625,6.425387859344482,2.578559398651123,-6.949930667877197
1759338864392400600,1.885400634765625,6.139117240905762,2.3641116619110107,-7.277247905731201
1759338864402444300,1.8954443359375,5.860522270202637,2.0776607990264893,-7.587735176086426
1759338864412486000,1.90548583984375,5.583056449890137,1.7264995574951172,-7.879391670227051
1759338864422528800,1.91552880859375,5.3005194664001465,1.3175969123840332,-8.148898124694824
1759338864432572200,1.925572265625,4.988892078399658,0.8259718418121338,-8.406238555908203
1759338864442615000,1.935614990234375,4.602452754974365,0.1513073891401291,-8.66202449798584
1759338864452659200,1.9456591796875,4.212152481079102,-0.37343961000442505,-8.851804733276367
1759338864462699000,1.955698974609375,3.7788147926330566,-0.9150252342224121,-9.006629943847656
1759338864472743200,1.9657431640625,3.324838161468506,-1.4770251512527466,-9.110431671142578
1759338864482786600,1.97578662109375,2.882213830947876,-2.0677571296691895,-9.146219253540039
1759338864497850000,1.99085009765625,2.2780303955078125,-3.012768030166626,-9.053723335266113
1759338864512912600,2.00591259765625,1.7643213272094727,-4.001756191253662,-8.7811861038208
1759338864522957800,2.015957763671875,1.4644931554794312,-4.650145530700684,-8.512785911560059
1759338864533000700,2.026000732421875,1.1912784576416016,-5.2539777755737305,-8.198333740234375
1759338864543042000,2.0360419921875,0.9212154150009155,-5.774801731109619,-7.876492977142334
1759338864553085700,2.046085693359375,0.6831863522529602,-6.178390979766846,-7.589258670806885
1759338864563126300,2.056126220703125,0.5122196078300476,-6.461159706115723,-7.3639092445373535
1759338864573170700,2.066170654296875,0.4272490441799164,-6.6635870933532715,-7.18680477142334
1759338864583215000,2.076215087890625,0.4339084327220917,-6.810586929321289,-7.0472517013549805
1759338864598277400,2.09127734375,0.5663976073265076,-6.943296432495117,-6.906948566436768
1759338864613341700,2.106341796875,0.7864610552787781,-7.008751392364502,-6.818724155426025
1759338864623384300,2.11638427734375,0.9470747113227844,-7.031430721282959,-6.77481746673584
1759338864633427700,2.126427734375,1.0955618619918823,-7.0456862449646,-6.737519264221191
1759338864643425000,2.136425048828125,1.208627700805664,-7.060249328613281,-6.702850818634033
1759338864653511200,2.14651123046875,1.2019689083099365,-7.0966033935546875,-6.665555000305176
1759338864663555300,2.156555419921875,1.0261220932006836,-7.184715270996094,-6.60023307800293
1759338864678620200,2.1716201171875,0.49711334705352783,-7.158331394195557,-6.689340591430664
1759338864693683700,2.18668359375,0.010351326316595078,-6.693239688873291,-7.171927452087402
1759338864703726800,2.196726806640625,-0.2190524935722351,-6.711402893066406,-7.151587009429932
1759338864713770200,2.206770263671875,-0.41234859824180603,-6.727573871612549,-7.12782096862793
1759338864723813000,2.216813232421875,-0.5644972324371338,-6.749868392944336,-7.096250057220459
1759338864733853400,2.226853515625,-0.7009934782981873,-6.7631378173828125,-7.0714006423950195
1759338864743897600,2.236897705078125,-0.8403022289276123,-6.7573652267456055,-7.061729431152344
1759338864753941800,2.246941650390625,-0.9829736948013306,-6.732789993286133,-7.066784381866455
1759338864763984100,2.256984130859375,-1.1260696649551392,-6.692498207092285,-7.083681583404541
1759338864774026200,2.267026123046875,-1.2648603916168213,-6.642547607421875,-7.107235431671143
1759338864784066600,2.277066650390625,-1.3981575965881348,-6.5883355140686035,-7.132679462432861
1759338864794111000,2.287111083984375,-1.5280768871307373,-6.535097122192383,-7.154971599578857
1759338864804155400,2.2971552734375,-1.6610922813415527,-6.489978313446045,-7.166384696960449
1759338864814195500,2.307195556640625,-1.7868536710739136,-6.459566593170166,-7.163607597351074
1759338864824238000,2.317238037109375,-1.8955843448638916,-6.452712535858154,-7.141805648803711
1759338864834283300,2.327283203125,-1.996181607246399,-6.489160537719727,-7.081114292144775
1759338864844324000,2.337323974609375,-2.119235038757324,-6.562514781951904,-6.976987838745117
1759338864854366200,2.3473662109375,-2.2467992305755615,-6.6508989334106445,-6.852266788482666
1759338864864416500,2.35741650390625,-2.326425313949585,-6.751893043518066,-6.7257585525512695
1759338864874456000,2.3674560546875,-2.3615403175354004,-6.8483428955078125,-6.61509370803833
1759338864884494800,2.377494873046875,-2.3398172855377197,-6.927694797515869,-6.53975772857666
1759338864894538200,2.387538330078125,-2.2750306129455566,-6.982062339782715,-6.504703521728516
1759338864904581000,2.3975810546875,-2.1936070919036865,-7.0259175300598145,-6.4854207038879395
1759338864914627800,2.4076279296875,-2.119584798812866,-7.056182861328125,-6.477170944213867
1759338864924671500,2.41767138671875,-2.0467541217803955,-7.078760147094727,-6.475959777832031
1759338864934710500,2.42771044921875,-1.9853689670562744,-7.0974931716918945,-6.4745659828186035
1759338864944751900,2.437751953125,-1.9443601369857788,-7.11928653717041,-6.463077068328857
1759338864954794500,2.44779443359375,-1.9317833185195923,-7.151238441467285,-6.4314961433410645
1759338864964827100,2.4578271484375,-1.9348806142807007,-7.190484046936035,-6.386649131774902
1759338864974882300,2.46788232421875,-1.9312301874160767,-7.212666034698486,-6.362698078155518
1759338864984922600,2.477922607421875,-1.9106234312057495,-7.213700771331787,-6.367741584777832
1759338864994967800,2.4879677734375,-1.892349123954773,-7.228731632232666,-6.356143474578857
1759338865005011000,2.498010986328125,-1.8784263134002686,-7.2631378173828125,-6.320952892303467
1759338865015051000,2.508051025390625,-1.8732590675354004,-7.316269397735596,-6.260927677154541
1759338865025094100,2.51809423828125,-1.8839027881622314,-7.390328884124756,-6.170094966888428
1759338865035137000,2.528136962890625,-1.9171115159988403,-7.499202728271484,-6.0268378257751465
1759338865045178400,2.538178466796875,-1.9492460489273071,-7.6382832527160645,-5.838936805725098
1759338865055222500,2.548222412109375,-1.953464150428772,-7.790702819824219,-5.6324992179870605
1759338865065264600,2.5582646484375,-1.9211612939834595,-7.923925876617432,-5.454965591430664
1759338865075308000,2.56830810546875,-1.8574107885360718,-8.025055885314941,-5.327725410461426
1759338865085352000,2.57835205078125,-1.8752793073654175,-8.252241134643555,-4.961849689483643
1759338865095393000,2.58839306640625,-1.825960397720337,-8.33405876159668,-4.842051029205322
1759338865105438000,2.59843798828125,-1.781679391860962,-8.484015464782715,-4.591647624969482
1759338865115478800,2.608478759765625,-1.271227478981018,-8.558999061584473,-4.622080326080322
1759338865125520400,2.618520263671875,-1.2358962297439575,-8.735208511352539,-4.290082931518555
1759338865135562800,2.628562744140625,-1.2283093929290771,-8.852803230285645,-4.044162750244141
1759338865145607000,2.63860693359375,-1.2458937168121338,-8.894049644470215,-3.947120189666748
1759338865155648800,2.648648681640625,-1.2251776456832886,-8.886751174926758,-3.9699761867523193
1759338865170714000,2.663714111328125,-1.1911989450454712,-8.84251880645752,-4.07762336730957
1759338865180755500,2.67375537109375,-1.2321749925613403,-8.798819541931152,-4.159165859222412
1759338865195819800,2.68881982421875,-1.4175399541854858,-8.79358959197998,-4.110897541046143
1759338865205863700,2.69886376953125,-1.4323492050170898,-8.820939064025879,-4.0466718673706055
1759338865215906300,2.70890625,-1.4035481214523315,-8.866385459899902,-3.9564321041107178
1759338865225948000,2.718947998046875,-1.3419617414474487,-8.923409461975098,-3.8481218814849854
1759338865235990500,2.728990478515625,-1.25694739818573,-8.971331596374512,-3.764493942260742
1759338865246035500,2.739035400390625,-1.134748101234436,-9.01777172088623,-3.691645622253418
1759338865256078300,2.749078369140625,-0.9423109889030457,-9.070297241210938,-3.6163392066955566
1759338865266119200,2.759119140625,-0.6821361780166626,-9.115442276000977,-3.560835599899292
1759338865276162000,2.769162109375,-0.41827473044395447,-9.158801078796387,-3.489630937576294
1759338865286205700,2.779205810546875,-0.23925170302391052,-9.23444938659668,-3.3020946979522705
1759338865296248000,2.789248046875,-0.15796078741550446,-9.346307754516602,-2.9761903285980225
1759338865306290200,2.799290283203125,-0.13801300525665283,-9.47143840789795,-2.5512561798095703
1759338865316333300,2.809333251953125,-0.11720042675733566,-9.581689834594727,-2.1008541584014893
1759338865326376000,2.8193759765625,-0.04693618789315224,-9.668814659118652,-1.657690405845642
1759338865336418300,2.829418212890625,0.11460250616073608,-9.744046211242676,-1.1298460960388184
1759338865346462700,2.839462646484375,0.28725969791412354,-9.783284187316895,-0.664034366607666
1759338865356505900,2.849505859375,0.4465378522872925,-9.795746803283691,-0.28290966153144836
1759338865366547700,2.859547607421875,0.5669618248939514,-9.793580055236816,-0.021703403443098068
1759338865376590600,2.869590576171875,0.6582105755805969,-9.786409378051758,0.17039284110069275
1759338865386632200,2.879632080078125,0.6965063214302063,-9.779716491699219,0.328833669424057
1759338865396677400,2.889677490234375,0.7145286202430725,-9.7726469039917,0.4700252413749695
1759338865406718500,2.899718505859375,0.737764835357666,-9.761762619018555,0.6323267221450806
1759338865416760300,2.90976025390625,0.8417856693267822,-9.742536544799805,0.7813459038734436
1759338865426805200,2.91980517578125,0.815654456615448,-9.7387056350708,0.8534847497940063
1759338865436846300,2.929846435546875,0.7625763416290283,-9.740116119384766,0.885852038860321
1759338865446891000,2.93989111328125,0.6845440864562988,-9.742435455322266,0.9233002662658691
1759338865456930800,2.949930908203125,0.6008774638175964,-9.746663093566895,0.9368090629577637
1759338865466976000,2.95997607421875,0.534125030040741,-9.750213623046875,0.9402948617935181
1759338865477019000,2.970018798828125,0.4561769664287567,-9.75607967376709,0.920294463634491
1759338865492081000,2.985080810546875,0.3681524097919464,-9.76623249053955,0.8492897152900696
1759338865507146800,3.000146728515625,0.3167121112346649,-9.77540397644043,0.7598012685775757
1759338865517189000,3.010189208984375,0.3013930022716522,-9.778522491455078,0.7251091599464417
1759338865527230700,3.020230712890625,0.2871246039867401,-9.78003215789795,0.71038818359375
1759338865537275000,3.03027490234375,0.2745519280433655,-9.782880783081055,0.6752741932868958
1759338865547318500,3.040318603515625,0.26820361614227295,-9.783683776855469,0.666144073009491
1759338865557359600,3.050359619140625,0.268649160861969,-9.784185409545898,0.6585286855697632
1759338865567404000,3.060404052734375,0.27134355902671814,-9.784337997436523,0.6551381349563599
1759338865577446000,3.07044580078125,0.2755804657936096,-9.78433895111084,0.6533658504486084
1759338865587488000,3.080488037109375,0.2822556495666504,-9.784314155578613,0.6508658528327942
1759338865597531400,3.090531494140625,0.29378342628479004,-9.78449821472168,0.642970085144043
1759338865607574300,3.10057421875,0.30416807532310486,-9.785036087036133,0.6298311352729797
1759338865617616600,3.11061669921875,0.31270676851272583,-9.785660743713379,0.6157662272453308
1759338865627658200,3.120658203125,0.3236381411552429,-9.785840034484863,0.6072237491607666
1759338865637702100,3.1307021484375,0.3313506245613098,-9.785943984985352,0.6013578176498413
1759338865647746800,3.140746826171875,0.334089457988739,-9.785903930664062,0.6004763245582581
1759338865662809000,3.15580908203125,0.3378649950027466,-9.785616874694824,0.6030511260032654
1759338865677871600,3.17087158203125,0.34369173645973206,-9.785449981689453,0.6024611592292786
1759338865687917300,3.180917236328125,0.3543640971183777,-9.785052299499512,0.6027149558067322
1759338865697957000,3.19095703125,0.36391550302505493,-9.784804344177246,0.6010832786560059
1759338865708001500,3.20100146484375,0.36512821912765503,-9.784671783447266,0.602499783039093
1759338865718043600,3.211043701171875,0.36804190278053284,-9.78455924987793,0.6025468111038208
1759338865728085200,3.221085205078125,0.3716987371444702,-9.784492492675781,0.6013975739479065
1759338865738128600,3.231128662109375,0.37537431716918945,-9.784429550170898,0.6001251935958862
1759338865748173300,3.24117333984375,0.3786054849624634,-9.784364700317383,0.5991683006286621
1759338865758214700,3.251214599609375,0.38174310326576233,-9.784321784973145,0.5978737473487854
1759338865773278500,3.266278564453125,0.3862290680408478,-9.784287452697754,0.5955365896224976
1759338865783321000,3.276321044921875,0.38748446106910706,-9.784367561340332,0.5934321880340576
1759338865793363500,3.286363525390625,0.3879809081554413,-9.784552574157715,0.5900217890739441
1759338865803408600,3.29640869140625,0.38882991671562195,-9.78479290008545,0.5854510068893433
1759338865813448700,3.30644873046875,0.38704419136047363,-9.785209655761719,0.5796281099319458
1759338865823492600,3.31649267578125,0.3854396939277649,-9.785513877868652,0.5755704045295715
1759338865833534500,3.326534423828125,0.384260892868042,-9.785738945007324,0.5725067853927612
1759338865843576300,3.336576416015625,0.38211730122566223,-9.785918235778809,0.5708531737327576
1759338865853620500,3.346620361328125,0.37817278504371643,-9.786154747009277,0.5694878101348877
1759338865863664400,3.356664306640625,0.3747767210006714,-9.786426544189453,0.5670408010482788
1759338865873682400,3.366682373046875,0.3719174265861511,-9.786574363708496,0.5663548707962036
1759338865883723800,3.376723876953125,0.3698592185974121,-9.786584854125977,0.5675024390220642
1759338865898789600,3.39178955078125,0.3667052090167999,-9.78671646118164,0.5672875046730042
1759338865908831200,3.401831298828125,0.36743786931037903,-9.786761283874512,0.5660572648048401
1759338865918884900,3.411884765625,0.36808809638023376,-9.786686897277832,0.566910982131958
1759338865928928300,3.42192822265625,0.36864298582077026,-9.786627769470215,0.5675798654556274
1759338865938969300,3.43196923828125,0.37050122022628784,-9.78659439086914,0.5669545531272888
1759338865949026600,3.442026611328125,0.37284597754478455,-9.786551475524902,0.566143810749054
1759338865959068700,3.452068603515625,0.37526145577430725,-9.786504745483398,0.5653339624404907
1759338865969112800,3.46211279296875,0.3767513334751129,-9.786465644836426,0.5650538802146912
1759338865979155700,3.47215576171875,0.3787820637226105,-9.786399841308594,0.5648314356803894
1759338865989198800,3.48219873046875,0.38075315952301025,-9.786333084106445,0.5646504163742065
1759338865999242200,3.4922421875,0.3823167085647583,-9.786191940307617,0.566048800945282
1759338866009285400,3.502285400390625,0.3835071921348572,-9.786002159118652,0.5685058236122131
1759338866019326200,3.512326171875,0.38476377725601196,-9.785836219787598,0.5705066919326782
1759338866029371100,3.52237109375,0.3864898681640625,-9.785715103149414,0.5714226961135864
1759338866039413200,3.532413330078125,0.38850831985473633,-9.785623550415039,0.5716320276260376
1759338866049453600,3.54245361328125,0.3907279372215271,-9.785557746887207,0.5712250471115112
1759338866059497500,3.55249755859375,0.3930545449256897,-9.785553932189941,0.5696746706962585
1759338866069539800,3.562539794921875,0.3949940502643585,-9.785601615905762,0.5675526857376099
1759338866079582500,3.57258251953125,0.396271675825119,-9.785685539245605,0.5651945471763611
1759338866089625300,3.582625244140625,0.3966675400733948,-9.785788536071777,0.5631465315818787
1759338866099667000,3.5926669921875,0.39625823497772217,-9.785862922668457,0.5621328949928284
1759338866109712100,3.602712158203125,0.39575067162513733,-9.78586483001709,0.5624626874923706
1759338866119753200,3.612753173828125,0.3955840468406677,-9.785831451416016,0.5631637573242188
1759338866129795600,3.622795654296875,0.39546650648117065,-9.785749435424805,0.5646337866783142
1759338866139838500,3.63283837890625,0.3958570957183838,-9.785664558410645,0.5658409595489502
1759338866154903600,3.647903564453125,0.3978334665298462,-9.78554630279541,0.5665121674537659
1759338866169967000,3.662967041015625,0.4004652798175812,-9.785418510437012,0.5668483972549438
1759338866180011000,3.673010986328125,0.40233054757118225,-9.78532886505127,0.5670816898345947
1759338866190052400,3.68305224609375,0.40438175201416016,-9.785209655761719,0.5677050352096558
1759338866200097300,3.69309716796875,0.40590202808380127,-9.785111427307129,0.5683008432388306
1759338866210138600,3.703138671875,0.4067913889884949,-9.78502082824707,0.5692241191864014
1759338866220181800,3.713181640625,0.4077427387237549,-9.78493595123291,0.5699933171272278
1759338866230225000,3.723224853515625,0.4086911678314209,-9.784860610961914,0.5706169605255127
1759338866240267300,3.733267333984375,0.40930861234664917,-9.78480052947998,0.5712162852287292
1759338866250311400,3.7433115234375,0.41003894805908203,-9.784738540649414,0.5717279314994812
1759338866260352300,3.753352294921875,0.41102710366249084,-9.784664154052734,0.572306752204895
1759338866270395400,3.7633955078125,0.4121778607368469,-9.784588813781738,0.572792112827301
1759338866280438000,3.77343798828125,0.41325315833091736,-9.784534454345703,0.5729265809059143
1759338866290482200,3.783482177734375,0.4143992066383362,-9.784476280212402,0.5730768442153931
1759338866300522000,3.79352197265625,0.4156908690929413,-9.784406661987305,0.5733256340026855
1759338866310567000,3.80356689453125,0.4169105887413025,-9.784334182739258,0.5736691951751709
1759338866320607500,3.813607421875,0.4184209108352661,-9.784235000610352,0.5742577314376831
1759338866330651600,3.823651611328125,0.42040371894836426,-9.784099578857422,0.5751195549964905
1759338866340694800,3.83369482421875,0.422556072473526,-9.783970832824707,0.5757315158843994
1759338866350737000,3.84373681640625,0.42496806383132935,-9.783843040466309,0.5761337876319885
1759338866360778500,3.853778564453125,0.4276197552680969,-9.783700942993164,0.5765898823738098
1759338866370823000,3.863822998046875,0.43080300092697144,-9.78353214263916,0.5770643949508667
1759338866380865000,3.873864990234375,0.4343072175979614,-9.78332233428955,0.5780227184295654
1759338866390909400,3.883909423828125,0.43809330463409424,-9.783065795898438,0.5795102715492249
1759338866400951600,3.89395166015625,0.4421460032463074,-9.782766342163086,0.581470251083374
1759338866410993400,3.903993408203125,0.4462378919124603,-9.782449722290039,0.5836793184280396
1759338866421036500,3.91403662109375,0.45008301734924316,-9.78217601776123,0.5852805972099304
1759338866431080000,3.924079833984375,0.4536977708339691,-9.781987190246582,0.5856881141662598
1759338866441121300,3.934121337890625,0.4570061266422272,-9.781922340393066,0.5841579437255859
1759338866456185900,3.949185791015625,0.4607571065425873,-9.78201675415039,0.579616367816925
1759338866466230500,3.95923046875,0.463395357131958,-9.782166481018066,0.574974000453949
1759338866476271000,3.96927099609375,0.46539512276649475,-9.782271385192871,0.5715580582618713
1759338866486312700,3.979312744140625,0.4664932191371918,-9.782369613647461,0.5690057277679443
1759338866501378300,3.99437841796875,0.4678451120853424,-9.782444953918457,0.5665560364723206
1759338866511420700,4.004420654296875,0.46902740001678467,-9.782462120056152,0.5653210878372192
1759338866521464600,4.014464599609375,0.47022607922554016,-9.782466888427734,0.5642189383506775
1759338866531507500,4.024507568359375,0.4721755385398865,-9.782441139221191,0.5630556344985962
1759338866541547500,4.034547607421875,0.4742472171783447,-9.782416343688965,0.5617128014564514
1759338866551591400,4.04459130859375,0.47609376907348633,-9.7824125289917,0.5602158904075623
1759338866561634000,4.054634033203125,0.47803795337677,-9.782402992248535,0.5587377548217773
1759338866571678000,4.064677978515625,0.48008155822753906,-9.782377243041992,0.557453989982605
1759338866581720600,4.074720458984375,0.48195910453796387,-9.782327651977539,0.5566815733909607
1759338866591764200,4.08476416015625,0.484515517950058,-9.782243728637695,0.5559284090995789
1759338866601806800,4.094806884765625,0.48726195096969604,-9.782176971435547,0.5547043085098267
1759338866611848200,4.10484814453125,0.48963358998298645,-9.782154083251953,0.5530288219451904
1759338866621890600,4.114890625,0.4921993315219879,-9.782206535339355,0.5498075485229492
1759338866631934200,4.124934326171875,0.49459025263786316,-9.782262802124023,0.546671986579895
1759338866641976800,4.134976806640625,0.4966040551662445,-9.78232479095459,0.5437173843383789
1759338866652019700,4.145019775390625,0.497799813747406,-9.782453536987305,0.5402836203575134
1759338866662063400,4.1550634765625,0.49916979670524597,-9.782535552978516,0.5375354290008545
1759338866672105000,4.16510498046875,0.500188410282135,-9.782644271850586,0.5346083045005798
1759338866682148600,4.175148681640625,0.5011233687400818,-9.782754898071289,0.5317212343215942
1759338866692191700,4.185191650390625,0.5025413036346436,-9.782842636108398,0.5287222266197205
1759338866702233300,4.1952333984375,0.5032190084457397,-9.782953262329102,0.5260345339775085
1759338866712275500,4.205275390625,0.502887487411499,-9.783105850219727,0.5235158801078796
1759338866722318300,4.215318359375,0.5023705959320068,-9.783208847045898,0.5220742225646973
1759338866732362800,4.22536279296875,0.5024384260177612,-9.783257484436035,0.5210974216461182
1759338866742404000,4.235404052734375,0.5025494694709778,-9.783318519592285,0.5198481678962708
1759338866752446500,4.245446533203125,0.5030272006988525,-9.78337574005127,0.5183060169219971
1759338866762489900,4.25548974609375,0.5039533972740173,-9.783477783203125,0.515475332736969
1759338866772533800,4.26553369140625,0.5051321983337402,-9.783576011657715,0.5124438405036926
1759338866782575000,4.2755751953125,0.5058298110961914,-9.783689498901367,0.5095947980880737
1759338866792617500,4.285617431640625,0.5063437819480896,-9.783892631530762,0.5051588416099548
1759338866802661400,4.295661376953125,0.5061414241790771,-9.784114837646484,0.501039445400238
1759338866812702200,4.3057021484375,0.5048404335975647,-9.784170150756836,0.5012619495391846
1759338866822746000,4.31574609375,0.5029430389404297,-9.784226417541504,0.5020574331283569
1759338866832788500,4.32578857421875,0.5022635459899902,-9.784351348876953,0.5003377795219421
1759338866842831400,4.335831298828125,0.5021811127662659,-9.784527778625488,0.4969624876976013
1759338866852874800,4.345874755859375,0.5030319094657898,-9.784594535827637,0.49475252628326416
1759338866862916400,4.355916259765625,0.5029821991920471,-9.784637451171875,0.493976891040802
1759338866872959700,4.365959716796875,0.5042294263839722,-9.784570693969727,0.4940137267112732
1759338866883001600,4.376001708984375,0.5049474239349365,-9.784494400024414,0.4948025047779083
1759338866893046000,4.3860458984375,0.504813551902771,-9.784439086914062,0.49603042006492615
1759338866903088400,4.39608837890625,0.503977358341217,-9.784429550170898,0.497074156999588
1759338866913132300,4.40613232421875,0.4999936819076538,-9.784537315368652,0.498991459608078
1759338866923172900,4.4161728515625,0.4966525733470917,-9.784585952758789,0.5013449788093567
1759338866933217300,4.42621728515625,0.49607428908348083,-9.784600257873535,0.5016452074050903
1759338866943257600,4.436257568359375,0.4949972331523895,-9.784689903259277,0.5009315609931946
1759338866953302300,4.44630224609375,0.4933512508869171,-9.784891128540039,0.4986529052257538
1759338866963344400,4.456344482421875,0.49067381024360657,-9.785196304321289,0.4952740967273712
1759338866973389800,4.466389892578125,0.48778995871543884,-9.785531997680664,0.4914865493774414
1759338866983430100,4.47643017578125,0.4848482310771942,-9.785863876342773,0.48776188492774963
1759338866993472800,4.48647265625,0.4813977777957916,-9.786195755004883,0.48450762033462524
1759338867003515400,4.496515380859375,0.4774947464466095,-9.786483764648438,0.48253798484802246
1759338867013559600,4.5065595703125,0.47363266348838806,-9.786725997924805,0.48143285512924194
1759338867023601000,4.516600830078125,0.46929052472114563,-9.786925315856934,0.48162931203842163
1759338867033644800,4.526644775390625,0.4648156464099884,-9.78711986541748,0.48201435804367065
1759338867043686100,4.53668603515625,0.46075010299682617,-9.787312507629395,0.4820079207420349
1759338867053729000,4.54672900390625,0.4568885862827301,-9.787493705749512,0.48201173543930054
1759338867063772200,4.556772216796875,0.4536597430706024,-9.787636756896973,0.482122540473938
1759338867073815800,4.56681591796875,0.4520418345928192,-9.787744522094727,0.48147085309028625
1759338867083858000,4.57685791015625,0.451697438955307,-9.787768363952637,0.48131707310676575
1759338867093900300,4.586900390625,0.45183834433555603,-9.787700653076172,0.48257511854171753
1759338867103943400,4.596943359375,0.4522932469844818,-9.78758716583252,0.4844801425933838
1759338867113960700,4.606960693359375,0.4534141719341278,-9.787481307983398,0.48552852869033813
1759338867124003600,4.617003662109375,0.45414039492607117,-9.787446975708008,0.4855688810348511
1759338867134071600,4.627071533203125,0.45597758889198303,-9.787457466125488,0.4836091995239258
1759338867144113400,4.637113525390625,0.45687630772590637,-9.787516593933105,0.4815705716609955
1759338867154156300,4.64715625,0.45692601799964905,-9.787607192993164,0.4796670079231262
1759338867164202000,4.657201904296875,0.45653483271598816,-9.78771686553955,0.4777938425540924
1759338867174243600,4.66724365234375,0.4556291103363037,-9.787829399108887,0.476373553276062
1759338867184285400,4.677285400390625,0.4534258544445038,-9.787946701049805,0.47603294253349304
1759338867194328600,4.68732861328125,0.4502280354499817,-9.788084030151367,0.4762592315673828
1759338867204371200,4.69737109375,0.4467974603176117,-9.788225173950195,0.4765855073928833
1759338867214420700,4.707420654296875,0.44353002309799194,-9.788389205932617,0.47629112005233765
1759338867224457700,4.717457763671875,0.44123968482017517,-9.788662910461426,0.4727751910686493
1759338867234499600,4.72749951171875,0.44057777523994446,-9.789093971252441,0.46439406275749207
1759338867244542500,4.73754248046875,0.44033220410346985,-9.78947639465332,0.456459105014801
1759338867254586600,4.747586669921875,0.44011759757995605,-9.789749145507812,0.4507674276828766
1759338867264602400,4.757602294921875,0.4387534558773041,-9.789926528930664,0.44825372099876404
1759338867274675000,4.767675048828125,0.4367174506187439,-9.790061950683594,0.44729506969451904
1759338867284714500,4.777714599609375,0.43391546607017517,-9.79019832611084,0.4470263719558716
1759338867294756900,4.7877568359375,0.430281400680542,-9.790365219116211,0.44693252444267273
1759338867304798000,4.7977978515625,0.426384836435318,-9.790505409240723,0.44757455587387085
1759338867314840600,4.807840576171875,0.4229343831539154,-9.790642738342285,0.4478616416454315
1759338867324884200,4.81788427734375,0.41988155245780945,-9.790742874145508,0.44853702187538147
1759338867334926800,4.8279267578125,0.41676148772239685,-9.790827751159668,0.44960150122642517
1759338867344969000,4.837968994140625,0.414020299911499,-9.790904998779297,0.4503975808620453
1759338867355012000,4.84801220703125,0.4115440249443054,-9.79098129272461,0.4510241150856018
1759338867365031200,4.85803125,0.40947818756103516,-9.791043281555176,0.4515664577484131
1759338867375099600,4.868099609375,0.40790995955467224,-9.791031837463379,0.45323261618614197
1759338867385140200,4.87814013671875,0.40645867586135864,-9.79100227355957,0.455188512802124
1759338867395185200,4.88818505859375,0.4052038788795471,-9.790950775146484,0.4574165940284729
1759338867405227800,4.898227783203125,0.40377363562583923,-9.790960311889648,0.4584290385246277
1759338867415268900,4.908268798828125,0.4022030830383301,-9.791146278381348,0.4558597803115845
1759338867425312500,4.9183125,0.4005676209926605,-9.791433334350586,0.45112499594688416
1759338867435354600,4.928354736328125,0.39831995964050293,-9.791760444641113,0.4459531307220459
1759338867445396500,4.938396484375,0.3955191373825073,-9.791914939880371,0.44507721066474915
1759338867455440000,4.94843994140625,0.3935258090496063,-9.79187297821045,0.44777336716651917
1759338867465482000,4.95848193359375,0.39243003726005554,-9.79177474975586,0.4508706331253052
1759338867475526100,4.968526123046875,0.3915669918060303,-9.791759490966797,0.45193979144096375
1759338867485568500,4.978568603515625,0.39058348536491394,-9.79182243347168,0.45142289996147156
1759338867495613000,4.988613037109375,0.38961052894592285,-9.791925430297852,0.4499938488006592
1759338867505653500,4.998653564453125,0.3891140818595886,-9.792016983032227,0.4484533965587616
1759338867515697700,5.00869775390625,0.3891555964946747,-9.792085647583008,0.446911484003067
1759338867525739500,5.018739501953125,0.38949066400527954,-9.792136192321777,0.4455069899559021
1759338867535781600,5.02878173828125,0.3897356390953064,-9.792197227478027,0.4439571797847748
1759338867545825800,5.03882568359375,0.39001163840293884,-9.792265892028809,0.442214697599411
1759338867555868000,5.048867919921875,0.390170693397522,-9.79233455657959,0.4405274987220764
1759338867565911300,5.058911376953125,0.39020752906799316,-9.792399406433105,0.43905574083328247
1759338867575952600,5.06895263671875,0.3901578187942505,-9.792452812194824,0.43789011240005493
1759338867585995500,5.07899560546875,0.3900783061981201,-9.792492866516113,0.43707412481307983
1759338867596038700,5.08903857421875,0.39034491777420044,-9.792502403259277,0.43661394715309143
1759338867606081300,5.099081298828125,0.39116179943084717,-9.792491912841797,0.43616604804992676
1759338867616124000,5.1091240234375,0.39269959926605225,-9.792465209960938,0.4353524148464203
1759338867626167300,5.119167236328125,0.3946964144706726,-9.792442321777344,0.4340449869632721
1759338867636209700,5.129209716796875,0.3969669044017792,-9.792425155639648,0.43241652846336365
1759338867646251500,5.13925146484375,0.3994812071323395,-9.79239559173584,0.43074771761894226
1759338867656297000,5.149296875,0.4022381603717804,-9.792349815368652,0.4291827380657196
1759338867666337000,5.1593369140625,0.4050746560096741,-9.792288780212402,0.42790687084198
1759338867676381200,5.169381103515625,0.4078795611858368,-9.792221069335938,0.4267953038215637
1759338867686423000,5.179423095703125,0.41086047887802124,-9.792147636413574,0.4256603717803955
1759338867696468700,5.18946875,0.4138443171977997,-9.792078018188477,0.4243365526199341
1759338867706508300,5.19950830078125,0.41673576831817627,-9.792011260986328,0.4230399429798126
1759338867716552400,5.209552490234375,0.4195248782634735,-9.791939735412598,0.42193013429641724
1759338867726594300,5.21959423828125,0.42231282591819763,-9.791864395141602,0.4209115505218506
1759338867736636400,5.229636474609375,0.4250282645225525,-9.79178524017334,0.4200160503387451
1759338867746679600,5.239679443359375,0.4275367259979248,-9.79171085357666,0.4192132353782654
1759338867756722400,5.249722412109375,0.4300808608531952,-9.791629791259766,0.4184828996658325
1759338867766766800,5.259766845703125,0.4327050745487213,-9.79155158996582,0.41759851574897766
1759338867781830100,5.274830078125,0.43617716431617737,-9.791449546813965,0.41642001271247864
1759338867796893200,5.28989306640625,0.43900778889656067,-9.79137897491455,0.41510525345802307
1759338867806936000,5.29993603515625,0.4401532709598541,-9.791375160217285,0.41394370794296265
1759338867816980000,5.30997998046875,0.4410005211830139,-9.791393280029297,0.41263335943222046
1759338867827022600,5.320022705078125,0.441815048456192,-9.791421890258789,0.4110668897628784
1759338867837065200,5.330065185546875,0.4427470862865448,-9.791455268859863,0.40924927592277527
1759338867847106800,5.34010693359375,0.4436604380607605,-9.791491508483887,0.4073962867259979
1759338867857150200,5.350150146484375,0.444616436958313,-9.791515350341797,0.40578538179397583
1759338867867193600,5.360193603515625,0.44537657499313354,-9.791532516479492,0.4045600891113281
1759338867877236700,5.37023681640625,0.4461975395679474,-9.791525840759277,0.4038052260875702
1759338867887278600,5.380278564453125,0.4472757577896118,-9.791497230529785,0.40328627824783325
1759338867897321700,5.39032177734375,0.448904812335968,-9.791434288024902,0.4029945135116577
1759338867907363800,5.40036376953125,0.45125070214271545,-9.791345596313477,0.4025106430053711
1759338867917407700,5.41040771484375,0.453679621219635,-9.791251182556152,0.40213319659233093
1759338867927449600,5.42044970703125,0.45611733198165894,-9.791144371032715,0.40196511149406433
1759338867937492200,5.4304921875,0.4584895670413971,-9.791024208068848,0.4021788239479065
1759338867947537200,5.440537109375,0.46118220686912537,-9.790885925292969,0.40248432755470276
1759338867957578000,5.450577880859375,0.4642554819583893,-9.790715217590332,0.4030643701553345
1759338867967620400,5.460620361328125,0.4675047993659973,-9.790535926818848,0.40365874767303467
1759338867977663000,5.4706630859375,0.4708441495895386,-9.790358543395996,0.4041060507297516
1759338867987706000,5.4807060546875,0.47415250539779663,-9.790191650390625,0.4042823612689972
1759338867997748700,5.490748779296875,0.47713515162467957,-9.79004192352295,0.4044261872768402
1759338868007791000,5.500791015625,0.47975996136665344,-9.789908409118652,0.40455660223960876
1759338868017837000,5.510837158203125,0.4822508990764618,-9.789779663085938,0.4046650528907776
1759338868027878100,5.520878173828125,0.48434361815452576,-9.789670944213867,0.4048509895801544
1759338868037920300,5.530920166015625,0.4861644208431244,-9.789566040039062,0.4051670432090759
1759338868047965000,5.54096484375,0.48804956674575806,-9.78946304321289,0.40539127588272095
1759338868058005500,5.551005615234375,0.48984700441360474,-9.789372444152832,0.40540939569473267
1759338868068048000,5.5610478515625,0.4914836287498474,-9.789295196533203,0.40526995062828064
1759338868078090800,5.5710908203125,0.49294018745422363,-9.789228439331055,0.40516412258148193
1759338868088134100,5.581134033203125,0.4940868318080902,-9.789179801940918,0.40487584471702576
1759338868098177300,5.59117724609375,0.4951726496219635,-9.789137840270996,0.40463289618492126
1759338868108218600,5.601218505859375,0.49656370282173157,-9.78907299041748,0.4044361412525177
1759338868118262500,5.611262451171875,0.49828335642814636,-9.788994789123535,0.4042215347290039
1759338868128306000,5.621305908203125,0.5000731945037842,-9.78891372680664,0.4039932191371918
1759338868138350300,5.631350341796875,0.5018975138664246,-9.788832664489746,0.4037116765975952
1759338868148390700,5.641390625,0.5033979415893555,-9.78877067565918,0.4033374488353729
1759338868158433800,5.651433837890625,0.5042247176170349,-9.788742065429688,0.4029930531978607
1759338868168475600,5.6614755859375,0.5041773319244385,-9.78875732421875,0.4026676416397095
1759338868178518500,5.6715185546875,0.5037055015563965,-9.788793563842773,0.40235188603401184
1759338868188561700,5.681561767578125,0.5027828216552734,-9.788853645324707,0.4020914137363434
1759338868198605000,5.69160498046875,0.5014958381652832,-9.788923263549805,0.40198731422424316
1759338868208647400,5.7016474609375,0.5000690817832947,-9.788993835449219,0.4020180106163025
1759338868218691000,5.711691162109375,0.4989633858203888,-9.789044380187988,0.4022367000579834
1759338868228733200,5.721733154296875,0.4982927143573761,-9.78906536102295,0.4025372564792633
1759338868238774000,5.73177392578125,0.49760276079177856,-9.78908634185791,0.40289920568466187
1759338868248818700,5.741818603515625,0.4966186583042145,-9.789116859436035,0.40330615639686584
1759338868258861000,5.751861083984375,0.4952106475830078,-9.789175987243652,0.4036429524421692
1759338868268904000,5.761904052734375,0.49314892292022705,-9.789264678955078,0.40400430560112
1759338868278945500,5.771945556640625,0.49038320779800415,-9.789371490478516,0.40479105710983276
1759338868288990200,5.781990234375,0.48738065361976624,-9.789471626281738,0.4060046374797821
1759338868299033000,5.792033203125,0.48474180698394775,-9.789544105529785,0.4073922038078308
1759338868309076500,5.802076416015625,0.48287537693977356,-9.789578437805176,0.40882623195648193
1759338868319117300,5.812117431640625,0.4822298288345337,-9.789546012878418,0.41031405329704285
1759338868329161700,5.82216162109375,0.48271340131759644,-9.789459228515625,0.4118425250053406
1759338868344224000,5.83722412109375,0.48441609740257263,-9.789273262023926,0.4142310917377472
1759338868359287000,5.852287109375,0.48710349202156067,-9.789033889770508,0.4167395532131195
1759338868369332000,5.86233203125,0.48886173963546753,-9.788877487182617,0.41832152009010315
1759338868379373600,5.87237353515625,0.490572065114975,-9.78873062133789,0.41979530453681946
1759338868389417200,5.882417236328125,0.4919373691082001,-9.788607597351074,0.4210682511329651
1759338868399459000,5.892458984375,0.4928238093852997,-9.788511276245117,0.4222739338874817
1759338868409504300,5.902504150390625,0.49312496185302734,-9.788440704345703,0.4235553741455078
1759338868419545900,5.9125458984375,0.49285072088241577,-9.7883939743042,0.42492565512657166
1759338868429589000,5.922589111328125,0.4921432137489319,-9.788357734680176,0.4265725314617157
1759338868439630000,5.932630126953125,0.49117550253868103,-9.788331031799316,0.42830416560173035
1759338868449674800,5.9426748046875,0.4899943470954895,-9.788310050964355,0.43013495206832886
1759338868459717400,5.95271728515625,0.4885571002960205,-9.788313865661621,0.4316563904285431
1759338868469760300,5.96276025390625,0.4866164028644562,-9.788354873657227,0.43295592069625854
1759338868484823000,5.977822998046875,0.4832039773464203,-9.78846263885498,0.4343115985393524
1759338868499886600,5.992886474609375,0.4785367250442505,-9.78866195678711,0.4350109398365021
1759338868509930200,6.00293017578125,0.47453489899635315,-9.788840293884277,0.4353831112384796
1759338868519972600,6.01297265625,0.4695647656917572,-9.789055824279785,0.4358932673931122
1759338868530015000,6.023014892578125,0.46373626589775085,-9.789313316345215,0.4363788962364197
1759338868540057900,6.033057861328125,0.45710960030555725,-9.789608001708984,0.43676626682281494
1759338868550100200,6.043100341796875,0.4495731294155121,-9.789945602416992,0.4369881749153137
1759338868560144600,6.05314453125,0.44091516733169556,-9.79033374786377,0.4371185600757599
1759338868570188500,6.0631884765625,0.43109652400016785,-9.790766716003418,0.43723931908607483
1759338868580230700,6.073230712890625,0.4200786054134369,-9.791241645812988,0.4372948706150055
1759338868590271500,6.083271484375,0.4083338975906372,-9.791743278503418,0.43723052740097046
1759338868600315100,6.093315185546875,0.3959430456161499,-9.792240142822266,0.43746238946914673
1759338868610357200,6.103357177734375,0.38285699486732483,-9.792724609375,0.4383099377155304
1759338868620399000,6.113399169921875,0.3688839077949524,-9.79319953918457,0.43965449929237366
1759338868630444000,6.123444091796875,0.3547336459159851,-9.7936372756958,0.44152122735977173
1759338868640486400,6.133486328125,0.340318500995636,-9.794042587280273,0.44389986991882324
1759338868650530600,6.143530517578125,0.3255133330821991,-9.794397354125977,0.4471406936645508
1759338868660570600,6.153570556640625,0.3102281391620636,-9.794715881347656,0.4510141909122467
1759338868670616000,6.163615966796875,0.29411494731903076,-9.795032501220703,0.4549344480037689
1759338868680656100,6.17365625,0.2770177125930786,-9.795368194580078,0.45841383934020996
1759338868690700000,6.183699951171875,0.25889307260513306,-9.795748710632324,0.4608766734600067
1759338868700742100,6.1937421875,0.23987384140491486,-9.796180725097656,0.46199145913124084
1759338868710785300,6.203785400390625,0.2194167822599411,-9.796660423278809,0.4619797468185425
1759338868720828400,6.213828369140625,0.19702428579330444,-9.79716968536377,0.4612734019756317
1759338868730871300,6.223871337890625,0.17225605249404907,-9.797662734985352,0.4607316553592682
1759338868740912600,6.23391259765625,0.14548516273498535,-9.79809856414795,0.46066296100616455
1759338868750957000,6.24395703125,0.11667125672101974,-9.79848575592041,0.4606413245201111
1759338868760997400,6.253997314453125,0.08517054468393326,-9.798809051513672,0.460684597492218
1759338868771025000,6.26402490234375,0.05022992193698883,-9.799027442932129,0.46116143465042114
1759338868781083600,6.274083740234375,0.011664026416838169,-9.7991304397583,0.46153828501701355
1759338868791126800,6.284126708984375,-0.029988031834363937,-9.799126625061035,0.4607904255390167
1759338868801172000,6.294171875,-0.07382051646709442,-9.798985481262207,0.45884302258491516
1759338868811212800,6.304212890625,-0.11954867094755173,-9.798665046691895,0.4560442566871643
1759338868821257200,6.31425732421875,-0.16586095094680786,-9.798151016235352,0.4526239335536957
1759338868831299000,6.324299072265625,-0.21174757182598114,-9.79741382598877,0.449405312538147
1759338868841340200,6.334340087890625,-0.25856271386146545,-9.796374320983887,0.44759443402290344
1759338868851386000,6.34438623046875,-0.3072437047958374,-9.794973373413086,0.44745323061943054
1759338868861426000,6.354426025390625,-0.3576110601425171,-9.793265342712402,0.4474342167377472
1759338868871469800,6.3644697265625,-0.4089963734149933,-9.791419982910156,0.4437662661075592
1759338868881513500,6.374513427734375,-0.4587748944759369,-9.789689064025879,0.4331611692905426
1759338868891553800,6.3845537109375,-0.514371395111084,-9.78729248046875,0.4248151481151581
1759338868901595600,6.394595703125,-0.5776552557945251,-9.783930778503418,0.42085132002830505
1759338868911640600,6.404640625,-0.646721363067627,-9.779664039611816,0.4196070432662964
1759338868921684700,6.414684814453125,-0.7213956117630005,-9.774333953857422,0.4220406413078308
1759338868931725000,6.42472509765625,-0.8016105890274048,-9.767766952514648,0.4292955696582794
1759338868941768400,6.4347685546875,-0.8857386112213135,-9.759918212890625,0.4422766864299774
1759338868951812000,6.44481201171875,-0.9588147401809692,-9.751721382141113,0.469847172498703
1759338868961855500,6.45485546875,-0.9986372590065002,-9.743803024291992,0.5451263189315796
1759338868971896300,6.464896240234375,-0.8891592025756836,-9.73864459991455,0.7773832678794861
1759338868981940000,6.47493994140625,-0.8551003336906433,-9.727923393249512,0.9340482950210571
1759338868991983000,6.484983154296875,-0.82889723777771,-9.715710639953613,1.0742498636245728
1759338869002025000,6.49502490234375,-0.9238823056221008,-9.702025413513184,1.1195012331008911
1759338869012070400,6.5050703125,-1.0332504510879517,-9.68665599822998,1.1563819646835327
1759338869022109200,6.515109130859375,-1.1477757692337036,-9.670042991638184,1.1870157718658447
1759338869032155400,6.5251552734375,-1.271607518196106,-9.651805877685547,1.2090314626693726
1759338869042195200,6.5351953125,-1.4109572172164917,-9.63065242767334,1.223063588142395
1759338869052240000,6.545239990234375,-1.5625011920928955,-9.606473922729492,1.2289657592773438
1759338869062281700,6.55528173828125,-1.720773696899414,-9.579516410827637,1.2279750108718872
1759338869072325600,6.56532568359375,-1.881006121635437,-9.549948692321777,1.2232834100723267
1759338869082343200,6.57534326171875,-2.041945457458496,-9.517906188964844,1.2149163484573364
1759338869092385300,6.58538525390625,-2.203401803970337,-9.483752250671387,1.1998226642608643
1759338869102428000,6.595427978515625,-2.370136260986328,-9.44656753540039,1.1751304864883423
1759338869112470300,6.60547021484375,-2.5494842529296875,-9.403485298156738,1.1448501348495483
1759338869122512600,6.6155126953125,-2.725010871887207,-9.356905937194824,1.1219465732574463
1759338869132545300,6.625545166015625,-2.8952178955078125,-9.30723762512207,1.1086835861206055
1759338869142608600,6.635608642578125,-3.0649099349975586,-9.253754615783691,1.1002299785614014
1759338869152651800,6.64565185546875,-3.235994815826416,-9.196292877197266,1.09210205078125
1759338869162695400,6.6556953125,-3.4096693992614746,-9.134531021118164,1.0819647312164307
1759338869172752600,6.665752685546875,-3.587571620941162,-9.068026542663574,1.0660079717636108
1759338869182793200,6.675793212890625,-3.7689037322998047,-8.997241973876953,1.0397945642471313
1759338869192838400,6.68583837890625,-3.9473016262054443,-8.924073219299316,1.007891058921814
1759338869202879000,6.69587890625,-4.120385646820068,-8.848840713500977,0.9780354499816895
1759338869212923100,6.705923095703125,-4.28964376449585,-8.77099609375,0.9511628150939941
1759338869222966000,6.715966064453125,-4.459059238433838,-8.688931465148926,0.9248751997947693
1759338869233007600,6.726007568359375,-4.629612922668457,-8.60269546508789,0.8924465179443359
1759338869243050000,6.736050048828125,-4.838758945465088,-8.497377395629883,0.7855491638183594
1759338869253094100,6.74609423828125,-5.019311904907227,-8.397248268127441,0.7271898984909058
1759338869263136300,6.75613623046875,-5.180708885192871,-8.300434112548828,0.706527590751648
1759338869273179600,6.7661796875,-5.333086967468262,-8.203910827636719,0.7001242637634277
1759338869283221000,6.776220947265625,-5.481512546539307,-8.1061429977417,0.6925170421600342
1759338869293265400,6.786265380859375,-5.625110149383545,-8.007926940917969,0.6836456656455994
1759338869303307000,6.79630712890625,-5.763753414154053,-7.909184455871582,0.6783139109611511
1759338869313350400,6.806350341796875,-5.899235725402832,-7.809022426605225,0.6740334033966064
1759338869323394300,6.816394287109375,-6.035131454467773,-7.704494953155518,0.6738668084144592
1759338869333436000,6.826435791015625,-6.171729564666748,-7.59483528137207,0.6814479827880859
1759338869343477200,6.836477294921875,-6.316564559936523,-7.472522258758545,0.7060951590538025
1759338869353520400,6.846520263671875,-6.455541133880615,-7.350128173828125,0.733317494392395
1759338869363566000,6.856566162109375,-6.594435691833496,-7.222152233123779,0.7681335210800171
1759338869373606000,6.86660595703125,-6.735060691833496,-7.087310791015625,0.8031934499740601
1759338869383648300,6.876648193359375,-6.872589111328125,-6.9516167640686035,0.823815107345581
1759338869393692200,6.886692138671875,-7.146393775939941,-6.685927867889404,0.680872917175293
1759338869403735300,6.8967353515625,-7.3115129470825195,-6.506323337554932,0.6675590872764587
1759338869413778400,6.9067783203125,-7.441658020019531,-6.35564661026001,0.6809293627738953
1759338869423821300,6.9168212890625,-7.569658279418945,-6.200559139251709,0.6995980143547058
1759338869433862400,6.9268623046875,-7.693007946014404,-6.044131278991699,0.7226689457893372
1759338869443905000,6.936905029296875,-7.821784496307373,-5.874162197113037,0.7416487336158752
1759338869453948400,6.946948486328125,-7.950170040130615,-5.696957588195801,0.7586682438850403
1759338869463993600,6.95699365234375,-8.06312370300293,-5.534029483795166,0.7724495530128479
1759338869474035200,6.96703515625,-8.168152809143066,-5.375991344451904,0.7849669456481934
1759338869484076000,6.977075927734375,-8.27004337310791,-5.21665096282959,0.7931364178657532
1759338869494118400,6.987118408203125,-8.36886978149414,-5.0541791915893555,0.8083384037017822
1759338869504161000,6.9971611328125,-8.467305183410645,-4.885244369506836,0.8217848539352417
1759338869514205700,7.007205810546875,-8.559063911437988,-4.719610214233398,0.8389487266540527
1759338869524250000,7.01725,-8.647758483886719,-4.552038192749023,0.8551709651947021
1759338869534291000,7.027291015625,-8.7315034866333,-4.386593341827393,0.8688011169433594
1759338869544333000,7.0373330078125,-8.813111305236816,-4.219053268432617,0.874569833278656
1759338869554376000,7.0473759765625,-8.889201164245605,-4.055278301239014,0.8791363835334778
1759338869564427300,7.05742724609375,-8.961654663085938,-3.8923377990722656,0.8800976276397705
1759338869574462200,7.067462158203125,-9.031110763549805,-3.7290472984313965,0.8771459460258484
1759338869584503300,7.07750341796875,-9.096357345581055,-3.5661280155181885,0.8804398775100708
1759338869594545700,7.087545654296875,-9.1594877243042,-3.403022527694702,0.8713857531547546
1759338869604590600,7.097590576171875,-9.221821784973145,-3.236252784729004,0.8490148186683655
1759338869614634000,7.107634033203125,-9.290735244750977,-3.0482430458068848,0.791573166847229
1759338869624676400,7.11767626953125,-9.355484008789062,-2.8583621978759766,0.735410749912262
1759338869634718200,7.12771826171875,-9.405256271362305,-2.6899890899658203,0.7356880307197571
1759338869644761000,7.137760986328125,-9.451395988464355,-2.5224058628082275,0.7380666732788086
1759338869654803000,7.147802978515625,-9.49407958984375,-2.3563790321350098,0.7389281392097473
1759338869664841500,7.157841552734375,-9.533071517944336,-2.1950411796569824,0.733811616897583
1759338869674889000,7.167888916015625,-9.568272590637207,-2.0396780967712402,0.7239128351211548
1759338869684932400,7.177932373046875,-9.598801612854004,-1.8920687437057495,0.7205854058265686
1759338869694973700,7.1879736328125,-9.624789237976074,-1.7525793313980103,0.7267165780067444
1759338869705016600,7.1980166015625,-9.646493911743164,-1.6223909854888916,0.7410285472869873
1759338869715061800,7.208061767578125,-9.66479778289795,-1.5011498928070068,0.7578558921813965
1759338869725101800,7.218101806640625,-9.679628372192383,-1.388623595237732,0.7827416062355042
1759338869735145000,7.22814501953125,-9.691567420959473,-1.283095359802246,0.8144846558570862
1759338869745187300,7.238187255859375,-9.701507568359375,-1.1830849647521973,0.8469002842903137
1759338869755230500,7.24823046875,-9.709359169006348,-1.0884867906570435,0.8829782009124756
1759338869765272600,7.2582724609375,-9.71534252166748,-0.9969968199729919,0.9242385625839233
1759338869775315000,7.26831494140625,-9.719819068908691,-0.9073114395141602,0.9685191512107849
1759338869785358300,7.2783583984375,-9.723212242126465,-0.8216734528541565,1.010017991065979
1759338869795403300,7.2884033203125,-9.725861549377441,-0.74134761095047,1.0460435152053833
1759338869805443600,7.298443603515625,-9.72712230682373,-0.6675739884376526,1.0833123922348022
1759338869815486000,7.30848583984375,-9.727667808532715,-0.6024705171585083,1.116097331047058
1759338869825531400,7.318531494140625,-9.728225708007812,-0.5475853085517883,1.1392492055892944
1759338869835571700,7.32857177734375,-9.728840827941895,-0.5008990168571472,1.1553983688354492
1759338869845614800,7.33861474609375,-9.729440689086914,-0.46192193031311035,1.1664960384368896
1759338869855659000,7.348658935546875,-9.729933738708496,-0.42739564180374146,1.1755363941192627
1759338869865702000,7.358701904296875,-9.730360984802246,-0.3904813230037689,1.1847988367080688
1759338869875744300,7.368744140625,-9.731328010559082,-0.3649022579193115,1.1850107908248901
1759338869885785600,7.37878564453125,-9.73237419128418,-0.3440622091293335,1.1826295852661133
1759338869895828700,7.388828857421875,-9.733451843261719,-0.32699012756347656,1.1786041259765625
1759338869905872600,7.39887255859375,-9.735005378723145,-0.31438684463500977,1.1691696643829346
1759338869915915300,7.408915283203125,-9.737605094909668,-0.31009694933891296,1.1485040187835693
1759338869925958100,7.418958251953125,-9.739899635314941,-0.30819499492645264,1.1294102668762207
1759338869935998700,7.428998779296875,-9.742520332336426,-0.30847588181495667,1.106467843055725
1759338869946041000,7.439041015625,-9.745991706848145,-0.31094029545783997,1.0747567415237427
1759338869956085000,7.4490849609375,-9.749167442321777,-0.314108282327652,1.044616937637329
1759338869966128400,7.45912841796875,-9.752351760864258,-0.31874990463256836,1.0129785537719727
1759338869976170500,7.46917041015625,-9.756124496459961,-0.3255575895309448,0.9737516045570374
1759338869986213600,7.479213623046875,-9.75958251953125,-0.3303307592868805,0.9367970824241638
1759338869996254200,7.489254150390625,-9.763055801391602,-0.34041014313697815,0.8961161971092224
1759338870006300400,7.499300537109375,-9.746915817260742,-0.7194482684135437,0.8462598323822021
1759338870016340700,7.5093408203125,-9.748278617858887,-0.7347734570503235,0.8169034123420715
1759338870026386200,7.51938623046875,-9.752144813537598,-0.7195253968238831,0.7836224436759949
1759338870036427300,7.52942724609375,-9.772787094116211,-0.5295457243919373,0.6696004271507263
1759338870046468600,7.539468505859375,-9.777201652526855,-0.49684086441993713,0.6289806365966797
1759338870056513300,7.54951318359375,-9.78069019317627,-0.471932590007782,0.5929275155067444
1759338870066554600,7.5595546875,-9.783964157104492,-0.44353049993515015,0.559906542301178
1759338870076599300,7.569599365234375,-9.786356925964355,-0.4195058345794678,0.5360440015792847
1759338870086640600,7.579640625,-9.787664413452148,-0.40068039298057556,0.5265358090400696
1759338870096683500,7.58968359375,-9.788676261901855,-0.3814353048801422,0.5220163464546204
1759338870106726000,7.599725830078125,-9.789978981018066,-0.36022284626960754,0.5124868750572205
1759338870116768800,7.609768798828125,-9.791631698608398,-0.3323608338832855,0.49968135356903076
1759338870126810600,7.619810546875,-9.795100212097168,-0.2640272378921509,0.47168153524398804
1759338870136854800,7.629854736328125,-9.797436714172363,-0.20223641395568848,0.4532763957977295
1759338870146898000,7.63989794921875,-9.799195289611816,-0.17263497412204742,0.4267963767051697
1759338870156939800,7.649939697265625,-9.800554275512695,-0.14333544671535492,0.40584757924079895
1759338870166984000,7.65998388671875,-9.801437377929688,-0.1172579750418663,0.39268937706947327
1759338870177025300,7.670025390625,-9.801972389221191,-0.09382069855928421,0.38563743233680725
1759338870187068000,7.68006787109375,-9.802395820617676,-0.07179223001003265,0.379511296749115
1759338870197110800,7.69011083984375,-9.80294132232666,-0.04829974099993706,0.36900991201400757
1759338870207154000,7.70015380859375,-9.803607940673828,-0.022173281759023666,0.35338518023490906
1759338870217196500,7.710196533203125,-9.80431079864502,0.005316727329045534,0.3340860903263092
1759338870227238700,7.72023876953125,-9.805078506469727,0.03581812605261803,0.30859801173210144
1759338870237283000,7.730282958984375,-9.8054838180542,0.05476860702037811,0.29258301854133606
1759338870247325700,7.74032568359375,-9.805704116821289,0.06971542537212372,0.28196150064468384
1759338870257367600,7.750367431640625,-9.80583381652832,0.0821562185883522,0.2738784849643707
1759338870267409200,7.7604091796875,-9.805926322937012,0.09225152432918549,0.2673421800136566
1759338870277452000,7.7704521484375,-9.80598258972168,0.10083019733428955,0.2621091604232788
1759338870287494100,7.780494140625,-9.806012153625488,0.1080508828163147,0.25807130336761475
1759338870297538600,7.79053857421875,-9.806039810180664,0.11412321776151657,0.2544202506542206
1759338870307582000,7.80058203125,-9.806078910827637,0.11896851658821106,0.2506573796272278
1759338870317624000,7.8106240234375,-9.806145668029785,0.1222020834684372,0.24639937281608582
1759338870327651600,7.820651611328125,-9.806241989135742,0.12319641560316086,0.24201004207134247
1759338870347752000,7.840751953125,-9.8064603805542,0.12068337202072144,0.23435956239700317
1759338870357793000,7.85079296875,-9.806522369384766,0.11925802379846573,0.23265373706817627
1759338870367837700,7.860837646484375,-9.806512832641602,0.11821238696575165,0.23330049216747284
1759338870377880000,7.870880126953125,-9.806463241577148,0.11750716716051102,0.2357325553894043
1759338870387924200,7.88092431640625,-9.806408882141113,0.11677145957946777,0.23856234550476074
1759338870397964500,7.890964599609375,-9.806354522705078,0.11599816381931305,0.24106459319591522
1759338870408007700,7.901007568359375,-9.80630874633789,0.11507482826709747,0.2433176040649414
1759338870418049800,7.9110498046875,-9.806272506713867,0.11371570825576782,0.24543900787830353
1759338870428094000,7.921093994140625,-9.806246757507324,0.11212237179279327,0.24716944992542267
1759338870438134500,7.931134521484375,-9.80620002746582,0.11043612658977509,0.24979759752750397
1759338870448178200,7.94117822265625,-9.806099891662598,0.10950967669487,0.25401487946510315
1759338870458221600,7.9512216796875,-9.80593204498291,0.11025863140821457,0.2600718140602112
1759338870468263400,7.961263427734375,-9.805691719055176,0.11327224969863892,0.267861008644104
1759338870478306600,7.971306640625,-9.805405616760254,0.11767785251140594,0.27632224559783936
1759338870488350200,7.98135009765625,-9.80509090423584,0.12191366404294968,0.28537869453430176
1759338870498391800,7.991391845703125,-9.804802894592285,0.12509816884994507,0.2937338054180145
1759338870508433700,8.00143359375,-9.804533004760742,0.12731735408306122,0.30173999071121216
1759338870518479600,8.011479736328125,-9.804269790649414,0.128948375582695,0.30955782532691956
1759338870528520200,8.021520263671874,-9.804047584533691,0.12989643216133118,0.31600308418273926
1759338870538561800,8.031561767578125,-9.803910255432129,0.13002288341522217,0.3201540410518646
1759338870548606700,8.041606689453126,-9.80389404296875,0.12985284626483917,0.32087233662605286
1759338870558648600,8.051648681640625,-9.803959846496582,0.1297556757926941,0.31893298029899597
1759338870568691500,8.06169140625,-9.804051399230957,0.1304839551448822,0.3157806098461151
1759338870578734300,8.071734375,-9.804119110107422,0.13171477615833282,0.31307944655418396
1759338870588776700,8.081776611328126,-9.804155349731445,0.13334909081459045,0.3111860454082489
1759338870598819600,8.091819580078125,-9.804182052612305,0.1350434124469757,0.3097749650478363
1759338870608861400,8.101861328125,-9.80419921875,0.13652363419532776,0.30854275822639465
1759338870618904800,8.11190478515625,-9.80419635772705,0.13773995637893677,0.3079550564289093
1759338870628947000,8.121947021484376,-9.804173469543457,0.1388159543275833,0.3082258403301239
1759338870638990600,8.131990478515625,-9.804134368896484,0.13976556062698364,0.3090941309928894
1759338870649034800,8.14203466796875,-9.804094314575195,0.14091330766677856,0.3098726272583008
1759338870659075600,8.15207568359375,-9.804075241088867,0.14216117560863495,0.3099537193775177
1759338870669120300,8.162120361328125,-9.804091453552246,0.14350683987140656,0.308868944644928
1759338870679159800,8.172159912109375,-9.804147720336914,0.14477159082889557,0.3063095211982727
1759338870689204500,8.18220458984375,-9.804251670837402,0.1455114334821701,0.30267593264579773
1759338870699246800,8.192246826171875,-9.804367065429688,0.14601249992847443,0.29874512553215027
1759338870709290200,8.202290283203125,-9.804471015930176,0.14633187651634216,0.2951127290725708
1759338870719332000,8.21233203125,-9.804529190063477,0.14698365330696106,0.2929280698299408
1759338870729375200,8.222375244140625,-9.804530143737793,0.1479836106300354,0.2922331392765045
1759338870739417600,8.23241748046875,-9.804526329040527,0.1494513303041458,0.2917410433292389
1759338870749461500,8.24246142578125,-9.804546356201172,0.15091164410114288,0.29032519459724426
1759338870759503600,8.252503662109374,-9.804580688476562,0.152418315410614,0.2882075309753418
1759338870769544700,8.262544677734375,-9.804638862609863,0.15384112298488617,0.2855478525161743
1759338870779587300,8.27258740234375,-9.804696083068848,0.15525397658348083,0.2826481759548187
1759338870789630700,8.282630615234375,-9.804726600646973,0.15691062808036804,0.28085243701934814
1759338870799675400,8.29267529296875,-9.804706573486328,0.15878364443778992,0.2805787920951843
1759338870809717800,8.3027177734375,-9.804642677307129,0.16125665605068207,0.28125566244125366
1759338870819760400,8.312760498046876,-9.804571151733398,0.1640687733888626,0.2821478843688965
1759338870829802800,8.322802734375,-9.804505348205566,0.16701452434062958,0.2826146185398102
1759338870839846100,8.33284619140625,-9.804463386535645,0.16965407133102417,0.28266289830207825
1759338870849886000,8.342885986328126,-9.80443286895752,0.1719154566526413,0.28235381841659546
1759338870859930000,8.35293017578125,-9.804410934448242,0.17377908527851105,0.2820351719856262
1759338870869973500,8.362973388671875,-9.804370880126953,0.17555783689022064,0.2821650505065918
1759338870880014600,8.3730146484375,-9.804306030273438,0.17778146266937256,0.2829483449459076
1759338870890057000,8.383056884765624,-9.804227828979492,0.1800539642572403,0.2843153476715088
1759338870900101600,8.3931015625,-9.80414867401123,0.18164823949337006,0.2860182523727417
1759338870910143200,8.403143310546875,-9.80410385131836,0.1823263317346573,0.28715917468070984
1759338870920187600,8.413187744140625,-9.804098129272461,0.18206216394901276,0.28755271434783936
1759338870930228700,8.423228759765625,-9.804120063781738,0.18124166131019592,0.2873433828353882
1759338870940271400,8.433271240234374,-9.804163932800293,0.17964783310890198,0.2867761552333832
1759338870950313200,8.443313232421875,-9.804204940795898,0.17773465812206268,0.28657636046409607
1759338870960356600,8.453356689453125,-9.804226875305176,0.17589057981967926,0.2869861125946045
1759338870970400500,8.463400390625,-9.804228782653809,0.17441903054714203,0.28790754079818726
1759338870980442000,8.473442138671874,-9.80422592163086,0.17351211607456207,0.2883985638618469
1759338870990483700,8.483483642578125,-9.80424690246582,0.17298902571201324,0.2879689633846283
1759338871000527000,8.493527099609375,-9.804295539855957,0.17278511822223663,0.28653067350387573
1759338871010571500,8.503571533203125,-9.804360389709473,0.1727246791124344,0.28434911370277405
1759338871020613400,8.51361328125,-9.80440902709961,0.17283211648464203,0.282466858625412
1759338871030655700,8.52365576171875,-9.804423332214355,0.17314715683460236,0.2818516790866852
1759338871040699000,8.533698974609376,-9.804390907287598,0.1739235371351242,0.2825365364551544
1759338871050741200,8.5437412109375,-9.804326057434082,0.1752469688653946,0.28389400243759155
1759338871060783600,8.55378369140625,-9.804271697998047,0.17703957855701447,0.2847045958042145
1759338871070827500,8.56382763671875,-9.804245948791504,0.17893806099891663,0.284373939037323
1759338871080871000,8.573870849609374,-9.804251670837402,0.18096306920051575,0.28291067481040955
1759338871090910500,8.583910400390625,-9.804265975952148,0.18326041102409363,0.2807895839214325
1759338871100955100,8.593955078125,-9.804274559020996,0.1858592927455902,0.2789585590362549
1759338871110997500,8.60399755859375,-9.80424690246582,0.18893802165985107,0.27774283289909363
1759338871121041000,8.614041015625,-9.804168701171875,0.19252534210681915,0.27800309658050537
1759338871131084300,8.624084228515626,-9.80402660369873,0.19700902700424194,0.2799517810344696
1759338871141125400,8.63412548828125,-9.803807258605957,0.20264369249343872,0.2836858332157135
1759338871151167200,8.644167236328125,-9.803511619567871,0.209093376994133,0.2890641689300537
1759338871161211000,8.6542109375,-9.803171157836914,0.21601419150829315,0.2955370843410492
1759338871171253200,8.664253173828126,-9.802806854248047,0.22321607172489166,0.30216124653816223
1759338871181297000,8.674296875,-9.802428245544434,0.23130860924720764,0.3082638084888458
1759338871191339500,8.684339599609375,-9.802008628845215,0.24083779752254486,0.3142856955528259
1759338871201383700,8.6943837890625,-9.801517486572266,0.25164324045181274,0.32108378410339355
1759338871211423200,8.70442333984375,-9.800978660583496,0.2622411549091339,0.32888850569725037
1759338871221467100,8.714467041015626,-9.800430297851562,0.2707419991493225,0.3382948338985443
1759338871231509200,8.72450927734375,-9.79983901977539,0.27767547965049744,0.34953179955482483
1759338871241552400,8.734552490234375,-9.799196243286133,0.28391286730766296,0.36241403222084045
1759338871251593700,8.74459375,-9.798498153686523,0.2896411716938019,0.3763655424118042
1759338871261639400,8.754639404296874,-9.797796249389648,0.29443100094795227,0.39064735174179077
1759338871271681000,8.764680908203125,-9.797107696533203,0.2989257276058197,0.404275506734848
1759338871281723400,8.774723388671875,-9.796443939208984,0.303637832403183,0.4167290925979614
1759338871291765800,8.784765869140625,-9.795769691467285,0.30818793177604675,0.42896929383277893
1759338871301808000,8.79480810546875,-9.795166015625,0.3110073208808899,0.44065234065055847
1759338871311852800,8.804852783203126,-9.794528007507324,0.31331947445869446,0.452976256608963
1759338871321894400,8.814894287109375,-9.793725967407227,0.3178543150424957,0.46688130497932434
1759338871331935700,8.824935791015625,-9.792733192443848,0.32617130875587463,0.48174774646759033
1759338871341977600,8.8349775390625,-9.791646003723145,0.33817028999328613,0.4954273998737335
1759338871352021800,8.845021728515626,-9.790507316589355,0.35254794359207153,0.507698118686676
1759338871362064100,8.855064208984375,-9.789241790771484,0.3677031099796295,0.5211738348007202
1759338871372107500,8.865107421875,-9.787820816040039,0.3835206925868988,0.5363183617591858
1759338871382150100,8.875150146484375,-9.786259651184082,0.40031129121780396,0.5523077845573425
1759338871392192300,8.885192138671876,-9.784540176391602,0.4150800406932831,0.5714965462684631
1759338871402235400,8.8952353515625,-9.782593727111816,0.43236392736434937,0.5917018055915833
1759338871412278800,8.90527880859375,-9.780555725097656,0.45064741373062134,0.6113520860671997
1759338871422321200,8.915321044921875,-9.77839469909668,0.4688193202018738,0.6319333910942078
1759338871432362500,8.925362548828126,-9.77607250213623,0.48759472370147705,0.653310239315033
1759338871442408000,8.935407958984374,-9.773595809936523,0.5068434476852417,0.6753454208374023
1759338871452449500,8.945449462890625,-9.770949363708496,0.5255184769630432,0.6989491581916809
1759338871462490400,8.955490478515625,-9.768292427062988,0.5416716933250427,0.7233696579933167
1759338871472536000,8.9655361328125,-9.765785217285156,0.5548111796379089,0.7468194961547852
1759338871482576100,8.975576171875,-9.76345443725586,0.5652066469192505,0.7691636681556702
1759338871492619800,8.985619873046875,-9.761280059814453,0.5751644372940063,0.7891674041748047
1759338871502661400,8.995661376953125,-9.758798599243164,0.5870221257209778,0.810803234577179
1759338871512704300,9.005704345703125,-9.756156921386719,0.6003662347793579,0.8325532674789429
1759338871522747000,9.015746826171876,-9.753499984741211,0.6148967146873474,0.8528285622596741
1759338871532791000,9.025791015625,-9.750297546386719,0.6314411163330078,0.8769676089286804
1759338871542834700,9.035834716796876,-9.745582580566406,0.6639838814735413,0.904913067817688
1759338871552876800,9.045876708984375,-9.741181373596191,0.6973787546157837,0.9269326329231262
1759338871562919000,9.0559189453125,-9.735501289367676,0.7576228976249695,0.9392258524894714
1759338871572961500,9.06596142578125,-9.731471061706543,0.7846272587776184,0.9585921168327332
1759338871583004000,9.07600390625,-9.727953910827637,0.807612419128418,0.9751178026199341
1759338871593045800,9.086045654296875,-9.724676132202148,0.8350188732147217,0.9846466183662415
1759338871603089400,9.09608935546875,-9.722604751586914,0.8495643138885498,0.9926117658615112
1759338871613132000,9.106132080078124,-9.720941543579102,0.8587003350257874,1.0010377168655396
1759338871623176200,9.11617626953125,-9.719647407531738,0.8657037019729614,1.0075552463531494
1759338871633215700,9.1262158203125,-9.719063758850098,0.8706033825874329,1.0089561939239502
1759338871643259600,9.136259765625,-9.719389915466309,0.866539478302002,1.0093320608139038
1759338871653303000,9.146302978515624,-9.722312927246094,0.8497902750968933,0.9953008890151978
1759338871663344000,9.15634423828125,-9.727751731872559,0.8234224319458008,0.9638385772705078
1759338871673388000,9.166387939453125,-9.735217094421387,0.7882965803146362,0.9166681170463562
1759338871683431400,9.176431396484375,-9.743155479431152,0.7433340549468994,0.8686233758926392
1759338871693473000,9.18647314453125,-9.749897003173828,0.687666118144989,0.8382946848869324
1759338871703516700,9.1965166015625,-9.755511283874512,0.6218261122703552,0.8242782950401306
1759338871713559600,9.2065595703125,-9.760483741760254,0.5460228323936462,0.8191156983375549
1759338871723600000,9.216599853515625,-9.765131950378418,0.45914995670318604,0.8169832229614258
1759338871733644000,9.22664404296875,-9.76943588256836,0.3656950294971466,0.8127374053001404
1759338871743688200,9.236688232421875,-9.773741722106934,0.2629527151584625,0.8005933165550232
1759338871753729800,9.246729736328126,-9.777811050415039,0.15025214850902557,0.7797460556030273
1759338871763774200,9.256774169921876,-9.780741691589355,0.027538413181900978,0.7566357254981995
1759338871773814000,9.26681396484375,-9.781901359558105,-0.10331931710243225,0.734772264957428
1759338871783858700,9.276858642578125,-9.781224250793457,-0.23975533246994019,0.7115627527236938
1759338871793899500,9.2868994140625,-9.77888298034668,-0.38426506519317627,0.6796589493751526
1759338871803943000,9.29694287109375,-9.77342700958252,-0.533974289894104,0.6566330194473267
1759338871813986300,9.306986328125,-9.764928817749023,-0.6888439059257507,0.6386070251464844
1759338871823992300,9.316992431640625,-9.753727912902832,-0.8505767583847046,0.6143336892127991
1759338871834072800,9.32707275390625,-9.7391357421875,-1.0251725912094116,0.578324556350708
1759338871844114400,9.337114501953126,-9.720359802246094,-1.2043238878250122,0.5480756163597107
1759338871854155000,9.347155029296875,-9.698038101196289,-1.3868945837020874,0.5106042623519897
1759338871864198400,9.357198486328125,-9.671887397766113,-1.572658658027649,0.46635347604751587
1759338871874242300,9.3672421875,-9.64142894744873,-1.7615653276443481,0.4193446636199951
1759338871884283000,9.377282958984376,-9.60660457611084,-1.9522145986557007,0.37171322107315063
1759338871894327000,9.3873271484375,-9.567462921142578,-2.1431329250335693,0.32679155468940735
1759338871904370200,9.3973701171875,-9.523550987243652,-2.3360509872436523,0.28453677892684937
1759338871914419700,9.407419677734374,-9.474913597106934,-2.5299861431121826,0.24764055013656616
1759338871924455700,9.41745556640625,-9.42179012298584,-2.7236156463623047,0.21899834275245667
1759338871934497800,9.427497802734376,-9.364133834838867,-2.9174468517303467,0.19412727653980255
1759338871944539600,9.43753955078125,-9.302186965942383,-3.1106772422790527,0.17057044804096222
1759338871954582300,9.447582275390625,-9.236248016357422,-3.3023922443389893,0.14864076673984528
1759338871964600800,9.457600830078125,-9.166656494140625,-3.4918131828308105,0.1255715936422348
1759338871974673400,9.46767333984375,-9.092364311218262,-3.681666135787964,0.10178833454847336
1759338871984711700,9.477711669921876,-9.013673782348633,-3.870948553085327,0.07466251403093338
1759338871994754300,9.48775439453125,-8.931933403015137,-4.0564799308776855,0.04102114215493202
1759338872004795600,9.497795654296874,-8.846539497375488,-4.239673137664795,0.007587785832583904
1759338872014840300,9.50784033203125,-8.757967948913574,-4.419693946838379,-0.022153055295348167
1759338872024881400,9.51788134765625,-8.66689395904541,-4.595563888549805,-0.04359538108110428
1759338872034925000,9.527925048828125,-8.573225021362305,-4.767864227294922,-0.05867374315857887
1759338872044967000,9.537966796875,-8.47697639465332,-4.936826705932617,-0.06837792694568634
1759338872055009300,9.54800927734375,-8.378265380859375,-5.1024651527404785,-0.07529108971357346
1759338872065053400,9.558053466796874,-8.277538299560547,-5.26425838470459,-0.07801370322704315
1759338872075095000,9.568094970703125,-8.174774169921875,-5.422445297241211,-0.07917363941669464
1759338872085137400,9.578137451171875,-8.069031715393066,-5.5785298347473145,-0.08304829895496368
1759338872095180800,9.588180908203125,-7.9624409675598145,-5.729626178741455,-0.08375522494316101
1759338872105222700,9.59822265625,-7.855891227722168,-5.8749237060546875,-0.07974228262901306
1759338872115267300,9.608267333984376,-7.74690055847168,-6.018005847930908,-0.0722142830491066
1759338872125308700,9.61830859375,-7.634913444519043,-6.159562587738037,-0.06365717947483063
1759338872135350500,9.6283505859375,-7.519247055053711,-6.300288677215576,-0.0584566630423069
1759338872145392000,9.63839208984375,-7.399115562438965,-6.440948009490967,-0.05856278911232948
1759338872155436500,9.6484365234375,-7.277995586395264,-6.577516078948975,-0.05679400637745857
1759338872165478100,9.65847802734375,-7.155853271484375,-6.710216045379639,-0.05376690253615379
1759338872175520300,9.668520263671875,-7.032565116882324,-6.839341163635254,-0.0503334179520607
1759338872185564000,9.67856396484375,-6.907806873321533,-6.965351104736328,-0.04683532193303108
1759338872195607300,9.688607177734376,-6.781307697296143,-7.088586330413818,-0.043832775205373764
1759338872205650200,9.698650146484376,-6.654984951019287,-7.207322597503662,-0.04275834932923317
1759338872215692000,9.708692138671875,-6.529510974884033,-7.321194171905518,-0.041390687227249146
1759338872225736000,9.71873583984375,-6.405218601226807,-7.430192470550537,-0.03970698267221451
1759338872235777300,9.72877734375,-6.283050060272217,-7.533799648284912,-0.035464826971292496
1759338872245821400,9.738821533203126,-6.162429332733154,-7.632802486419678,-0.030063752084970474
1759338872255861500,9.748861572265625,-6.042374134063721,-7.728208541870117,-0.025128118693828583
1759338872265907200,9.7589072265625,-5.921603679656982,-7.821143627166748,-0.02122422493994236
1759338872275947000,9.768947021484376,-5.800606727600098,-7.911311149597168,-0.016578903421759605
1759338872285990000,9.778989990234376,-5.679351329803467,-7.9988112449646,-0.010137610137462616
1759338872296031500,9.789031494140625,-5.5574870109558105,-8.083963394165039,-0.002200014889240265
1759338872306075000,9.799074951171875,-5.434786796569824,-8.166955947875977,0.0061574107967317104
1759338872316118500,9.809118408203124,-5.311305046081543,-8.247783660888672,0.015608558431267738
1759338872326162200,9.819162109375,-5.186087131500244,-8.32706069946289,0.02649461291730404
1759338872336178200,9.82917822265625,-5.060136795043945,-8.404145240783691,0.03900443762540817
1759338872346225000,9.839224853515624,-4.932675838470459,-8.479512214660645,0.05190018191933632
1759338872356264200,9.84926416015625,-4.804044723510742,-8.552957534790039,0.06466786563396454
1759338872366306600,9.859306640625,-4.676950454711914,-8.622992515563965,0.07914002239704132
1759338872376348700,9.8693486328125,-4.552748203277588,-8.68903923034668,0.0959911122918129
1759338872386391800,9.879391845703125,-4.429821014404297,-8.752120018005371,0.11495889723300934
1759338872396461300,9.88946142578125,-4.305856227874756,-8.813465118408203,0.13631701469421387
1759338872406502700,9.899502685546874,-4.180579662322998,-8.873157501220703,0.16119955480098724
1759338872416544800,9.909544677734376,-4.0548505783081055,-8.93076229095459,0.18926005065441132
1759338872426587000,9.9195869140625,-3.930445909500122,-8.98554515838623,0.2184765487909317
1759338872436630000,9.929630126953125,-3.807612895965576,-9.037530899047852,0.2474474459886551
1759338872446672400,9.93967236328125,-3.685314178466797,-9.087270736694336,0.27582573890686035
1759338872456716800,9.949716796875,-3.5636582374572754,-9.134790420532227,0.3034012019634247
1759338872466757600,9.959757568359375,-3.4433629512786865,-9.179915428161621,0.32942044734954834
1759338872476801800,9.9698017578125,-3.326030969619751,-9.222189903259277,0.3533329367637634
1759338872486845400,9.979845458984375,-3.2109944820404053,-9.26202392578125,0.3749202787876129
1759338872496886300,9.98988623046875,-3.0971362590789795,-9.299874305725098,0.3952694535255432
1759338872506928000,9.99992822265625,-2.984041929244995,-9.335872650146484,0.4160419702529907
1759338872516971300,10.00997119140625,-2.8715221881866455,-9.370157241821289,0.4366370439529419
1759338872527016400,10.020016357421875,-2.75695538520813,-9.403556823730469,0.4565553069114685
1759338872537058300,10.030058349609375,-2.6446659564971924,-9.434842109680176,0.4750088155269623
1759338872547099400,10.040099365234376,-2.536206007003784,-9.463735580444336,0.4914076328277588
1759338872557142300,10.050142333984375,-2.433332920074463,-9.489906311035156,0.5066428184509277
1759338872567184000,10.060183837890625,-2.3355820178985596,-9.513909339904785,0.5164512395858765
1759338872577228300,10.070228271484375,-2.2417635917663574,-9.536455154418945,0.516360342502594
1759338872587269000,10.08026904296875,-2.1491150856018066,-9.55830192565918,0.5062788724899292
1759338872597314600,10.090314453125,-2.0565717220306396,-9.579384803771973,0.49198123812675476
1759338872607354400,10.100354248046875,-1.9655731916427612,-9.599159240722656,0.4783516824245453
1759338872622419000,10.1154189453125,-1.8387821912765503,-9.625151634216309,0.4598478674888611
1759338872637483500,10.1304833984375,-1.7173547744750977,-9.64846420288086,0.4404193162918091
1759338872647525400,10.140525390625,-1.635663390159607,-9.663233757019043,0.4273902475833893
1759338872657568800,10.15056884765625,-1.5553663969039917,-9.676966667175293,0.4162653386592865
1759338872667611600,10.160611572265625,-1.4772475957870483,-9.689552307128906,0.40795060992240906
1759338872677653800,10.17065380859375,-1.4005532264709473,-9.701147079467773,0.4028834104537964
1759338872687696400,10.1806962890625,-1.321703553199768,-9.71235466003418,0.39925286173820496
1759338872697739500,10.190739501953125,-1.244457721710205,-9.722786903381348,0.39355388283729553
1759338872707781000,10.200781005859374,-1.1716954708099365,-9.732161521911621,0.3851321339607239
1759338872717826600,10.21082666015625,-1.1030585765838623,-9.740593910217285,0.3744446039199829
1759338872727868400,10.220868408203126,-1.036917805671692,-9.74828052520752,0.3632398545742035
1759338872737909500,10.230909423828125,-0.9729439616203308,-9.75522518157959,0.3536767363548279
1759338872747951400,10.240951416015625,-0.911975085735321,-9.761373519897461,0.34644490480422974
1759338872757996000,10.25099609375,-0.8549565076828003,-9.766707420349121,0.34146660566329956
1759338872768038000,10.261037841796876,-0.7960434556007385,-9.771587371826172,0.3442659378051758
1759338872778080800,10.271080810546875,-0.7268708944320679,-9.776176452636719,0.36622458696365356
1759338872788122600,10.28112255859375,-0.6660779714584351,-9.77949047088623,0.39246514439582825
1759338872798167800,10.291167724609375,-0.6173169016838074,-9.781952857971191,0.4104090631008148
1759338872808208000,10.301207763671876,-0.5781300067901611,-9.783926963806152,0.42033442854881287
1759338872818253000,10.311253173828124,-0.5426929593086243,-9.78553581237793,0.4300241470336914
1759338872828295700,10.321295654296875,-0.5069939494132996,-9.787092208862305,0.4380781054496765
1759338872838335200,10.331335205078124,-0.4698202908039093,-9.788718223571777,0.4431721866130829
1759338872848381000,10.341380859375,-0.4329962730407715,-9.790366172790527,0.44425129890441895
1759338872858421800,10.351421875,-0.3990683853626251,-9.79192066192627,0.44175395369529724
1759338872868464400,10.36146435546875,-0.36800506711006165,-9.793368339538574,0.4365932047367096
1759338872878507500,10.371507568359375,-0.3376387059688568,-9.794795036315918,0.42906928062438965
1759338872888550100,10.381550048828124,-0.30694901943206787,-9.796125411987305,0.4217231273651123
1759338872898591500,10.391591552734376,-0.2765551805496216,-9.797293663024902,0.4155479073524475
1759338872908635600,10.4016357421875,-0.24902239441871643,-9.798232078552246,0.4108204245567322
1759338872918677000,10.411677001953125,-0.22481726109981537,-9.798916816711426,0.4084552228450775
1759338872928719400,10.42171923828125,-0.20275162160396576,-9.799405097961426,0.4082546532154083
1759338872938763000,10.431762939453124,-0.18140754103660583,-9.799816131591797,0.40844234824180603
1759338872948804900,10.441804931640625,-0.16132527589797974,-9.800192832946777,0.407819926738739
1759338872958848300,10.45184814453125,-0.14403855800628662,-9.80049991607666,0.4069367051124573
1759338872968890400,10.461890380859375,-0.12966494262218475,-9.800773620605469,0.40518254041671753
1759338872978931700,10.471931640625,-0.1183067187666893,-9.801015853881836,0.402732253074646
1759338872988976400,10.481976318359376,-0.11032935976982117,-9.801227569580078,0.39981508255004883
1759338872999018200,10.492018310546875,-0.10514522343873978,-9.801399230957031,0.3970625102519989
1759338873009063400,10.5020634765625,-0.10165619105100632,-9.801533699035645,0.3946326971054077
1759338873019103000,10.51210302734375,-0.09859458357095718,-9.80164909362793,0.39255955815315247
1759338873029146600,10.522146728515626,-0.09570197016000748,-9.801730155944824,0.3911851644515991
1759338873039191000,10.53219091796875,-0.09257721155881882,-9.801800727844238,0.3901832699775696
1759338873049231600,10.542231689453125,-0.0889957919716835,-9.801874160766602,0.38915473222732544
1759338873059274200,10.552274169921875,-0.0848536267876625,-9.8019437789917,0.3883393406867981
1759338873069316000,10.562316162109376,-0.07965662330389023,-9.802031517028809,0.38722309470176697
1759338873079361800,10.57236181640625,-0.07368603348731995,-9.802103042602539,0.3866243362426758
1759338873089402600,10.582402587890625,-0.06642027944326401,-9.80215835571289,0.386567622423172
1759338873099445200,10.5924453125,-0.05823008343577385,-9.802192687988281,0.3869994580745697
1759338873109486000,10.602486083984376,-0.0504082627594471,-9.802206993103027,0.3877379596233368
1759338873119532000,10.612531982421874,-0.042879972606897354,-9.802196502685547,0.38893136382102966
1759338873129574400,10.622574462890626,-0.03482016921043396,-9.802189826965332,0.38982686400413513
1759338873139615000,10.632614990234375,-0.027573715895414352,-9.802135467529297,0.3918119966983795
1759338873149659000,10.642658935546875,-0.02212761901319027,-9.802040100097656,0.3945172131061554
1759338873159701000,10.652700927734376,-0.0180860236287117,-9.801908493041992,0.39796531200408936
1759338873169744000,10.662743896484375,-0.015223226509988308,-9.801746368408203,0.4020557403564453
1759338873179786000,10.672785888671875,-0.012348150834441185,-9.801549911499023,0.4069407880306244
1759338873189830400,10.682830322265625,-0.008679606951773167,-9.801342010498047,0.4119848906993866
1759338873199871000,10.69287109375,-0.004536855034530163,-9.80115795135498,0.41643404960632324
1759338873209916200,10.702916259765624,0.00062331318622455,-9.80100154876709,0.42012158036231995
1759338873219956000,10.7129560546875,0.006831302307546139,-9.800873756408691,0.4230060279369354
1759338873230000000,10.723000244140625,0.013175531290471554,-9.800793647766113,0.4247227609157562
1759338873240041500,10.73304150390625,0.019551919773221016,-9.800750732421875,0.4254796802997589
1759338873250086400,10.74308642578125,0.026079751551151276,-9.800741195678711,0.4253729581832886
1759338873260128500,10.75312841796875,0.03233451768755913,-9.80077075958252,0.4242207705974579
1759338873270169900,10.763169921875,0.038137879222631454,-9.800825119018555,0.4225148558616638
1759338873280213200,10.773213134765625,0.043456509709358215,-9.800888061523438,0.42048177123069763
1759338873290256000,10.783255859375,0.04775187373161316,-9.80095386505127,0.4185393154621124
1759338873300298500,10.793298583984376,0.0511508584022522,-9.800999641418457,0.4170082211494446
1759338873310340900,10.8033408203125,0.05380900576710701,-9.80102252960205,0.4161328971385956
1759338873320383500,10.813383544921875,0.05639756843447685,-9.801044464111328,0.4153008460998535
1759338873330425600,10.823425537109374,0.05923697352409363,-9.801072120666504,0.41426530480384827
1759338873340468700,10.83346875,0.0621173121035099,-9.801128387451172,0.4125047028064728
1759338873350514200,10.84351416015625,0.06532100588083267,-9.801207542419434,0.410135418176651
1759338873360553000,10.853552978515625,0.06821654736995697,-9.801304817199707,0.4072995185852051
1759338873370595600,10.863595703125,0.0704156830906868,-9.80141544342041,0.40423527359962463
1759338873380626200,10.873626220703125,0.07280661165714264,-9.801529884338379,0.4010593593120575
1759338873390681000,10.88368115234375,0.07535424083471298,-9.80162525177002,0.3982088565826416
1759338873400724700,10.893724853515625,0.07772762328386307,-9.801708221435547,0.395708292722702
1759338873410767600,10.903767578125,0.08021444827318192,-9.801779747009277,0.39346179366111755
1759338873420810500,10.913810546875,0.08285914361476898,-9.801850318908691,0.3911460041999817
1759338873430851800,10.923851806640625,0.08524773269891739,-9.801919937133789,0.388883113861084
1759338873440895000,10.93389501953125,0.08724630624055862,-9.80197525024414,0.38698306679725647
1759338873450936600,10.9439365234375,0.08915366977453232,-9.802021980285645,0.3854066729545593
1759338873460979200,10.953979248046876,0.09101776033639908,-9.802054405212402,0.3841591477394104
1759338873471022600,10.964022705078126,0.0927397683262825,-9.802075386047363,0.38321512937545776
1759338873481065200,10.974065185546875,0.09448691457509995,-9.802088737487793,0.3824111223220825
1759338873491109000,10.984109130859375,0.09616857767105103,-9.802098274230957,0.38180011510849
1759338873501149400,10.9941494140625,0.09757950901985168,-9.80210018157959,0.38132938742637634
1759338873511192800,11.00419287109375,0.09885361790657043,-9.802101135253906,0.3810107409954071
1759338873521235200,11.014235107421875,0.09996049106121063,-9.80211067199707,0.38043829798698425
1759338873531278000,11.024278076171875,0.10068204253911972,-9.802140235900879,0.3795103430747986
1759338873541296000,11.034296142578125,0.10105860233306885,-9.802188873291016,0.3781493902206421
1759338873556359400,11.049359375,0.10114163160324097,-9.802263259887695,0.37622711062431335
1759338873571449000,11.064448974609375,0.0983542650938034,-9.802459716796875,0.37179961800575256
1759338873581490200,11.074490234375,0.09609665721654892,-9.802570343017578,0.36947330832481384
1759338873591534300,11.084534423828124,0.09382793307304382,-9.802680969238281,0.3671054542064667
1759338873601575400,11.094575439453125,0.092498280107975,-9.802786827087402,0.3646277189254761
1759338873611618600,11.10461865234375,0.09185917675495148,-9.802881240844727,0.3622499406337738
1759338873621663200,11.114663330078125,0.09173872321844101,-9.802953720092773,0.3602651059627533
1759338873631705300,11.124705322265624,0.09178316593170166,-9.80301570892334,0.35853812098503113
1759338873641749000,11.1347490234375,0.09190303087234497,-9.803077697753906,0.35681113600730896
1759338873651790000,11.1447900390625,0.09241408109664917,-9.803140640258789,0.3550341725349426
1759338873661831700,11.154831787109375,0.0932818055152893,-9.803194046020508,0.35329344868659973
1759338873671876600,11.164876708984375,0.09397528320550919,-9.803238868713379,0.35186469554901123
1759338873681917400,11.17491748046875,0.094333715736866,-9.803256034851074,0.3512767553329468
1759338873691958800,11.184958740234375,0.09423372894525528,-9.803243637084961,0.3516916036605835
1759338873702002700,11.195002685546875,0.09353908151388168,-9.803223609924316,0.3524295389652252
1759338873712044300,11.205044189453124,0.09253920614719391,-9.803213119506836,0.3529578447341919
1759338873722086700,11.215086669921876,0.09180772304534912,-9.803211212158203,0.3532034158706665
1759338873732130000,11.225130126953125,0.09136275202035904,-9.803216934204102,0.35314875841140747
1759338873742173400,11.23517333984375,0.09091602265834808,-9.803229331970215,0.3529168963432312
1759338873752216000,11.245216064453125,0.09049034118652344,-9.803232192993164,0.3529224693775177
1759338873762259200,11.25525927734375,0.08972319215536118,-9.80321979522705,0.3534735441207886
1759338873772300300,11.26530029296875,0.08854614198207855,-9.80319881439209,0.3543825149536133
1759338873782343700,11.27534375,0.08700832724571228,-9.803175926208496,0.3554084002971649
1759338873792387300,11.28538720703125,0.08513136953115463,-9.80316162109375,0.3562454283237457
1759338873802430500,11.295430419921875,0.08330762386322021,-9.803153038024902,0.3569146394729614
1759338873812472600,11.30547265625,0.08178792893886566,-9.803145408630371,0.357497900724411
1759338873822516000,11.315515869140626,0.08025654405355453,-9.803142547607422,0.35789522528648376
1759338873832557300,11.325557373046875,0.07911516726016998,-9.803139686584473,0.35817939043045044
1759338873842599200,11.33559912109375,0.07821118831634521,-9.803143501281738,0.3582861125469208
1759338873852643300,11.345643310546874,0.07718675583600998,-9.8031587600708,0.3580992817878723
1759338873862684000,11.355683837890625,0.07585710287094116,-9.803182601928711,0.35773324966430664
1759338873872727300,11.365727294921875,0.07426490634679794,-9.803203582763672,0.3575262725353241
1759338873882770000,11.37577001953125,0.07237683981657028,-9.803227424621582,0.35720789432525635
1759338873892812300,11.385812255859374,0.07023383677005768,-9.803255081176758,0.3568737208843231
1759338873902856000,11.39585595703125,0.0678025633096695,-9.803276062011719,0.35684478282928467
1759338873912898000,11.40589794921875,0.06542274355888367,-9.803290367126465,0.3568263649940491
1759338873922941400,11.41594140625,0.06326629221439362,-9.803306579589844,0.35683366656303406
1759338873932982300,11.425982177734374,0.061624977737665176,-9.803322792053223,0.3566479980945587
1759338873943024000,11.436024169921875,0.06039413809776306,-9.803357124328613,0.3558913767337799
1759338873953069600,11.446069580078126,0.05940596014261246,-9.8034086227417,0.3546389043331146
1759338873963112700,11.45611279296875,0.058540571480989456,-9.803466796875,0.3531893789768219
1759338873973153500,11.466153564453125,0.05779797583818436,-9.803518295288086,0.35186323523521423
1759338873983197000,11.476197021484374,0.05714016407728195,-9.803558349609375,0.3508525490760803
1759338873993239000,11.486239013671875,0.05613560974597931,-9.803581237792969,0.350405216217041
1759338874003283000,11.496282958984375,0.05516088008880615,-9.803597450256348,0.3500538170337677
1759338874013323000,11.506322998046874,0.05457908287644386,-9.803627967834473,0.3493003845214844
1759338874023366700,11.51636669921875,0.05418030172586441,-9.803672790527344,0.3481523096561432
1759338874033409500,11.526409423828126,0.05385461077094078,-9.803726196289062,0.3466612696647644
1759338874043449900,11.536449951171875,0.05365931615233421,-9.803779602050781,0.3451582193374634
1759338874053493800,11.54649365234375,0.05358681082725525,-9.803824424743652,0.34396421909332275
1759338874063537000,11.556536865234374,0.053419578820466995,-9.803852081298828,0.3431856632232666
1759338874073580000,11.566580078125,0.05319036915898323,-9.803871154785156,0.3426278531551361
1759338874083622000,11.576621826171875,0.053308483213186264,-9.803889274597168,0.3421226441860199
1759338874093663500,11.58666357421875,0.05325702577829361,-9.803899765014648,0.3418314456939697
1759338874103706000,11.5967060546875,0.05288982018828392,-9.803909301757812,0.34155896306037903
1759338874113749000,11.6067490234375,0.052615586668252945,-9.803926467895508,0.3411385715007782
1759338874123792100,11.616792236328125,0.05234193801879883,-9.803943634033203,0.34070703387260437
1759338874133834000,11.626833984375,0.05176891013979912,-9.80395793914795,0.34036263823509216
1759338874148898000,11.64189794921875,0.0510350838303566,-9.803977012634277,0.3399840295314789
1759338874163963000,11.656962890625,0.051284175366163254,-9.803998947143555,0.33929523825645447
1759338874174004200,11.667004150390625,0.05147245526313782,-9.804028511047363,0.33834153413772583
1759338874184047400,11.67704736328125,0.0516279935836792,-9.804073333740234,0.3370329439640045
1759338874194091300,11.68709130859375,0.05169465020298958,-9.804121971130371,0.33565008640289307
1759338874204132400,11.69713232421875,0.05174435302615166,-9.804161071777344,0.33444321155548096
1759338874214177000,11.707177001953125,0.05160285159945488,-9.804189682006836,0.33360764384269714
1759338874224217600,11.717217529296875,0.051332708448171616,-9.80420207977295,0.3333044648170471
1759338874234260000,11.727260009765626,0.05120231583714485,-9.804205894470215,0.33327317237854004
1759338874244305200,11.73730517578125,0.05115495249629021,-9.804207801818848,0.3332044780254364
1759338874254346500,11.747346435546875,0.05107075348496437,-9.804216384887695,0.3329746723175049
1759338874264389000,11.75738916015625,0.05117834359407425,-9.804230690002441,0.3325174152851105
1759338874274436900,11.767436767578126,0.05147011950612068,-9.804245948791504,0.33203065395355225
1759338874284479200,11.777479248046875,0.05161162093281746,-9.804254531860352,0.33173975348472595
1759338874294515000,11.787514892578125,0.05168471112847328,-9.804248809814453,0.3318771719932556
1759338874304558300,11.797558349609375,0.0518595427274704,-9.804238319396973,0.33221307396888733
1759338874314602200,11.807602294921875,0.05192035436630249,-9.80422592163086,0.3325054347515106
1759338874324649700,11.817649658203125,0.051955435425043106,-9.80423355102539,0.3323051631450653
1759338874334687500,11.8276875,0.05210687965154648,-9.804254531860352,0.33161723613739014
1759338874344728800,11.837728759765625,0.05237292870879173,-9.80428409576416,0.3307691216468811
1759338874364788500,11.85778857421875,0.0520402230322361,-9.804320335388184,0.32974088191986084
1759338874374857700,11.867857666015626,0.05189871788024902,-9.804314613342285,0.3299402594566345
1759338874384898800,11.87789892578125,0.051274821162223816,-9.804299354553223,0.33043551445007324
1759338874394943000,11.88794287109375,0.05026266723871231,-9.80429458618164,0.330748051404953
1759338874404984800,11.89798486328125,0.0494411326944828,-9.804305076599121,0.330610066652298
1759338874415027000,11.90802685546875,0.049003761261701584,-9.804330825805664,0.32990458607673645
1759338874425071000,11.918071044921875,0.04876753315329552,-9.804362297058105,0.3289664089679718
1759338874435113000,11.928113037109375,0.048405006527900696,-9.804400444030762,0.3278650939464569
1759338874445155000,11.938155029296874,0.04780508205294609,-9.804434776306152,0.32695817947387695
1759338874455198000,11.948197998046876,0.04677071049809456,-9.804465293884277,0.32619979977607727
1759338874465239000,11.958239013671875,0.045046366751194,-9.804485321044922,0.32586798071861267
1759338874475281700,11.96828173828125,0.043304480612277985,-9.8045015335083,0.3255399465560913
1759338874485324500,11.978324462890624,0.04181636497378349,-9.804522514343262,0.3251493573188782
1759338874495368200,11.9883681640625,0.04035865515470505,-9.804544448852539,0.3246786594390869
1759338874505409000,11.998408935546875,0.03909682482481003,-9.804572105407715,0.32395943999290466
1759338874515452400,12.008452392578125,0.03799169883131981,-9.804607391357422,0.3230627775192261
1759338874525497000,12.0184970703125,0.03624630719423294,-9.804652214050293,0.3218825161457062
1759338874535540200,12.028540283203125,0.033720310777425766,-9.804706573486328,0.3204493522644043
1759338874545581000,12.0385810546875,0.03049030713737011,-9.804763793945312,0.3190951347351074
1759338874555624400,12.04862451171875,0.027083134278655052,-9.804811477661133,0.31788039207458496
1759338874565665500,12.05866552734375,0.02342219278216362,-9.804868698120117,0.3163788318634033
1759338874575708700,12.068708740234374,0.01983492635190487,-9.804939270019531,0.3144495189189911
1759338874585750300,12.078750244140625,0.016063472256064415,-9.805018424987793,0.31215566396713257
1759338874595794000,12.0887939453125,0.01162426546216011,-9.805102348327637,0.3097831606864929
1759338874610858800,12.103858642578125,0.004112347029149532,-9.805198669433594,0.3069174289703369
1759338874625922300,12.11892236328125,-0.004813428036868572,-9.805275917053223,0.30435606837272644
1759338874635964000,12.1289638671875,-0.011201511137187481,-9.805327415466309,0.30257704854011536
1759338874646006000,12.139006103515625,-0.017676718533039093,-9.805380821228027,0.30048754811286926
1759338874656050200,12.14905029296875,-0.02428348734974861,-9.805447578430176,0.29792675375938416
1759338874666067000,12.15906689453125,-0.03157028928399086,-9.805513381958008,0.29495754837989807
1759338874676135000,12.169135009765625,-0.03999203443527222,-9.805571556091309,0.2920374572277069
1759338874686177300,12.17917724609375,-0.05000012740492821,-9.805606842041016,0.28930503129959106
1759338874696221700,12.1892216796875,-0.06173782795667648,-9.805608749389648,0.28695037961006165
1759338874706263300,12.19926318359375,-0.0750998854637146,-9.805585861206055,0.284582257270813
1759338874716305200,12.20930517578125,-0.08958227187395096,-9.805521965026855,0.28255003690719604
1759338874726349000,12.21934912109375,-0.10489612817764282,-9.805420875549316,0.2807832956314087
1759338874736390400,12.229390380859375,-0.12092451751232147,-9.80527114868164,0.2795056998729706
1759338874746435000,12.23943505859375,-0.1381843239068985,-9.805072784423828,0.2785792052745819
1759338874756476200,12.24947607421875,-0.15651652216911316,-9.804816246032715,0.2779029607772827
1759338874766517000,12.25951708984375,-0.17593979835510254,-9.804491996765137,0.2776108980178833
1759338874776561000,12.269560791015625,-0.19634775817394257,-9.804104804992676,0.27768778800964355
1759338874786602500,12.2796025390625,-0.21759828925132751,-9.803641319274902,0.27822017669677734
1759338874796646000,12.28964599609375,-0.2401656210422516,-9.803083419799805,0.27927911281585693
1759338874806690000,12.29968994140625,-0.2647537589073181,-9.802406311035156,0.2807844877243042
1759338874816733000,12.30973291015625,-0.29083409905433655,-9.801603317260742,0.2830277681350708
1759338874826773800,12.319773681640624,-0.31767454743385315,-9.800677299499512,0.2862212061882019
1759338874836815600,12.329815673828126,-0.3461247682571411,-9.799580574035645,0.290773868560791
1759338874846859300,12.339859375,-0.3763320744037628,-9.798298835754395,0.29642900824546814
1759338874856900900,12.34990087890625,-0.40709954500198364,-9.79687213897705,0.3028246760368347
1759338874866943500,12.359943603515624,-0.4394861161708832,-9.795245170593262,0.31006646156311035
1759338874876987000,12.36998681640625,-0.47085174918174744,-9.793534278869629,0.31798240542411804
1759338874887029000,12.380029052734375,-0.5036505460739136,-9.79163932800293,0.3259679675102234
1759338874897073000,12.390072998046875,-0.5441138744354248,-9.7891845703125,0.3345256447792053
1759338874907115300,12.400115234375,-0.592065691947937,-9.786052703857422,0.3446466028690338
1759338874917157000,12.4101572265625,-0.6436252593994141,-9.78238296508789,0.35619309544563293
1759338874927199700,12.42019970703125,-0.6967273354530334,-9.77830696105957,0.3679927885532379
1759338874947286500,12.44028662109375,-0.8140008449554443,-9.768198013305664,0.3947472870349884
1759338874957326300,12.450326416015624,-0.8647944331169128,-9.763068199157715,0.4132119417190552
1759338874967368200,12.4603681640625,-0.9316310882568359,-9.756169319152832,0.43049222230911255
1759338874977413600,12.47041357421875,-1.0125501155853271,-9.74748706817627,0.4442574381828308
1759338874987454700,12.480454833984375,-1.1052460670471191,-9.736795425415039,0.4575662910938263
1759338874997497300,12.490497314453124,-1.203571081161499,-9.724414825439453,0.47257959842681885
1759338875007540700,12.500540771484374,-1.307544469833374,-9.70999813079834,0.49233734607696533
1759338875017584000,12.510584228515626,-1.4195303916931152,-9.69294548034668,0.5175502300262451
1759338875027623700,12.520623779296875,-1.540954828262329,-9.672846794128418,0.5455574989318848
1759338875037668600,12.530668701171875,-1.670028567314148,-9.64974594116211,0.5740779042243958
1759338875047712500,12.54071240234375,-1.803720474243164,-9.624003410339355,0.6010677814483643
1759338875057754000,12.550754150390626,-1.943136215209961,-9.595325469970703,0.6245688796043396
1759338875067795500,12.56079541015625,-2.0905392169952393,-9.563008308410645,0.6439266800880432
1759338875077838000,12.570838134765625,-2.243677854537964,-9.527230262756348,0.6587446928024292
1759338875087880400,12.58088037109375,-2.4028894901275635,-9.487591743469238,0.6692208647727966
1759338875097923800,12.590923828125,-2.5684609413146973,-9.443608283996582,0.6763018369674683
1759338875107967700,12.6009677734375,-2.735503673553467,-9.396453857421875,0.6780940294265747
1759338875118007800,12.6110078125,-2.898452043533325,-9.34790325164795,0.6721760630607605
1759338875128051000,12.621051025390624,-3.0559403896331787,-9.298429489135742,0.6607161164283752
1759338875138093300,12.63109326171875,-3.2098608016967773,-9.247495651245117,0.6455545425415039
1759338875148136700,12.64113671875,-3.3628883361816406,-9.194287300109863,0.6262561082839966
1759338875158178000,12.651177978515625,-3.5162432193756104,-9.138209342956543,0.6044313907623291
1759338875168223000,12.661222900390625,-3.668879508972168,-9.079375267028809,0.5834328532218933
1759338875178264800,12.671264892578124,-3.819188117980957,-9.018372535705566,0.5646899342536926
1759338875188307000,12.681306884765625,-3.9754092693328857,-8.951578140258789,0.5490708351135254
1759338875198348800,12.691348876953125,-4.135110855102539,-8.879693031311035,0.5367159247398376
1759338875208391700,12.7013916015625,-4.3006768226623535,-8.801545143127441,0.5225797295570374
1759338875218435300,12.711435302734374,-4.467926502227783,-8.718713760375977,0.5077500343322754
1759338875228476000,12.721475830078125,-4.512619495391846,-8.692471504211426,0.5597949028015137
1759338875238518300,12.731518310546875,-4.69074010848999,-8.598495483398438,0.5467562079429626
1759338875248562200,12.741562255859375,-4.87103271484375,-8.498738288879395,0.5297343730926514
1759338875258604300,12.751604248046876,-5.052500247955322,-8.393329620361328,0.5102923512458801
1759338875268648000,12.76164794921875,-5.233160495758057,-8.283036231994629,0.4913991391658783
1759338875278689500,12.771689453125,-5.411477088928223,-8.16875171661377,0.4728164076805115
1759338875288732200,12.781732177734375,-5.585054874420166,-8.052229881286621,0.45265957713127136
1759338875298775600,12.791775634765624,-5.750195026397705,-7.936298847198486,0.43195226788520813
1759338875308817400,12.8018173828125,-5.909567832946777,-7.819911003112793,0.40264075994491577
1759338875318859800,12.81185986328125,-6.064150333404541,-7.702547073364258,0.3646417260169983
1759338875328901000,12.821901123046874,-6.220630645751953,-7.578227996826172,0.33219465613365173
1759338875338945300,12.8319453125,-6.375410556793213,-7.449756622314453,0.30234843492507935
1759338875348987400,12.8419873046875,-6.526623725891113,-7.318800449371338,0.2728649973869324
1759338875359028500,12.852028564453125,-6.674600601196289,-7.185186386108398,0.24275389313697815
1759338875369074000,12.862073974609375,-6.816875457763672,-7.051266193389893,0.21447061002254486
1759338875379116500,12.872116455078125,-6.988908767700195,-6.883721828460693,0.07505574077367783
1759338875389159400,12.882159423828124,-7.14084005355835,-6.726330757141113,0.03139779344201088
1759338875399201800,12.892201904296876,-7.278008460998535,-6.577713489532471,0.020876022055745125
1759338875409242400,12.902242431640625,-7.412605285644531,-6.425665378570557,0.016841735690832138
1759338875419286000,12.9122861328125,-7.541981220245361,-6.273308277130127,0.017312729731202126
1759338875429327600,12.92232763671875,-7.668380260467529,-6.118157863616943,0.01586349681019783
1759338875439370800,12.932370849609375,-7.789453983306885,-5.96324348449707,0.018149465322494507
1759338875449414000,12.942413818359375,-7.907730579376221,-5.805480003356934,0.018409082666039467
1759338875459456000,12.9524560546875,-8.023221015930176,-5.644795894622803,0.01853947527706623
1759338875469498400,12.962498291015624,-8.13437557220459,-5.483412742614746,0.015353327617049217
1759338875479541000,12.972541015625,-8.2432861328125,-5.318293571472168,0.010639886371791363
1759338875489584600,12.982584716796875,-8.349504470825195,-5.149943828582764,0.002460069954395294
1759338875499626200,12.992626220703125,-8.462520599365234,-4.962035179138184,-0.006512044463306665
1759338875509670100,13.002670166015625,-8.56014347076416,-4.791656970977783,-0.0067873019725084305
1759338875519710200,13.012710205078125,-8.653288841247559,-4.621333122253418,-0.004785946104675531
1759338875529753600,13.022753662109375,-8.74359130859375,-4.448063850402832,0.020166609436273575
1759338875539796000,13.0327958984375,-8.830005645751953,-4.273604869842529,0.05796973779797554
1759338875549814000,13.04281396484375,-8.912084579467773,-4.098904609680176,0.09914232045412064
1759338875559856600,13.052856689453124,-8.989821434020996,-3.9240150451660156,0.14596375823020935
1759338875569899500,13.0628994140625,-9.06375503540039,-3.7475244998931885,0.2012142539024353
1759338875579940400,13.0729404296875,-9.128710746765137,-3.5781807899475098,0.31527602672576904
1759338875589985000,13.082985107421875,-9.192306518554688,-3.4075396060943604,0.3553287386894226
1759338875600027400,13.09302734375,-9.252086639404297,-3.236931562423706,0.3966272473335266
1759338875610080800,13.103080810546874,-9.309144973754883,-3.066899299621582,0.41236984729766846
1759338875620123100,13.113123046875,-9.361631393432617,-2.900747299194336,0.4262545704841614
1759338875630164500,13.12316455078125,-9.41022777557373,-2.737395763397217,0.4363413155078888
1759338875640222500,13.133222412109374,-9.455130577087402,-2.576885223388672,0.44300124049186707
1759338875650263800,13.143263916015625,-9.496174812316895,-2.4209959506988525,0.44453325867652893
1759338875660307700,13.1533076171875,-9.533698081970215,-2.2689101696014404,0.4436441957950592
1759338875670351400,13.163351318359375,-9.567000389099121,-2.1234073638916016,0.4469522535800934
1759338875680391000,13.173390869140626,-9.595989227294922,-1.9851919412612915,0.46062445640563965
1759338875690434600,13.1834345703125,-9.621350288391113,-1.8528447151184082,0.48238852620124817
