time,seconds_elapsed,z,y,x
1759338862644947500,0.137947509765625,-0.14993511140346527,0.453052818775177,0.3096793591976166
1759338862665020200,0.158020263671875,-0.15051798522472382,0.3298805356025696,0.14605474472045898
1759338862675063000,0.16806298828125,-0.29527372121810913,0.13965964317321777,-0.027195826172828674
1759338862685105200,0.178105224609375,-0.4973522126674652,-0.16367457807064056,-0.30138570070266724
1759338862695170000,0.188170166015625,-0.6886056661605835,-0.4893583357334137,-0.6330981850624084
1759338862705181000,0.198180908203125,-0.8529797196388245,-0.7709258794784546,-0.9289548397064209
1759338862715229700,0.208229736328125,-0.9748362898826599,-0.9537691473960876,-1.1399930715560913
1759338862725286400,0.218286376953125,-1.0368554592132568,-1.0812047719955444,-1.2623326778411865
1759338862735328800,0.228328857421875,-1.0370053052902222,-1.16935396194458,-1.3164079189300537
1759338862745386000,0.238385986328125,-1.0159214735031128,-1.259751319885254,-1.3219536542892456
1759338862755411500,0.248411376953125,-0.9583989381790161,-1.3871537446975708,-1.3038841485977173
1759338862765473300,0.258473388671875,-0.8673186898231506,-1.3488330841064453,-1.2385841608047485
1759338862775514400,0.268514404296875,-0.6886556148529053,-1.1044203042984009,-1.112747311592102
1759338862785556500,0.278556396484375,-0.5109917521476746,-0.6894217133522034,-0.9262568950653076
1759338862795600000,0.288599853515625,-0.3339774012565613,-0.2456117868423462,-0.6666391491889954
1759338862805643000,0.29864306640625,-0.12480436265468597,0.033374425023794174,-0.35214680433273315
1759338862815686700,0.308686767578125,0.1026047095656395,-0.022432809695601463,-0.11626090854406357
1759338862825728000,0.31872802734375,0.3418214023113251,-0.2555375099182129,0.0011491194600239396
1759338862835747000,0.3287470703125,0.5417348742485046,-0.46441078186035156,0.0691470131278038
1759338862845789700,0.338789794921875,0.6848418712615967,-0.5547082424163818,0.1344636231660843
1759338862855839200,0.348839111328125,0.7768713235855103,-0.4615130126476288,0.2359691709280014
1759338862865919000,0.3589189453125,0.8570765852928162,-0.2252107560634613,0.36866748332977295
1759338862875917800,0.368917724609375,0.9582656621932983,0.06381776183843613,0.5095428824424744
1759338862885985300,0.3789853515625,1.069313883781433,0.3582421541213989,0.6346803307533264
1759338862896029200,0.389029296875,1.1854583024978638,0.5954437255859375,0.7482266426086426
1759338862906071600,0.399071533203125,1.3164745569229126,0.7344039082527161,0.853079617023468
1759338862916114200,0.4091142578125,1.4330518245697021,0.7125040292739868,0.9592316150665283
1759338862926158800,0.419158935546875,1.4445596933364868,0.3594578802585602,1.0169041156768799
1759338862936199700,0.42919970703125,1.385438323020935,0.23954977095127106,1.0636183023452759
1759338862946241500,0.439241455078125,1.2174004316329956,0.12518739700317383,1.0122076272964478
1759338862956306400,0.449306396484375,0.9610468745231628,0.1194751113653183,0.9023918509483337
1759338862966328300,0.459328369140625,0.6522834897041321,0.4205610454082489,0.8929490447044373
1759338862976369700,0.46936962890625,0.29620635509490967,0.6669722199440002,0.970872700214386
1759338862986413300,0.479413330078125,-0.0767078846693039,0.6996638774871826,1.028761625289917
1759338862996458000,0.4894580078125,-0.5034974813461304,0.7318225502967834,0.9931555986404419
1759338863006474000,0.499473876953125,-0.8623225092887878,0.8384907841682434,0.8417050242424011
1759338863016542700,0.509542724609375,-1.0828702449798584,0.9140329360961914,0.6055859327316284
1759338863026559000,0.51955908203125,-1.180645227432251,0.849582314491272,0.3682178258895874
1759338863036627000,0.529626953125,-1.075575828552246,0.7196818590164185,0.17664796113967896
1759338863046696000,0.539696044921875,-0.7585853934288025,0.6222231984138489,0.0930287092924118
1759338863056712700,0.549712646484375,-0.357659250497818,0.6072013974189758,0.15476474165916443
1759338863066755300,0.55975537109375,-0.04969525337219238,0.6836594343185425,0.29474079608917236
1759338863076797200,0.569797119140625,0.12340543419122696,0.7768880128860474,0.3916998505592346
1759338863086841000,0.579841064453125,0.08210375159978867,0.7295742630958557,0.3613564372062683
1759338863096883700,0.5898837890625,0.02872798591852188,0.5015490055084229,0.198281392455101
1759338863106902500,0.599902587890625,0.0580388568341732,0.14142495393753052,-0.0635179951786995
1759338863116970000,0.609969970703125,0.04220099374651909,-0.15236657857894897,-0.3310629725456238
1759338863127010800,0.6200107421875,-0.0025647012516856194,-0.3254006505012512,-0.43864721059799194
1759338863137029600,0.630029541015625,-0.04073544964194298,-0.36790141463279724,-0.40873679518699646
1759338863147096300,0.640096435546875,-0.06458384543657303,-0.23282158374786377,-0.2920761704444885
1759338863157141500,0.6501416015625,-0.029044410213828087,-0.06458384543657303,-0.18360930681228638
1759338863167182600,0.6601826171875,0.018635720014572144,0.1428072303533554,-0.11401262879371643
1759338863177225200,0.67022509765625,0.09864107519388199,0.3214203715324402,-0.08103790134191513
1759338863187268600,0.6802685546875,0.12918433547019958,0.537288248538971,-0.04056891053915024
1759338863197311000,0.69031103515625,0.14443930983543396,0.6504515409469604,-0.007077909540385008
1759338863207353000,0.70035302734375,0.1278853416442871,0.6571131348609924,-0.045398544520139694
1759338863217395700,0.710395751953125,0.10287117213010788,0.5103422403335571,-0.11872568726539612
1759338863227414500,0.72041455078125,0.06808116286993027,0.3550945520401001,-0.23282158374786377
1759338863237482200,0.730482177734375,0.03395731374621391,0.33054670691490173,-0.3266996443271637
1759338863247500800,0.740500732421875,0.018302641808986664,0.3504481315612793,-0.36978331208229065
1759338863257568500,0.750568603515625,0.07509245723485947,0.42310911417007446,-0.38179075717926025
1759338863267573200,0.7605732421875,0.1755821257829666,0.4959033131599426,-0.35907483100891113
1759338863277654300,0.770654296875,0.2633149027824402,0.551294207572937,-0.3517637848854065
1759338863287697000,0.78069677734375,0.3329448699951172,0.4798322916030884,-0.32460126280784607
1759338863297739500,0.790739501953125,0.3549779951572418,0.4614630341529846,-0.29973697662353516
1759338863307782000,0.800781982421875,0.38137441873550415,0.4479067623615265,-0.28891193866729736
1759338863317824300,0.81082421875,0.3774607479572296,0.3937815725803375,-0.3011026084423065
1759338863327868000,0.820867919921875,0.35472816228866577,0.3273324966430664,-0.36465388536453247
1759338863337910500,0.83091064453125,0.3092796802520752,0.27635490894317627,-0.3998769223690033
1759338863347927800,0.840927734375,0.2570030689239502,0.25087442994117737,-0.4223596751689911
1759338863357982500,0.850982421875,0.22156354784965515,0.2376345694065094,-0.40006008744239807
1759338863368019200,0.861019287109375,0.19356833398342133,0.19496726989746094,-0.3542618751525879
1759338863378110700,0.87111083984375,0.17518243193626404,0.15438169240951538,-0.3075476586818695
1759338863388123600,0.88112353515625,0.17526569962501526,0.14770348370075226,-0.2772209048271179
1759338863398168000,0.89116796875,0.1793125867843628,0.15055130422115326,-0.27059265971183777
1759338863408187000,0.901186767578125,0.18604077398777008,0.16124311089515686,-0.2579689919948578
1759338863418254600,0.911254638671875,0.19328521192073822,0.1795957088470459,-0.2312561273574829
1759338863428295000,0.921294921875,0.20249482989311218,0.20174540579319,-0.20282790064811707
1759338863438338600,0.931338623046875,0.22436140477657318,0.22654306888580322,-0.18552449345588684
1759338863448373200,0.941373291015625,0.24699406325817108,0.2330547422170639,-0.16437403857707977
1759338863458423300,0.95142333984375,0.2785865068435669,0.2113213986158371,-0.1314825713634491
1759338863468458000,0.9614580078125,0.2907272279262543,0.1793125867843628,-0.09602641314268112
1759338863478521300,0.971521240234375,0.29382485151290894,0.1568298190832138,-0.07619161158800125
1759338863488508700,0.9815087890625,0.3264165222644806,0.14518874883651733,-0.06763150542974472
1759338863498570000,0.991570068359375,0.3577258884906769,0.11576129496097565,-0.09244582802057266
1759338863508637700,1.0016376953125,0.3995938003063202,0.07424310594797134,-0.12910106778144836
1759338863518680800,1.011680908203125,0.437065064907074,0.057172853499650955,-0.15359896421432495
1759338863528723000,1.021722900390625,0.4561671018600464,0.06626588851213455,-0.1687706708908081
1759338863538767000,1.03176708984375,0.46649253368377686,0.1003897413611412,-0.18304306268692017
1759338863548809000,1.04180908203125,0.4683910608291626,0.14545521140098572,-0.19501721858978271
1759338863558851300,1.051851318359375,0.45185375213623047,0.17428311705589294,-0.20647510886192322
1759338863568895200,1.061895263671875,0.43081986904144287,0.1693868637084961,-0.21188762784004211
1759338863578936800,1.071936767578125,0.40275803208351135,0.1384938657283783,-0.20239490270614624
1759338863588946400,1.081946533203125,0.3706326484680176,0.10765083879232407,-0.1726510375738144
1759338863599018000,1.09201806640625,0.3479999899864197,0.1012224331498146,-0.12395501136779785
1759338863609027600,1.102027587890625,0.3380243182182312,0.11223066598176956,-0.07520903646945953
1759338863619108900,1.11210888671875,0.32894793152809143,0.10883326828479767,-0.043316807597875595
1759338863629149700,1.122149658203125,0.31237730383872986,0.09008096903562546,-0.030493300408124924
1759338863639194400,1.1321943359375,0.2935750484466553,0.06395099312067032,-0.027728751301765442
1759338863649236700,1.14223681640625,0.27938589453697205,0.033590927720069885,-0.0321420356631279
1759338863659279400,1.152279296875,0.26384782791137695,-0.003430704353377223,-0.041984494775533676
1759338863669321700,1.16232177734375,0.24531202018260956,-0.041351646184921265,-0.04897913336753845
1759338863679364600,1.172364501953125,0.21706698834896088,-0.06698200851678848,-0.04180129989981651
1759338863689406700,1.18240673828125,0.1928522139787674,-0.09326186776161194,-0.018635720014572144
1759338863699449600,1.19244970703125,0.16399100422859192,-0.10500287264585495,0.012257274240255356
1759338863709492000,1.202491943359375,0.12763552367687225,-0.08754957467317581,0.04488227516412735
1759338863719513600,1.212513671875,0.09387806057929993,-0.047530245035886765,0.0828198716044426
1759338863729595600,1.222595703125,0.06468376517295837,0.0019818146247416735,0.11236389726400375
1759338863739623000,1.232622802734375,0.03399062156677246,0.041018567979335785,0.1327316164970398
1759338863749663200,1.242663330078125,0.00816041324287653,0.06724847108125687,0.14497223496437073
1759338863759706400,1.252706298828125,-0.013406393118202686,0.07640811800956726,0.14174138009548187
1759338863769750000,1.26275,-0.02612997591495514,0.07779038697481155,0.13133269548416138
1759338863779791000,1.272791015625,-0.028045175597071648,0.07181163877248764,0.11955837905406952
1759338863789809400,1.282809326171875,-0.02734571136534214,0.06223564222455025,0.11053196340799332
1759338863799877600,1.292877685546875,-0.02909437194466591,0.046314507722854614,0.10735107213258743
1759338863809914400,1.302914306640625,-0.03369085118174553,0.03502316027879715,0.10858345776796341
1759338863819938800,1.312938720703125,-0.043899692595005035,0.025164050981402397,0.11814279854297638
1759338863829994800,1.322994873046875,-0.05156048759818077,0.034423619508743286,0.13359762728214264
1759338863840049000,1.333048828125,-0.059471093118190765,0.0597042478621006,0.14443930983543396
1759338863850091500,1.343091552734375,-0.06793127954006195,0.08526799082756042,0.1458549052476883
1759338863860133000,1.353133056640625,-0.0724111795425415,0.09354498237371445,0.13902679085731506
1759338863870178600,1.363178466796875,-0.06858077645301819,0.08908173441886902,0.1362122893333435
1759338863880221400,1.373221435546875,-0.060636866837739944,0.08381910622119904,0.1484862118959427
1759338863890262300,1.38326220703125,-0.044898927211761475,0.09709226340055466,0.17153522372245789
1759338863900305000,1.393304931640625,-0.030176876112818718,0.10949942469596863,0.19463418424129486
1759338863910322400,1.403322509765625,-0.021267035976052284,0.10317093878984451,0.20532599091529846
1759338863920346400,1.413346435546875,-0.02033441700041294,0.08633384108543396,0.20212844014167786
1759338863930402800,1.42340283203125,-0.028877871111035347,0.06679881364107132,0.18585757911205292
1759338863940483600,1.433483642578125,-0.04088533669710159,0.05778905004262924,0.15296611189842224
1759338863950524000,1.44352392578125,-0.04388304054737091,0.07833997160196304,0.11268032342195511
1759338863960561700,1.453561767578125,-0.038886867463588715,0.11977488547563553,0.07777373492717743
1759338863970604800,1.463604736328125,-0.03870367631316185,0.16360795497894287,0.06656565517187119
1759338863980650200,1.473650146484375,-0.037304747849702835,0.21941520273685455,0.08603407442569733
1759338864000731400,1.4937314453125,-0.012706929817795753,0.24036580324172974,0.15128406882286072
1759338864020819000,1.51381884765625,-0.023898353800177574,0.2104887068271637,0.14229096472263336
1759338864040894700,1.533894775390625,-0.03127603232860565,0.10102258622646332,0.05895482376217842
1759338864050917600,1.543917724609375,-0.04453254118561745,0.054874617606401443,-0.003197549842298031
1759338864070995700,1.56399560546875,-0.053325802087783813,0.11541155725717545,0.01828598789870739
1759338864081054500,1.574054443359375,-0.05497454106807709,0.14124177396297455,0.0003164241788908839
1759338864101136000,1.594135986328125,-0.05307599529623985,0.18131105601787567,-0.036172281950712204
1759338864121222000,1.614221923828125,-0.06736504286527634,0.15018491446971893,-0.06728177517652512
1759338864141308000,1.634307861328125,-0.05737270042300224,0.16707196831703186,-0.11339643597602844
1759338864151356700,1.644356689453125,-0.05763916298747063,0.1800120621919632,-0.1194751113653183
1759338864161385700,1.6543857421875,-0.07002966850996017,0.19163648784160614,-0.11772645264863968
1759338864171446300,1.6644462890625,-0.09431106597185135,0.19455091655254364,-0.10783403366804123
1759338864181489200,1.6744892578125,-0.13269831240177155,0.20399367809295654,-0.09772511571645737
1759338864191531500,1.684531494140625,-0.18707332015037537,0.20787404477596283,-0.08879861980676651
1759338864201589800,1.69458984375,-0.2616328299045563,0.3028179407119751,-0.08058824390172958
1759338864211631600,1.704631591796875,-0.36095672845840454,0.5469309091567993,-0.05552411824464798
1759338864221674800,1.7146748046875,-0.45941463112831116,0.9097695350646973,0.036305513232946396
1759338864231716000,1.724716064453125,-0.5878328680992126,1.3540290594100952,0.10770080238580704
1759338864241760500,1.734760498046875,-0.7532061338424683,1.8345274925231934,0.1959165334701538
1759338864251802600,1.744802734375,-0.9451090693473816,2.417280912399292,0.36152297258377075
1759338864261819100,1.754819091796875,-1.1251710653305054,2.9113857746124268,0.5617362260818481
1759338864271887400,1.764887451171875,-1.2245283126831055,3.2417657375335693,0.7536224722862244
1759338864281932000,1.77493212890625,-1.424208641052246,3.4074223041534424,1.010042667388916
1759338864291973000,1.78497314453125,-1.5886160135269165,3.3830742835998535,1.261533260345459
1759338864302016500,1.7950166015625,-1.5065455436706543,3.478034734725952,1.4378647804260254
1759338864312034000,1.805033935546875,-1.3192723989486694,4.024116516113281,1.5993577241897583
1759338864322100700,1.815100830078125,-1.246861219406128,4.919946670532227,1.7535395622253418
1759338864332142600,1.825142578125,-1.3159582614898682,5.563170433044434,1.9130173921585083
1759338864342188500,1.8351884765625,-1.415615200996399,5.505114555358887,2.0586724281311035
1759338864352235000,1.845235107421875,-1.5601211786270142,4.889536380767822,2.047464370727539
1759338864362273000,1.85527294921875,-2.002748727798462,4.462530136108398,1.6460219621658325
1759338864372314400,1.865314453125,-2.5514116287231445,4.179896831512451,1.1802122592926025
1759338864382358000,1.87535791015625,-3.06170392036438,3.934518337249756,0.7706094980239868
1759338864392400600,1.885400634765625,-3.5594723224639893,3.765347957611084,0.3489326238632202
1759338864402444300,1.8954443359375,-3.9733052253723145,3.6756999492645264,-0.09113016724586487
1759338864412486000,1.90548583984375,-4.289529800415039,3.6354808807373047,-0.5533093214035034
1759338864422528800,1.91552880859375,-4.553210735321045,3.703029155731201,-1.0056127309799194
1759338864432572200,1.925572265625,-4.77569055557251,3.9026427268981934,-1.3898849487304688
1759338864442615000,1.935614990234375,-4.960082530975342,4.219733238220215,-1.6399933099746704
1759338864452659200,1.9456591796875,-5.133366107940674,4.561470985412598,-1.7038277387619019
1759338864462699000,1.955698974609375,-5.389087200164795,4.7834343910217285,-1.5610871315002441
1759338864472743200,1.9657431640625,-5.775191307067871,4.740034580230713,-1.3034178018569946
1759338864482786600,1.97578662109375,-6.224979877471924,4.471423625946045,-1.080222249031067
1759338864492828200,1.985828125,-6.669939041137695,4.070230960845947,-0.9550681114196777
1759338864502871800,1.995871826171875,-7.052845478057861,3.6194097995758057,-0.9019588232040405
1759338864512912600,2.00591259765625,-7.2796549797058105,3.2716429233551025,-0.8230692744255066
1759338864522957800,2.015957763671875,-7.2842183113098145,3.0358903408050537,-0.584368884563446
1759338864533000700,2.026000732421875,-6.894416809082031,3.1697378158569336,-0.2758053243160248
1759338864543042000,2.0360419921875,-5.97663688659668,3.3784611225128174,0.12357197701931
1759338864553085700,2.046085693359375,-4.665857791900635,3.191404342651367,0.5237153172492981
1759338864563126300,2.056126220703125,-3.4180641174316406,2.5230166912078857,0.7810681462287903
1759338864573170700,2.066170654296875,-2.597259759902954,1.345502257347107,0.7733407020568848
1759338864583215000,2.076215087890625,-1.864554524421692,0.1059354916214943,0.6293843984603882
1759338864593230600,2.086230712890625,-1.2854982614517212,-0.734736979007721,0.6202580332756042
1759338864603259400,2.09625927734375,-0.8801422119140625,-1.0967762470245361,0.8440032601356506
1759338864613341700,2.106341796875,-0.6546316742897034,-0.999617338180542,1.2436803579330444
1759338864623384300,2.11638427734375,-0.5572063326835632,-0.5503615736961365,1.6764487028121948
1759338864633427700,2.126427734375,-0.5700132250785828,0.07804019749164581,2.042851209640503
1759338864643425000,2.136425048828125,-0.675532341003418,0.883539617061615,1.9189128875732422
1759338864653511200,2.14651123046875,-0.9204946160316467,1.2673288583755493,0.02617993764579296
1759338864663555300,2.156555419921875,-1.2985382080078125,0.5244480967521667,-1.8535462617874146
1759338864673598200,2.16659814453125,-1.5190026760101318,-0.16482369601726532,-1.756920337677002
1759338864683640800,2.176640869140625,-1.2119213342666626,0.9644609093666077,-1.0608537197113037
1759338864693683700,2.18668359375,-0.5608535408973694,2.6206252574920654,-0.3451688289642334
1759338864703726800,2.196726806640625,-0.25883498787879944,3.0519778728485107,0.11875899881124496
1759338864713770200,2.206770263671875,-0.3198382556438446,2.4818813800811768,0.09739203751087189
1759338864723813000,2.216813232421875,-0.32480111718177795,1.954635500907898,-0.0522766076028347
1759338864733853400,2.226853515625,-0.13101626932621002,1.912451148033142,-0.023531967774033546
1759338864743897600,2.236897705078125,0.14750362932682037,2.097992420196533,0.13574597239494324
1759338864753941800,2.246941650390625,0.4098525941371918,2.2368359565734863,0.2404157668352127
1759338864763984100,2.256984130859375,0.6050530076026917,2.221264600753784,0.2639977037906647
1759338864774026200,2.267026123046875,0.7023617625236511,2.136662721633911,0.21591787040233612
1759338864784066600,2.277066650390625,0.7535892128944397,2.0946781635284424,0.26008403301239014
1759338864794111000,2.287111083984375,0.7354031205177307,2.212421178817749,0.3458682894706726
1759338864804155400,2.2971552734375,0.6280187368392944,2.2737576961517334,0.4541686475276947
1759338864814195500,2.307195556640625,0.44642457365989685,2.2100565433502197,0.5361058712005615
1759338864824238000,2.317238037109375,0.13821075856685638,2.2723586559295654,0.8577427268028259
1759338864834283300,2.327283203125,-0.36660242080688477,2.7036283016204834,1.2142528295516968
1759338864844324000,2.337323974609375,-0.7106054425239563,2.936366558074951,1.1590118408203125
1759338864854366200,2.3473662109375,-1.0106089115142822,2.5672659873962402,1.0174204111099243
1759338864864416500,2.35741650390625,-1.1197419166564941,1.9258908033370972,1.0373218059539795
1759338864874456000,2.3674560546875,-1.0323588848114014,1.2179999351501465,0.9572498202323914
1759338864884494800,2.377494873046875,-0.619425356388092,0.563434898853302,1.0833032131195068
1759338864894538200,2.387538330078125,-0.4670920670032501,-0.16100995242595673,0.8559774160385132
1759338864904581000,2.3975810546875,-0.39484742283821106,-0.65694659948349,0.4524199664592743
1759338864914627800,2.4076279296875,-0.36172282695770264,-1.0311264991760254,0.07855647057294846
1759338864924671500,2.41767138671875,-0.28459858894348145,-1.0880162715911865,-0.03900344669818878
1759338864934710500,2.42771044921875,-0.2841489315032959,-0.7973223328590393,0.003130934201180935
1759338864944751900,2.437751953125,-0.3359925150871277,-0.3481498658657074,0.07640811800956726
1759338864954794500,2.44779443359375,-0.5051295757293701,0.1411418467760086,0.18589088320732117
1759338864964827100,2.4578271484375,-0.44072893261909485,0.21961504220962524,0.16880397498607635
1759338864974882300,2.46788232421875,-0.1991807073354721,-0.16454057395458221,0.034506890922784805
1759338864984922600,2.477922607421875,-0.24542859196662903,-0.5386872291564941,-0.22697606682777405
1759338864994967800,2.4879677734375,-0.5430338978767395,-0.7820174098014832,-0.46274539828300476
1759338865005011000,2.498010986328125,-0.8727978467941284,-0.7472440600395203,-0.5420845746994019
1759338865015051000,2.508051025390625,-1.1275359392166138,-0.5113248229026794,-0.4530028700828552
1759338865025094100,2.51809423828125,-1.4803489446640015,0.06696534901857376,-0.23635222017765045
1759338865035137000,2.528136962890625,-1.9827473163604736,0.6334479451179504,0.04086868092417717
1759338865045178400,2.538178466796875,-2.3677690029144287,0.8524301052093506,0.38770291209220886
1759338865055222500,2.548222412109375,-2.2753231525421143,0.8824071288108826,0.7753725051879883
1759338865065264600,2.5582646484375,-1.72371244430542,0.7959733605384827,1.1544320583343506
1759338865075308000,2.56830810546875,-0.9944712519645691,0.8263834118843079,1.3718653917312622
1759338865085352000,2.57835205078125,-0.7953738570213318,1.0562572479248047,1.3926328420639038
1759338865095393000,2.58839306640625,-1.89090096950531,1.550212025642395,1.3181731700897217
1759338865105438000,2.59843798828125,-3.164375066757202,1.8595917224884033,1.3514477014541626
1759338865115478800,2.608478759765625,-3.6635260581970215,1.7379182577133179,1.3383578062057495
1759338865125520400,2.618520263671875,-3.177015542984009,1.6155619621276855,1.0633518695831299
1759338865135562800,2.628562744140625,-1.796839714050293,1.5648342370986938,0.6177599430084229
1759338865145607000,2.63860693359375,-0.2619992196559906,0.8912503719329834,0.34172147512435913
1759338865155648800,2.648648681640625,0.40157559514045715,-0.35151398181915283,0.2266596406698227
1759338865165692200,2.658692138671875,0.7392835021018982,-0.5854347348213196,-0.12005800008773804
1759338865175734300,2.668734375,0.8030846118927002,-0.12134034931659698,-0.46579307317733765
1759338865185778000,2.67877783203125,-0.1059354916214943,0.6613265872001648,-1.1476038694381714
1759338865195819800,2.68881982421875,-0.6323820948600769,0.527012825012207,-0.5122075080871582
1759338865205863700,2.69886376953125,-0.9129503965377808,-0.08849885314702988,0.06375114619731903
1759338865215906300,2.70890625,-1.2226130962371826,-0.004629785660654306,0.4975354075431824
1759338865225948000,2.718947998046875,-1.1144959926605225,0.321370393037796,0.9619461894035339
1759338865235990500,2.728990478515625,-0.8201048970222473,0.8085803985595703,1.4055562019348145
1759338865246035500,2.739035400390625,-0.7333380579948425,1.2261104583740234,2.1330153942108154
1759338865256078300,2.749078369140625,-0.5322921276092529,1.6526834964752197,3.067782402038574
1759338865266119200,2.759119140625,-0.39149999618530273,1.7627325057983398,3.603421926498413
1759338865276162000,2.769162109375,-1.2017290592193604,1.0606871843338013,2.830197811126709
1759338865286205700,2.779205810546875,-2.654082775115967,-0.22439470887184143,1.3712491989135742
1759338865296248000,2.789248046875,-3.930321455001831,-1.23362135887146,0.14602144062519073
1759338865306290200,2.799290283203125,-4.712988376617432,-1.7023122310638428,-0.19996343553066254
1759338865316333300,2.809333251953125,-4.4206624031066895,0.2600507140159607,0.4131334125995636
1759338865326376000,2.8193759765625,-5.220133304595947,2.563135862350464,1.6435738801956177
1759338865336418300,2.829418212890625,-5.194103240966797,3.972322702407837,2.1634254455566406
1759338865346462700,2.839462646484375,-4.4446940422058105,3.2920939922332764,1.9205116033554077
1759338865356505900,2.849505859375,-3.358243227005005,1.391600251197815,1.461380124092102
1759338865366547700,2.859547607421875,-2.1551318168640137,0.29099369049072266,1.0773577690124512
1759338865376590600,2.869590576171875,-1.7363194227218628,0.01127469353377819,0.6359293460845947
1759338865386632200,2.879632080078125,-1.513390302658081,0.4672086536884308,0.2443627417087555
1759338865396677400,2.889677490234375,-1.5649008750915527,1.40697181224823,0.15170042216777802
1759338865406718500,2.899718505859375,-1.8391239643096924,2.1773481369018555,0.118709035217762
1759338865416760300,2.90976025390625,-1.26339852809906,1.9850622415542603,-0.22964069247245789
1759338865426805200,2.91980517578125,-0.6550147533416748,1.288296103477478,-0.48621076345443726
1759338865436846300,2.929846435546875,-0.40115925669670105,0.6534825563430786,-0.7021785974502563
1759338865446891000,2.93989111328125,-0.30278465151786804,0.14463916420936584,-0.8674685955047607
1759338865456930800,2.949930908203125,-0.06278522312641144,-0.055174387991428375,-0.7831498980522156
1759338865466976000,2.95997607421875,0.06739835441112518,-0.20510949194431305,-0.7906774282455444
1759338865477019000,2.970018798828125,0.33069658279418945,-0.06390102952718735,-0.7193487882614136
1759338865487059700,2.980059814453125,0.5029479265213013,0.14811982214450836,-0.5756422281265259
1759338865497101800,2.990101806640625,0.5892151594161987,0.29570671916007996,-0.4322853982448578
1759338865507146800,3.000146728515625,0.4851115942001343,0.2352031022310257,-0.264497309923172
1759338865517189000,3.010189208984375,0.16738839447498322,-0.13006699085235596,-0.1460714042186737
1759338865527230700,3.020230712890625,-0.018019525334239006,-0.44830647110939026,-0.13348104059696198
1759338865537275000,3.03027490234375,0.0506778322160244,-0.4475570321083069,-0.086500383913517
1759338865547318500,3.040318603515625,0.09575995057821274,-0.34048908948898315,-0.00584552064538002
1759338865557359600,3.050359619140625,0.05982082709670067,-0.19018758833408356,0.027362365275621414
1759338865567404000,3.060404052734375,0.027379019185900688,-0.0453319288790226,0.03727144002914429
1759338865577446000,3.07044580078125,0.014472243376076221,0.05873832106590271,0.049245595932006836
1759338865587488000,3.080488037109375,0.023998277261853218,0.158012256026268,0.08047166466712952
1759338865597531400,3.090531494140625,0.035589393228292465,0.18151091039180756,0.10763418674468994
1759338865607574300,3.10057421875,0.05865505337715149,0.10976588726043701,0.0996902734041214
1759338865617616600,3.11061669921875,0.06536657363176346,0.09940715879201889,0.0996902734041214
1759338865627658200,3.120658203125,0.07047932595014572,0.036505360156297684,0.09742534160614014
1759338865637702100,3.1307021484375,0.035755932331085205,0.007727412041276693,0.05425842106342316
1759338865647746800,3.140746826171875,-0.01920195296406746,0.010941615328192711,0.020817380398511887
1759338865657786400,3.150786376953125,-0.014305704273283482,0.06410087645053864,0.029360834509134293
1759338865667829200,3.160829345703125,-0.0053958650678396225,0.12210643291473389,0.03194218873977661
1759338865677871600,3.17087158203125,-0.01640409603714943,0.2217300832271576,0.05172702670097351
1759338865687917300,3.180917236328125,0.016970328986644745,0.28716328740119934,0.10921631008386612
1759338865697957000,3.19095703125,-0.021300343796610832,0.15176703035831451,0.033507656306028366
1759338865708001500,3.20100146484375,-0.009825804270803928,0.1505679488182068,0.010408690199255943
1759338865718043600,3.211043701171875,0.0013323123566806316,0.1285015344619751,0.021849922835826874
1759338865728085200,3.221085205078125,0.010325420647859573,0.1226726621389389,0.02842821553349495
1759338865738128600,3.231128662109375,0.00937614869326353,0.11877565085887909,0.02513074316084385
1759338865748173300,3.24117333984375,0.008560107089579105,0.10771745443344116,0.023282159119844437
1759338865758214700,3.251214599609375,0.01665390469133854,0.10700134187936783,0.021633422002196312
1759338865768256500,3.261256591796875,0.014572166837751865,0.07316060364246368,0.020767418667674065
1759338865778301700,3.2713017578125,0.022982388734817505,0.03678847476840019,0.006378445774316788
1759338865788343800,3.28134375,0.033874042332172394,0.04391634836792946,0.003497319994494319
1759338865798386200,3.29138623046875,0.04409953951835632,0.05797224119305611,0.0003497319994494319
1759338865808427800,3.301427734375,0.058971475809812546,0.022815849632024765,-0.018402565270662308
1759338865818472000,3.311471923828125,0.053675536066293716,-0.04053560271859169,-0.02141692116856575
1759338865828515000,3.32151513671875,0.03762117028236389,-0.07918931543827057,-0.006511676590889692
1759338865838557000,3.331556884765625,0.020351070910692215,-0.0580388568341732,-0.018552450463175774
1759338865848599300,3.341599365234375,0.01866902783513069,-0.029077718034386635,-0.037071593105793
1759338865858641700,3.3516416015625,0.026446400210261345,-0.02734571136534214,-0.032458461821079254
1759338865868659700,3.36165966796875,0.011208077892661095,-0.07524234056472778,-0.033207885921001434
1759338865878703000,3.371703125,-0.006561638321727514,-0.09033077955245972,-0.03382408246397972
1759338865888745500,3.381745361328125,-0.0010491959983482957,-0.09137997776269913,-0.027728751301765442
1759338865898789600,3.39178955078125,0.01269027590751648,-0.07346037775278091,-0.003147588111460209
1759338865908831200,3.401831298828125,0.0010825038189068437,-0.09526033699512482,0.004113514441996813
1759338865918884900,3.411884765625,-0.009076378308236599,-0.08758288621902466,0.00559571199119091
1759338865928928300,3.42192822265625,0.0025813551619648933,-0.09036409109830856,0.01185758039355278
1759338865938969300,3.43196923828125,0.007394333835691214,-0.10215505212545395,0.022899119183421135
1759338865949026600,3.442026611328125,0.005728943273425102,-0.09875765442848206,0.026163283735513687
1759338865959068700,3.452068603515625,0.00046630934230051935,-0.07755723595619202,0.017686447128653526
1759338865969112800,3.46211279296875,-0.0014322358183562756,-0.06336810439825058,0.01715352199971676
1759338865979155700,3.47215576171875,0.0026979325339198112,-0.060187213122844696,0.01961830072104931
1759338865989198800,3.48219873046875,-0.0072111408226192,-0.06531661748886108,0.020301109179854393
1759338865999242200,3.4922421875,-0.022449463605880737,-0.054924577474594116,0.015787901356816292
1759338866009285400,3.502285400390625,-0.02501416578888893,-0.046614278107881546,0.01383939478546381
1759338866019326200,3.512326171875,-0.017436638474464417,-0.04724712669849396,0.01640409603714943
1759338866029371100,3.52237109375,-0.008976454846560955,-0.0481797456741333,0.020734110847115517
1759338866039413200,3.532413330078125,-0.004796324763447046,-0.0374879390001297,0.021366959437727928
1759338866049453600,3.54245361328125,0.0006661561783403158,-0.021949846297502518,0.01945176161825657
1759338866059497500,3.55249755859375,0.008626722730696201,-0.017852986231446266,0.017803024500608444
1759338866069539800,3.562539794921875,0.016054363921284676,-0.026229899376630783,0.01547147799283266
1759338866079582500,3.57258251953125,0.022599348798394203,-0.03685509040951729,0.009925727732479572
1759338866089625300,3.582625244140625,0.01665390469133854,-0.032708268612623215,0.002964395098388195
1759338866099667000,3.5926669921875,0.002331546740606427,-0.02141692116856575,-0.003980283159762621
1759338866109712100,3.602712158203125,-0.01367285568267107,-0.008543453179299831,-0.004080206621438265
1759338866119753200,3.612753173828125,-0.025896821171045303,0.010008996352553368,-0.00472970912232995
1759338866129795600,3.622795654296875,-0.026246553286910057,0.022566040977835655,-0.0013156584464013577
1759338866139838500,3.63283837890625,-0.018086140975356102,0.0201678778976202,0.0054291728883981705
1759338866159924000,3.652924072265625,-0.008676684461534023,0.02989375963807106,0.01530493889003992
1759338866169967000,3.662967041015625,-0.0075608729384839535,0.037887632846832275,0.015837863087654114
1759338866180011000,3.673010986328125,-0.010525267571210861,0.044732388108968735,0.018435873091220856
1759338866190052400,3.68305224609375,-0.00970922689884901,0.05134398862719536,0.017103560268878937
1759338866200097300,3.69309716796875,-0.011890888214111328,0.05089433491230011,0.010075611993670464
1759338866210138600,3.703138671875,-0.01110815443098545,0.03978617861866951,0.00634513795375824
1759338866220181800,3.713181640625,-0.008393567986786366,0.02601339854300022,0.008260336704552174
1759338866230225000,3.723224853515625,-0.007194486912339926,0.023815084248781204,0.0054624807089567184
1759338866240267300,3.733267333984375,-0.0054291728883981705,0.02593012899160385,0.004296707455068827
1759338866250311400,3.7433115234375,-0.006911370437592268,0.026862747967243195,0.006744831334799528
1759338866260352300,3.753352294921875,-0.00704460171982646,0.01978483982384205,0.008343606255948544
1759338866270395400,3.7633955078125,-0.003031010739505291,0.003963629249483347,0.008127105422317982
1759338866280438000,3.77343798828125,-0.0004996171337552369,-0.012823506258428097,0.010358728468418121
1759338866290482200,3.783482177734375,-0.0006495022680610418,-0.02629651501774788,0.012040773406624794
1759338866300522000,3.79352197265625,-0.0008493491332046688,-0.033041346818208694,0.01269027590751648
1759338866310567000,3.80356689453125,-0.002947741188108921,-0.03605570271611214,0.013189892284572124
1759338866320607500,3.813607421875,-0.007094563450664282,-0.0448489673435688,0.017336715012788773
1759338866330651600,3.823651611328125,-0.00816041324287653,-0.04856278747320175,0.02020118571817875
1759338866340694800,3.83369482421875,-0.007111217360943556,-0.05172702670097351,0.022699272260069847
1759338866350737000,3.84373681640625,-0.005129402503371239,-0.05782235786318779,0.02559705078601837
1759338866360778500,3.853778564453125,-0.002781202085316181,-0.06563303619623184,0.03269161656498909
1759338866370823000,3.863822998046875,-0.004113514441996813,-0.07316060364246368,0.03798755630850792
1759338866380865000,3.873864990234375,-0.008526799269020557,-0.0827532559633255,0.041934531182050705
1759338866390909400,3.883909423828125,-0.012673621997237206,-0.10102258622646332,0.0453319288790226
1759338866400951600,3.89395166015625,-0.016937021166086197,-0.12240619957447052,0.048829250037670135
1759338866410993400,3.903993408203125,-0.0177031010389328,-0.1318323165178299,0.048912517726421356
1759338866421036500,3.91403662109375,-0.015588055364787579,-0.12550382316112518,0.047946590930223465
1759338866431080000,3.924079833984375,-0.012207312509417534,-0.0972588062286377,0.04488227516412735
1759338866441121300,3.934121337890625,-0.004912902135401964,-0.07500918954610825,0.03577258810400963
1759338866451164200,3.9441640625,0.0005995405954308808,-0.04917898029088974,0.030443338677287102
1759338866461207000,3.95420703125,0.007893950678408146,-0.012856814078986645,0.03047664649784565
1759338866471251700,3.964251708984375,0.009492726065218449,0.021350305527448654,0.020983919501304626
1759338866481292300,3.974292236328125,0.012140696868300438,0.035123083740472794,0.011957503855228424
1759338866491337200,3.984337158203125,0.009842458181083202,0.04429938644170761,0.008343606255948544
1759338866501378300,3.99437841796875,0.008676684461534023,0.05902143940329552,0.00937614869326353
1759338866511420700,4.004420654296875,0.003946975339204073,0.08338610082864761,0.006528330501168966
1759338866521464600,4.014464599609375,0.004629785660654306,0.10658498853445053,0.009842458181083202
1759338866531507500,4.024507568359375,0.005196018144488335,0.128218412399292,0.012040773406624794
1759338866541547500,4.034547607421875,0.00841022189706564,0.12192323803901672,0.009892419911921024
1759338866551591400,4.04459130859375,0.012990045361220837,0.09612634032964706,0.009692572988569736
1759338866561634000,4.054634033203125,0.012340543791651726,0.07577526569366455,0.010808384045958519
1759338866571678000,4.064677978515625,0.00654498441144824,0.07137863337993622,0.011158116161823273
1759338866581720600,4.074720458984375,-0.004679747391492128,0.08173736184835434,0.009725880809128284
1759338866591764200,4.08476416015625,-0.005046132951974869,0.08753292262554169,0.012373851612210274
1759338866601806800,4.094806884765625,0.0007494257297366858,0.08290313929319382,0.012873467989265919
1759338866611848200,4.10484814453125,0.014905245043337345,0.08873200416564941,0.009742534719407558
1759338866621890600,4.114890625,0.028294984251260757,0.0754588395357132,0.014988514594733715
1759338866631934200,4.124934326171875,0.026163283735513687,0.08548448979854584,0.017636485397815704
1759338866641976800,4.134976806640625,0.03022683784365654,0.1071179136633873,0.010541921481490135
1759338866652019700,4.145019775390625,0.031459227204322815,0.07715754210948944,0.006328484043478966
1759338866662063400,4.1550634765625,0.03189222887158394,0.03993606194853783,0.003264165250584483
1759338866672105000,4.16510498046875,0.029993683099746704,0.01861906610429287,-0.0005828866851516068
1759338866682148600,4.175148681640625,0.029993683099746704,0.01308996882289648,0.0014988514594733715
1759338866692191700,4.185191650390625,0.029710566624999046,0.003380742622539401,-0.0000666156192892231
1759338866702233300,4.1952333984375,0.030260145664215088,-0.016021056100726128,-0.008227028883993626
1759338866712275500,4.205275390625,0.02576358988881111,-0.04271726682782173,-0.00712787127122283
1759338866722318300,4.215318359375,0.011957503855228424,-0.026812786236405373,-0.005196018144488335
1759338866732362800,4.22536279296875,0.010292112827301025,-0.003147588111460209,-0.004096860531717539
1759338866742404000,4.235404052734375,0.010808384045958519,0.010192189365625381,0.00039969373028725386
1759338866752446500,4.245446533203125,0.0189188364893198,0.02008460834622383,0.003980283159762621
1759338866762489900,4.25548974609375,0.029044410213828087,0.011874234303832054,0.007161179091781378
1759338866772533800,4.26553369140625,0.023615237325429916,0.012074081227183342,0.003980283159762621
1759338866782575000,4.2755751953125,0.03139261156320572,0.014821975491940975,-0.0018985451897606254
1759338866792617500,4.285617431640625,0.04108518362045288,0.019401799887418747,-0.002864471636712551
1759338866802661400,4.295661376953125,0.02078407257795334,0.01530493889003992,-0.006994639988988638
1759338866812702200,4.3057021484375,-0.012540390715003014,0.00551244243979454,-0.019268568605184555
1759338866822746000,4.31574609375,0.0016154287150129676,0.038970138877630234,-0.012357197701931
1759338866832788500,4.32578857421875,0.021550152450799942,0.046281199902296066,-0.010042304173111916
1759338866842831400,4.335831298828125,0.011924196034669876,0.04211772605776787,-0.011341309174895287
1759338866852874800,4.345874755859375,0.0014488897286355495,0.040219180285930634,-0.013955972157418728
1759338866862916400,4.355916259765625,-0.010491959750652313,0.09867438673973083,-0.0075608729384839535
1759338866872959700,4.365959716796875,-0.014205780811607838,0.12805187702178955,-0.0013323123566806316
1759338866883001600,4.376001708984375,-0.01665390469133854,0.12618663907051086,-0.004413284827023745
1759338866893046000,4.3860458984375,-0.016670558601617813,0.09432771801948547,-0.01144123263657093
1759338866903088400,4.39608837890625,-0.012557044625282288,0.034640122205019,-0.02296573482453823
1759338866913132300,4.40613232421875,-0.02767878957092762,0.00807714369148016,-0.04704727977514267
1759338866923172900,4.4161728515625,-0.017919601872563362,0.0927455946803093,-0.02959398925304413
1759338866933217300,4.42621728515625,-0.00671152351424098,0.11687710136175156,-0.01916864514350891
1759338866943257600,4.436257568359375,0.008993108756840229,0.10165543854236603,-0.022282924503087997
1759338866953302300,4.44630224609375,0.027495596557855606,0.06260202825069427,-0.02914433367550373
1759338866963344400,4.456344482421875,0.03803751990199089,0.024031585082411766,-0.03217534348368645
1759338866973389800,4.466389892578125,0.03986944630742073,-0.003530627815052867,-0.033757466822862625
1759338866983430100,4.47643017578125,0.03941979259252548,-0.013206546194851398,-0.036638591438531876
1759338866993472800,4.48647265625,0.02959398925304413,-0.017103560268878937,-0.04055225849151611
1759338867003515400,4.496515380859375,0.018002871423959732,-0.006278522312641144,-0.041351646184921265
1759338867013559600,4.5065595703125,0.0061785988509655,-0.006062021479010582,-0.04301703721284866
1759338867023601000,4.516600830078125,-0.004280053544789553,-0.018319295719265938,-0.04601473733782768
1759338867033644800,4.526644775390625,-0.004280053544789553,-0.031042879447340965,-0.04300038143992424
1759338867043686100,4.53668603515625,-0.004163476172834635,-0.035839203745126724,-0.040219180285930634
1759338867053729000,4.54672900390625,-0.004030244890600443,-0.03712155297398567,-0.03562270104885101
1759338867063772200,4.556772216796875,0.0044632465578615665,-0.03578924015164375,-0.022532733157277107
1759338867073815800,4.56681591796875,0.009276225231587887,-0.03379077464342117,-0.00782733503729105
1759338867083858000,4.57685791015625,0.0011324655497446656,-0.04055225849151611,0.0021816615480929613
1759338867093900300,4.586900390625,-0.008759954012930393,-0.052876148372888565,0.006128637120127678
1759338867103943400,4.596943359375,-0.0075608729384839535,-0.06704862415790558,0.01284016016870737
1759338867113960700,4.606960693359375,0.0021316998172551394,-0.0865669995546341,0.01928522251546383
1759338867124003600,4.617003662109375,0.014039241708815098,-0.11126473546028137,0.02020118571817875
1759338867134071600,4.627071533203125,0.025330590084195137,-0.1393265724182129,0.01870233565568924
1759338867144113400,4.637113525390625,0.025280628353357315,-0.15623028576374054,0.012623660266399384
1759338867154156300,4.64715625,0.019818147644400597,-0.14595481753349304,0.002964395098388195
1759338867164202000,4.657201904296875,0.012673621997237206,-0.12490428984165192,-0.0012490428052842617
1759338867174243600,4.66724365234375,0.006311830133199692,-0.10598544776439667,-0.010591883212327957
1759338867184285400,4.677285400390625,-0.00024980856687761843,-0.0943443700671196,-0.022232962772250175
1759338867194328600,4.68732861328125,-0.004979517310857773,-0.0905972421169281,-0.029160987585783005
1759338867204371200,4.69737109375,-0.005828866735100746,-0.08583422750234604,-0.030076952651143074
1759338867214420700,4.707420654296875,-0.006228560581803322,-0.07460949569940567,-0.028461523354053497
1759338867224457700,4.717457763671875,-0.007144525181502104,-0.057256124913692474,-0.02513074316084385
1759338867234499600,4.72749951171875,-0.002981049008667469,-0.034123849123716354,-0.020967265591025352
1759338867244542500,4.73754248046875,0.002847817726433277,-0.008959800936281681,-0.017803024500608444
1759338867254586600,4.747586669921875,0.006161944940686226,0.010591883212327957,-0.01916864514350891
1759338867264602400,4.757602294921875,0.005695635452866554,0.016021056100726128,-0.021799961104989052
1759338867274675000,4.767675048828125,-0.0006994639988988638,0.022399501875042915,-0.027229133993387222
1759338867284714500,4.777714599609375,-0.0008660030434839427,0.016004402190446854,-0.03615562617778778
1759338867294756900,4.7877568359375,-0.009026416577398777,0.01284016016870737,-0.04196783900260925
1759338867304798000,4.7977978515625,-0.014722052030265331,0.028777947649359703,-0.04543185234069824
1759338867314840600,4.807840576171875,-0.018136102706193924,0.04275057464838028,-0.04493223503232002
1759338867324884200,4.81788427734375,-0.01845252700150013,0.04108518362045288,-0.042817190289497375
1759338867334926800,4.8279267578125,-0.012656968086957932,0.02897779457271099,-0.03523966297507286
1759338867344969000,4.837968994140625,-0.007061255630105734,0.009725880809128284,-0.02972722053527832
1759338867355012000,4.84801220703125,-0.0020650841761380434,-0.006228560581803322,-0.022782541811466217
1759338867365031200,4.85803125,-0.0045798239298164845,-0.009142993949353695,-0.02041768655180931
1759338867375099600,4.868099609375,-0.009909073822200298,-0.005662327632308006,-0.01866902783513069
1759338867385140200,4.87814013671875,-0.013439700938761234,-0.012090735137462616,-0.01632082648575306
1759338867395185200,4.88818505859375,-0.015604709275066853,-0.025114089250564575,-0.012973391450941563
1759338867405227800,4.898227783203125,0.010725114494562149,-0.0498451367020607,-0.011258039623498917
1759338867415268900,4.908268798828125,0.042650651186704636,-0.08821573108434677,-0.012706929817795753
1759338867425312500,4.9183125,0.061469562351703644,-0.11096496880054474,-0.013156584464013577
1759338867435354600,4.928354736328125,0.040352411568164825,-0.14167477190494537,-0.018635720014572144
1759338867445396500,4.938396484375,-0.002781202085316181,-0.12751895189285278,-0.017686447128653526
1759338867455440000,4.94843994140625,-0.029127679765224457,-0.08610069006681442,-0.008343606255948544
1759338867465482000,4.95848193359375,-0.025896821171045303,-0.056473392993211746,-0.004313361365348101
1759338867475526100,4.968526123046875,-0.010591883212327957,-0.06025382876396179,-0.0038137442898005247
1759338867485568500,4.978568603515625,0.004030244890600443,-0.07342706620693207,-0.00481297867372632
1759338867495613000,4.988613037109375,0.012340543791651726,-0.06889720261096954,-0.0020817380864173174
1759338867505653500,4.998653564453125,0.014305704273283482,-0.04854613170027733,0.0026812786236405373
1759338867515697700,5.00869775390625,0.01408920343965292,-0.025247320532798767,0.006211906671524048
1759338867525739500,5.018739501953125,0.01467209029942751,-0.007777373772114515,0.0061785988509655
1759338867535781600,5.02878173828125,0.015155053697526455,0.0014488897286355495,0.0044632465578615665
1759338867545825800,5.03882568359375,0.016021056100726128,0.006694869603961706,0.0038637060206383467
1759338867555868000,5.048867919921875,0.015271631069481373,0.008643376640975475,0.002414816292002797
1759338867565911300,5.058911376953125,0.012806852348148823,0.010874999687075615,-0.00003330780964461155
1759338867575952600,5.06895263671875,0.009759188629686832,0.008959800936281681,-0.0015155053697526455
1759338867585995500,5.07899560546875,0.00592879019677639,0.007893950678408146,0.0015321592800319195
1759338867596038700,5.08903857421875,0.0022649310994893312,0.018186064437031746,0.005579058080911636
1759338867606081300,5.099081298828125,-0.00004996171628590673,0.03314127027988434,0.010825037956237793
1759338867616124000,5.1091240234375,0.0012990045361220837,0.037721093744039536,0.015771247446537018
1759338867626167300,5.119167236328125,0.0053958650678396225,0.03119276463985443,0.0210005734115839
1759338867636209700,5.129209716796875,0.008993108756840229,0.02914433367550373,0.024447932839393616
1759338867646251500,5.13925146484375,0.00857676099985838,0.0387369841337204,0.026562977582216263
1759338867656297000,5.149296875,0.005812212824821472,0.047830015420913696,0.027545558288693428
1759338867666337000,5.1593369140625,0.003414050443097949,0.05382541939616203,0.026579631492495537
1759338867676381200,5.169381103515625,0.0017653139075264335,0.05242649093270302,0.02667955495417118
1759338867686423000,5.179423095703125,0.002897779457271099,0.049328867346048355,0.02704594098031521
1759338867696468700,5.18946875,0.004263399634510279,0.047147203236818314,0.02488093450665474
1759338867706508300,5.19950830078125,0.0054458267986774445,0.044948890805244446,0.02468108758330345
1759338867716552400,5.209552490234375,0.0054458267986774445,0.04161810874938965,0.024414625018835068
1759338867726594300,5.21959423828125,0.004862940404564142,0.041101835668087006,0.024481240659952164
1759338867736636400,5.229636474609375,0.004846286494284868,0.0350564680993557,0.02321554347872734
1759338867746679600,5.239679443359375,0.003447358263656497,0.02229957841336727,0.021866576746106148
1759338867756722400,5.249722412109375,0.0053958650678396225,0.011208077892661095,0.024064892902970314
1759338867766766800,5.259766845703125,0.003913667518645525,0.01450555119663477,0.023865045979619026
1759338867776809500,5.2698095703125,0.0045964778400957584,0.01961830072104931,0.020883996039628983
1759338867786850800,5.279850830078125,0.004246745724231005,0.013439700938761234,0.017969563603401184
1759338867796893200,5.28989306640625,0.007227794732898474,-0.0001332312385784462,0.013522970490157604
1759338867806936000,5.29993603515625,0.009992342442274094,-0.00712787127122283,0.009192955680191517
1759338867816980000,5.30997998046875,0.011674387380480766,-0.0007494257297366858,0.006295176222920418
1759338867827022600,5.320022705078125,0.01292342972010374,0.007094563450664282,0.005978751927614212
1759338867837065200,5.330065185546875,0.01425574254244566,0.0038303982000797987,0.003513973904773593
1759338867847106800,5.34010693359375,0.015854516997933388,-0.009642611257731915,0.0015821210108697414
1759338867857150200,5.350150146484375,0.0144222816452384,-0.015138399787247181,0.0020317763555794954
1759338867867193600,5.360193603515625,0.010874999687075615,-0.008926493115723133,0.0026979325339198112
1759338867877236700,5.37023681640625,0.006661561783403158,0.0026646247133612633,0.005212672054767609
1759338867887278600,5.380278564453125,0.002947741188108921,0.008643376640975475,0.0075275651179254055
1759338867897321700,5.39032177734375,0.0019485069205984473,0.005778905004262924,0.00962595734745264
1759338867907363800,5.40036376953125,0.002997702918946743,-0.003214203519746661,0.01244046725332737
1759338867917407700,5.41040771484375,0.002914433367550373,-0.011957503855228424,0.012756891548633575
1759338867927449600,5.42044970703125,0.0007827335502952337,-0.015105091966688633,0.015254977159202099
1759338867937492200,5.4304921875,-0.0008826569537632167,-0.01110815443098545,0.01850248873233795
1759338867947537200,5.440537109375,-0.002964395098388195,-0.010608537122607231,0.02429804764688015
1759338867957578000,5.450577880859375,-0.005046132951974869,-0.013406393118202686,0.027562212198972702
1759338867967620400,5.460620361328125,-0.006944678258150816,-0.01467209029942751,0.02876129373908043
1759338867977663000,5.4706630859375,-0.005912136286497116,-0.014938552863895893,0.028794601559638977
1759338867987706000,5.4807060546875,-0.004996171221137047,-0.013189892284572124,0.027162518352270126
1759338867997748700,5.490748779296875,-0.003513973904773593,-0.009093032218515873,0.024081546813249588
1759338868007791000,5.500791015625,-0.002847817726433277,-0.004396630916744471,0.023032350465655327
1759338868017837000,5.510837158203125,-0.0014488897286355495,-0.004379977006465197,0.021616768091917038
1759338868027878100,5.520878173828125,-0.002831163816154003,-0.006278522312641144,0.018102794885635376
1759338868037920300,5.530920166015625,-0.003214203519746661,-0.007244448643177748,0.017753062769770622
1759338868047965000,5.54096484375,-0.003130934201180935,-0.0045132082886993885,0.017253445461392403
1759338868058005500,5.551005615234375,-0.002314892830327153,-0.0005995405954308808,0.014722052030265331
1759338868068048000,5.5610478515625,-0.0015155053697526455,-0.0008660030434839427,0.013473008759319782
1759338868078090800,5.5710908203125,0.0008326952229253948,-0.002314892830327153,0.011074846610426903
1759338868088134100,5.581134033203125,0.0017153521766886115,-0.003513973904773593,0.009659265168011189
1759338868098177300,5.59117724609375,0.0011324655497446656,-0.0021983154583722353,0.009426110424101353
1759338868108218600,5.601218505859375,-0.00016653904458507895,-0.0006994639988988638,0.013123276643455029
1759338868118262500,5.611262451171875,0.00009992343257181346,0.002448124112561345,0.015171707607805729
1759338868128306000,5.621305908203125,-0.00019984686514362693,0.0013323123566806316,0.015188361518085003
1759338868138350300,5.631350341796875,0.0005995405954308808,-0.0012157351011410356,0.014372319914400578
1759338868148390700,5.641390625,0.0012990045361220837,-0.0024980856105685234,0.01014222763478756
1759338868158433800,5.651433837890625,0.0021483537275344133,-0.0025647012516856194,0.003164242021739483
1759338868168475600,5.6614755859375,0.0017653139075264335,0.0013989279977977276,-0.004263399634510279
1759338868178518500,5.6715185546875,0.0018818912794813514,0.007843988947570324,-0.008943147026002407
1759338868188561700,5.681561767578125,0.0012656967155635357,0.008343606255948544,-0.013406393118202686
1759338868198605000,5.69160498046875,0.0007660796400159597,0.0016653904458507895,-0.017386676743626595
1759338868208647400,5.7016474609375,-0.0011324655497446656,-0.005728943273425102,-0.01698698289692402
1759338868218691000,5.711691162109375,-0.003447358263656497,-0.007227794732898474,-0.013106622733175755
1759338868228733200,5.721733154296875,-0.004929556045681238,-0.002348200650885701,-0.010175535455346107
1759338868238774000,5.73177392578125,-0.006445060949772596,0.0027145864441990852,-0.011990811675786972
1759338868248818700,5.741818603515625,-0.006111983209848404,0.003031010739505291,-0.0160377100110054
1759338868258861000,5.751861083984375,-0.00464643957093358,-0.002364854561164975,-0.020234493538737297
1759338868268904000,5.761904052734375,-0.005795558914542198,-0.006328484043478966,-0.02687940187752247
1759338868278945500,5.771945556640625,-0.009592649526894093,-0.0018985451897606254,-0.03132599592208862
1759338868288990200,5.781990234375,-0.013656201772391796,0.00646171486005187,-0.03284149989485741
1759338868299033000,5.792033203125,-0.016021056100726128,0.002881125546991825,-0.030593223869800568
1759338868309076500,5.802076416015625,-0.0168704055249691,-0.003031010739505291,-0.023398736491799355
1759338868319117300,5.812117431640625,-0.016504019498825073,-0.004163476172834635,-0.015088438056409359
1759338868329161700,5.82216162109375,-0.015138399787247181,-0.005862174555659294,-0.0076108346693217754
1759338868339203600,5.83220361328125,-0.01547147799283266,-0.00712787127122283,-0.0007327718194574118
1759338868349246000,5.842245849609375,-0.01475535985082388,-0.00997568853199482,0.003414050443097949
1759338868359287000,5.852287109375,-0.01433901209384203,-0.011074846610426903,0.006245214492082596
1759338868369332000,5.86233203125,-0.013289815746247768,-0.014905245043337345,0.008593414910137653
1759338868379373600,5.87237353515625,-0.012756891548633575,-0.015055130235850811,0.007410987745970488
1759338868389417200,5.882417236328125,-0.013156584464013577,-0.015671323984861374,0.0027312403544783592
1759338868399459000,5.892458984375,-0.012457121163606644,-0.016670558601617813,-0.003480666084215045
1759338868409504300,5.902504150390625,-0.01194084994494915,-0.016170941293239594,-0.0072111408226192
1759338868419545900,5.9125458984375,-0.012573698535561562,-0.009242917411029339,-0.011208077892661095
1759338868429589000,5.922589111328125,-0.014688744209706783,-0.005645673722028732,-0.014472243376076221
1759338868439630000,5.932630126953125,-0.016720520332455635,-0.008643376640975475,-0.01778637059032917
1759338868449674800,5.9426748046875,-0.015971094369888306,-0.01547147799283266,-0.019485069438815117
1759338868459717400,5.95271728515625,-0.014155819080770016,-0.024181470274925232,-0.021983154118061066
1759338868469760300,5.96276025390625,-0.011990811675786972,-0.029327526688575745,-0.02484762668609619
1759338868479779000,5.972779052734375,-0.008393567986786366,-0.03114280290901661,-0.0271791722625494
1759338868489845200,5.98284521484375,-0.005012825131416321,-0.027462288737297058,-0.031542494893074036
1759338868499886600,5.992886474609375,-0.0038970138411968946,-0.01670386642217636,-0.037138208746910095
1759338868509930200,6.00293017578125,-0.005046132951974869,-0.006811446975916624,-0.04591481387615204
1759338868519972600,6.01297265625,-0.005978751927614212,-0.007094563450664282,-0.05505780875682831
1759338868530015000,6.023014892578125,-0.004846286494284868,-0.01657063513994217,-0.06278522312641144
1759338868540057900,6.033057861328125,-0.003330780891701579,-0.02125038206577301,-0.07006298005580902
1759338868550100200,6.043100341796875,-0.0016653904458507895,-0.0168704055249691,-0.08070482313632965
1759338868560144600,6.05314453125,-0.0013656201772391796,-0.012823506258428097,-0.0923292487859726
1759338868570188500,6.0631884765625,-0.0010825038189068437,-0.009892419911921024,-0.10643510520458221
1759338868580230700,6.073230712890625,0.0006161945057101548,-0.011641079559922218,-0.11790964752435684
1759338868590271500,6.083271484375,0.0011657733703032136,-0.019468415528535843,-0.12673620879650116
1759338868600315100,6.093315185546875,-0.0011990811908617616,-0.026779478415846825,-0.1359291672706604
1759338868610357200,6.103357177734375,-0.006611600052565336,-0.030626531690359116,-0.1437065452337265
1759338868620399000,6.113399169921875,-0.01169104129076004,-0.033674195408821106,-0.14825305342674255
1759338868630444000,6.123444091796875,-0.01590447872877121,-0.037754401564598083,-0.15070118010044098
1759338868640486400,6.133486328125,-0.022899119183421135,-0.035972435027360916,-0.15393203496932983
1759338868650530600,6.143530517578125,-0.03294142335653305,-0.02687940187752247,-0.15886159241199493
1759338868660570600,6.153570556640625,-0.039503064006567,-0.012290582060813904,-0.16280856728553772
1759338868670616000,6.163615966796875,-0.038720328360795975,-0.003147588111460209,-0.17103560268878937
1759338868680656100,6.17365625,-0.032708268612623215,-0.009342840872704983,-0.18241022527217865
1759338868690700000,6.183699951171875,-0.018469180911779404,-0.028161752969026566,-0.19088706374168396
1759338868700742100,6.1937421875,-0.003647205187007785,-0.04095195233821869,-0.19948047399520874
1759338868710785300,6.203785400390625,0.008360260166227818,-0.05201014503836632,-0.21488533914089203
1759338868720828400,6.213828369140625,0.011840926483273506,-0.06150287017226219,-0.23601913452148438
1759338868730871300,6.223871337890625,0.007261102553457022,-0.07076244056224823,-0.2601173520088196
1759338868740912600,6.23391259765625,0.003031010739505291,-0.07835662364959717,-0.2799854576587677
1759338868750957000,6.24395703125,0.0016487365355715156,-0.08769946545362473,-0.3001366853713989
1759338868760997400,6.253997314453125,-0.0016154287150129676,-0.08088801801204681,-0.3298472464084625
1759338868771025000,6.26402490234375,-0.0053625572472810745,-0.05993740260601044,-0.3647371828556061
1759338868781083600,6.274083740234375,-0.0038637060206383467,-0.040352411568164825,-0.4009094536304474
1759338868791126800,6.284126708984375,0.003613897366449237,-0.03765447810292244,-0.4324186444282532
1759338868801172000,6.294171875,0.016770482063293457,-0.0559571199119091,-0.45650017261505127
1759338868811212800,6.304212890625,0.02939414232969284,-0.08271994441747665,-0.4673418700695038
1759338868821257200,6.31425732421875,0.03432369604706764,-0.08558441698551178,-0.46336159110069275
1759338868831299000,6.324299072265625,0.026696208864450455,-0.054208461195230484,-0.46627601981163025
1759338868841340200,6.334340087890625,0.010108919814229012,-0.0008160413126461208,-0.4837293326854706
1759338868851386000,6.34438623046875,-0.0018485834589228034,0.07231125235557556,-0.5064452290534973
1759338868861426000,6.354426025390625,-0.0045631700195372105,0.14880263805389404,-0.5403359532356262
1759338868871469800,6.3644697265625,0.0008826569537632167,0.21190428733825684,-0.5851682424545288
1759338868881513500,6.374513427734375,0.014072549529373646,0.266595721244812,-0.6253041625022888
1759338868891553800,6.3845537109375,0.034173812717199326,0.3375246822834015,-0.6586119532585144
1759338868901595600,6.394595703125,0.03903675451874733,0.42372530698776245,-0.7038606405258179
1759338868911640600,6.404640625,0.02851148508489132,0.5224329829216003,-0.758552074432373
1759338868921684700,6.414684814453125,-0.0006328483577817678,0.6154617071151733,-0.8218535780906677
1759338868931725000,6.42472509765625,-0.035972435027360916,0.6792794466018677,-0.8958468437194824
1759338868941768400,6.4347685546875,-0.07833997160196304,0.6726845502853394,-0.969507098197937
1759338868951812000,6.44481201171875,-0.12012461572885513,0.5797557234764099,-1.0473641157150269
1759338868961855500,6.45485546875,-0.1577957421541214,0.474836140871048,-1.1253043413162231
1759338868971896300,6.464896240234375,-0.19948047399520874,0.43906354904174805,-1.1713191270828247
1759338868981940000,6.47493994140625,-0.25182369351387024,0.450071781873703,-1.1822773218154907
1759338868991983000,6.484983154296875,-0.30613207817077637,0.45192036032676697,-1.1903212070465088
1759338869002025000,6.49502490234375,-0.3349766433238983,0.4529695510864258,-1.2028615474700928
1759338869012070400,6.5050703125,-0.3096294105052948,0.43491673469543457,-1.22504460811615
1759338869022109200,6.515109130859375,-0.2490258365869522,0.393198698759079,-1.285814642906189
1759338869032155400,6.5251552734375,-0.1768811196088791,0.2951238453388214,-1.4047569036483765
1759338869042195200,6.5351953125,-0.10167209059000015,0.16595615446567535,-1.5298444032669067
1759338869052240000,6.545239990234375,-0.024731049314141273,0.09137997776269913,-1.6184098720550537
1759338869062281700,6.55528173828125,0.035755932331085205,0.07963897287845612,-1.6641913652420044
1759338869072325600,6.56532568359375,0.07475937902927399,0.0647670328617096,-1.6792298555374146
1759338869082343200,6.57534326171875,0.11681048572063446,0.0022982389200478792,-1.6855417490005493
1759338869092385300,6.58538525390625,0.1725844144821167,-0.10828369110822678,-1.6898051500320435
1759338869102428000,6.595427978515625,0.20605877041816711,-0.19380149245262146,-1.7086073160171509
1759338869112470300,6.60547021484375,0.18800592422485352,-0.19754861295223236,-1.7508583068847656
1759338869122512600,6.6155126953125,0.13837729394435883,-0.14095865190029144,-1.7848656177520752
1759338869132545300,6.625545166015625,0.08954804390668869,-0.0645671859383583,-1.8052666187286377
1759338869142608600,6.635608642578125,0.06679881364107132,-0.038720328360795975,-1.8204716444015503
1759338869152651800,6.64565185546875,0.07995539903640747,-0.03595577925443649,-1.8501322269439697
1759338869162695400,6.6556953125,0.12287250906229019,-0.01715352199971676,-1.900177240371704
1759338869172752600,6.665752685546875,0.1793125867843628,-0.11359628289937973,-1.9504554271697998
1759338869182793200,6.675793212890625,0.22762556374073029,-0.237418070435524,-1.9599480628967285
1759338869192838400,6.68583837890625,0.24073219299316406,-0.24083212018013,-1.932136058807373
1759338869202879000,6.69587890625,0.2442295104265213,-0.16280856728553772,-1.902975082397461
1759338869212923100,6.705923095703125,0.24786005914211273,-0.07151186466217041,-1.9055397510528564
1759338869222966000,6.715966064453125,0.2730907201766968,-0.047197166830301285,-1.923026442527771
1759338869233007600,6.726007568359375,0.2985711991786957,-0.0011657733703032136,-1.9193958044052124
1759338869243050000,6.736050048828125,0.2937415838241577,0.028827909380197525,-1.9146661758422852
1759338869253094100,6.74609423828125,0.24064892530441284,0.08821573108434677,-1.9018925428390503
1759338869263136300,6.75613623046875,0.21475210785865784,0.16692209243774414,-1.869767189025879
1759338869273179600,6.7661796875,0.23585259914398193,0.23656871914863586,-1.8473676443099976
1759338869283221000,6.776220947265625,0.30063629150390625,0.28286656737327576,-1.8163248300552368
1759338869293265400,6.786265380859375,0.3069148063659668,0.3161410689353943,-1.7815847396850586
1759338869303307000,6.79630712890625,0.29432445764541626,0.315025269985199,-1.7490097284317017
1759338869313350400,6.806350341796875,0.2652634084224701,0.3126104474067688,-1.7461119890213013
1759338869323394300,6.816394287109375,0.2366020232439041,0.34736713767051697,-1.772375226020813
1759338869333436000,6.826435791015625,0.22456125915050507,0.4215436279773712,-1.8080644607543945
1759338869343477200,6.836477294921875,0.21983154118061066,0.5329915881156921,-1.857843041419983
1759338869353520400,6.846520263671875,0.18943816423416138,0.6567800641059875,-1.9243754148483276
1759338869363566000,6.856566162109375,0.09604307264089584,0.6670554876327515,-1.9991180896759033
1759338869373606000,6.86660595703125,0.01875229738652706,0.46849098801612854,-2.0079612731933594
1759338869383648300,6.876648193359375,0.006944678258150816,0.24879267811775208,-1.9525370597839355
1759338869393692200,6.886692138671875,0.04792993888258934,0.15463151037693024,-1.9530867338180542
1759338869403735300,6.8967353515625,0.11909207701683044,0.24850957095623016,-2.0140066146850586
1759338869413778400,6.9067783203125,0.13559609651565552,0.31507521867752075,-2.0399701595306396
1759338869423821300,6.9168212890625,0.08798258006572723,0.3455352187156677,-2.0401198863983154
1759338869433862400,6.9268623046875,0.04879594221711159,0.2652134299278259,-2.047814130783081
1759338869443905000,6.936905029296875,0.010575229302048683,0.13574597239494324,-2.0291616916656494
1759338869453948400,6.946948486328125,-0.06758154928684235,0.10695137828588486,-2.005229949951172
1759338869463993600,6.95699365234375,-0.08878196775913239,0.13494658470153809,-1.9558179378509521
1759338869474035200,6.96703515625,-0.08278656005859375,0.05077775567770004,-1.9196289777755737
1759338869484076000,6.977075927734375,-0.1037871316075325,0.10856680572032928,-1.9117350578308105
1759338869494118400,6.987118408203125,-0.1079506129026413,0.14195787906646729,-1.9060560464859009
1759338869504161000,6.9971611328125,-0.10475306212902069,0.14637117087841034,-1.9071385860443115
1759338869514205700,7.007205810546875,-0.10528598725795746,0.13251511752605438,-1.9046404361724854
1759338869524250000,7.01725,-0.11686044931411743,0.11176435649394989,-1.8884196281433105
1759338869534291000,7.027291015625,-0.1145455539226532,0.04947875067591667,-1.8672524690628052
1759338869544333000,7.0373330078125,-0.114412322640419,0.007011293899267912,-1.8443700075149536
1759338869554376000,7.0473759765625,-0.09069716930389404,0.0026979325339198112,-1.8164247274398804
1759338869564427300,7.05742724609375,-0.09361159801483154,-0.06191921979188919,-1.8039510250091553
1759338869574462200,7.067462158203125,-0.08513475954532623,-0.03160911053419113,-1.7844159603118896
1759338869584503300,7.07750341796875,-0.04320022836327553,-0.0011990811908617616,-1.7810184955596924
1759338869594545700,7.087545654296875,-0.014805321581661701,-0.029877105727791786,-1.766746163368225
1759338869604590600,7.097590576171875,0.017303407192230225,-0.024864280596375465,-1.7673790454864502
1759338869614634000,7.107634033203125,0.04971190541982651,-0.010675152763724327,-1.781135082244873
1759338869624676400,7.11767626953125,0.09417783468961716,0.045898161828517914,-1.7862311601638794
1759338869634718200,7.12771826171875,0.13589586317539215,0.06749827414751053,-1.7816513776779175
1759338869644761000,7.137760986328125,0.15393203496932983,0.06241883710026741,-1.7721420526504517
1759338869654803000,7.147802978515625,0.1269693672657013,0.010125573724508286,-1.7285587787628174
1759338869664841500,7.157841552734375,0.045198697596788406,-0.06959667056798935,-1.6615434885025024
1759338869674889000,7.167888916015625,-0.036305513232946396,-0.07239452749490738,-1.5793397426605225
1759338869684932400,7.177932373046875,-0.05728943273425102,0.012057427316904068,-1.4922897815704346
1759338869694973700,7.1879736328125,-0.02086734212934971,0.12034111469984055,-1.401509404182434
1759338869705016600,7.1980166015625,0.032425154000520706,0.16920366883277893,-1.306831955909729
1759338869715061800,7.208061767578125,0.05832197517156601,0.22199654579162598,-1.2127207517623901
1759338869725101800,7.218101806640625,0.039503064006567,0.29945385456085205,-1.1250545978546143
1759338869735145000,7.22814501953125,-0.003197549842298031,0.3266163766384125,-1.0544086694717407
1759338869745187300,7.238187255859375,-0.0440828874707222,0.3437199294567108,-0.9883759617805481
1759338869755230500,7.24823046875,-0.06806451082229614,0.3863539397716522,-0.9420781135559082
1759338869765272600,7.2582724609375,-0.08288648724555969,0.4364655315876007,-0.9226263165473938
1759338869775315000,7.26831494140625,-0.085667684674263,0.43058669567108154,-0.8877030611038208
1759338869785358300,7.2783583984375,-0.07887289673089981,0.39075055718421936,-0.8420214056968689
1759338869795403300,7.2884033203125,-0.08223698288202286,0.36886733770370483,-0.7811514139175415
1759338869805443600,7.298443603515625,-0.08548448979854584,0.35602718591690063,-0.7011293768882751
1759338869815486000,7.30848583984375,-0.08220367133617401,0.2824002504348755,-0.6044034957885742
1759338869825531400,7.318531494140625,-0.08375249058008194,0.19843128323554993,-0.5085769295692444
1759338869835571700,7.32857177734375,-0.08207044005393982,0.13013361394405365,-0.42537403106689453
1759338869845614800,7.33861474609375,-0.07562538236379623,0.09907408058643341,-0.3569931089878082
1759338869855659000,7.348658935546875,-0.07231125235557556,0.06406757235527039,-0.30543261766433716
1759338869865702000,7.358701904296875,-0.0653998851776123,0.02116711251437664,-0.2609500288963318
1759338869875744300,7.368744140625,-0.050244830548763275,-0.018269333988428116,-0.21315333247184753
1759338869885785600,7.37878564453125,-0.045898161828517914,-0.04926225170493126,-0.16680550575256348
1759338869895828700,7.388828857421875,-0.04238418862223625,-0.07287748903036118,-0.11692706495523453
1759338869905872600,7.39887255859375,-0.015754593536257744,-0.17899617552757263,-0.06330148875713348
1759338869915915300,7.408915283203125,-0.03217534348368645,-0.19844792783260345,-0.027062594890594482
1759338869925958100,7.418958251953125,-0.05414184555411339,-0.21939854323863983,0.003497319994494319
1759338869935998700,7.428998779296875,-0.052543070167303085,-0.27717092633247375,0.022516079246997833
1759338869946041000,7.439041015625,-0.09657599776983261,-0.3230358064174652,0.041518185287714005
1759338869956085000,7.4490849609375,-0.11171439290046692,-0.3147088289260864,0.05374215170741081
1759338869966128400,7.45912841796875,-0.131632462143898,-0.3746629059314728,0.0773407369852066
1759338869976170500,7.46917041015625,-0.12165677547454834,-0.3838558495044708,0.07342706620693207
1759338869986213600,7.479213623046875,-0.11884226649999619,-0.39671266078948975,0.03920329362154007
1759338869996254200,7.489254150390625,-0.13131603598594666,-0.3846718966960907,-0.00024980856687761843
1759338870006300400,7.499300537109375,-0.11263035982847214,-0.3389236032962799,-0.025230666622519493
1759338870016340700,7.5093408203125,-0.126419797539711,-0.2761717140674591,-0.024481240659952164
1759338870026386200,7.51938623046875,-0.15977756679058075,-0.3177398443222046,-0.010042304173111916
1759338870036427300,7.52942724609375,-0.13028350472450256,-0.31659072637557983,-0.07435968518257141
1759338870046468600,7.539468505859375,-0.09717553108930588,-0.3482831120491028,-0.18853884935379028
1759338870056513300,7.54951318359375,-0.1115645095705986,-0.36415427923202515,-0.26516348123550415
1759338870066554600,7.5595546875,-0.12483767420053482,-0.30946284532546997,-0.26181602478027344
1759338870076599300,7.569599365234375,-0.12602010369300842,-0.17060260474681854,-0.21816615760326385
1759338870086640600,7.579640625,-0.11867572367191315,-0.07542553544044495,-0.19110356271266937
1759338870096683500,7.58968359375,-0.09186293929815292,-0.07197817414999008,-0.20011332631111145
1759338870106726000,7.599725830078125,-0.06603273004293442,-0.09952373802661896,-0.21586792171001434
1759338870116768800,7.609768798828125,-0.06441730260848999,-0.1811944842338562,-0.22412824630737305
1759338870126810600,7.619810546875,-0.03798755630850792,-0.18927162885665894,-0.2586517930030823
1759338870136854800,7.629854736328125,-0.02601339854300022,-0.2352697104215622,-0.2837325632572174
1759338870146898000,7.63989794921875,-0.03210872784256935,-0.25064125657081604,-0.29160988330841064
1759338870156939800,7.649939697265625,-0.044782351702451706,-0.17718088626861572,-0.2734071612358093
1759338870166984000,7.65998388671875,-0.06010394170880318,-0.10473641008138657,-0.23848392069339752
1759338870177025300,7.670025390625,-0.06145291030406952,-0.06233556568622589,-0.20897319912910461
1759338870187068000,7.68006787109375,-0.04518204554915428,-0.06738170236349106,-0.1928522139787674
1759338870197110800,7.69011083984375,-0.03465677425265312,-0.0983746126294136,-0.18788935244083405
1759338870207154000,7.70015380859375,-0.024914242327213287,-0.1280185729265213,-0.17919601500034332
1759338870217196500,7.710196533203125,-0.01723679155111313,-0.1566799432039261,-0.1597442477941513
1759338870227238700,7.72023876953125,-0.014239088632166386,-0.1736336052417755,-0.1348966360092163
1759338870237283000,7.730282958984375,-0.011391270905733109,-0.11699368059635162,-0.11955837905406952
1759338870247325700,7.74032568359375,-0.013972626067698002,-0.08714988082647324,-0.10801722854375839
1759338870257367600,7.750367431640625,-0.018019525334239006,-0.06826435774564743,-0.09569333493709564
1759338870267409200,7.7604091796875,-0.01933518424630165,-0.05670654773712158,-0.08508480340242386
1759338870277452000,7.7704521484375,-0.013656201772391796,-0.043899692595005035,-0.07319391518831253
1759338870287494100,7.780494140625,-0.005778905004262924,-0.034506890922784805,-0.06067017465829849
1759338870297538600,7.79053857421875,0.005562404170632362,-0.03152584284543991,-0.04791328310966492
1759338870307582000,7.80058203125,0.020567571744322777,-0.03455685079097748,-0.03424042835831642
1759338870317624000,7.8106240234375,0.034456927329301834,-0.03958633169531822,-0.014688744209706783
1759338870327651600,7.820651611328125,0.046864088624715805,-0.04345003888010979,0.002814509905874729
1759338870337684000,7.83068408203125,0.06020386517047882,-0.04286715015769005,0.01458882074803114
1759338870347752000,7.840751953125,0.07274425774812698,-0.029327526688575745,0.015604709275066853
1759338870357793000,7.85079296875,0.08328618109226227,-0.00832695234566927,0.013156584464013577
1759338870367837700,7.860837646484375,0.08666691929101944,0.013989279977977276,0.009476072154939175
1759338870377880000,7.870880126953125,0.08806584775447845,0.02551378309726715,0.0082436827942729
1759338870387924200,7.88092431640625,0.08939816057682037,0.02529728226363659,0.009176301769912243
1759338870397964500,7.890964599609375,0.08951473981142044,0.022566040977835655,0.010725114494562149
1759338870408007700,7.901007568359375,0.08878196775913239,0.022033115848898888,0.013856048695743084
1759338870418049800,7.9110498046875,0.08245348185300827,0.017603177577257156,0.01748660020530224
1759338870428094000,7.921093994140625,0.0735936090350151,0.021133804693818092,0.020434340462088585
1759338870438134500,7.931134521484375,0.06598277390003204,0.034173812717199326,0.01623755693435669
1759338870448178200,7.94117822265625,0.0572061613202095,0.04922894388437271,0.0038303982000797987
1759338870458221600,7.9512216796875,0.04706393554806709,0.07117878645658493,-0.017469946295022964
1759338870468263400,7.961263427734375,0.039602987468242645,0.07958900928497314,-0.0374879390001297
1759338870478306600,7.971306640625,0.03585585579276085,0.08873200416564941,-0.04378311708569527
1759338870488350200,7.98135009765625,0.03835394233465195,0.08578426390886307,-0.037254784256219864
1759338870498391800,7.991391845703125,0.04409953951835632,0.07695769518613815,-0.02617993764579296
1759338870508433700,8.00143359375,0.04621458426117897,0.0690803974866867,-0.015837863087654114
1759338870518479600,8.011479736328125,0.053209226578474045,0.05402526631951332,-0.00807714369148016
1759338870528520200,8.021520263671874,0.05842189863324165,0.03439031168818474,-0.00009992343257181346
1759338870538561800,8.031561767578125,0.052959416061639786,0.009009762667119503,0.003580589545890689
1759338870548606700,8.041606689453126,0.042683959007263184,-0.017253445461392403,0.0025313934311270714
1759338870558648600,8.051648681640625,0.031242726370692253,-0.03399062156677246,-0.003464012173935771
1759338870568691500,8.06169140625,0.016437403857707977,-0.03460681438446045,-0.010158881545066833
1759338870578734300,8.071734375,0.0015821210108697414,-0.026329822838306427,-0.013106622733175755
1759338870588776700,8.081776611328126,-0.01292342972010374,-0.018136102706193924,-0.014705398119986057
1759338870598819600,8.091819580078125,-0.02296573482453823,-0.014705398119986057,-0.012940083630383015
1759338870608861400,8.101861328125,-0.032208651304244995,-0.010808384045958519,-0.009276225231587887
1759338870618904800,8.11190478515625,-0.04295042157173157,-0.0026479708030819893,-0.007094563450664282
1759338870628947000,8.121947021484376,-0.054674770683050156,0.003930321428924799,-0.005695635452866554
1759338870638990600,8.131990478515625,-0.06633250415325165,0.007660796400159597,-0.005629019811749458
1759338870649034800,8.14203466796875,-0.07442630082368851,0.004879594314843416,-0.007710758130997419
1759338870659075600,8.15207568359375,-0.08132101595401764,-0.005112748593091965,-0.00849349144846201
1759338870669120300,8.162120361328125,-0.08411887288093567,-0.018469180911779404,-0.008443529717624187
1759338870679159800,8.172159912109375,-0.08280321210622787,-0.031542494893074036,-0.0037304747384041548
1759338870689204500,8.18220458984375,-0.08087135851383209,-0.0399860255420208,0.0008160413126461208
1759338870699246800,8.192246826171875,-0.07594180852174759,-0.04053560271859169,0.003680513007566333
1759338870709290200,8.202290283203125,-0.0742098018527031,-0.030426684767007828,0.0015987749211490154
1759338870719332000,8.21233203125,-0.07126206159591675,-0.014605474658310413,-0.002781202085316181
1759338870729375200,8.222375244140625,-0.0670652762055397,-0.003930321428924799,-0.007760719861835241
1759338870739417600,8.23241748046875,-0.059687595814466476,-0.007244448643177748,-0.009426110424101353
1759338870749461500,8.24246142578125,-0.049578674137592316,-0.014938552863895893,-0.009759188629686832
1759338870759503600,8.252503662109374,-0.03792094066739082,-0.02249942533671856,-0.009642611257731915
1759338870769544700,8.262544677734375,-0.02588016726076603,-0.026746170595288277,-0.008210374973714352
1759338870779587300,8.27258740234375,-0.014055895619094372,-0.022949080914258957,-0.00987576600164175
1759338870789630700,8.282630615234375,-0.0017653139075264335,-0.01014222763478756,-0.013323123566806316
1759338870799675400,8.29267529296875,0.007227794732898474,0.003097626380622387,-0.01786964014172554
1759338870809717800,8.3027177734375,0.01538820844143629,0.008276990614831448,-0.022366194054484367
1759338870819760400,8.312760498046876,0.022183001041412354,0.006778139155358076,-0.024447932839393616
1759338870829802800,8.322802734375,0.02822836861014366,0.0025813551619648933,-0.02374846860766411
1759338870839846100,8.33284619140625,0.0320754200220108,-0.0018319295486435294,-0.019768185913562775
1759338870849886000,8.342885986328126,0.03360757976770401,-0.004379977006465197,-0.015171707607805729
1759338870859930000,8.35293017578125,0.03240849822759628,-0.0022815850097686052,-0.012706929817795753
1759338870869973500,8.362973388671875,0.03159245848655701,0.003414050443097949,-0.016254210844635963
1759338870880014600,8.3730146484375,0.027379019185900688,0.01022549718618393,-0.01861906610429287
1759338870890057000,8.383056884765624,0.023282159119844437,0.014722052030265331,-0.015005168505012989
1759338870900101600,8.3931015625,0.019768185913562775,0.014155819080770016,-0.007144525181502104
1759338870910143200,8.403143310546875,0.017170175909996033,0.007094563450664282,0.003230857430025935
1759338870920187600,8.413187744140625,0.013273161835968494,0,0.011457886546850204
1759338870930228700,8.423228759765625,0.008776607923209667,-0.006045367568731308,0.017919601872563362
1759338870940271400,8.433271240234374,0.002981049008667469,-0.0054458267986774445,0.021700037643313408
1759338870950313200,8.443313232421875,-0.003480666084215045,0,0.022399501875042915
1759338870960356600,8.453356689453125,-0.009342840872704983,0.00567898154258728,0.019851455464959145
1759338870970400500,8.463400390625,-0.012590352445840836,0.005912136286497116,0.014855283312499523
1759338870980442000,8.473442138671874,-0.015837863087654114,-0.0002165007608709857,0.010375382378697395
1759338870990483700,8.483483642578125,-0.017170175909996033,-0.009592649526894093,0.006361791864037514
1759338871000527000,8.493527099609375,-0.015421516261994839,-0.01958499290049076,0.004613131750375032
1759338871010571500,8.503571533203125,-0.011124808341264725,-0.02216634713113308,0.003414050443097949
1759338871020613400,8.51361328125,-0.00841022189706564,-0.013872702606022358,0.0007327718194574118
1759338871030655700,8.52365576171875,-0.005179364234209061,-0.00048296325257979333,-0.0026479708030819893
1759338871040699000,8.533698974609376,-0.0016653904458507895,0.010192189365625381,-0.008343606255948544
1759338871050741200,8.5437412109375,0.0026479708030819893,0.01160777173936367,-0.014538859017193317
1759338871060783600,8.55378369140625,0.006245214492082596,0.002364854561164975,-0.01673717424273491
1759338871070827500,8.56382763671875,0.011008230969309807,-0.00962595734745264,-0.01765313930809498
1759338871080871000,8.573870849609374,0.01670386642217636,-0.020101262256503105,-0.01970157027244568
1759338871090910500,8.583910400390625,0.020317763090133667,-0.021899884566664696,-0.022899119183421135
1759338871100955100,8.593955078125,0.022016461938619614,-0.01803617924451828,-0.026896055787801743
1759338871110997500,8.60399755859375,0.02324885129928589,-0.006994639988988638,-0.03177564963698387
1759338871121041000,8.614041015625,0.023398736491799355,0.009859112091362476,-0.03878694400191307
1759338871131084300,8.624084228515626,0.02488093450665474,0.027961906045675278,-0.04954536631703377
1759338871141125400,8.63412548828125,0.028028521686792374,0.04576493054628372,-0.05858843773603439
1759338871151167200,8.644167236328125,0.031292688101530075,0.062152374535799026,-0.06418415158987045
1759338871161211000,8.6542109375,0.037587862461805344,0.06959667056798935,-0.06579957902431488
1759338871171253200,8.664253173828126,0.04599808529019356,0.06964662671089172,-0.06946343928575516
1759338871181297000,8.674296875,0.05419180542230606,0.06764816492795944,-0.07480934262275696
1759338871191339500,8.684339599609375,0.05740600824356079,0.07329383492469788,-0.0798388198018074
1759338871201383700,8.6943837890625,0.05570731312036514,0.08022186160087585,-0.08030512928962708
1759338871211423200,8.70442333984375,0.04763016849756241,0.08854880928993225,-0.07440964877605438
1759338871221467100,8.714467041015626,0.03715486079454422,0.10312097519636154,-0.06668223440647125
1759338871231509200,8.72450927734375,0.026313168928027153,0.12095730751752853,-0.05925459414720535
1759338871241552400,8.734552490234375,0.013456354849040508,0.13416385650634766,-0.05432503670454025
1759338871251593700,8.74459375,0.0054125189781188965,0.14264069497585297,-0.04718051105737686
1759338871261639400,8.754639404296874,0.0008493491332046688,0.14122511446475983,-0.042733918875455856
1759338871271681000,8.764680908203125,-0.003014356829226017,0.1305166482925415,-0.04374980926513672
1759338871281723400,8.774723388671875,-0.009409456513822079,0.12305570393800735,-0.047696784138679504
1759338871291765800,8.784765869140625,-0.02086734212934971,0.11391270905733109,-0.038720328360795975
1759338871301808000,8.79480810546875,-0.036005742847919464,0.11024884879589081,-0.026729516685009003
1759338871311852800,8.804852783203126,-0.05540754273533821,0.12069084495306015,-0.032458461821079254
1759338871321894400,8.814894287109375,-0.07780704647302628,0.14034245908260345,-0.057006314396858215
1759338871331935700,8.824935791015625,-0.09775841981172562,0.14289049804210663,-0.08759953826665878
1759338871341977600,8.8349775390625,-0.10520271956920624,0.12890122830867767,-0.1094827726483345
1759338871352021800,8.845021728515626,-0.11001569777727127,0.1296173483133316,-0.12848487496376038
1759338871362064100,8.855064208984375,-0.1104486957192421,0.1500183790922165,-0.14475573599338531
1759338871372107500,8.865107421875,-0.10367055982351303,0.15899482369422913,-0.15764586627483368
1759338871382150100,8.875150146484375,-0.10976588726043701,0.17551550269126892,-0.1718849539756775
1759338871392192300,8.885192138671876,-0.11439567059278488,0.19571669399738312,-0.18627393245697021
1759338871402235400,8.8952353515625,-0.11770980060100555,0.20336082577705383,-0.18495826423168182
1759338871412278800,8.90527880859375,-0.0935782939195633,0.20948946475982666,-0.17942917346954346
1759338871422321200,8.915321044921875,-0.05782235786318779,0.21939854323863983,-0.18041175603866577
1759338871432362500,8.925362548828126,-0.023998277261853218,0.22439470887184143,-0.1846751570701599
1759338871442408000,8.935407958984374,0.0020983919966965914,0.23503655195236206,-0.18477506935596466
1759338871452449500,8.945449462890625,0.028361599892377853,0.24689413607120514,-0.17454957962036133
1759338871462490400,8.955490478515625,0.0642174556851387,0.23878368735313416,-0.15318261086940765
1759338871472536000,8.9655361328125,0.07572530210018158,0.22747568786144257,-0.1253039836883545
1759338871482576100,8.975576171875,0.09882427006959915,0.2065250724554062,-0.11226397007703781
1759338871492619800,8.985619873046875,0.09061389416456223,0.20254479348659515,-0.1189255341887474
1759338871502661400,8.995661376953125,0.06561638414859772,0.2196483463048935,-0.13283154368400574
1759338871512704300,9.005704345703125,0.0453319288790226,0.20767419040203094,-0.143773153424263
1759338871522747000,9.015746826171876,0.00782733503729105,0.21973161399364471,-0.1550145447254181
1759338871532791000,9.025791015625,-0.046364471316337585,0.25823545455932617,-0.15173372626304626
1759338871542834700,9.035834716796876,-0.06874731928110123,0.2603338360786438,-0.13318127393722534
1759338871552876800,9.045876708984375,-0.04133499041199684,0.21546822786331177,-0.12348870187997818
1759338871562919000,9.0559189453125,-0.09282886236906052,0.21728350222110748,-0.15123410522937775
1759338871572961500,9.06596142578125,-0.11820941418409348,0.20960605144500732,-0.1684209406375885
1759338871583004000,9.07600390625,-0.1480032503604889,0.1943843811750412,-0.16479039192199707
1759338871593045800,9.086045654296875,-0.1094827726483345,0.1092662662267685,-0.14810317754745483
1759338871603089400,9.09608935546875,-0.1352297067642212,0.10999903827905655,-0.09166309237480164
1759338871613132000,9.106132080078124,-0.13639548420906067,0.09068050980567932,-0.04608135297894478
1759338871623176200,9.11617626953125,-0.13373085856437683,0.04594812169671059,-0.0308929942548275
1759338871633215700,9.1262158203125,-0.13834398984909058,0.03094295598566532,0.033124618232250214
1759338871643259600,9.136259765625,-0.15771247446537018,-0.05682312324643135,0.15413188934326172
1759338871653303000,9.146302978515624,-0.17305073142051697,-0.1986144632101059,0.2733072340488434
1759338871663344000,9.15634423828125,-0.14688743650913239,-0.371415376663208,0.3580089807510376
1759338871673388000,9.166387939453125,-0.05923793837428093,-0.4735870957374573,0.44177812337875366
1759338871683431400,9.176431396484375,0.055590733885765076,-0.3773108720779419,0.5326585173606873
1759338871693473000,9.18647314453125,0.24960872530937195,-0.21773314476013184,0.6189256906509399
1759338871703516700,9.1965166015625,0.44267743825912476,-0.10901646316051483,0.7000802159309387
1759338871713559600,9.2065595703125,0.5753424763679504,-0.06291845440864563,0.7984714508056641
1759338871723600000,9.216599853515625,0.6404592394828796,-0.06420080363750458,0.8784268498420715
1759338871733644000,9.22664404296875,0.6670055389404297,-0.10703464597463608,0.9437934160232544
1759338871743688200,9.236688232421875,0.6734505891799927,-0.18680685758590698,1.043666958808899
1759338871753729800,9.246729736328126,0.6592448353767395,-0.24024923145771027,1.1466879844665527
1759338871763774200,9.256774169921876,0.632182240486145,-0.2306898832321167,1.239033818244934
1759338871773814000,9.26681396484375,0.6035041809082031,-0.22272932529449463,1.313543438911438
1759338871783858700,9.276858642578125,0.5917798280715942,-0.24809321761131287,1.3783104419708252
1759338871793899500,9.2868994140625,0.5676483511924744,-0.2899111807346344,1.4547852277755737
1759338871803943000,9.29694287109375,0.46794140338897705,-0.16718855500221252,1.5154720544815063
1759338871813986300,9.306986328125,0.3972955644130707,-0.2000133991241455,1.5847523212432861
1759338871823992300,9.316992431640625,0.3699498474597931,-0.2642141878604889,1.685508370399475
1759338871834072800,9.32707275390625,0.309712678194046,-0.3176898956298828,1.7878632545471191
1759338871844114400,9.337114501953126,0.2159678339958191,-0.3201879858970642,1.8342278003692627
1759338871854155000,9.347155029296875,0.15859512984752655,-0.40170884132385254,1.8780275583267212
1759338871864198400,9.357198486328125,0.11271362751722336,-0.45017170906066895,1.92231023311615
1759338871874242300,9.3672421875,0.07127871364355087,-0.47593528032302856,1.956417441368103
1759338871884283000,9.377282958984376,0.02951071970164776,-0.47733423113822937,1.976651906967163
1759338871894327000,9.3873271484375,-0.0075442190282046795,-0.45615044236183167,1.9973527193069458
1759338871904370200,9.3973701171875,-0.013323123566806316,-0.425923615694046,2.026113986968994
1759338871914419700,9.407419677734374,-0.020983919501304626,-0.34936562180519104,2.03652286529541
1759338871924455700,9.41745556640625,-0.018335949629545212,-0.2867302894592285,2.048197031021118
1759338871934497800,9.427497802734376,-0.013239854015409946,-0.26424750685691833,2.056790590286255
1759338871944539600,9.43753955078125,-0.006911370437592268,-0.2528895437717438,2.05790638923645
1759338871954582300,9.447582275390625,-0.004280053544789553,-0.2533225417137146,2.0480473041534424
1759338871964600800,9.457600830078125,-0.009359494782984257,-0.288512259721756,2.0415854454040527
1759338871974673400,9.46767333984375,-0.017020290717482567,-0.3294808566570282,2.0394372940063477
1759338871984711700,9.477711669921876,-0.045198697596788406,-0.39566347002983093,2.035806655883789
1759338871994754300,9.48775439453125,-0.08043836057186127,-0.42780551314353943,2.0357067584991455
1759338872004795600,9.497795654296874,-0.10883326828479767,-0.4198116362094879,2.0260140895843506
1759338872014840300,9.50784033203125,-0.13529632985591888,-0.36277201771736145,2.009643316268921
1759338872024881400,9.51788134765625,-0.14851951599121094,-0.28043511509895325,1.977434754371643
1759338872034925000,9.527925048828125,-0.16052699089050293,-0.22296248376369476,1.9641448259353638
1759338872044967000,9.537966796875,-0.17345042526721954,-0.20026320219039917,1.9590654373168945
1759338872055009300,9.54800927734375,-0.1930687129497528,-0.1735503375530243,1.9454758167266846
1759338872065053400,9.558053466796874,-0.20524272322654724,-0.15776243805885315,1.9253911972045898
1759338872075095000,9.568094970703125,-0.19976358115673065,-0.15406526625156403,1.9120348691940308
1759338872085137400,9.578137451171875,-0.19753196835517883,-0.17160183191299438,1.9039742946624756
1759338872095180800,9.588180908203125,-0.16978655755519867,-0.10453656315803528,1.8514312505722046
1759338872105222700,9.59822265625,-0.15747933089733124,-0.0493621751666069,1.828615427017212
1759338872115267300,9.608267333984376,-0.16214241087436676,-0.022599348798394203,1.831912875175476
1759338872125308700,9.61830859375,-0.17951244115829468,-0.049745213240385056,1.8350105285644531
1759338872135350500,9.6283505859375,-0.23128943145275116,-0.1714686006307602,1.8729647397994995
1759338872145392000,9.63839208984375,-0.2643474340438843,-0.21801626682281494,1.8711661100387573
1759338872155436500,9.6484365234375,-0.2853813171386719,-0.22329555451869965,1.8526636362075806
1759338872165478100,9.65847802734375,-0.29773852229118347,-0.2308231145143509,1.829864501953125
1759338872175520300,9.668520263671875,-0.29987022280693054,-0.23420386016368866,1.8138433694839478
1759338872185564000,9.67856396484375,-0.29647281765937805,-0.2411651909351349,1.7993544340133667
1759338872195607300,9.688607177734376,-0.2958732843399048,-0.2838658094406128,1.7801191806793213
1759338872205650200,9.698650146484376,-0.28847894072532654,-0.29294219613075256,1.7417320013046265
1759338872215692000,9.708692138671875,-0.29119351506233215,-0.30889663100242615,1.704377293586731
1759338872225736000,9.71873583984375,-0.30576568841934204,-0.3089465796947479,1.6548985242843628
1759338872235777300,9.72877734375,-0.3033675253391266,-0.28787940740585327,1.607784628868103
1759338872245821400,9.738821533203126,-0.27931928634643555,-0.2620658576488495,1.5721452236175537
1759338872255861500,9.748861572265625,-0.25870177149772644,-0.2602006196975708,1.5545920133590698
1759338872265907200,9.7589072265625,-0.2536223232746124,-0.26654574275016785,1.541452169418335
1759338872275947000,9.768947021484376,-0.25552085041999817,-0.25836867094039917,1.5279291868209839
1759338872285990000,9.778989990234376,-0.25238993763923645,-0.23012365400791168,1.5160382986068726
1759338872296031500,9.789031494140625,-0.25696974992752075,-0.2315891981124878,1.5082942247390747
1759338872306075000,9.799074951171875,-0.2769377827644348,-0.2572861611843109,1.502332091331482
1759338872316118500,9.809118408203124,-0.3044999837875366,-0.2883790135383606,1.5047136545181274
1759338872326162200,9.819162109375,-0.3389735817909241,-0.31875574588775635,1.5072449445724487
1759338872336178200,9.82917822265625,-0.33867380023002625,-0.31687384843826294,1.5051965713500977
1759338872346225000,9.839224853515624,-0.32833173871040344,-0.3133598864078522,1.5073282718658447
1759338872356264200,9.84926416015625,-0.3223196864128113,-0.30333423614501953,1.4938886165618896
1759338872366306600,9.859306640625,-0.3048330843448639,-0.23501990735530853,1.4564838409423828
1759338872376348700,9.8693486328125,-0.2749892771244049,-0.14325688779354095,1.4188793897628784
1759338872386391800,9.879391845703125,-0.2562369704246521,-0.06633250415325165,1.4040241241455078
1759338872396461300,9.88946142578125,-0.25225669145584106,0.00874330010265112,1.40793776512146
1759338872406502700,9.899502685546874,-0.2652800381183624,0.062968410551548,1.4102360010147095
1759338872416544800,9.909544677734376,-0.28301647305488586,0.07898946851491928,1.3958803415298462
1759338872426587000,9.9195869140625,-0.29430779814720154,0.06383441388607025,1.3692340850830078
1759338872436630000,9.929630126953125,-0.30271801352500916,0.03638878092169762,1.3507483005523682
1759338872446672400,9.93967236328125,-0.29354172945022583,0.03110949508845806,1.33720862865448
1759338872456716800,9.949716796875,-0.273173987865448,0.05111083388328552,1.3220369815826416
1759338872466757600,9.959757568359375,-0.24239759147167206,0.07665792107582092,1.2899115085601807
1759338872476801800,9.9698017578125,-0.2090398073196411,0.1010059341788292,1.2521071434020996
1759338872486845400,9.979845458984375,-0.18204383552074432,0.11785968393087387,1.2288583517074585
1759338872496886300,9.98988623046875,-0.17581526935100555,0.12921765446662903,1.2121710777282715
1759338872506928000,9.99992822265625,-0.18217706680297852,0.11559475213289261,1.1971659660339355
1759338872516971300,10.00997119140625,-0.19636619091033936,0.06609934568405151,1.1868737936019897
1759338872527016400,10.020016357421875,-0.20504286885261536,0.005945444107055664,1.1849919557571411
1759338872537058300,10.030058349609375,-0.19373486936092377,-0.024497894570231438,1.1652404069900513
1759338872547099400,10.040099365234376,-0.16046036779880524,0.03352431207895279,1.1137465238571167
1759338872557142300,10.050142333984375,-0.10113916546106339,0.14395634829998016,1.0475306510925293
1759338872567184000,10.060183837890625,-0.007394333835691214,0.20539261400699615,0.991723358631134
1759338872577228300,10.070228271484375,0.09167974442243576,0.19290217757225037,0.9554845094680786
1759338872587269000,10.08026904296875,0.15881164371967316,0.15130072832107544,0.9518872499465942
1759338872597314600,10.090314453125,0.17413322627544403,0.12991711497306824,0.9521037340164185
1759338872607354400,10.100354248046875,0.15777909755706787,0.11133135110139847,0.9148989319801331
1759338872617396700,10.110396728515624,0.152316614985466,0.11744333803653717,0.8631552457809448
1759338872627441200,10.120441162109374,0.15636351704597473,0.11794295161962509,0.8350101113319397
1759338872637483500,10.1304833984375,0.15671324729919434,0.09604307264089584,0.834360659122467
1759338872647525400,10.140525390625,0.13934321701526642,0.05327584221959114,0.83222895860672
1759338872657568800,10.15056884765625,0.11872568726539612,0.041851263493299484,0.8090300559997559
1759338872667611600,10.160611572265625,0.0938614085316658,0.0758085772395134,0.7813013195991516
1759338872677653800,10.17065380859375,0.07537557184696198,0.13284820318222046,0.7603673338890076
1759338872687696400,10.1806962890625,0.07592514902353287,0.15080110728740692,0.7497254610061646
1759338872697739500,10.190739501953125,0.08908173441886902,0.10232159495353699,0.7363690733909607
1759338872707781000,10.200781005859374,0.10210508853197098,0.02358192950487137,0.7138363122940063
1759338872717826600,10.21082666015625,0.11158116161823273,-0.043649885803461075,0.6897881031036377
1759338872727868400,10.220868408203126,0.10626856982707977,-0.05950440093874931,0.667238712310791
1759338872737909500,10.230909423828125,0.09126339852809906,-0.06738170236349106,0.6394266486167908
1759338872747951400,10.240951416015625,0.0696965903043747,-0.09449425339698792,0.6011559963226318
1759338872757996000,10.25099609375,0.05196018144488335,-0.13000038266181946,0.563917875289917
1759338872768038000,10.261037841796876,0.03247511386871338,-0.17451627552509308,0.5491125583648682
1759338872778080800,10.271080810546875,0.01698698289692402,-0.21321994066238403,0.5416682362556458
1759338872788122600,10.28112255859375,-0.004030244890600443,-0.2258269488811493,0.5003998875617981
1759338872798167800,10.291167724609375,-0.04571496695280075,-0.20672492682933807,0.43386751413345337
1759338872808208000,10.301207763671876,-0.08501818776130676,-0.16722185909748077,0.37747740745544434
1759338872818253000,10.311253173828124,-0.09496056288480759,-0.14896917343139648,0.3623889684677124
1759338872828295700,10.321295654296875,-0.07647473365068436,-0.17997874319553375,0.3792593777179718
1759338872838335200,10.331335205078124,-0.04543185234069824,-0.24626128375530243,0.38990122079849243
1759338872848381000,10.341380859375,-0.008376914076507092,-0.29592323303222656,0.37671133875846863
1759338872858421800,10.351421875,0.02208307757973671,-0.27995213866233826,0.3448190987110138
1759338872868464400,10.36146435546875,0.049012441188097,-0.21764987707138062,0.32401835918426514
1759338872878507500,10.371507568359375,0.06589949876070023,-0.14742036163806915,0.3175399899482727
1759338872888550100,10.381550048828124,0.06363456696271896,-0.12182331085205078,0.31820616126060486
1759338872898591500,10.391591552734376,0.0543583445250988,-0.13832733035087585,0.30403369665145874
1759338872908635600,10.4016357421875,0.03765447810292244,-0.1423076093196869,0.27370691299438477
1759338872918677000,10.411677001953125,0.012590352445840836,-0.13339777290821075,0.24399636685848236
1759338872928719400,10.42171923828125,-0.0002997702977154404,-0.11747664213180542,0.22959072887897491
1759338872938763000,10.431762939453124,0.003180895932018757,-0.10073947161436081,0.2205476611852646
1759338872948804900,10.441804931640625,0.005712289363145828,-0.07311064004898071,0.19669927656650543
1759338872958848300,10.45184814453125,0.012856814078986645,-0.055124424397945404,0.16667227447032928
1759338872968890400,10.461890380859375,0.020101262256503105,-0.0690803974866867,0.1368284821510315
1759338872978931700,10.471931640625,0.027895290404558182,-0.09113016724586487,0.10601875931024551
1759338872988976400,10.481976318359376,0.029877105727791786,-0.0919129028916359,0.0746261477470398
1759338872999018200,10.492018310546875,0.0280118677765131,-0.0867834985256195,0.04972856119275093
1759338873009063400,10.5020634765625,0.02468108758330345,-0.09074712544679642,0.040802065283060074
1759338873019103000,10.51210302734375,0.018602412194013596,-0.0635179951786995,0.0350564680993557
1759338873029146600,10.522146728515626,0.010491959750652313,-0.03260834515094757,0.03322454169392586
1759338873039191000,10.53219091796875,0.006211906671524048,-0.02513074316084385,0.030210183933377266
1759338873049231600,10.542231689453125,0.004396630916744471,-0.05292610824108124,0.03385739028453827
1759338873059274200,10.552274169921875,0.0075608729384839535,-0.08665026724338531,0.04912902042269707
1759338873069316000,10.562316162109376,0.010541921481490135,-0.10263801366090775,0.05868836119771004
1759338873079361800,10.57236181640625,0.005645673722028732,-0.098857581615448,0.07022951543331146
1759338873089402600,10.582402587890625,0.0022149693686515093,-0.07322721928358078,0.08245348185300827
1759338873099445200,10.5924453125,-0.003364088712260127,-0.05730608478188515,0.08271994441747665
1759338873109486000,10.602486083984376,-0.008276990614831448,-0.07167840749025345,0.08063820749521255
1759338873119532000,10.612531982421874,-0.008177067153155804,-0.0873996913433075,0.08415218442678452
1759338873129574400,10.622574462890626,-0.014105857349932194,-0.07982216775417328,0.08546783775091171
1759338873139615000,10.632614990234375,-0.021400267258286476,-0.04508212208747864,0.06806451082229614
1759338873149659000,10.642658935546875,-0.029294218868017197,-0.0316590741276741,0.05146056413650513
1759338873159701000,10.652700927734376,-0.03455685079097748,-0.02563035860657692,0.03793759644031525
1759338873169744000,10.662743896484375,-0.0420677624642849,-0.012806852348148823,0.031042879447340965
1759338873179786000,10.672785888671875,-0.04956202208995819,-0.010075611993670464,0.035422854125499725
1759338873189830400,10.682830322265625,-0.04986179247498512,-0.02504747360944748,0.04286715015769005
1759338873199871000,10.69287109375,-0.04371650144457817,-0.04003598541021347,0.0498451367020607
1759338873209916200,10.702916259765624,-0.036138974130153656,-0.05710623785853386,0.06175268068909645
1759338873219956000,10.7129560546875,-0.024714395403862,-0.06846420466899872,0.06839758902788162
1759338873230000000,10.723000244140625,-0.014871937222778797,-0.05549081042408943,0.06953005492687225
1759338873240041500,10.73304150390625,-0.009942381642758846,-0.02274923399090767,0.06889720261096954
1759338873250086400,10.74308642578125,0.0002165007608709857,0.003697166917845607,0.06628254055976868
1759338873260128500,10.75312841796875,0.00987576600164175,0.004879594314843416,0.061852604150772095
1759338873270169900,10.763169921875,0.018519142642617226,-0.00489624822512269,0.059054747223854065
1759338873280213200,10.773213134765625,0.021949846297502518,-0.007444295566529036,0.05152717977762222
1759338873290256000,10.783255859375,0.02050095610320568,0.002481431933119893,0.04156814515590668
1759338873300298500,10.793298583984376,0.014605474658310413,0.011741003021597862,0.032375190407037735
1759338873310340900,10.8033408203125,0.010325420647859573,0.007644142489880323,0.027162518352270126
1759338873320383500,10.813383544921875,0.008709992282092571,-0.008310298435389996,0.02906106412410736
1759338873330425600,10.823425537109374,0.012540390715003014,-0.019151991233229637,0.030426684767007828
1759338873340468700,10.83346875,0.01703694462776184,-0.020933957770466805,0.03177564963698387
1759338873350514200,10.84351416015625,0.023781776428222656,-0.015887824818491936,0.033924005925655365
1759338873360553000,10.853552978515625,0.028794601559638977,-0.008726646192371845,0.027112556621432304
1759338873370595600,10.863595703125,0.03180895745754242,-0.005112748593091965,0.024064892902970314
1759338873380626200,10.873626220703125,0.0316590741276741,-0.00954268779605627,0.028294984251260757
1759338873390681000,10.88368115234375,0.02856144681572914,-0.009959034621715546,0.027545558288693428
1759338873400724700,10.893724853515625,0.02329881303012371,-0.013273161835968494,0.026030052453279495
1759338873410767600,10.903767578125,0.021933192387223244,-0.014855283312499523,0.02784532867372036
1759338873420810500,10.913810546875,0.02199980802834034,-0.007843988947570324,0.026995979249477386
1759338873430851800,10.923851806640625,0.019151991233229637,0.0025813551619648933,0.022616002708673477
1759338873440895000,10.93389501953125,0.0164873655885458,0.008993108756840229,0.019984684884548187
1759338873450936600,10.9439365234375,0.013389739207923412,0.01110815443098545,0.02075076475739479
1759338873460979200,10.953979248046876,0.010625191032886505,0.008959800936281681,0.01925191469490528
1759338873471022600,10.964022705078126,0.008110451512038708,0.003064318560063839,0.018469180911779404
1759338873481065200,10.974065185546875,0.007644142489880323,-0.0010825038189068437,0.01845252700150013
1759338873491109000,10.984109130859375,0.004829632584005594,-0.004113514441996813,0.01670386642217636
1759338873501149400,10.9941494140625,0.002348200650885701,0.0044632465578615665,0.015604709275066853
1759338873511192800,11.00419287109375,0.0022482771892100573,0.008909839205443859,0.01450555119663477
1759338873521235200,11.014235107421875,0.005978751927614212,0.010242151096463203,0.01194084994494915
1759338873531278000,11.024278076171875,0.010575229302048683,0.011224731802940369,0.007860642857849598
1759338873541296000,11.034296142578125,0.013539624400436878,0.009242917411029339,0.004213437903672457
1759338873551339300,11.04433935546875,0.017769716680049896,0.0020650841761380434,-0.0017486599972471595
1759338873561406500,11.054406494140625,0.020484302192926407,0.0005329249543137848,-0.010325420647859573
1759338873571449000,11.064448974609375,0.021949846297502518,0.008260336704552174,-0.01773640885949135
1759338873581490200,11.074490234375,0.02258269488811493,0.011407924816012383,-0.02174999937415123
1759338873591534300,11.084534423828124,0.024114854633808136,0.008443529717624187,-0.018485834822058678
1759338873601575400,11.094575439453125,0.024098200723528862,-0.0017986217280849814,-0.010858345776796341
1759338873611618600,11.10461865234375,0.021899884566664696,-0.009192955680191517,-0.003563935635611415
1759338873621663200,11.114663330078125,0.017003636807203293,-0.00679479306563735,0.0005662327748723328
1759338873631705300,11.124705322265624,0.013306469656527042,0.002398162381723523,0.0010991577291861176
1759338873641749000,11.1347490234375,0.012507082894444466,0.012140696868300438,0.002398162381723523
1759338873651790000,11.1447900390625,0.014305704273283482,0.017003636807203293,0.007227794732898474
1759338873661831700,11.154831787109375,0.015504785813391209,0.02279919572174549,0.008210374973714352
1759338873671876600,11.164876708984375,0.01160777173936367,0.025397205725312233,0.00634513795375824
1759338873681917400,11.17491748046875,0.0025813551619648933,0.017986217513680458,0.003547281725332141
1759338873691958800,11.184958740234375,-0.006511676590889692,0.018219372257590294,-0.0010491959983482957
1759338873702002700,11.195002685546875,-0.009392802603542805,0.026196591556072235,-0.007327718194574118
1759338873712044300,11.205044189453124,-0.007027947809547186,0.02543051354587078,-0.00849349144846201
1759338873722086700,11.215086669921876,-0.004063552711158991,0.021483536809682846,-0.00464643957093358
1759338873732130000,11.225130126953125,0.0002997702977154404,0.019235260784626007,-0.003996937070041895
1759338873742173400,11.23517333984375,0.0007494257297366858,0.022316232323646545,-0.003963629249483347
1759338873752216000,11.245216064453125,-0.002364854561164975,0.02712921053171158,-0.005728943273425102
1759338873762259200,11.25525927734375,-0.00782733503729105,0.032092075794935226,-0.008443529717624187
1759338873772300300,11.26530029296875,-0.011424578726291656,0.038970138877630234,-0.01210738904774189
1759338873782343700,11.27534375,-0.010758422315120697,0.040052641183137894,-0.016520673409104347
1759338873792387300,11.28538720703125,-0.008526799269020557,0.03842055797576904,-0.01828598789870739
1759338873802430500,11.295430419921875,-0.007427641656249762,0.03299138695001602,-0.016637250781059265
1759338873812472600,11.30547265625,-0.004613131750375032,0.021533498540520668,-0.01530493889003992
1759338873822516000,11.315515869140626,-0.004196783993393183,0.01483862940222025,-0.011790964752435684
1759338873832557300,11.325557373046875,-0.003980283159762621,0.008893185295164585,-0.008426875807344913
1759338873842599200,11.33559912109375,-0.0008326952229253948,0.003464012173935771,-0.007394333835691214
1759338873852643300,11.345643310546874,0.0021483537275344133,0.0010825038189068437,-0.00849349144846201
1759338873862684000,11.355683837890625,0.0019151991000398993,0.0017320060869678855,-0.011224731802940369
1759338873872727300,11.365727294921875,0.002931087277829647,0.00004996171628590673,-0.014688744209706783
1759338873882770000,11.37577001953125,0.003647205187007785,-0.003597243456169963,-0.01765313930809498
1759338873892812300,11.385812255859374,0.002348200650885701,-0.006594946142286062,-0.02053426392376423
1759338873902856000,11.39585595703125,0.0010991577291861176,-0.004779670853167772,-0.021050535142421722
1759338873912898000,11.40589794921875,0.0001332312385784462,-0.004130168352276087,-0.0206175334751606
1759338873922941400,11.41594140625,-0.0001332312385784462,-0.005629019811749458,-0.016553981229662895
1759338873932982300,11.425982177734374,0.003214203519746661,-0.010825037956237793,-0.012656968086957932
1759338873943024000,11.436024169921875,0.007660796400159597,-0.01866902783513069,-0.009409456513822079
1759338873953069600,11.446069580078126,0.012124042958021164,-0.02496420405805111,-0.0075775268487632275
1759338873963112700,11.45611279296875,0.014289050363004208,-0.024897588416934013,-0.006478368770331144
1759338873973153500,11.466153564453125,0.013406393118202686,-0.02224961668252945,-0.0037637825589627028
1759338873983197000,11.476197021484374,0.009076378308236599,-0.01690371334552765,-0.00464643957093358
1759338873993239000,11.486239013671875,0.002747894264757633,-0.007427641656249762,-0.006228560581803322
1759338874003283000,11.496282958984375,0.0013323123566806316,-0.00004996171628590673,-0.003414050443097949
1759338874013323000,11.506322998046874,0.005279287695884705,-0.0017486599972471595,-0.0014988514594733715
1759338874023366700,11.51636669921875,0.010958269238471985,-0.008543453179299831,-0.0010491959983482957
1759338874033409500,11.526409423828126,0.014538859017193317,-0.010775076225399971,-0.0000666156192892231
1759338874043449900,11.536449951171875,0.013939318247139454,-0.006611600052565336,0.0014322358183562756
1759338874053493800,11.54649365234375,0.010075611993670464,-0.0005995405954308808,0.0017819678178057075
1759338874063537000,11.556536865234374,0.006728177424520254,0.0021316998172551394,0.00023315467115025967
1759338874073580000,11.566580078125,0.0053792111575603485,0.003314126981422305,0.002797855995595455
1759338874083622000,11.576621826171875,0.0037970903795212507,0.0006495022680610418,0.004280053544789553
1759338874093663500,11.58666357421875,0.0012823506258428097,0.0013489662669599056,0.0005495788645930588
1759338874103706000,11.5967060546875,0.002897779457271099,0.003230857430025935,-0.00018319295486435294
1759338874113749000,11.6067490234375,0.003080972470343113,-0.0012656967155635357,0.0003663859097287059
1759338874123792100,11.616792236328125,0.003247511340305209,-0.0075275651179254055,-0.0012157351011410356
1759338874133834000,11.626833984375,0.003114280290901661,-0.008909839205443859,-0.003697166917845607
1759338874143852000,11.63685205078125,0.0022149693686515093,-0.002981049008667469,-0.0006661561783403158
1759338874153920000,11.646919921875,0.0016820443561300635,0.003297473071143031,0.003297473071143031
1759338874163963000,11.656962890625,0.003980283159762621,-0.0007827335502952337,0.0038470521103590727
1759338874174004200,11.667004150390625,0.0094594182446599,-0.007011293899267912,0.004912902135401964
1759338874184047400,11.67704736328125,0.01284016016870737,-0.00954268779605627,0.002997702918946743
1759338874194091300,11.68709130859375,0.01325650792568922,-0.015771247446537018,0.002864471636712551
1759338874204132400,11.69713232421875,0.011474540457129478,-0.018219372257590294,0.0020151224453002214
1759338874214177000,11.707177001953125,0.007644142489880323,-0.006994639988988638,-0.0003164241788908839
1759338874224217600,11.717217529296875,0.0021316998172551394,0.005895482376217842,-0.0002664624771568924
1759338874234260000,11.727260009765626,-0.0007827335502952337,0.006478368770331144,0.0007827335502952337
1759338874244305200,11.73730517578125,0.00011657733557512984,0.0022482771892100573,0.0015654671005904675
1759338874254346500,11.747346435546875,0.0020817380864173174,0.0005995405954308808,0.0014821975491940975
1759338874264389000,11.75738916015625,0.004246745724231005,-0.007361026015132666,0.003031010739505291
1759338874274436900,11.767436767578126,0.005495788529515266,-0.016504019498825073,0.004613131750375032
1759338874284479200,11.777479248046875,0.0022482771892100573,-0.012223966419696808,0.003563935635611415
1759338874294515000,11.787514892578125,-0.0010825038189068437,-0.0015488131903111935,0.004180130083113909
1759338874304558300,11.797558349609375,-0.004196783993393183,0.003663859097287059,0.003464012173935771
1759338874314602200,11.807602294921875,-0.003297473071143031,0.003014356829226017,0.0018319295486435294
1759338874324649700,11.817649658203125,0.0013822740875184536,-0.005295941606163979,0.0017320060869678855
1759338874334687500,11.8276875,0.006561638321727514,-0.010025650262832642,0.0037637825589627028
1759338874344728800,11.837728759765625,0.009692572988569736,-0.011491194367408752,0.004046898800879717
1759338874364788500,11.85778857421875,0.002881125546991825,-0.00567898154258728,0.0017819678178057075
1759338874374857700,11.867857666015626,-0.0013323123566806316,-0.00882656965404749,-0.0007161179091781378
1759338874384898800,11.87789892578125,-0.0044965543784201145,-0.012906775809824467,-0.005262633785605431
1759338874394943000,11.88794287109375,-0.004346669185906649,-0.010292112827301025,-0.007311064284294844
1759338874404984800,11.89798486328125,0.0008826569537632167,-0.009076378308236599,-0.00551244243979454
1759338874415027000,11.90802685546875,0.006028713658452034,-0.010691806674003601,-0.0025813551619648933
1759338874425071000,11.918071044921875,0.01005895808339119,-0.0053292494267225266,-0.0010491959983482957
1759338874435113000,11.928113037109375,0.010175535455346107,0.0037970903795212507,-0.0022815850097686052
1759338874445155000,11.938155029296874,0.008143759332597256,0.006245214492082596,-0.004196783993393183
1759338874455198000,11.948197998046876,0.005029479041695595,-0.0014488897286355495,-0.00929287914186716
1759338874465239000,11.958239013671875,0.003330780891701579,-0.00464643957093358,-0.01483862940222025
1759338874475281700,11.96828173828125,0.003031010739505291,-0.0025980090722441673,-0.014538859017193317
1759338874485324500,11.978324462890624,0.003180895932018757,-0.0007494257297366858,-0.014072549529373646
1759338874495368200,11.9883681640625,0.004429938737303019,0.013156584464013577,-0.012706929817795753
1759338874505409000,11.998408935546875,0.006195252761244774,0.0271791722625494,-0.011391270905733109
1759338874515452400,12.008452392578125,0.007760719861835241,0.019185299053788185,-0.013139930553734303
1759338874525497000,12.0184970703125,0.01244046725332737,-0.0009326186846010387,-0.018552450463175774
1759338874535540200,12.028540283203125,0.01450555119663477,-0.006278522312641144,-0.026030052453279495
1759338874545581000,12.0385810546875,0.012740237638354301,0.00016653904458507895,-0.030659839510917664
1759338874555624400,12.04862451171875,0.012873467989265919,0.005012825131416321,-0.03439031168818474
1759338874565665500,12.05866552734375,0.0156546700745821,0.006295176222920418,-0.03627220541238785
1759338874575708700,12.068708740234374,0.0197515320032835,0.0045631700195372105,-0.03602239489555359
1759338874585750300,12.078750244140625,0.024114854633808136,0.0075442190282046795,-0.04041902720928192
1759338874595794000,12.0887939453125,0.023098966106772423,0.009809150360524654,-0.04471573606133461
1759338874605836500,12.09883642578125,0.020051300525665283,0.009392802603542805,-0.05094429478049278
1759338874615834400,12.10883447265625,0.017836332321166992,0.008476837538182735,-0.05790562555193901
1759338874625922300,12.11892236328125,0.017469946295022964,0.009259571321308613,-0.06293510645627975
1759338874635964000,12.1289638671875,0.01875229738652706,0.013239854015409946,-0.06563303619623184
1759338874646006000,12.139006103515625,0.021683383733034134,0.016304172575473785,-0.06644908338785172
1759338874656050200,12.14905029296875,0.02579689770936966,0.015488131903111935,-0.07056259363889694
1759338874666067000,12.15906689453125,0.02964395098388195,0.018102794885635376,-0.07918931543827057
1759338874676135000,12.169135009765625,0.030576569959521294,0.02568032033741474,-0.09247913211584091
1759338874686177300,12.17917724609375,0.02767878957092762,0.025413859635591507,-0.11026550084352493
1759338874696221700,12.1892216796875,0.02704594098031521,0.01756986975669861,-0.12675286829471588
1759338874706263300,12.19926318359375,0.02629651501774788,0.020883996039628983,-0.14247415959835052
1759338874716305200,12.20930517578125,0.02366519905626774,0.02942745015025139,-0.15354900062084198
1759338874726349000,12.21934912109375,0.021566806361079216,0.03022683784365654,-0.16305838525295258
1759338874736390400,12.229390380859375,0.018385911360383034,0.022566040977835655,-0.17351703345775604
1759338874746435000,12.23943505859375,0.015105091966688633,0.016104325652122498,-0.1852247267961502
1759338874756476200,12.24947607421875,0.011141462251543999,0.012407159432768822,-0.19551683962345123
1759338874766517000,12.25951708984375,0.006445060949772596,0.014888591133058071,-0.20545922219753265
1759338874776561000,12.269560791015625,0.0037970903795212507,0.03182561323046684,-0.21401932835578918
1759338874786602500,12.2796025390625,-0.002914433367550373,0.05147721990942955,-0.22579364478588104
1759338874796646000,12.28964599609375,-0.007927258498966694,0.06388437747955322,-0.24279728531837463
1759338874806690000,12.29968994140625,-0.01417247299104929,0.07717419415712357,-0.2615995407104492
1759338874816733000,12.30973291015625,-0.02086734212934971,0.09624291956424713,-0.273040771484375
1759338874826773800,12.319773681640624,-0.03080972470343113,0.12728579342365265,-0.2856810688972473
1759338874836815600,12.329815673828126,-0.04140160605311394,0.17368356883525848,-0.3048996925354004
1759338874846859300,12.339859375,-0.04842955619096756,0.22212977707386017,-0.3169904351234436
1759338874856900900,12.34990087890625,-0.05260968580842018,0.2547881007194519,-0.3251674771308899
1759338874866943500,12.359943603515624,-0.05840524286031723,0.3010193407535553,-0.3427373468875885
1759338874876987000,12.36998681640625,-0.06285183876752853,0.34826645255088806,-0.3441862463951111
1759338874887029000,12.380029052734375,-0.06436733901500702,0.3634381592273712,-0.3841889202594757
1759338874897073000,12.390072998046875,-0.07092898339033127,0.41143471002578735,-0.4631284475326538
1759338874907115300,12.400115234375,-0.08013858646154404,0.48166424036026,-0.5234488844871521
