time,seconds_elapsed,z,y,x
1758972184657410800,0.052410888671875,9.476719541975855,1.3776833149388432,2.1128549080371855
1758972184667369000,0.062368896484375,9.3907340339154,1.4724347516484557,2.4117285490185023
1758972184677326800,0.072326904296875,9.282290025809406,1.5881741774596272,2.73627176104635
1758972184687286000,0.0822861328125,9.156348354935645,1.732289218405634,3.054642421919107
1758972184697244000,0.092243896484375,9.028920244896412,1.8943829836346209,3.3257021733015772
1758972184707201800,0.102201904296875,8.920887155678868,2.0404023968972265,3.5248990500003097
1758972184717159700,0.11215966796875,8.831691453400254,2.126903014872968,3.694306353113055
1758972184727118800,0.122118896484375,8.739732716149092,2.128718978253752,3.905895386134088
1758972184737076700,0.13207666015625,8.638199510344862,2.045494751600176,4.167474484726786
1758972184747035000,0.142034912109375,8.53320418138802,1.889410455919057,4.448026287075877
1758972184756992800,0.15199267578125,8.44258166117668,1.6806052083976566,4.697740468090772
1758972184766951700,0.16195166015625,8.380717033416031,1.4331104569979012,4.886732761639356
1758972184776909800,0.171909912109375,8.338767650958895,1.1548417240846902,5.030077402734756
1758972184786868000,0.181867919921875,8.30108469377458,0.8606579214200377,5.149916665080189
1758972184796825900,0.191825927734375,8.269889345043897,0.5758631842715666,5.239055084213614
1758972184806784800,0.20178466796875,8.254206622743606,0.3384174236014485,5.2843099379569285
1758972184816743000,0.211742919921875,8.247636012181639,0.16281217916402965,5.30286558534503
1758972184826700800,0.22170068359375,8.232618475791812,0.03761717335555004,5.328504468992352
1758972184836658700,0.23165869140625,8.202680433645844,-0.05012746474836021,5.374374824285507
1758972184846617600,0.24161767578125,8.165847955811023,-0.11144255973431282,5.4292625987708565
1758972184856575700,0.25157568359375,8.124763081228732,-0.1567999148708768,5.489446726098656
1758972184866533600,0.26153369140625,8.087889102339744,-0.19616403007516636,5.542378105819225
1758972184876491800,0.27149169921875,8.058967543759941,-0.2427913046828471,5.5825154704183335
1758972184886450700,0.28145068359375,8.037365952804684,-0.3013798881812021,5.610730926555394
1758972184896408800,0.291408935546875,8.01896520371735,-0.36576965050529686,5.633186503991484
1758972184906366700,0.30136669921875,7.998497585228085,-0.42670996649526055,5.657945682194828
1758972184916324900,0.311324951171875,7.975200296270847,-0.4716811809916049,5.687185805204511
1758972184926283800,0.32128369140625,7.947372962668537,-0.4931407331276685,5.724199484825134
1758972184936242000,0.331241943359375,7.911950936153531,-0.4965433081127703,5.772769162204861
1758972184946199800,0.34119970703125,7.864006112673878,-0.4965682598909363,5.837911788722872
1758972184956158000,0.351157958984375,7.801153642919659,-0.5035414599044248,5.921050090658665
1758972184966116900,0.361116943359375,7.716099278229475,-0.524579096833989,6.029677638638019
1758972184976074800,0.37107470703125,7.592955129119753,-0.5664829596489668,6.180333479529619
1758972184986032600,0.38103271484375,7.415657949540019,-0.6326556598670781,6.385777726185322
1758972184995990800,0.39099072265625,7.189493570938706,-0.7122377306260168,6.631310822123289
1758972185005949700,0.40094970703125,6.934326969736814,-0.7817311727646737,6.890165756449103
1758972185015907800,0.410907958984375,6.664075612127781,-0.8370449175771325,7.145617019811272
1758972185025865700,0.42086572265625,6.383975060677528,-0.8941165389075875,7.390249952039122
1758972185035823900,0.430823974609375,6.09228519372046,-0.9691059481140225,7.623337407901882
1758972185045782800,0.44078271484375,5.77853430160284,-1.0647942272823303,7.851442399176955
1758972185055741000,0.450740966796875,5.426609453913569,-1.1711813759237528,8.083972805678844
1758972185065698800,0.46069873046875,5.0324721889168025,-1.2887515242934227,8.317675178569555
1758972185075657000,0.470656982421875,4.613914768412709,-1.436869663400948,8.533321085765957
1758972185085615900,0.480615966796875,4.198386048080027,-1.632613184775412,8.71082810870409
1758972185095574000,0.490573974609375,3.8032664940476417,-1.8811172593481837,8.84120746976435
1758972185105532000,0.500531982421875,3.4301424987241624,-2.170644395313412,8.927083672231435
1758972185115489800,0.51048974609375,3.0737597948431965,-2.486507895670831,8.97438902876377
1758972185125448700,0.52044873046875,2.737479967792332,-2.8145734366059303,8.98636412871778
1758972185135406800,0.53040673828125,2.434146863184124,-3.13458075876981,8.967703851911425
1758972185145364700,0.54036474609375,2.1905527724847196,-3.4250805391594765,8.924163400870562
1758972185155323000,0.550322998046875,2.038503723669052,-3.6706092511832713,8.862365408605337
1758972185165281800,0.56028173828125,1.9778171997770666,-3.869980023144185,8.791009898921846
1758972185175239700,0.57023974609375,1.9735716711618005,-4.024657959158718,8.72224323668778
1758972185185197800,0.58019775390625,1.987090201165527,-4.135922577643394,8.666949219489098
1758972185195156000,0.590156005859375,1.9944107533119617,-4.212689298720657,8.62820710864067
1758972185205115000,0.600114990234375,1.976716983450204,-4.26687301658988,8.605625274476408
1758972185215072800,0.61007275390625,1.9364891640886663,-4.309317196826637,8.593613349643348
1758972185225031000,0.620031005859375,1.8956240697368978,-4.34034420325309,8.587106451967358
1758972185234988800,0.62998876953125,1.859847238434851,-4.353265644146502,8.58838947751522
1758972185244946700,0.63994677734375,1.8192416718021034,-4.3425317764252425,8.60250918828249
1758972185254905600,0.649905517578125,1.76427703268826,-4.305011024065315,8.632761703205109
1758972185264863700,0.65986376953125,1.695864882980287,-4.242492024049163,8.677308116418123
1758972185274821600,0.669821533203125,1.6172241847246884,-4.165119738294184,8.729647375464438
1758972185284779800,0.67977978515625,1.5258078837871552,-4.085878443796933,8.783387733480334
1758972185294738700,0.68973876953125,1.4121771206930278,-4.010012763212621,8.837190050816535
1758972185304696800,0.69969677734375,1.2766045749038457,-3.9476758417651054,8.88574803775847
1758972185314654700,0.70965478515625,1.1095203809764236,-3.8955893884360786,8.931053744906187
1758972185324612900,0.71961279296875,0.9036789516966789,-3.8559360079616307,8.971371726769208
1758972185334571800,0.72957177734375,0.6712183955606073,-3.8192233571141956,9.007408085790276
1758972185344530000,0.739530029296875,0.43527277378775175,-3.743443016725778,9.05359466742575
1758972185354487800,0.74948779296875,0.22657365352194755,-3.593134966358542,9.121863901531695
1758972185364446000,0.759446044921875,0.04163621115500573,-3.3749469734638926,9.20751681663692
1758972185374404900,0.76940478515625,-0.10737938368231989,-3.129763129355013,9.29319311261773
1758972185384362800,0.77936279296875,-0.1368673165737651,-2.8751705286487934,9.374702352046967
1758972185394320600,0.789320556640625,-0.03975071706881281,-2.657183611284196,9.439713461139798
1758972185404278800,0.79927880859375,0.14254312458732166,-2.515686059360206,9.477415707546472
1758972185414237700,0.80923779296875,0.3149666245829314,-2.443787967232615,9.492053889229894
1758972185424195800,0.81919580078125,0.3776995230780914,-2.436138913784176,9.491731233146787
1758972185434153700,0.82915380859375,0.36070363582000137,-2.487957509957254,9.478943063244223
1758972185444112000,0.83911181640625,0.28733236586730926,-2.5860928900167344,9.455154775899649
1758972185454070800,0.84907080078125,0.15385189698655158,-2.7227508929550646,9.419839132368564
1758972185464029000,0.85902880859375,-0.005181498857703991,-2.8864821962580085,9.372225148278474
1758972185473986800,0.86898681640625,-0.14427458802242762,-3.0753508634269235,9.310842166554927
1758972185483945000,0.878945068359375,-0.2616800564828329,-3.2924732729166744,9.233716256776452
1758972185493904000,0.88890380859375,-0.34951219705697145,-3.5444229578986763,9.137028152915835
1758972185503862000,0.898862060546875,-0.4189662205006927,-3.8160420967295763,9.024004415804146
1758972185513819600,0.908819580078125,-0.4663896504547447,-4.0829242701664565,8.904076890653371
1758972185523777800,0.91877783203125,-0.4799847893586382,-4.327100106276571,8.78727480404675
1758972185533735700,0.928735595703125,-0.48741446443535386,-4.541534299595654,8.677976224938034
1758972185543694800,0.93869482421875,-0.49124450758490706,-4.730713055627048,8.576096397653222
1758972185553652700,0.94865283203125,-0.5009135590862482,-4.943966806989908,8.45438958787024
1758972185563611000,0.95861083984375,-0.6157613698199391,-5.236303155156969,8.268758295187354
1758972185573568800,0.96856884765625,-0.819764696952328,-5.623026344504952,7.992493376377224
1758972185583527700,0.978527587890625,-1.0297559393879026,-6.093841190990806,7.614137617880106
1758972185593485800,0.98848583984375,-1.1749804028805344,-6.630557957929373,7.129200138017535
1758972185603444000,0.99844384765625,-1.230044191519916,-7.218215223032236,6.5233969753712415
1758972185613401900,1.00840185546875,-1.2343012644425033,-7.8307678599387405,5.7728644392728805
1758972185623360800,1.01836083984375,-1.1923797929055988,-8.423045186057687,4.878618136505782
1758972185633319000,1.02831884765625,-1.104202693085,-8.946388092160225,3.8617698286816475
1758972185643277000,1.038277099609375,-1.024978641983494,-9.359948435029388,2.740656844262779
1758972185653234700,1.048234619140625,-0.971979896115139,-9.632055065116285,1.5649797643549739
1758972185663193600,1.058193603515625,-0.9554046088892966,-9.752805012565851,0.37464766122680154
1758972185673151700,1.06815185546875,-0.9879710267774761,-9.724356916716694,-0.7944470080833882
1758972185683110000,1.07810986328125,-1.0758055237054824,-9.558123567464946,-1.9118860532298683
1758972185693067800,1.08806787109375,-1.2103739339534192,-9.271451236408948,-2.9572867940604683
1758972185703026700,1.098026611328125,-1.383426680896431,-8.886053158184886,-3.9108302121877667
1758972185712984800,1.10798486328125,-1.5847554550573228,-8.463499361521006,-4.693414713846146
1758972185722942700,1.117942626953125,-1.7764255895130334,-8.142748819774388,-5.168207524052262
1758972185732900900,1.12790087890625,-1.9116653962165115,-8.05473794336617,-5.257103366601467
1758972185742859000,1.13785888671875,-1.9771181115970013,-8.12792008395493,-5.118430224448442
1758972185752818000,1.14781787109375,-1.95758967365399,-8.179459717056154,-5.0432823367446655
1758972185762775800,1.15777587890625,-1.7826682832948861,-8.17396813390255,-5.116515330737829
1758972185772734000,1.16773388671875,-1.4810481200844048,-8.1654808760643,-5.225110145491361
1758972185782691800,1.17769189453125,-1.1191837699219584,-8.194925581735372,-5.2688721303284165
1758972185792650800,1.187650634765625,-0.7675141391027719,-8.254950134587288,-5.238042692300677
1758972185802608600,1.197608642578125,-0.4898397918861359,-8.317766948506236,-5.171575539180636
1758972185812566800,1.20756689453125,-0.3265521041648462,-8.394003800490498,-5.060085587507486
1758972185822524700,1.217524658203125,-0.26890977027434854,-8.51470347905755,-4.857767948439717
1758972185832483800,1.22748388671875,-0.30493354380847887,-8.637227450442314,-4.634188325634598
1758972185842441700,1.237441650390625,-0.36141342805717136,-8.746995400628448,-4.419256411926448
1758972185852399900,1.24739990234375,-0.41628249784205107,-8.838865875074267,-4.227475948964059
1758972185862357800,1.257357666015625,-0.47663785355091093,-8.90691123729646,-4.0755543259203435
1758972185872316000,1.26731591796875,-0.5449122387560084,-8.94863440978229,-3.9743455297648906
1758972185882274800,1.27727490234375,-0.6109149161694571,-8.967836538380384,-3.921107568313181
1758972185892233000,1.28723291015625,-0.6539376634791493,-8.97131327458024,-3.9061894006446
1758972185902190800,1.29719091796875,-0.6570703354816884,-8.963867050227522,-3.922719387423992
1758972185912148700,1.307148681640625,-0.6226402426134795,-8.95484320129454,-3.948862421201169
1758972185922107600,1.317107666015625,-0.5670107463827356,-8.953538548436761,-3.960183441160619
1758972185932065800,1.327065673828125,-0.5028514683462679,-8.9597876719594,-3.954711731751263
1758972185942023700,1.337023681640625,-0.44210053744856265,-8.969769552269577,-3.939308118653297
1758972185951981800,1.34698193359375,-0.3983803824592381,-8.979607640194892,-3.9215179026797413
1758972185961939700,1.356939697265625,-0.38253004850707945,-8.987662936356664,-3.904606223106384
1758972185971899000,1.36689892578125,-0.39761268602237104,-8.994877690041065,-3.886446297037601
1758972185981856800,1.376856689453125,-0.4358344993237406,-9.003647271952033,-3.8619650589928027
1758972185991815000,1.38681494140625,-0.48207058265674857,-9.017153234735131,-3.824778653153777
1758972186001772800,1.396772705078125,-0.5260432145697995,-9.037696841070055,-3.7701103666380047
1758972186011732000,1.40673193359375,-0.5681208995817228,-9.065222561377286,-3.6972128882095214
1758972186021689900,1.41668994140625,-0.6101761535661294,-9.099628688848018,-3.604828911283612
1758972186031648000,1.42664794921875,-0.6518080310393124,-9.13815628016293,-3.498519577118754
1758972186041605600,1.436605712890625,-0.6912995720155537,-9.177120509329438,-3.387171079742908
1758972186051565000,1.44656494140625,-0.7277887893706559,-9.21514307373166,-3.274426744094491
1758972186061522700,1.456522705078125,-0.7607368269875645,-9.251528392320871,-3.1624186137661336
1758972186071480800,1.466480712890625,-0.7926633395370095,-9.284787687844037,-3.0552865650415417
1758972186081438700,1.476438720703125,-0.8323740762218832,-9.31220001090467,-2.9598084214925766
1758972186091396900,1.48639697265625,-0.8901123447675258,-9.330387994024157,-2.8847753923401234
1758972186101355800,1.496355712890625,-0.9767335203830152,-9.336766296884417,-2.835695719611645
1758972186111314000,1.50631396484375,-1.0924709003675728,-9.330199193453788,-2.815006859587133
1758972186121271800,1.516271728515625,-1.2231660493787377,-9.31488238185644,-2.8119769903719423
1758972186131230000,1.52622998046875,-1.344781162290275,-9.300013314026593,-2.805655386134982
1758972186141188900,1.53618896484375,-1.4429695877112447,-9.291974968999623,-2.783419004407525
1758972186151147000,1.54614697265625,-1.4970233955904841,-9.29468422795832,-2.7455621519610283
1758972186161105000,1.55610498046875,-1.4952826894029974,-9.309081586623192,-2.697316591969132
1758972186171062800,1.566062744140625,-1.4441604049310088,-9.332108241945505,-2.6450936527788635
1758972186181020700,1.576020751953125,-1.361863960646838,-9.357775182643532,-2.5976424580350517
1758972186190979800,1.585979736328125,-1.2661539080381392,-9.380878410333395,-2.562492234198749
1758972186200937700,1.595937744140625,-1.1708578430578112,-9.399818673124908,-2.5382889363124965
1758972186210896000,1.605895751953125,-1.0871099578563124,-9.417115844884515,-2.511275257180631
1758972186220853800,1.615853759765625,-1.0229637219645082,-9.434911613816022,-2.4711095432698724
1758972186230812700,1.625812744140625,-0.979640493870899,-9.4522216450572,-2.4220268018014726
1758972186240770800,1.635770751953125,-0.9513416702993214,-9.46680605072677,-2.375902617877722
1758972186250729000,1.64572900390625,-0.930934038368985,-9.477748300501704,-2.34008866943568
1758972186260686800,1.655686767578125,-0.9128896284386515,-9.488120056912303,-2.304899574893713
1758972186270645800,1.665645751953125,-0.8963279313467443,-9.498566632124781,-2.268088870499283
1758972186280604000,1.67560400390625,-0.8842813005264848,-9.504209606447816,-2.2490965852595863
1758972186290561800,1.685561767578125,-0.8766983711168169,-9.504915708890557,-2.2490768576458096
1758972186300519700,1.695519775390625,-0.8679814692411572,-9.503762447202206,-2.257320954377949
1758972186310477800,1.705477783203125,-0.853005726166442,-9.501354217016697,-2.2731126900106666
1758972186320437500,1.7154375,-0.8279838784389197,-9.497425060874223,-2.298640952890366
1758972186330395100,1.72539501953125,-0.7916151456583291,-9.491337265393136,-2.3362917613707483
1758972186340353300,1.735353271484375,-0.7485700769189745,-9.482750638833641,-2.3848427340500056
1758972186350311200,1.745311279296875,-0.7178953179962932,-9.472013556241988,-2.4363868971958755
1758972186360270300,1.755270263671875,-0.7184373889837413,-9.458196627813576,-2.4893273370057343
1758972186370228200,1.765228271484375,-0.7576229327507317,-9.440925175017117,-2.5426924319684505
1758972186380186400,1.775186279296875,-0.8382464023213833,-9.418834923762082,-2.59869956587255
1758972186390144300,1.785144287109375,-0.9574760083358734,-9.391147290891409,-2.657057062295079
1758972186400102400,1.795102294921875,-1.105592174682021,-9.357709716191888,-2.7168632962211965
1758972186410061300,1.805061279296875,-1.2700024001598358,-9.318568961414694,-2.7788050808712836
1758972186420019500,1.81501953125,-1.4372306056678295,-9.276205737459659,-2.838445602841675
1758972186429977300,1.824977294921875,-1.5912991776123642,-9.235520675849914,-2.888482137903571
1758972186439935200,1.834935302734375,-1.7106823667533695,-9.202951116156578,-2.92397489156723
1758972186449894400,1.844894287109375,-1.758774197488278,-9.183898040640354,-2.9551857301279902
1758972186459852300,1.854852294921875,-1.7197579458735883,-9.179868931254743,-2.9904560732126235
1758972186469810200,1.86481005859375,-1.610323465425521,-9.188167388522624,-3.0256971902027723
1758972186479768300,1.874768310546875,-1.4496150170750914,-9.204059954181313,-3.058483315256238
1758972186489726200,1.884726318359375,-1.2676217886336147,-9.22103680794537,-3.0880364497378467
1758972186499685400,1.894685302734375,-1.1555818018622697,-9.228319950690866,-3.110162356828153
1758972186509643300,1.904643310546875,-1.1448380703341214,-9.22420842371881,-3.1262934074178337
1758972186519601400,1.914601318359375,-1.216640885393694,-9.213248638287187,-3.131492145104706
1758972186529559300,1.924559326171875,-1.347311119159311,-9.199975899738073,-3.1169837272807954
1758972186539517400,1.934517333984375,-1.51039827933982,-9.185827547398208,-3.0837703167259694
1758972186549476400,1.944476318359375,-1.685929326029867,-9.172482912656664,-3.032089521588385
1758972186559434500,1.9544345703125,-1.8611986530438065,-9.164370917871594,-2.9530662537559866
1758972186569392000,1.96439208984375,-2.0278471589677034,-9.161182935485243,-2.85148190228641
1758972186579350300,1.974350341796875,-2.1814991129353642,-9.157462453657388,-2.748147492279112
1758972186589309200,1.98430908203125,-2.320961359639466,-9.146538324061035,-2.6691476053223013
1758972186599267300,1.994267333984375,-2.443506373812258,-9.12416925586462,-2.63613000960052
1758972186609225200,2.00422509765625,-2.5440306948348876,-9.092934159645438,-2.6489325002893804
1758972186619183400,2.014183349609375,-2.6237279164060947,-9.058214143919944,-2.68983208143264
1758972186629141200,2.024141357421875,-2.6851582444027065,-9.025521250107884,-2.7386650859236714
1758972186639100400,2.034100341796875,-2.7376600005343557,-8.998380145204067,-2.7757471546053885
1758972186649058300,2.044058349609375,-2.7939143871977925,-8.977217530187964,-2.7881866572007534
1758972186659016400,2.054016357421875,-2.857142412266135,-8.962028144362568,-2.7729326817065476
1758972186668974300,2.063974365234375,-2.9231963084101675,-8.952413343799114,-2.7348838138192892
1758972186678933500,2.07393359375,-2.983120031236112,-8.948152179223298,-2.6836455017521974
1758972186688891400,2.083891357421875,-3.028390959331393,-8.948982200306654,-2.629623111924529
1758972186698849300,2.093849365234375,-3.0579359105065462,-8.953077360665798,-2.581051388718188
1758972186708807200,2.10380712890625,-3.0780463861212133,-8.958700461244582,-2.5372686533540487
1758972186718765300,2.113765380859375,-3.0964591179072856,-8.964127162468433,-2.4953449898600577
1758972186728724200,2.12372412109375,-3.11737564920783,-8.967910188138484,-2.4553838586106895
1758972186738682400,2.133682373046875,-3.1398855871796605,-8.970089285743237,-2.418479338452965
1758972186748640300,2.14364013671875,-3.1602456536412236,-8.972017623457312,-2.3845574873678386
1758972186758598400,2.153598388671875,-3.1768893299281595,-8.974624591085314,-2.3524096602179108
1758972186768556300,2.163556396484375,-3.189939657898247,-8.979083908581734,-2.317484331178665
1758972186778515500,2.173515380859375,-3.198804516877234,-8.985777268740534,-2.278998971570283
1758972186788473300,2.183473388671875,-3.2026506709113716,-8.99447612350285,-2.238926635031402
1758972186798431500,2.193431396484375,-3.2013693989291787,-9.004449235984682,-2.2003496516168117
1758972186808389400,2.203389404296875,-3.1955954917028544,-9.014574324157833,-2.1670229899458584
1758972186818348300,2.213348388671875,-3.187459239259362,-9.023824383062124,-2.1403448263786733
1758972186828306200,2.22330615234375,-3.1798215839877724,-9.0315733897537,-2.1189166922941802
1758972186838264300,2.233264404296875,-3.175297676822543,-9.037192983201146,-2.1016692048951984
1758972186848222200,2.24322216796875,-3.175737529544532,-9.04022256015539,-2.0879306024000046
1758972186858180400,2.253180419921875,-3.1822289373904464,-9.040520666319132,-2.076729263297468
1758972186868139300,2.26313916015625,-3.1956358237132427,-9.03793123434782,-2.067386265412718
1758972186878097400,2.273097412109375,-3.2164071013242004,-9.032550125831365,-2.058676889256388
1758972186888055300,2.28305517578125,-3.2421094055965543,-9.02569485310912,-2.0483945646949113
1758972186898013400,2.293013427734375,-3.26732246504724,-9.019685968083143,-2.034755915442854
1758972186907971300,2.302971435546875,-3.2874136514395476,-9.016398032453656,-2.0168930726245042
1758972186917930200,2.31293017578125,-3.3004306616619226,-9.016489802390337,-1.9951044346645472
1758972186927888400,2.322888427734375,-3.3049241736888884,-9.020207946130633,-1.9707165739916264
1758972186937846500,2.332846435546875,-3.2980195088669655,-9.028218818628787,-1.9454348332189022
1758972186947804200,2.34280419921875,-3.2774615817457438,-9.040762658381462,-1.9217773326471448
1758972186957762300,2.35276220703125,-3.243327841475606,-9.057634298205375,-1.9001221118085085
1758972186967721200,2.36272119140625,-3.1975551013380286,-9.078295393440127,-1.8789929606705902
1758972186977679400,2.372679443359375,-3.1463015917018056,-9.100807084977626,-1.856465340911597
1758972186987637200,2.38263720703125,-3.0987367074504495,-9.122093034112453,-1.8318433792218565
1758972186997595400,2.392595458984375,-3.0619755412861704,-9.139653240722417,-1.8059405839413403
1758972187007554300,2.40255419921875,-3.035075551661849,-9.153162710636854,-1.782791909674555
1758972187017512400,2.412512451171875,-3.016357407188415,-9.16204627431631,-1.768863922087103
1758972187027470300,2.42247021484375,-3.0008380587562917,-9.166762781444191,-1.7708277695059775
1758972187037428500,2.432428466796875,-2.981821515858173,-9.17010215499997,-1.785593230830878
1758972187047386400,2.442386474609375,-2.9544103618413207,-9.176745830798149,-1.7969911154188214
1758972187057345300,2.45234521484375,-2.9156171053275464,-9.189775992763042,-1.7937706920675933
1758972187067303400,2.462303466796875,-2.8621006191954015,-9.209861333936452,-1.7768657344959675
1758972187077261300,2.47226123046875,-2.7904566479593513,-9.238114783996343,-1.743835279292613
1758972187087219200,2.48221923828125,-2.7012556849837304,-9.274260448610782,-1.691656471505016
1758972187097177300,2.49217724609375,-2.600256147664785,-9.315465734702348,-1.6220755702786147
1758972187107136300,2.50213623046875,-2.490998192827403,-9.359239994499086,-1.5394687448710203
1758972187117094400,2.512094482421875,-2.3706083108618854,-9.403159800246357,-1.4598568634957074
1758972187127052300,2.52205224609375,-2.2521626948319375,-9.43730347738862,-1.4266948908671735
1758972187137010400,2.532010498046875,-2.143427302563935,-9.45737069838345,-1.4609136790722608
1758972187146969300,2.54196923828125,-2.0205369820848107,-9.472460715487598,-1.5363203638426959
1758972187156927200,2.55192724609375,-1.8712945151224731,-9.489911031982302,-1.6156230331383645
1758972187166885400,2.561885498046875,-1.7011714649558067,-9.512402849775553,-1.670496925228834
1758972187176843500,2.571843505859375,-1.525236367509514,-9.537943533745407,-1.6946018773071467
1758972187186801200,2.58180126953125,-1.3616757445983587,-9.562497544765472,-1.6955417885057626
1758972187196760300,2.59176025390625,-1.2254946384567766,-9.582787468600273,-1.684853659622371
1758972187206718200,2.60171826171875,-1.1193174793042242,-9.598038813745974,-1.671876981410384
1758972187216676400,2.61167626953125,-1.0367559543430804,-9.608121816343068,-1.6671956917263566
1758972187226634200,2.62163427734375,-0.9709712305292486,-9.613802200067044,-1.6740424888812004
1758972187236592400,2.63159228515625,-0.918183643193543,-9.61649275432527,-1.6883094991646705
1758972187246551300,2.64155126953125,-0.8773061277516185,-9.61733271228075,-1.7051805544666945
1758972187256509200,2.65150927734375,-0.8510689859502018,-9.6157486579597,-1.7272706595912575
1758972187266467300,2.66146728515625,-0.840852493166551,-9.611536593222617,-1.7554811472922562
1758972187276425500,2.671425537109375,-0.8455497841373085,-9.605138416618107,-1.7879487079158425
1758972187286383400,2.68138330078125,-0.8574483847890049,-9.597796821683644,-1.8213905203990637
1758972187296342300,2.69134228515625,-0.8669915814209729,-9.591993103840947,-1.8472678889773786
1758972187306300400,2.701300537109375,-0.8642964240528642,-9.590219664427638,-1.857703358273953
1758972187316258300,2.71125830078125,-0.8385971885204315,-9.593896891635655,-1.8504824671097098
1758972187326216000,2.7212158203125,-0.7846318626422435,-9.6025600905627,-1.8290968569926918
1758972187336174000,2.731174072265625,-0.7076504028357565,-9.613591187664866,-1.8023504504948853
1758972187346133000,2.741133056640625,-0.6195764711286872,-9.624161681517958,-1.778209550320357
1758972187356091100,2.751091064453125,-0.5324729188237339,-9.63285118393004,-1.7592723562687635
1758972187366049000,2.761049072265625,-0.45525202423818406,-9.639182725039124,-1.7462258276909588
1758972187376007200,2.771007080078125,-0.3931559623418376,-9.64303297072649,-1.7400388096190988
1758972187385965000,2.780965087890625,-0.34560072270166126,-9.644681906977295,-1.7409899728640912
1758972187395924000,2.790924072265625,-0.30824973741807044,-9.644777768567204,-1.7474555156163871
1758972187405882000,2.800882080078125,-0.2761300951830111,-9.64420902876854,-1.75594540380314
1758972187415840000,2.810840087890625,-0.24304801939027382,-9.64364730323255,-1.7639071764625607
1758972187425798000,2.8207978515625,-0.20430183515492825,-9.643150459626316,-1.771517943727225
1758972187435756800,2.8307568359375,-0.15507921029180288,-9.642641341060399,-1.7792767411604522
1758972187445715000,2.84071484375,-0.09054692509132437,-9.642279522010684,-1.7856762329392135
1758972187455673000,2.850673095703125,-0.011909149445174261,-9.642161448588967,-1.7885710775978862
1758972187465631000,2.860630859375,0.07604196416640188,-9.641974986106156,-1.787999561320245
1758972187475589000,2.870589111328125,0.167914872597903,-9.641313307327032,-1.785290740752965
1758972187485548000,2.880548095703125,0.2592070722317323,-9.639970660546421,-1.7816186281114816
1758972187495506200,2.890506103515625,0.34591260166242715,-9.637980363512039,-1.7776544006556272
1758972187505464000,2.900464111328125,0.4249878554103896,-9.635800096863507,-1.7723220997169613
1758972187515422200,2.910422119140625,0.49426970062498,-9.633953592213988,-1.7643804930627345
1758972187525380000,2.920380126953125,0.5542608991965651,-9.632602177605033,-1.7539048378862439
1758972187535339000,2.930339111328125,0.607357333285734,-9.631630117702484,-1.7416082508929074
1758972187545297000,2.940296875,0.657759194528684,-9.630781976440549,-1.7279402294158934
1758972187555255000,2.950255126953125,0.7107884086005389,-9.629778936877846,-1.7124620897769927
1758972187565213000,2.960212890625,0.7719909922558814,-9.62820657299459,-1.6947208275116978
1758972187575171000,2.970171142578125,0.8466163904555142,-9.625427171409129,-1.67475692076087
1758972187585130000,2.9801298828125,0.9372937095940113,-9.62095090277791,-1.652023257035762
1758972187595088100,2.990088134765625,1.0417082429882139,-9.614232408177852,-1.6284284464366734
1758972187605046000,3.0000458984375,1.1525900727003813,-9.604991117101907,-1.6081309238173067
1758972187615004200,3.010004150390625,1.2611632601439953,-9.594028993582725,-1.5920029419675468
1758972187624962000,3.019962158203125,1.3603503412134945,-9.582809095910191,-1.5778515208877621
1758972187634921000,3.0299208984375,1.4480882458992301,-9.572133972638845,-1.564506301624328
1758972187644879000,3.039879150390625,1.524298209876567,-9.56255716599822,-1.5506101704798638
1758972187654837200,3.049837158203125,1.589033278506994,-9.554213116022943,-1.5370020624965428
1758972187664795000,3.059794921875,1.6407945915348827,-9.547236847269534,-1.52592946434021
1758972187674753000,3.0697529296875,1.6750032967373727,-9.542730183500051,-1.5169177442364394
1758972187684712000,3.0797119140625,1.6854774906091392,-9.542460134387015,-1.5069893476791678
1758972187694670000,3.089670166015625,1.665512560945004,-9.547828383421898,-1.4951384586267173
1758972187704628000,3.0996279296875,1.6097269608370959,-9.5592768291533,-1.4830293570294975
1758972187714586000,3.109586181640625,1.518062676487863,-9.57603974790573,-1.471508430583775
1758972187724544000,3.1195439453125,1.3987776870243251,-9.596118659338355,-1.458880419678986
1758972187734503000,3.1295029296875,1.2685188836038113,-9.616928223133087,-1.4408093409374356
1758972187744461000,3.1394609375,1.1436392159383744,-9.636232643061875,-1.416157568631321
1758972187754419200,3.149419189453125,1.02889077392593,-9.653001407033205,-1.3897292881719767
1758972187764377000,3.159377197265625,0.9186870626710355,-9.667367201516031,-1.366904146771133
1758972187774336000,3.1693359375,0.8035698604114353,-9.679906365093588,-1.3505835649587212
1758972187784294100,3.179294189453125,0.6721092069204896,-9.691274731326102,-1.3408360779263078
1758972187794252000,3.189251953125,0.5038759160231798,-9.70153776666522,-1.340395932943374
1758972187804210000,3.1992099609375,0.2799840306648053,-9.70797043006122,-1.3591567475147543
1758972187814168000,3.20916796875,0.014742910424730507,-9.706377607911824,-1.3987163122259079
1758972187824127000,3.219126953125,-0.26307753872321915,-9.696384037163853,-1.4426831719852984
1758972187834084900,3.2290849609375,-0.5359596284283324,-9.680245972311496,-1.4751106928594409
1758972187844043000,3.23904296875,-0.795427032096684,-9.659361005192995,-1.4947970978431402
1758972187854001200,3.249001220703125,-1.033296315408498,-9.6356644877851,-1.5022164341889321
1758972187863959000,3.258958984375,-1.246334085933119,-9.611964463245869,-1.4923825840473175
1758972187873918000,3.26891796875,-1.440553028088808,-9.589568507042527,-1.4612931799091398
1758972187883876000,3.2788759765625,-1.625136273023486,-9.567338555055857,-1.4125804407969116
1758972187893834200,3.288834228515625,-1.8029108608566224,-9.543116552469133,-1.359719788224995
1758972187903791900,3.2987919921875,-1.9691037319675087,-9.515459899258612,-1.3225092708580195
1758972187913750000,3.30875,-2.1156971457257865,-9.484756717959046,-1.3166546996109187
1758972187923709000,3.318708984375,-2.2379519447803498,-9.452072007453442,-1.3491709216818213
1758972187933667000,3.3286669921875,-2.339679065721482,-9.417947035011649,-1.4137160206981003
1758972187943625000,3.338625,-2.4272135567896065,-9.38321766693592,-1.494737768871337
1758972187953583000,3.3485830078125,-2.5084862109839916,-9.348637351942061,-1.57507679547742
1758972187963541000,3.358541015625,-2.5919974378854036,-9.314386122772097,-1.6413886119052767
1758972187973500000,3.3685,-2.6797540472716093,-9.281714856269955,-1.6849430914714931
1758972187983458000,3.3784580078125,-2.7677529409810897,-9.254159909868239,-1.6942383046917617
1758972187993416200,3.388416259765625,-2.8476389631226655,-9.234801713925599,-1.6672792783565817
1758972188003374000,3.3983740234375,-2.9117323728486895,-9.224144710832833,-1.6147301759518682
1758972188013332200,3.408332275390625,-2.95709740896821,-9.220511907288431,-1.5518063945271074
1758972188023291100,3.418291015625,-2.9874294188678263,-9.221449480399489,-1.4867879789106546
1758972188033249000,3.4282490234375,-3.0093323308572173,-9.224492501357197,-1.4223305581778287
1758972188043207000,3.43820703125,-3.0264865870147943,-9.228108353766798,-1.3611683795981109
1758972188053165000,3.4481650390625,-3.040707420068979,-9.231414994096756,-1.3059247774124145
1758972188063123000,3.458123046875,-3.055524757711589,-9.232885651171207,-1.2601517450138926
1758972188073081900,3.468081787109375,-3.073900372357666,-9.23190949961543,-1.222050562417507
1758972188083040000,3.4780400390625,-3.0957506773769854,-9.228817963340878,-1.1897950371094048
1758972188092998100,3.487998046875,-3.1185031919330357,-9.224813403874634,-1.1610842717360705
1758972188102956000,3.4979560546875,-3.1404695245474574,-9.220724088734388,-1.1340475039895623
1758972188112914200,3.5079140625,-3.1595901123419403,-9.217149152857065,-1.1097349005099386
1758972188122873000,3.517873046875,-3.1728423926249145,-9.214817495039105,-1.091142209047079
1758972188132831000,3.5278310546875,-3.17604937197268,-9.214737415540219,-1.082452998895943
1758972188142789000,3.5377890625,-3.1646888967856763,-9.218170312598348,-1.0864954792197794
1758972188152747000,3.5477470703125,-3.133314684356749,-9.226548849365114,-1.1061178059913217
1758972188162706200,3.5577060546875,-3.0760750860482453,-9.241407980322837,-1.1421650517325848
1758972188172663800,3.567663818359375,-2.988443856607377,-9.263663066750764,-1.1933844399034976
1758972188182622000,3.5776220703125,-2.8701868950173255,-9.292517405313253,-1.2575861323095858
1758972188192580000,3.587580078125,-2.7295754782781003,-9.324827437287569,-1.329449883776158
1758972188202538000,3.5975380859375,-2.5872397219642997,-9.354251100170611,-1.4051882847189903
1758972188212497000,3.607496826171875,-2.4802479584932327,-9.37152606009841,-1.4809585421048104
1758972188222455000,3.617455078125,-2.4649773241251705,-9.364987013718485,-1.5463728251710533
1758972188232413000,3.627412841796875,-2.5710528495341536,-9.328885772767663,-1.5912066770233213
1758972188242371000,3.63737109375,-2.7369451302632686,-9.27623963972926,-1.6220038202166556
1758972188252329200,3.6473291015625,-2.880748036520183,-9.229773072108626,-1.6379728121124206
1758972188262288100,3.6572880859375,-2.976107229864597,-9.203117704895138,-1.617351172105223
1758972188272246000,3.66724609375,-3.0324893345609305,-9.193814454498886,-1.5646524320967494
1758972188282204000,3.677203857421875,-3.055032882541418,-9.197275408607721,-1.4990987405598162
1758972188292162000,3.687162109375,-3.0373724304273724,-9.213550836104154,-1.4336100770831108
1758972188302120000,3.697119873046875,-2.9748323876231906,-9.242201761049031,-1.3793063860960304
1758972188312078800,3.707078857421875,-2.870339162969589,-9.280896525624394,-1.3403373346239327
1758972188322036700,3.71703662109375,-2.7359035122558475,-9.32574046047926,-1.3098653317317366
1758972188331995000,3.726994873046875,-2.588699565383792,-9.371756361722946,-1.2803089823797345
1758972188341952800,3.736952880859375,-2.4363686308868227,-9.416848133859038,-1.2479717701375483
1758972188351910700,3.74691064453125,-2.286154688543826,-9.458318792888521,-1.218228154585138
1758972188361869600,3.75686962890625,-2.155224415602535,-9.492381806010007,-1.1916895456191152
1758972188371827700,3.76682763671875,-2.0751780883327124,-9.514107315605878,-1.160078017302975
1758972188381785600,3.77678564453125,-2.0740634050890803,-9.518280801898241,-1.1273594045277684
1758972188391743700,3.78674365234375,-2.129698198549449,-9.507544888350367,-1.1141752941101788
1758972188401701600,3.79670166015625,-2.1881850204400717,-9.492287697985768,-1.130807279959321
1758972188411660500,3.80666064453125,-2.204915644358098,-9.482688094991445,-1.1778605614267288
1758972188421618700,3.81661865234375,-2.1632650987170634,-9.483597026529907,-1.245809039145708
1758972188431576800,3.826576904296875,-2.0664374402552843,-9.495000464075803,-1.3210551265269517
1758972188441534700,3.83653466796875,-1.92686340373978,-9.514135372656582,-1.3924163352988659
1758972188451492900,3.846492919921875,-1.7576229816265403,-9.537661794194578,-1.4540164669044315
1758972188461451800,3.85645166015625,-1.571213251917064,-9.562544306516648,-1.5031420246012508
1758972188471410000,3.866409912109375,-1.3849072748430074,-9.586028057956694,-1.536390068078041
1758972188481367600,3.876367431640625,-1.2187764361176638,-9.60530500535667,-1.5566235855504869
1758972188491325700,3.88632568359375,-1.0897593033213169,-9.61811538709104,-1.5731094409272073
1758972188501283600,3.89628369140625,-1.0113768906757235,-9.622973348516226,-1.5955777317143975
1758972188511242800,3.90624267578125,-0.9898520912837236,-9.619099721953273,-1.6320258864067494
1758972188521200600,3.91620068359375,-1.021040206556022,-9.607257892990111,-1.6817964640088379
1758972188531158800,3.92615869140625,-1.0916188135828822,-9.590361703246831,-1.7331173397928474
1758972188541116700,3.93611669921875,-1.1764241719480604,-9.573193710824846,-1.7721107950538395
1758972188551074800,3.94607470703125,-1.216628098977357,-9.564766658741235,-1.7903757889322935
1758972188561033700,3.95603369140625,-1.1632996827632187,-9.57166109443009,-1.7889808274425565
1758972188570991900,3.965991943359375,-1.0376501267038285,-9.588887539041043,-1.773960660704225
1758972188580949800,3.97594970703125,-0.8866839777540415,-9.608047582063078,-1.7520321758821606
1758972188590907600,3.98590771484375,-0.7488084157194942,-9.624394321230053,-1.7264648961663245
1758972188600866800,3.99586669921875,-0.6426072911694646,-9.636482233908772,-1.7016674317792058
1758972188610824700,4.00582470703125,-0.5696712342962622,-9.644066989949344,-1.6845934012509882
1758972188620782600,4.015782470703125,-0.5215760790931061,-9.647392334979772,-1.6811156421378255
1758972188630740700,4.02574072265625,-0.48852640773262823,-9.64711410256028,-1.6925988669216632
1758972188640698600,4.03569873046875,-0.4596600864714011,-9.644669632017612,-1.7144821974277495
1758972188650657500,4.045657470703125,-0.42365583962164816,-9.641939330270885,-1.7389356706827879
1758972188660615700,4.05561572265625,-0.3704996381692588,-9.640410805529356,-1.7594294465266167
1758972188670573800,4.06557373046875,-0.29575154517171903,-9.640139587372541,-1.7749938031442463
1758972188680531700,4.07553173828125,-0.20193477723002431,-9.640369304475188,-1.786870411159843
1758972188690489900,4.08548974609375,-0.09632771871616132,-9.640413728138803,-1.795425181276351
1758972188700448800,4.09544873046875,0.013084367237007245,-9.639867784693836,-1.8008796472899615
1758972188710406700,4.10540673828125,0.12045981452972628,-9.638710431352257,-1.803097469469905
1758972188720364500,4.115364501953125,0.22261691525280475,-9.637076692670583,-1.8021010057784617
1758972188730322700,4.12532275390625,0.31742640229258684,-9.634562664023042,-1.8013336746677755
1758972188740280600,4.135280517578125,0.40455702526755627,-9.630958502051234,-1.8031537297017872
1758972188750239500,4.145239501953125,0.48619047559835016,-9.626664604249596,-1.8059220253713428
1758972188760197600,4.15519775390625,0.5661190217074007,-9.622195349881052,-1.8064489718548953
1758972188770155800,4.16515576171875,0.6483962498344481,-9.61791080442965,-1.80160489282459
1758972188780113700,4.17511376953125,0.7356514855697751,-9.613635026806593,-1.7908778932355343
1758972188790071800,4.18507177734375,0.8299720565814525,-9.608910920894145,-1.7749315515629946
1758972188800030700,4.19503076171875,0.9328227747250348,-9.603173254024982,-1.7547898040272294
1758972188809988900,4.20498876953125,1.0446207694340497,-9.59571709280014,-1.732448646751046
1758972188819946800,4.21494677734375,1.163387434111908,-9.585694295957683,-1.7121356343016028
1758972188829905000,4.22490478515625,1.2829083512231707,-9.572859948825835,-1.6984974234409629
1758972188839862500,4.234862548828125,1.393071730467677,-9.558035304659604,-1.6952058345496654
1758972188849821700,4.24482177734375,1.482913767825812,-9.543184357008338,-1.7026419758997857
1758972188859779600,4.254779541015625,1.543916225799173,-9.53083457852304,-1.717529017777741
1758972188869737700,4.26473779296875,1.571474825462699,-9.523412904089689,-1.73362558157593
1758972188879695600,4.274695556640625,1.5657450496390461,-9.52223567700386,-1.7452365243926644
1758972188889653800,4.28465380859375,1.5323858008727431,-9.527242106989025,-1.7475192285023629
1758972188899612700,4.29461279296875,1.480973301282525,-9.537194761204718,-1.7375336949303746
1758972188909570800,4.30457080078125,1.4192515891239046,-9.550125554448366,-1.7179086647450923
1758972188919528700,4.31452880859375,1.3530376801125705,-9.56429202696681,-1.6923294023305178
1758972188929486800,4.32448681640625,1.2852575446978212,-9.579223054116964,-1.660413045848906
1758972188939444700,4.33444482421875,1.2136735600207,-9.595257074072956,-1.6212353200621903
1758972188949403600,4.344403564453125,1.131905596590042,-9.611953357329964,-1.5809943489581346
1758972188959361800,4.35436181640625,1.0389175162911415,-9.628608139532805,-1.5430322825714944
1758972188969319700,4.364319580078125,0.9349670202121138,-9.644823945796489,-1.5078379273325204
1758972188979277600,4.374277587890625,0.8149654069118202,-9.660996497440337,-1.4735561568938196
1758972188989235700,4.384235595703125,0.6709163438741117,-9.677787473243475,-1.4355099193550644
1758972188999194600,4.394194580078125,0.4879126232158392,-9.694298463061452,-1.3974622205115854
1758972189009152800,4.40415283203125,0.24700276663172988,-9.707344991639255,-1.369969964082539
1758972189019110700,4.414110595703125,-0.042514665356813926,-9.711759300950169,-1.3602686542794107
1758972189029068800,4.42406884765625,-0.34882567609753456,-9.70457728049159,-1.367441760779172
1758972189039026700,4.434026611328125,-0.6428791669134051,-9.687227501761912,-1.383737500411272
1758972189048985600,4.443985595703125,-0.911930135756731,-9.66281903669238,-1.4031108939230441
1758972189058943700,4.45394384765625,-1.1557071818076075,-9.634144146350026,-1.4205724624641238
1758972189068902000,4.46390185546875,-1.3776352380134165,-9.60367886545956,-1.4289368245750664
1758972189078859800,4.47385986328125,-1.5781339910909533,-9.573796352893114,-1.4220814057223499
1758972189088817700,4.483817626953125,-1.7528018450804053,-9.547675823208689,-1.3928219934903086
1758972189098776600,4.493776611328125,-1.903327337590605,-9.52654360333085,-1.3389235223032534
1758972189108734700,4.503734619140625,-2.042659382043779,-9.50707434822917,-1.2702363550461828
1758972189118692600,4.513692626953125,-2.179420114704221,-9.485000463587046,-1.2063526425480842
1758972189128650800,4.523650634765625,-2.325698471163958,-9.453704577091335,-1.1785503703217952
1758972189138608600,4.533608642578125,-2.485304949621856,-9.409888816240429,-1.2031823419488965
1758972189148567600,4.543567626953125,-2.645162626361847,-9.357284184256196,-1.2707210698232054
1758972189158525700,4.553525634765625,-2.794903105974197,-9.301338425150513,-1.3579393345490096
1758972189168483800,4.56348388671875,-2.93305777721107,-9.245782542145252,-1.4432842066183686
1758972189178441700,4.573441650390625,-3.061741440269351,-9.192906107482314,-1.5121572518363595
1758972189188399900,4.58339990234375,-3.178593211236596,-9.145570940333604,-1.5573941315315663
1758972189198358800,4.59335888671875,-3.274519683074951,-9.108098411029577,-1.578120400957018
1758972189208317000,4.60331689453125,-3.3384581945002076,-9.085016810649632,-1.5771968563713132
1758972189218274600,4.613274658203125,-3.371386650633812,-9.076381668773292,-1.5567260230116544
1758972189228232700,4.623232666015625,-3.3852684609919783,-9.077798549833894,-1.5178765062659978
1758972189238190600,4.633190673828125,-3.396694402630627,-9.081959761166573,-1.466583687532693
1758972189248149800,4.643149658203125,-3.4137036973595616,-9.084159901559353,-1.4124655822455883
1758972189258107600,4.653107666015625,-3.4363860692888495,-9.083397685015202,-1.3614431048862636
1758972189268065800,4.663065673828125,-3.4633614622369406,-9.079964203435182,-1.3151963174961507
1758972189278023700,4.673023681640625,-3.495386539790034,-9.073838414031266,-1.2720578713849187
1758972189287981800,4.68298193359375,-3.5329119683250783,-9.065072923773526,-1.2302049350395798
1758972189297940700,4.692940673828125,-3.574390518400073,-9.05428557229936,-1.1891350388307125
1758972189307899000,4.70289892578125,-3.619263679349422,-9.04149447978735,-1.1500867846425622
1758972189317856800,4.712856689453125,-3.6662867118090388,-9.027157911399007,-1.1131624638058244
1758972189327814400,4.722814453125,-3.7121819092825055,-9.012441988304257,-1.07982002004385
1758972189337772300,4.732772216796875,-3.7509327879592775,-8.999496582013368,-1.0535348743822426
1758972189347731500,4.7427314453125,-3.7760786273926494,-8.990662118172645,-1.0390274794716388
1758972189357689300,4.752689453125,-3.7820375357970595,-8.987740093246101,-1.042640920728445
1758972189367647200,4.762647216796875,-3.7652719866961237,-8.991985475730896,-1.0664522966876626
1758972189377605000,4.772605224609375,-3.7219168290942903,-9.00456614036262,-1.1115388081267474
1758972189387563300,4.782563232421875,-3.6472330517709253,-9.026732379463315,-1.1773502738170325
1758972189397522200,4.792522216796875,-3.5382170889958737,-9.058568948706984,-1.262424366120994
1758972189407480300,4.802480224609375,-3.3960745171666145,-9.098390671485662,-1.3624661643236875
1758972189417438200,4.812438232421875,-3.231800193028152,-9.142245010781288,-1.4646465819902716
1758972189427396400,4.822396240234375,-3.0697832924276587,-9.184307790485024,-1.547682738725841
1758972189437354200,4.832354248046875,-2.949406854465604,-9.21469416092038,-1.600247623221576
1758972189447313400,4.8423134765625,-2.9116750897035,-9.223504659363627,-1.6184841216579078
1758972189457271300,4.852271240234375,-2.9551851456061002,-9.210978939789532,-1.6109375056706368
1758972189467229400,4.8622294921875,-3.025504005718231,-9.190791307285428,-1.5956338458158075
1758972189477187000,4.87218701171875,-3.0722046743556857,-9.178777044364809,-1.575445190398395
1758972189487145200,4.882145263671875,-3.0784450300499797,-9.183183170369267,-1.537111660350859
1758972189497104100,4.892104248046875,-3.047357817868888,-9.203886351180076,-1.4739306892946362
1758972189507062300,4.902062255859375,-2.9914591127753254,-9.234207255163788,-1.3967618171572684
1758972189517020200,4.912020263671875,-2.9277208000972865,-9.265400265806912,-1.323324240502715
1758972189526978300,4.921978271484375,-2.8685838437348603,-9.29158918455243,-1.2680636871822177
1758972189536936200,4.931936279296875,-2.819331152527034,-9.310318434941768,-1.240856531304866
1758972189546895400,4.941895263671875,-2.7787390298977495,-9.322926572102308,-1.237747020982206
1758972189556853200,4.951853271484375,-2.744921515969932,-9.33345907203257,-1.2338333546698093
1758972189566811400,4.961811279296875,-2.7156010212004182,-9.34498467465341,-1.2112618227038532
1758972189576769300,4.971769287109375,-2.677145033816993,-9.360125545161962,-1.1795571362115442
1758972189586727400,4.9817275390625,-2.623430687025189,-9.378948319053649,-1.1503619483221321
1758972189596686300,4.991686279296875,-2.56324539065361,-9.399618766638635,-1.11685189290829
1758972189606644200,5.001644287109375,-2.513888362288475,-9.41859819239676,-1.0680850855212658
1758972189616602000,5.01160205078125,-2.4838725787311793,-9.433085567432641,-1.0087827094640582
1758972189626560300,5.021560302734375,-2.4637223556280134,-9.443657814851402,-0.9579966712091118
1758972189636518100,5.03151806640625,-2.4381407551258802,-9.45278453963697,-0.9331322790656238
1758972189646477300,5.041477294921875,-2.3954842473126945,-9.463528636491299,-0.9347135569076984
1758972189656435200,5.051435302734375,-2.325181023161113,-9.478824405300617,-0.9569781418163329
1758972189666393300,5.061393310546875,-2.2188009618476032,-9.500427749821544,-0.9945849650245159
1758972189676351200,5.071351318359375,-2.0747136856913566,-9.528383678239583,-1.0372433725338428
1758972189686309400,5.081309326171875,-1.8968289154820144,-9.56096960454583,-1.0771702361874282
1758972189696268300,5.091268310546875,-1.6945561384692787,-9.59584568761587,-1.1039094822920859
1758972189706226400,5.101226318359375,-1.4841744354113935,-9.629819853410124,-1.1109432533863932
1758972189716184300,5.111184326171875,-1.2853485839821397,-9.659205522370337,-1.1036431595060974
1758972189726142200,5.12114208984375,-1.1185472255840896,-9.681121001580356,-1.0932342128902672
1758972189736100000,5.13110009765625,-1.0073043805398045,-9.694192664599418,-1.0855358404073863
1758972189746059300,5.141059326171875,-0.9637252049237489,-9.69795464748144,-1.091465157391131
1758972189756017200,5.15101708984375,-0.9880277984660119,-9.692676999339461,-1.1163374405801296
1758972189765975300,5.160975341796875,-1.068194610310346,-9.679341716948151,-1.1574425542328506
1758972189775933200,5.17093310546875,-1.1836213899757713,-9.659974753177165,-1.2059474958132952
1758972189785891300,5.180891357421875,-1.2932814228080212,-9.64075625796616,-1.246455374225229
1758972189795850200,5.190850341796875,-1.3028900858916341,-9.636283496466278,-1.27080100319162
1758972189805808400,5.200808349609375,-1.1923225097604095,-9.648430445855855,-1.287074238730967
1758972189815766300,5.210766357421875,-1.0272422030013053,-9.665740477097033,-1.2994761857949197
1758972189825724400,5.220724365234375,-0.8683128200873732,-9.680165892812608,-1.3079761569842696
1758972189835682000,5.23068212890625,-0.7474942643810063,-9.689297293773294,-1.3149750759609042
1758972189845641500,5.240641357421875,-0.672701619855687,-9.69303414221406,-1.3277623690806328
1758972189855599000,5.25059912109375,-0.6370558675874024,-9.692197106868027,-1.351249919912964
1758972189865557200,5.26055712890625,-0.6247304198257625,-9.688153384435177,-1.3855692458830773
1758972189875515100,5.27051513671875,-0.6167918819114565,-9.682686935722828,-1.426717541090399
1758972189885473300,5.280473388671875,-0.5947603751063346,-9.677799748203158,-1.468615631751716
1758972189895432200,5.29043212890625,-0.5416159006243572,-9.675280458858609,-1.5053205376841128
1758972189905390300,5.300390380859375,-0.4475746580107137,-9.675548754405975,-1.5342195921711623
1758972189915348200,5.31034814453125,-0.32030075215250253,-9.676654669821263,-1.5588948914833365
1758972189925306400,5.320306396484375,-0.17878791132783517,-9.676096451416612,-1.584799148068577
1758972189935264300,5.33026416015625,-0.03998100499361753,-9.67309668507874,-1.612455509018153
1758972189945223400,5.340223388671875,0.08592638001805171,-9.668332831677795,-1.639012676554173
1758972189955181300,5.350181396484375,0.19322174781188367,-9.662422730851173,-1.664525449603796
1758972189965139500,5.360139404296875,0.28161667336793617,-9.65578899192512,-1.690206711088121
1758972189975097000,5.37009716796875,0.35637382645476606,-9.648784666121005,-1.7159055082291363
1758972189985055200,5.38005517578125,0.42679026518985624,-9.6414454092741,-1.740906678494811
1758972189995014100,5.39001416015625,0.5029678612675518,-9.633604632645845,-1.7638218362666664
1758972190004972300,5.39997216796875,0.591536700352095,-9.62516647464633,-1.7823193237267434
1758972190014930200,5.40993017578125,0.690969390213117,-9.616003509503603,-1.7959532968036829
1758972190024888300,5.419888427734375,0.793982897702977,-9.605933366388083,-1.8072163029655812
1758972190034846200,5.42984619140625,0.8921872513454407,-9.595279285904764,-1.8179707750834524
1758972190044805400,5.439805419921875,0.9794514010395854,-9.58480523816347,-1.8282753114767372
1758972190054763300,5.44976318359375,1.0526836643803865,-9.57525824213922,-1.837580023177713
1758972190064721400,5.459721435546875,1.112661455481127,-9.566740589162707,-1.846582244800776
1758972190074679300,5.46967919921875,1.1614844500347972,-9.559097380933165,-1.8560766338549552
1758972190084637200,5.47963720703125,1.2007196050971747,-9.552354920935631,-1.8657954793147742
1758972190094596400,5.489596435546875,1.2305499490849674,-9.546763384538888,-1.8749527453690766
1758972190104554200,5.49955419921875,1.251186786661297,-9.54286286996901,-1.8811423937894403
1758972190114512100,5.50951220703125,1.2640253715768455,-9.5410894305557,-1.881550536198914
1758972190124470300,5.51947021484375,1.2726796565450726,-9.54122387059033,-1.8750250799529253
1758972190134428200,5.52942822265625,1.2821348826326429,-9.542529692491888,-1.861894818614423
1758972190144387300,5.53938720703125,1.2966612745046615,-9.544135374122858,-1.8435120435751973
1758972190154345200,5.54934521484375,1.3165392565377056,-9.54592108849585,-1.8200249311342835
1758972190164303400,5.559303466796875,1.33624889626652,-9.54888695256412,-1.7898500114925204
1758972190174261200,5.56926123046875,1.3443638136610387,-9.555006896749138,-1.7506942052766679
1758972190184219400,5.579219482421875,1.328197691757977,-9.565917582342028,-1.7027917596340179
1758972190194178300,5.58917822265625,1.276224489545077,-9.5820264210999,-1.6511819839060307
1758972190204136400,5.599136474609375,1.1791119497273117,-9.603022447377443,-1.6006335537992418
1758972190214094000,5.609093994140625,1.0301475690539925,-9.628124739930033,-1.5518933421581982
1758972190224052200,5.61905224609375,0.829402147739008,-9.655224343779683,-1.5030378335744141
1758972190234010000,5.629010009765625,0.5854341456932947,-9.68117185498476,-1.450020383005589
1758972190243969300,5.63896923828125,0.3112565910838544,-9.70235668183267,-1.3920447255074977
1758972190253927200,5.64892724609375,0.02092938621554058,-9.715671505957841,-1.3325460962258278
1758972190263885300,5.65888525390625,-0.2731715011057444,-9.719323598724603,-1.2769111566349862
1758972190273843200,5.66884326171875,-0.5587563839849085,-9.713131758347153,-1.230133331108093
1758972190283801300,5.67880126953125,-0.8262212526805698,-9.698761872211097,-1.192371901860088
1758972190293760300,5.68876025390625,-1.0751497632104903,-9.678329325035214,-1.1594774941265582
1758972190303718400,5.698718505859375,-1.3085107022523879,-9.652353756779432,-1.135898757879436
1758972190313676300,5.70867626953125,-1.5240974266074596,-9.621840545094013,-1.125930686898902
1758972190323635000,5.718635009765625,-1.7212142821617424,-9.58896469593048,-1.122299636920169
1758972190333592800,5.7285927734375,-1.9002407697521149,-9.556150221565366,-1.1132968307752162
1758972190343552000,5.738552001953125,-2.0604577813237905,-9.52594739100337,-1.0868497725501656
1758972190353510000,5.748510009765625,-2.2039831858135757,-9.49937151876688,-1.0367244632262735
1758972190363468000,5.758468017578125,-2.3337590280227363,-9.475621225345135,-0.9677607440501451
1758972190373426000,5.768426025390625,-2.451981064429879,-9.452458376422523,-0.8995602643314748
1758972190383384000,5.778384033203125,-2.572900523227453,-9.423559614196419,-0.8643423820864409
1758972190393343000,5.788343017578125,-2.695508081242442,-9.387909624144434,-0.8785136769104749
1758972190403301000,5.798301025390625,-2.8112942688047884,-9.348539152264594,-0.933725641848892
1758972190413258800,5.8082587890625,-2.9165196071252226,-9.307885654836893,-1.0136805645082145
1758972190423217000,5.818216796875,-3.0062820033758877,-9.269444572761655,-1.100016493441537
1758972190433174800,5.8281748046875,-3.0764158623099327,-9.23770795676112,-1.1708256212886423
1758972190443133000,5.8381328125,-3.1310511233389375,-9.214459767642616,-1.2085578975073992
1758972190453091800,5.848091796875,-3.17557386341542,-9.198961169737577,-1.2104642425853758
1758972190463050000,5.858050048828125,-3.2124086793377993,-9.189672532388567,-1.1835179296012968
1758972190473007900,5.8680078125,-3.2428567168325184,-9.184565564638376,-1.1393130233023314
1758972190482966000,5.877966064453125,-3.267849996052682,-9.181866827073693,-1.08852939620018
1758972190492924000,5.887923828125,-3.290762377345562,-9.179125419411063,-1.0415933113716542
1758972190502883000,5.897883056640625,-3.3136335498452185,-9.175182234743238,-1.0031178155701608
1758972190512841000,5.907841064453125,-3.339614086537063,-9.168815622320771,-0.9747682116594165
1758972190522799000,5.917799072265625,-3.3714231832519173,-9.159089178076385,-0.9565527560111134
1758972190532756700,5.9277568359375,-3.410150096531212,-9.145856187015772,-0.9458103396572172
1758972190542715000,5.93771484375,-3.4554449900239703,-9.129432290959357,-0.9400779334850609
1758972190552673800,5.947673828125,-3.505010400442779,-9.110901778012513,-0.9363628584846854
1758972190562632000,5.9576318359375,-3.5561055046468972,-9.09177037656307,-0.9296258783798664
1758972190572589800,5.96758984375,-3.605845687110722,-9.073041126173734,-0.9209577840819955
1758972190582548000,5.9775478515625,-3.6495308073192834,-9.05605784266889,-0.916022446571663
1758972190592505900,5.987505859375,-3.679438454326987,-9.043215312230586,-0.9232370541255921
1758972190602465000,5.997465087890625,-3.6874975498810407,-9.037353142198919,-0.9481394401919097
1758972190612423000,6.0074228515625,-3.6679119749233124,-9.040404346463085,-0.993917148765549
1758972190622381000,6.017381103515625,-3.6177842544466254,-9.053211221066118,-1.0589617217365652
1758972190632339000,6.0273388671875,-3.536987254939973,-9.075168785852194,-1.1407917175527662
1758972190642296800,6.037296875,-3.4277678785473107,-9.104877695417404,-1.2336946768514812
1758972190652256000,6.047256103515625,-3.295845671959221,-9.139884711390733,-1.3305237966179846
1758972190662214000,6.0572138671875,-3.1542087115645407,-9.175873139616847,-1.4229117190666496
1758972190672171800,6.067171875,-3.0286437650486824,-9.205503723248839,-1.5021357701681552
1758972190682130000,6.0771298828125,-2.9601179258331656,-9.217537275391816,-1.563678764759004
1758972190692087800,6.087087890625,-2.988427489994466,-9.200538794317842,-1.6092762944601475
1758972190702047000,6.097046875,-3.0971468079105016,-9.159370917627214,-1.6382909381508826
1758972190712004900,6.1070048828125,-3.2172578729346393,-9.115265818440914,-1.652751717440784
1758972190721963000,6.116962890625,-3.2985473321333525,-9.086848117730021,-1.6489885655149816
1758972190731921000,6.1269208984375,-3.3317151499807833,-9.080124946954847,-1.6190690819390117
1758972190741879000,6.136879150390625,-3.329669615627825,-9.08862272618711,-1.5750091370686887
1758972190751838000,6.146837890625,-3.304075740166008,-9.104334090059995,-1.5377232163779437
1758972190761796000,6.156796142578125,-3.2591999488681553,-9.124663761383294,-1.5127775756917894
1758972190771753700,6.166753662109375,-3.196905405257642,-9.14917744039297,-1.4975783991247416
1758972190781712000,6.1767119140625,-3.122724901281297,-9.176922940930723,-1.4842719044364987
1758972190791669800,6.186669677734375,-3.0449516335099935,-9.205663297724723,-1.4677894100606441
1758972190801629000,6.19662890625,-2.9713340241134163,-9.233777631574869,-1.441855050598085
1758972190811586800,6.2065869140625,-2.9013033332929012,-9.262837137320638,-1.3973874017097054
1758972190821545000,6.216544921875,-2.8145804508686063,-9.29798736115694,-1.340131875179708
1758972190831502800,6.2265029296875,-2.702873057052493,-9.338582406395673,-1.286761665650457
1758972190841461000,6.2364609375,-2.5835133949175475,-9.37881563258469,-1.2384183443725107
1758972190851420000,6.246419921875,-2.5017440432474016,-9.407844158670306,-1.1849696627795696
1758972190861378000,6.2563779296875,-2.4927082116156813,-9.416793773323297,-1.131733381828293
1758972190871336000,6.2663359375,-2.542754099027812,-9.406225033035874,-1.1080299962881952
1758972190881294000,6.276294189453125,-2.612073134447634,-9.386169502478838,-1.1168193058129399
1758972190891251700,6.286251708984375,-2.6466239310860633,-9.372284769511221,-1.1515255852740258
1758972190901211000,6.2962109375,-2.6132974155455826,-9.374455683809519,-1.208571341510862
1758972190911168800,6.306168701171875,-2.512804366444051,-9.393365551462768,-1.273147274056822
1758972190921127000,6.316126953125,-2.359955253291875,-9.424633380907773,-1.3331361710734664
1758972190931084800,6.326084716796875,-2.169863327938318,-9.463512854400276,-1.379854521498084
1758972190941043000,6.33604296875,-1.9570207877248524,-9.505630579161643,-1.4083518633164465
1758972190951000800,6.346000732421875,-1.7361100918680428,-9.546412671405076,-1.422089442898333
1758972190960960000,6.3559599609375,-1.5220723505206406,-9.58273603067398,-1.422972509343177
1758972190970918000,6.36591796875,-1.3467790581092238,-9.610717678055167,-1.4109240518920123
1758972190980876000,6.3758759765625,-1.269357818645984,-9.624962476506829,-1.3853624712646007
1758972190990834000,6.385833984375,-1.312770113262534,-9.622439680030942,-1.3622406850047408
1758972191000791800,6.395791748046875,-1.4343413139671086,-9.60442763800025,-1.3667508559055626
1758972191010751000,6.4057509765625,-1.5834372120656073,-9.576745265826583,-1.3960790955901146
1758972191020708900,6.415708984375,-1.713331712218374,-9.550580897000431,-1.4217209018468855
1758972191030666800,6.425666748046875,-1.7588811649940908,-9.54162952878177,-1.4261927865639328
1758972191040625000,6.435625,-1.684428712208569,-9.556516716790199,-1.4163548447690903
1758972191050582800,6.445582763671875,-1.5268080007404088,-9.584702362310885,-1.4045372734643518
1758972191060542000,6.4555419921875,-1.3365074010722338,-9.614120764496922,-1.397435040243715
1758972191070499800,6.465499755859375,-1.1497605483628808,-9.638311202901601,-1.396913500587642
1758972191080458000,6.4754580078125,-0.9872508958093822,-9.655318451803922,-1.4037681887879967
1758972191090415900,6.485415771484375,-0.8572840610727668,-9.665776132932304,-1.417118522617966
1758972191100374000,6.4953740234375,-0.7608705363698304,-9.671011110976337,-1.4363146598666905
1758972191110333000,6.5053330078125,-0.6943428852342068,-9.672502226316928,-1.4597835059985518
1758972191120291000,6.515291015625,-0.650300622151047,-9.671607907825708,-1.4857644810818136
1758972191130248700,6.525248779296875,-0.6199515149861574,-9.669323596280814,-1.5133582981891929
1758972191140206800,6.535206787109375,-0.5942062118222937,-9.666424367707966,-1.541936596289277
1758972191150164700,6.545164794921875,-0.5618394446920603,-9.663744919365644,-1.5705961429320274
1758972191160124000,6.5551240234375,-0.5114633389448747,-9.661974402561784,-1.5984464190185068
1758972191170081800,6.565081787109375,-0.43706776744574305,-9.661089436420797,-1.6256377928048371
1758972191180040000,6.5750400390625,-0.3405932332705706,-9.660566873851417,-1.6516200830623506
1758972191189997800,6.584997802734375,-0.22987629353022201,-9.659751465815305,-1.6753361819535493
1758972191199956000,6.5949560546875,-0.11484771940214558,-9.658168580538034,-1.6961654733620584
1758972191209915000,6.604914794921875,-0.0033144520311878295,-9.655516604724525,-1.7150408542238176
1758972191219873000,6.614873046875,0.09975658805314451,-9.651746438536048,-1.7332643470481037
1758972191229831000,6.624830810546875,0.19249224622724576,-9.647101827600597,-1.7512104842357337
1758972191239789000,6.6347890625,0.27528630130263043,-9.64185457459688,-1.7689685515053568
1758972191249746700,6.64474658203125,0.35052290846947576,-9.636254854893684,-1.786086421175301
1758972191259705900,6.654705810546875,0.42274822325743733,-9.630624740052223,-1.8007663961738347
1758972191269663700,6.664663818359375,0.49710934449769556,-9.6250548309654,-1.811508885592967
1758972191279622000,6.674621826171875,0.577424296108447,-9.619230070334673,-1.8186147720754144
1758972191289579800,6.684579833984375,0.6649229486782103,-9.612623803937435,-1.8236612418100238
1758972191299538000,6.694537841796875,0.7585773108661175,-9.604943186306953,-1.8275670170769094
1758972191309496800,6.704496826171875,0.8552603001601994,-9.596448329684138,-1.829502807445079
1758972191319455000,6.714455078125,0.9513123711396008,-9.587450199714302,-1.8292517552934586
1758972191329412400,6.724412353515625,1.0433997032064943,-9.578321136841177,-1.826876550594717
1758972191339370500,6.73437060546875,1.1291512563806025,-9.569318915218114,-1.823058307480812
1758972191349328600,6.74432861328125,1.2073398269545286,-9.560528875041008,-1.8190668997570871
1758972191359287600,6.75428759765625,1.2777959766454994,-9.551822421494126,-1.816678981707245
1758972191369245400,6.764245361328125,1.3409776783540843,-9.542927167376876,-1.8178842658437788
1758972191379203600,6.77420361328125,1.3986322872042656,-9.533549682700633,-1.8236378609344361
1758972191389161500,6.784161376953125,1.4535517720021307,-9.523648466411233,-1.8324027666702865
1758972191399119600,6.79411962890625,1.5090489105574785,-9.513406473860144,-1.8407240202918647
1758972191409077500,6.804077392578125,1.5658996556788682,-9.503246314373612,-1.8457175907954573
1758972191419036700,6.81403662109375,1.622318000732362,-9.493770045498012,-1.8457576305449008
1758972191428994300,6.823994384765625,1.6711584578774867,-9.486488656318187,-1.8396062683083116
1758972191438952400,6.833952392578125,1.6926571729801594,-9.485169974935054,-1.826702509202063
1758972191448910600,6.84391064453125,1.6535713632605968,-9.495317274940014,-1.8097024206928907
1758972191458868500,6.853868408203125,1.5375851230815052,-9.518065697842836,-1.792379822231084
1758972191468827400,6.863827392578125,1.3649701099686324,-9.547073181140423,-1.7778125138267873
1758972191478785500,6.87378564453125,1.1677915873549878,-9.575997662329673,-1.7626459243550896
1758972191488743400,6.883743408203125,0.9629678106851876,-9.603070378172397,-1.7389967532202601
1758972191498701600,6.89370166015625,0.745947400265187,-9.62917687933147,-1.7008520237430929
1758972191508659700,6.90365966796875,0.5027441720468924,-9.653256258577107,-1.652963168234378
1758972191518618600,6.91361865234375,0.2215018118840642,-9.671737671685218,-1.6058768612802028
1758972191528576500,6.923576416015625,-0.0931222737383563,-9.680096919229626,-1.5676219494268298
1758972191538534400,6.933534423828125,-0.4178885813318193,-9.675832832044362,-1.5407827500790356
1758972191548492500,6.943492431640625,-0.7274453827604651,-9.660614220124483,-1.5210995599657295
1758972191558450400,6.953450439453125,-1.010534156241268,-9.63721230174899,-1.5077632546611128
1758972191568409300,6.963409423828125,-1.263839055224508,-9.607437925732135,-1.5067380032666027
1758972191578367500,6.973367431640625,-1.4864173920325934,-9.57341232201159,-1.5201134715378284
1758972191588325400,6.983325439453125,-1.681488420972973,-9.538322303929924,-1.5373419619753956
1758972191598283500,6.993283447265625,-1.853072045211494,-9.506135606074333,-1.5394462407782672
1758972191608241700,7.00324169921875,-2.004772718980908,-9.479889404183625,-1.5109398388706148
1758972191618200600,7.01320068359375,-2.143386678292602,-9.459233569645882,-1.448859376402199
1758972191628158500,7.023158447265625,-2.2806806410469114,-9.438836678305268,-1.3701197478167713
1758972191638116600,7.03311669921875,-2.4352117159366604,-9.408662489315867,-1.3104201891355216
1758972191648074800,7.04307470703125,-2.6004253667518493,-9.366345442590116,-1.2960519104346633
1758972191658032400,7.053032470703125,-2.7613474578529593,-9.316090588602423,-1.3250703535176813
1758972191667991600,7.062991455078125,-2.9099487043023107,-9.262820186185836,-1.3794120384275912
1758972191677949400,7.072949462890625,-3.0437881426885722,-9.210680833625792,-1.4384310674987733
1758972191687907600,7.082907470703125,-3.1585473252907392,-9.164439891454577,-1.485613528303802
1758972191697865500,7.092865478515625,-3.2502734228298067,-9.128014825376868,-1.5117716135196386
1758972191707823600,7.10282373046875,-3.3209704686045645,-9.10231105979979,-1.5131033005148171
1758972191717782500,7.112782470703125,-3.378495313595235,-9.085410193881392,-1.4871024516873061
1758972191727740400,7.122740478515625,-3.4299142429262397,-9.073951226755977,-1.4385752982750535
1758972191737698600,7.132698486328125,-3.4780750472441313,-9.06469123097956,-1.3801225247845053
1758972191747656700,7.14265673828125,-3.5220500903099774,-9.055990038129687,-1.324607558311522
1758972191757614600,7.152614501953125,-3.5611604499489067,-9.046554685786367,-1.2838896173454821
1758972191767572500,7.162572509765625,-3.5954748074829577,-9.03576791883409,-1.264062927108258
1758972191777531600,7.17253173828125,-3.62533890760988,-9.023740796431898,-1.2646798899628222
1758972191787489500,7.182489501953125,-3.6504423692062495,-9.011938130435347,-1.2765833859853446
1758972191797447400,7.192447509765625,-3.67148837210536,-9.001658728483319,-1.2886845965370535
1758972191807405600,7.202405517578125,-3.688740535679459,-8.993715076002479,-1.2948708839565515
1758972191817363500,7.212363525390625,-3.7012303071573376,-8.988864713361858,-1.2929206266716122
1758972191827322400,7.222322265625,-3.7068376256451008,-8.987586948511003,-1.2856874605476856
1758972191837280500,7.232280517578125,-3.702583475331962,-8.990610680246352,-1.276795275170356
1758972191847238700,7.24223876953125,-3.686036537417769,-8.998515169760584,-1.268969696111232
1758972191857196500,7.252196533203125,-3.6552988693267103,-9.011400370296835,-1.2664495299838483
1758972191867154700,7.26215478515625,-3.6085432556316253,-9.029476709735393,-1.2717553813070057
1758972191877113600,7.272113525390625,-3.5434611271291967,-9.053051062068343,-1.287066639946401
1758972191887071500,7.282071533203125,-3.456727138788998,-9.082537853315472,-1.3148746843263506
1758972191897029600,7.292029541015625,-3.3470275776639578,-9.117894997900724,-1.353426387169212
1758972191906987500,7.301987548828125,-3.218676215299964,-9.157595724648237,-1.396056006975472
1758972191916945400,7.3119453125,-3.0838167862161994,-9.197737180900573,-1.43600325582996
1758972191926904300,7.321904296875,-2.9624679960906506,-9.231531898474692,-1.4741168595165013
1758972191936862500,7.331862548828125,-2.8851766666173932,-9.249189135718344,-1.5161292242072522
1758972191946820600,7.341820556640625,-2.8881124278083443,-9.240887755841015,-1.5605090486817061
1758972191956778500,7.351778564453125,-2.972172228503227,-9.207252612742781,-1.6009646854497492
1758972191966736600,7.361736572265625,-3.077854955202341,-9.166557029739021,-1.6344557439021765
1758972191976695600,7.371695556640625,-3.1486773809224364,-9.139392543959618,-1.6515879343584179
1758972191986653400,7.3816533203125,-3.1707816607028243,-9.133982209348678,-1.639184525989741
1758972191996611600,7.391611572265625,-3.153779087975621,-9.146540662148594,-1.6015177892878651
1758972192006569700,7.40156982421875,-3.1091788987487554,-9.16885653885305,-1.5605981882698834
1758972192016527400,7.41152734375,-3.044307198126614,-9.197242090860009,-1.5209633663654327
1758972192026486500,7.421486572265625,-2.964205195146799,-9.230988877639174,-1.4740221669703721
1758972192036444400,7.4314443359375,-2.877017325559258,-9.266956847599149,-1.4200989997334776
1758972192046402600,7.441402587890625,-2.788320220452547,-9.30080475666523,-1.3750116115115583
1758972192056360400,7.4513603515625,-2.703389189881086,-9.330802420043945,-1.3409686182647942
1758972192066318600,7.461318603515625,-2.6218969015866516,-9.359187387529015,-1.30447808573544
1758972192076277500,7.471277587890625,-2.533581197012961,-9.38890506492257,-1.2648498397022485
1758972192086235600,7.481235595703125,-2.437076779156178,-9.418489471325278,-1.2341469506636262
1758972192096193500,7.491193603515625,-2.3384590224072337,-9.44623730995059,-1.2126818455696105
1758972192106151700,7.501151611328125,-2.248993271015584,-9.4703692961663,-1.1935359041381626
1758972192116109600,7.511109619140625,-2.1774872469455,-9.489083348986506,-1.1773845414128155
1758972192126067700,7.521067626953125,-2.1314948727078735,-9.500093403300642,-1.1727506710670887
1758972192136026600,7.531026611328125,-2.106983093394339,-9.504719894057512,-1.1795322209659964
1758972192145984500,7.540984619140625,-2.080471518565714,-9.508088493707776,-1.1992885493807495
1758972192155942400,7.5509423828125,-2.0293108017794785,-9.514358075496554,-1.2366354064784943
1758972192165900500,7.560900634765625,-1.946751030384004,-9.525079375997185,-1.2858537570253015
1758972192175858400,7.5708583984375,-1.8354266445361076,-9.540451717174053,-1.3346839850373566
1758972192185817600,7.580817626953125,-1.703317537073791,-9.559282674372195,-1.374486856985092
1758972192195775500,7.590775390625,-1.5603164487190544,-9.578826748275755,-1.4077888226062059
1758972192205733600,7.600733642578125,-1.4229199023731052,-9.596626024338603,-1.4319342528253793
1758972192215691500,7.61069140625,-1.3116061840496958,-9.60987187488079,-1.4492784785971045
1758972192225649700,7.620649658203125,-1.2453710861198604,-9.615940381139517,-1.4673567177318037
1758972192235608600,7.630608642578125,-1.2390187944836915,-9.612620881327986,-1.4942327419586479
1758972192245566700,7.640566650390625,-1.2834202462680637,-9.601340777900814,-1.5288794001869856
1758972192255524600,7.650524658203125,-1.3393693663746118,-9.588251579225062,-1.5626548285387456
1758972192265482500,7.660482421875,-1.3653516566321253,-9.581387538674473,-1.582157547518611
1758972192275440400,7.6704404296875,-1.3353389418147503,-9.585743395796417,-1.5813745804473758
1758972192285399600,7.680399658203125,-1.2491916673213244,-9.599527006477118,-1.568117331728339
1758972192295357400,7.690357421875,-1.1256994354262948,-9.616880292338132,-1.5552423603251575
1758972192305315600,7.700315673828125,-0.9881065627906471,-9.633018357190489,-1.5488677107267081
1758972192315273500,7.7102734375,-0.8537562522727996,-9.645803604483604,-1.5491756076321004
1758972192325231400,7.7202314453125,-0.7325058079551905,-9.65470704190731,-1.5557747136361897
1758972192335190300,7.730190185546875,-0.6267794613100588,-9.660219083327055,-1.5677064128398894
1758972192345148400,7.7401484375,-0.5373782995872199,-9.662916651847958,-1.5841889072157442
1758972192355106300,7.750106201171875,-0.4662529453977942,-9.662984456387163,-1.6061524633511899
1758972192365064400,7.760064453125,-0.4123869151756167,-9.660959088039398,-1.6328513774454592
1758972192375022000,7.77002197265625,-0.36876948990840464,-9.65776701399982,-1.6619026998847721
1758972192384980200,7.779980224609375,-0.3236154296584427,-9.654339377638697,-1.6909687815017997
1758972192394939100,7.789939208984375,-0.26326749007105826,-9.651515552389622,-1.7173568760812281
1758972192404897300,7.799897216796875,-0.17621058991942554,-9.649770170027017,-1.7381855829678474
1758972192414855200,7.809855224609375,-0.061134541654121126,-9.648567223978041,-1.7526552762165664
1758972192424813300,7.819813232421875,0.07031283679672051,-9.6466312874794,-1.7629418385617435
1758972192434771200,7.829771240234375,0.20355700813699512,-9.64314286084175,-1.7716497534133493
1758972192444730400,7.83973046875,0.3275080166501924,-9.638048168051242,-1.7807688794143497
1758972192454688300,7.849688232421875,0.4373163719119504,-9.631813073053955,-1.790895428892225
1758972192464646400,7.859646484375,0.534753065650165,-9.62475555575788,-1.8023611180193722
1758972192474604300,7.869604248046875,0.6267633138928562,-9.616740007084607,-1.8154487092599272
1758972192484562200,7.879562255859375,0.7217207945685833,-9.60727718221247,-1.830225422631204
1758972192494521300,7.889521240234375,0.8250676987312734,-9.596025720357895,-1.8455141771778463
1758972192504479200,7.899479248046875,0.9357187153622507,-9.583211831492186,-1.8592627165451645
1758972192514437000,7.90943701171875,1.0471880626387893,-9.569632803472876,-1.869735302981734
1758972192524395300,7.919395263671875,1.1517908851467071,-9.556127425211667,-1.8772763660110532
1758972192534353200,7.929353271484375,1.242742198920995,-9.543529809445142,-1.8833494023144244
1758972192544312300,7.939312255859375,1.3169783786073326,-9.532080779191851,-1.8908683996424078
1758972192554270200,7.949270263671875,1.376151721457392,-9.521589195793867,-1.9015562362648546
1758972192564228400,7.959228271484375,1.4259182074062526,-9.511364738899468,-1.9160132161624728
1758972192574186200,7.969186279296875,1.4715907020397483,-9.50050841384232,-1.9352334649391472
1758972192584144400,7.979144287109375,1.5144830644354224,-9.488790503519773,-1.95948264779374
1758972192594103300,7.989103271484375,1.5519937337927519,-9.476910096111894,-1.9874276164263485
1758972192604061400,7.9990615234375,1.5819097102373838,-9.466326158255338,-2.0141063645154236
1758972192614019000,8.00901904296875,1.6051520541369915,-9.458018933159112,-2.0346365268468856
1758972192623977200,8.018977294921875,1.6205601972796022,-9.452572942712903,-2.0476900696873663
1758972192633935000,8.02893505859375,1.6203354486130177,-9.450888935148715,-2.0556249543398617
1758972192643893200,8.038893310546875,1.5936448639556764,-9.45524303870499,-2.056469296209514
1758972192653852200,8.04885205078125,1.5373939844235778,-9.467671143123507,-2.042059808715433
1758972192663810300,8.058810302734376,1.4593290402293204,-9.4873040643543,-2.007937174361199
1758972192673768200,8.068768310546876,1.3728311987325548,-9.510675003069638,-1.957751147826016
1758972192683726300,8.078726318359376,1.2821249457605182,-9.535165301203728,-1.8992497128881514
1758972192693684200,8.088684326171874,1.1733157576039432,-9.560602524799108,-1.8408099450096487
1758972192703643400,8.098643310546874,1.0208161885417997,-9.588751929962635,-1.7844212644420563
1758972192713601300,8.108601318359375,0.8042702637657523,-9.619441082736849,-1.729131631157547
1758972192723559400,8.118559326171875,0.526053772496432,-9.647937693902849,-1.6765924656249582
1758972192733517000,8.12851708984375,0.20989691521562634,-9.668177348855137,-1.6287078478999435
1758972192743475200,8.13847509765625,-0.11256174562312662,-9.67678794081211,-1.58666757228896
1758972192753434000,8.14843408203125,-0.41718748385775833,-9.674773093858361,-1.5476263323634862
1758972192763392300,8.158392333984375,-0.6964873499169946,-9.664265143847466,-1.5123669490642844
1758972192773350100,8.16835009765625,-0.9540045328330248,-9.645780808129906,-1.489686476831138
1758972192783308300,8.178308349609376,-1.1934494679637253,-9.619933250167966,-1.484233179861307
1758972192793266200,8.18826611328125,-1.4172344040825962,-9.589034254035353,-1.4873673862338066
1758972192803225300,8.198225341796874,-1.6283397452399133,-9.556348959007858,-1.4815934790074825
1758972192813183200,8.208183349609374,-1.8259281638287006,-9.524853750547766,-1.453806623546034
1758972192823141400,8.218141357421874,-2.0091887818574903,-9.495605444231629,-1.4025205268144607
1758972192833099300,8.228099365234375,-2.182035850160569,-9.46712403063476,-1.3351698688581586
1758972192843057200,8.23805712890625,-2.3397053692065177,-9.438791085597872,-1.2670442810066043
1758972192853015300,8.248015380859375,-2.474317691661417,-9.40973684054911,-1.226784020680189
1758972192862974200,8.25797412109375,-2.596354464051127,-9.375641094201802,-1.235586189686507
1758972192872932000,8.26793212890625,-2.707505685289204,-9.336914765444398,-1.2891153891697524
1758972192882890200,8.27789013671875,-2.8107585544928906,-9.295305574727058,-1.3664986347101629
1758972192892848000,8.28784814453125,-2.9117624757260083,-9.252233910241722,-1.4450596918582916
1758972192902806300,8.29780615234375,-3.0161431799158454,-9.209284410831332,-1.5041161303304136
1758972192912765200,8.30776513671875,-3.1229137018516657,-9.169139447447657,-1.531230347227305
1758972192922723300,8.317723388671874,-3.2255814646437764,-9.135056560581923,-1.5220859406545757
1758972192932681200,8.32768115234375,-3.3187320420280098,-9.109045336490869,-1.4770477984018624
1758972192942639400,8.337639404296874,-3.39863764565289,-9.090669721844792,-1.406907948118448
1758972192952597500,8.347597412109375,-3.4641695637494325,-9.077994949188827,-1.3266146603502333
1758972192962556400,8.357556396484375,-3.518087616419792,-9.06775061855018,-1.2527278786234557
1758972192972514000,8.36751416015625,-3.5643519394665955,-9.05721461148858,-1.1969364332966506
1758972192982472200,8.37747216796875,-3.604978256626427,-9.045790131154655,-1.1611379746846855
1758972192992430300,8.387430419921875,-3.6405145571708677,-9.034169251465796,-1.1405447570543736
1758972193002388200,8.39738818359375,-3.670083766004443,-9.024301937445998,-1.1237819113671779
1758972193012346400,8.407346435546875,-3.6937206621795893,-9.01700827330649,-1.1047251825891435
1758972193022305300,8.41730517578125,-3.712013274717331,-9.011941053044795,-1.0845724022027103
1758972193032263200,8.42726318359375,-3.724951959006488,-9.008526276165247,-1.0684427398525178
1758972193042221300,8.43722119140625,-3.7303169931709763,-9.007238574442267,-1.0605588547348976
1758972193052179500,8.447179443359374,-3.724228320907056,-9.009233547651768,-1.0650113040991127
1758972193062137300,8.457137451171874,-3.701341366316378,-9.01626066980958,-1.0851366119567305
1758972193072096300,8.46709619140625,-3.6542204264402387,-9.031052580749988,-1.1212080422911792
1758972193082054400,8.477054443359375,-3.572435877200961,-9.057236823320387,-1.1724192471556365
1758972193092012300,8.48701220703125,-3.450576214943826,-9.095610685378313,-1.2384455246403812
1758972193101970200,8.49697021484375,-3.294713745319843,-9.142363084203005,-1.3162294599361717
1758972193111928300,8.50692822265625,-3.1230469728425145,-9.189838536605238,-1.4013694570831954
1758972193121886200,8.51688623046875,-2.9639921369180082,-9.228474848991631,-1.4901020718947051
1758972193131845000,8.52684521484375,-2.8592691951617595,-9.247081934306024,-1.5768573952838778
1758972193141803300,8.53680322265625,-2.8630963522344826,-9.233465496885776,-1.648085186934471
1758972193151761400,8.546761474609376,-2.98179053619802,-9.187741272065043,-1.6925551739104092
1758972193161719300,8.55671923828125,-3.1360946704640984,-9.131452983132004,-1.7181087173618375
1758972193171677400,8.566677490234374,-3.2525898830786346,-9.090417792910337,-1.7191227167099714
1758972193181636400,8.57663623046875,-3.3148642606839536,-9.07564224858284,-1.6777344752669334
1758972193191594200,8.58659423828125,-3.323498818038404,-9.085639910984039,-1.604969244915992
1758972193201552100,8.59655224609375,-3.2816829988330602,-9.115243022087215,-1.5209583979293704
1758972193211510300,8.60651025390625,-3.198839588190615,-9.158815621832012,-1.4331545884005725
1758972193221468200,8.61646826171875,-3.091708123987913,-9.20898805823326,-1.3439717456035316
1758972193231427000,8.626427001953125,-2.982470919677615,-9.25764833650589,-1.2534808889478444
1758972193241385200,8.63638525390625,-2.8928137373670935,-9.298052243086696,-1.1611309604220093
1758972193251343400,8.64634326171875,-2.819150535263121,-9.330827554485202,-1.0762979833975435
1758972193261301200,8.65630126953125,-2.7318209191173315,-9.364292017191648,-1.008729591037333
1758972193271259400,8.66625927734375,-2.6150191247716545,-9.402024658736586,-0.9664365097090601
1758972193281217300,8.67621728515625,-2.4787673645466564,-9.440559848836063,-0.9497161879893392
1758972193291176200,8.68617626953125,-2.35230400788635,-9.472848838022351,-0.9498422985870391
1758972193301134300,8.69613427734375,-2.276188298063725,-9.490700136533379,-0.9570559562928974
1758972193311092500,8.706092529296875,-2.285618389710039,-9.487273669216036,-0.968500967958197
1758972193321050000,8.716050048828125,-2.351513880421966,-9.468472522634267,-0.9944049322824925
1758972193331009000,8.726009033203125,-2.4161041337542235,-9.446703173896669,-1.0452876358449459
1758972193340968000,8.735968017578125,-2.455492579682171,-9.428770042321085,-1.1132196008205413
1758972193350925800,8.74592578125,-2.4637612263336774,-9.418104855921865,-1.1830374526079743
1758972193360884000,8.755884033203126,-2.4343172513149676,-9.417468896105884,-1.2472994238339363
1758972193370841900,8.765841796875,-2.3592782308131457,-9.428336911600828,-1.3079231116227805
1758972193380800000,8.775800048828126,-2.2373582166709003,-9.449957791778445,-1.3648853542946278
1758972193390758000,8.7857578125,-2.0758046957984564,-9.478953000116348,-1.4180503966405986
1758972193400716800,8.795716796875,-1.8890128349035977,-9.511249003565311,-1.462252964852005
1758972193410674700,8.8056748046875,-1.6974436766043304,-9.542588144680858,-1.4926811286024748
1758972193420632800,8.8156328125,-1.526024156886339,-9.568910918939114,-1.5091754595465958
1758972193430591000,8.825591064453125,-1.3995930950604378,-9.58678209119439,-1.5182691588453947
1758972193440548900,8.835548828125,-1.3356972537331282,-9.593826164487004,-1.5312746247604487
1758972193450507800,8.8455078125,-1.332042530617863,-9.590570962083339,-1.554668944351375
1758972193460466000,8.8554658203125,-1.3710012068264186,-9.580362871801853,-1.5834668765515088
1758972193470424000,8.865424072265625,-1.4264026299223302,-9.568629763910174,-1.60533179461807
1758972193480382000,8.8753818359375,-1.455794874753803,-9.563034720382094,-1.6122599864460527
1758972193490340000,8.885340087890626,-1.3992284995317459,-9.57218073439002,-1.608074517454952
1758972193500299000,8.895299072265624,-1.2532345129713416,-9.59388929285109,-1.5990931924894451
1758972193510257000,8.9052568359375,-1.061035897662118,-9.618594695040583,-1.5897257908158002
1758972193520214800,8.91521484375,-0.8655718508161604,-9.639474985983966,-1.5816709330454468
1758972193530173000,8.9251728515625,-0.691434158180654,-9.65433411694169,-1.576752765865624
1758972193540130800,8.935130859375,-0.5467824530746788,-9.663502342781424,-1.5773853646807372
1758972193550089000,8.9450888671875,-0.4332771064585075,-9.66755834017396,-1.5877558059170842
1758972193560047900,8.9550478515625,-0.3488638161508366,-9.667236853134632,-1.610340416560322
1758972193570006000,8.965006103515625,-0.2862028869133442,-9.66395651628971,-1.6420701644286513
1758972193579964000,8.9749638671875,-0.23082290846426037,-9.659692429104446,-1.675538134266436
1758972193589922000,8.984922119140625,-0.16727935117334125,-9.655886607080697,-1.7047778188847005
1758972193599880000,8.9948798828125,-0.08524406030969693,-9.653060443744064,-1.7267178480140863
1758972193609838800,9.0048388671875,0.015550628344732103,-9.650724109750985,-1.7417482438854872
1758972193619797000,9.014796875,0.12502012644889765,-9.64788041075766,-1.753041206794232
1758972193629755000,9.0247548828125,0.22949081961028275,-9.643728551775217,-1.7652806567728518
1758972193639712800,9.034712646484374,0.3205180116323754,-9.637719666749238,-1.7838173071995376
1758972193649671000,9.0446708984375,0.39612920599896456,-9.630223758035898,-1.8089388889744877
1758972193659628800,9.05462890625,0.4599311219651252,-9.622248541373013,-1.8360799938783048
1758972193669588000,9.064587890625,0.5197749844878912,-9.614408349266649,-1.8610143825180827
1758972193679545900,9.0745458984375,0.5852002273395657,-9.606540100109576,-1.8821032016456125
1758972193689504000,9.08450390625,0.6634465925153344,-9.597830723953246,-1.9004956212960182
1758972193699462000,9.0944619140625,0.7569399189226329,-9.587447277104854,-1.9178860242970286
1758972193709420000,9.104419921875,0.8619799638040363,-9.575062427306175,-1.935338094357401
1758972193719378000,9.1143779296875,0.9698870885543525,-9.561113981452584,-1.953154613815993
1758972193729337000,9.124337158203126,1.0704305526688693,-9.546699671652913,-1.971065095168352
1758972193739295000,9.134294921875,1.1566232006739825,-9.533013091605902,-1.9885310476236044
1758972193749252900,9.1442529296875,1.227140579032898,-9.520864388650654,-2.004404177929461
1758972193759210800,9.154210693359374,1.2853810249470174,-9.510278112706542,-2.0181182305052876
1758972193769169000,9.1641689453125,1.3364580089725553,-9.50084451392889,-2.0293363746121527
1758972193779127800,9.1741279296875,1.3838022362105546,-9.492530274569988,-2.036499105848372
1758972193789086000,9.1840859375,1.427109170756489,-9.486219191727042,-2.0360199440293014
1758972193799043800,9.1940439453125,1.4632596576765178,-9.483570138522982,-2.022663618849963
1758972193809002000,9.204001953125,1.4894028375841677,-9.485591999739407,-1.9938957895271479
1758972193818960000,9.2139599609375,1.507746595787257,-9.491231466931104,-1.9528527082599698
1758972193828918000,9.22391796875,1.5191023947991429,-9.499225388294457,-1.9045884435676037
1758972193838877000,9.233876953125,1.5146438079550861,-9.509868947383762,-1.8543585778906941
1758972193848835000,9.2438349609375,1.4771012821547687,-9.525088143825531,-1.8058900227978825
1758972193858792700,9.253792724609376,1.3955638395443557,-9.545479189947248,-1.7625608764201401
1758972193868750800,9.263750732421874,1.2781645176969467,-9.569460954037309,-1.721077650170028
1758972193878708700,9.273708740234374,1.1403824791647492,-9.594780688732861,-1.676340098299086
1758972193888667000,9.2836669921875,0.9844419758684932,-9.619771922126413,-1.631328844053298
1758972193898625800,9.293625732421875,0.7942461517490446,-9.644478493359685,-1.5885772053025662
1758972193908584000,9.303583984375,0.5518350237565115,-9.667918405658007,-1.5482970712319015
1758972193918541800,9.313541748046875,0.26250434194514527,-9.686684480926393,-1.5065193920798599
1758972193928500000,9.3235,-0.05139540689152199,-9.697136316835879,-1.4605749486371873
1758972193938457900,9.333457763671875,-0.3664623820098117,-9.697313426968455,-1.413580119358748
1758972193948417000,9.3434169921875,-0.6647147858202457,-9.687705640667676,-1.36999597530663
1758972193958375000,9.353375,-0.9399184320744126,-9.669937344264984,-1.3338747144810854
1758972193968333000,9.3633330078125,-1.1935549010995774,-9.644901102685928,-1.3121316692285239
1758972193978290700,9.373290771484376,-1.4272050323463976,-9.613896308091283,-1.3063147996433078
1758972193988248800,9.383248779296874,-1.6408867998629808,-9.579724573898314,-1.3064359418049454
1758972193998207000,9.39320703125,-1.8293591611906885,-9.546866260391473,-1.2966140743620693
1758972194008166000,9.403165771484375,-1.9896349172122776,-9.51947439559698,-1.2614908846631645
1758972194018123800,9.413123779296875,-2.130670550712943,-9.496951598143577,-1.1994047961715608
1758972194028082000,9.42308203125,-2.2566296111129223,-9.477409862327574,-1.1210293977886439
1758972194038039800,9.433039794921875,-2.3677299789465964,-9.45774479239285,-1.0560829514298586
1758972194047998000,9.442998046875,-2.481564301788807,-9.430143668761849,-1.041465008816868
1758972194057956000,9.4529560546875,-2.595499016265571,-9.394534595242142,-1.0846626377694308
1758972194067915000,9.4629150390625,-2.703604586197436,-9.353958254703878,-1.168052941704914
1758972194077873000,9.472872802734376,-2.803372243633866,-9.311589185529947,-1.267192895697057
1758972194087830800,9.482830810546876,-2.895218752682209,-9.270782543367147,-1.3567128614939747
1758972194097789000,9.492788818359376,-2.9810376720041036,-9.234772487831115,-1.4151789328575133
1758972194107746800,9.502746826171874,-3.060512482996285,-9.206064279741048,-1.4324880873158574
1758972194117705000,9.512705078125,-3.1311610134541987,-9.186415576419234,-1.4056978416763246
1758972194127663900,9.522663818359375,-3.19006474558264,-9.175741037669777,-1.3415141233183443
1758972194137621800,9.532621826171875,-3.2366686758473513,-9.17152137414813,-1.2560158142529427
1758972194147580000,9.542579833984375,-3.270916690146923,-9.170705381590128,-1.1703281200952826
1758972194157538000,9.5525380859375,-3.2950641661927103,-9.170711811330914,-1.1004560539025812
1758972194167496000,9.562495849609375,-3.3128841927826405,-9.169812232142686,-1.0534377706833182
1758972194177454800,9.572454833984375,-3.3264211352258917,-9.167741855609416,-1.0284955640632658
1758972194187413000,9.5824130859375,-3.3375340653926133,-9.164929720798135,-1.017521092519164
1758972194197371000,9.592370849609376,-3.350112391936779,-9.161220929408072,-1.0095316281352191
1758972194207328800,9.602328857421876,-3.3686043264389034,-9.155652189365028,-0.9984692591119557
1758972194217287000,9.612286865234376,-3.3921263640627264,-9.148651955214142,-0.9828788912702351
1758972194227244800,9.622244873046874,-3.41758609175086,-9.141077720567583,-0.964976008702442
1758972194237203700,9.63220361328125,-3.4425694340988993,-9.133386581543087,-0.948872211445868
1758972194247161900,9.642161865234375,-3.4654780159994956,-9.125800656458734,-0.9384070776633918
1758972194257120000,9.6521201171875,-3.4845492116942998,-9.118406454554199,-0.9396583928987383
1758972194267078000,9.662077880859375,-3.4938542156562207,-9.112778677800296,-0.9594735388286412
1758972194277036000,9.6720361328125,-3.4811560621246693,-9.112775170668959,-1.0046292430464179
1758972194286994000,9.681993896484375,-3.4338623960301278,-9.122309891733527,-1.0781576397895813
1758972194296953000,9.691953125,-3.3469773087814447,-9.142746530562638,-1.1740131652835757
1758972194306911000,9.701910888671875,-3.228561941759288,-9.170976599746941,-1.2805975900627673
1758972194316868900,9.711868896484376,-3.0976825222223994,-9.200511906310915,-1.3875558896556497
1758972194326827000,9.721826904296876,-2.9817893671542404,-9.222613848003745,-1.4908762711375951
1758972194336785200,9.73178515625,-2.9246681345283982,-9.225359347319602,-1.584125778851658
1758972194346743000,9.741742919921874,-2.9624373086914417,-9.201462923425435,-1.6514968950740991
1758972194356702200,9.7517021484375,-3.072233608189225,-9.15897227369845,-1.6867159463629127
1758972194366660000,9.76166015625,-3.1913378342583774,-9.115930419829487,-1.6986890004903077
1758972194376618000,9.771617919921875,-3.2797163749352096,-9.085434159278869,-1.693734446822852
1758972194386576000,9.781575927734375,-3.3354034831047055,-9.06902253818214,-1.6728168926090001
1758972194396534000,9.791533935546875,-3.362850000695884,-9.064594200345873,-1.6415687907777725
1758972194406492000,9.801491943359375,-3.3577243282452223,-9.074156393939257,-1.598675843860209
1758972194416451000,9.811451171875,-3.313020386382937,-9.10081935993731,-1.5392748297341168
1758972194426409000,9.821408935546875,-3.231501210081577,-9.14257760373652,-1.4632280934944748
1758972194436367000,9.8313671875,-3.13031871741116,-9.190859111824631,-1.3782489859975873
1758972194446325000,9.841324951171876,-3.032526451700926,-9.2348186650604,-1.3008794767215848
1758972194456283100,9.851283203125,-2.9696222517594695,-9.264202580454945,-1.235414632511884
1758972194466241000,9.861240966796874,-2.938989797608554,-9.280665639477968,-1.1840432686496525
1758972194476200200,9.8712001953125,-2.9044191272258755,-9.295598420193791,-1.1517727649681269
1758972194486158000,9.881157958984375,-2.847971848338842,-9.315662718579173,-1.1304249295782298
1758972194496116000,9.891115966796875,-2.7673390994831917,-9.342761153385043,-1.1068236892383545
1758972194506073900,9.901073974609375,-2.665484991161525,-9.375697792825102,-1.0778949702654033
1758972194516032000,9.911031982421875,-2.5542925611302256,-9.409526412668823,-1.0520490928038955
1758972194525990000,9.920989990234375,-2.464513798266649,-9.434586619645357,-1.0416996943555772
1758972194535949000,9.930948974609375,-2.421236382076144,-9.44485666924715,-1.0500920404519885
1758972194545907000,9.940906982421875,-2.383754646552354,-9.451572825759648,-1.07512682072632
1758972194555865000,9.950864990234376,-2.310173131382465,-9.464352227833867,-1.1222856083948165
1758972194565823000,9.960822998046876,-2.197540439414978,-9.48323754556775,-1.1871903345037251
1758972194575781000,9.970781005859376,-2.0506429281435907,-9.507273670193552,-1.2557827361494303
1758972194585739000,9.980739013671876,-1.8777625420928001,-9.53540261709094,-1.3116744269803167
1758972194595698200,9.9906982421875,-1.6958697052858769,-9.564758475434779,-1.3452908653780817
1758972194605655800,10.00065576171875,-1.5264786226555704,-9.591849311456084,-1.355245565420389
1758972194615614000,10.010614013671875,-1.3922892017878592,-9.612495209121704,-1.353467595962435
1758972194625571800,10.02057177734375,-1.3083268701180815,-9.624031333136559,-1.3552574019886552
1758972194635530000,10.030530029296875,-1.2818509511247276,-9.625144262814521,-1.3725272473499177
1758972194645488000,10.040488037109375,-1.3091723810315132,-9.615884267038107,-1.4111046691559255
1758972194655447000,10.050447021484375,-1.3759751958467066,-9.598311785468459,-1.4661143164552748
1758972194665405000,10.060405029296875,-1.4506585347786545,-9.578363222417234,-1.5234687733151018
1758972194675363000,10.070363037109376,-1.4893538838759064,-9.566357142803072,-1.561094739615172
1758972194685321200,10.0803212890625,-1.444354612328857,-9.572014730173349,-1.5686754040025173
1758972194695279000,10.090279052734376,-1.3143693651527166,-9.592959903046488,-1.554968657950312
1758972194705237000,10.100237060546876,-1.1389623101685196,-9.618009004107117,-1.5385240113668144
1758972194715195000,10.11019482421875,-0.958080623165518,-9.63898281855285,-1.5305061246059835
1758972194725154000,10.120154052734375,-0.7972879305977374,-9.653114804279804,-1.5336654654197395
1758972194735112000,10.13011181640625,-0.6672038992222398,-9.660416651725768,-1.5497107374221086
1758972194745070000,10.140070068359375,-0.5673442891860381,-9.662153850781918,-1.5783859200254082
1758972194755028000,10.150028076171875,-0.4910860290875658,-9.66035995310247,-1.6145188712887466
1758972194764986000,10.159986083984375,-0.4262443582775071,-9.657100074523687,-1.6520029449000955
1758972194774944000,10.169944091796875,-0.36068336021695285,-9.653725629654526,-1.6869785428218542
1758972194784903200,10.179903076171875,-0.28763633551625534,-9.650556351968646,-1.718839077463001
1758972194794861000,10.189861083984376,-0.20267101908270269,-9.647306410261988,-1.7489415163904427
1758972194804819200,10.199819091796876,-0.10509281624825671,-9.64370224829018,-1.777169832009077
1758972194814777000,10.209777099609376,0.0008617816995731118,-9.639440499192476,-1.8032086747594176
1758972194824735000,10.21973486328125,0.1089266587900929,-9.634593059161304,-1.8256847104616463
1758972194834692900,10.22969287109375,0.21250802929578347,-9.629396075040102,-1.8438943208910523
1758972194844652000,10.239652099609375,0.3071022844159976,-9.624185062393545,-1.857716510016471
1758972194854610000,10.24960986328125,0.39243491805829106,-9.619101475518942,-1.867960840655118
1758972194864568000,10.259568115234375,0.4731091314354911,-9.613810967895388,-1.8764839004591107
1758972194874526000,10.26952587890625,0.5569019517572597,-9.60795230499506,-1.8834794584348797
1758972194884484000,10.279484130859375,0.6517267824966461,-9.601022797992824,-1.8883869580902157
1758972194894442000,10.28944189453125,0.7616873326454311,-9.592329788449407,-1.891410105303675
1758972194904401200,10.299401123046875,0.8842886070501059,-9.581385200586915,-1.8935392262868582
1758972194914359000,10.309359130859375,1.0123887711320072,-9.568440378817915,-1.8948320425763725
1758972194924317200,10.319317138671876,1.1379644582375883,-9.55433118944466,-1.8947756362140178
1758972194934274800,10.32927490234375,1.2530628096662462,-9.53995312000215,-1.894597941559553
1758972194944233000,10.33923291015625,1.3501188700564204,-9.525769696348904,-1.8992783544607459
1758972194954190800,10.34919091796875,1.4247246137075125,-9.512329784539341,-1.9120986730672418
1758972194964150000,10.35914990234375,1.4783879609644413,-9.500243040904403,-1.9313519473306833
1758972194974108000,10.36910791015625,1.5180109463006257,-9.489444583514333,-1.9535724008366464
1758972194984066000,10.379066162109375,1.5520074700571596,-9.479533430352806,-1.9748675561912357
1758972194994024000,10.38902392578125,1.5847149769164621,-9.470566280043125,-1.9918471864342688
1758972195003982000,10.398982177734375,1.614204398512095,-9.463705746623873,-2.0007544232502577
1758972195013940000,10.40893994140625,1.6362402892313896,-9.460647528097033,-1.9973134890161452
1758972195023898000,10.418898193359375,1.6484528512030838,-9.46207259246409,-1.9804474021501839
1758972195033857000,10.42885693359375,1.6555862102143466,-9.465918161976337,-1.955972593846172
1758972195043815200,10.438815185546876,1.6651381746746599,-9.469838550290465,-1.9286990947343408
1758972195053772800,10.448772705078126,1.6737366378024219,-9.474531092020868,-1.897956604337692
1758972195063731000,10.45873095703125,1.6600125022239982,-9.483906823131441,-1.862864102037996
1758972195073689000,10.468689208984374,1.5984665850237012,-9.502207034453749,-1.823012568642944
1758972195083647000,10.47864697265625,1.4861585949659346,-9.528738483026624,-1.7790116604834794
1758972195093606000,10.48860595703125,1.3416875801891088,-9.558650221687556,-1.73276326565817
1758972195103564000,10.49856396484375,1.1777297015886754,-9.58879635362625,-1.6847347094178198
1758972195113522200,10.508522216796875,0.9869646262139081,-9.619171618145703,-1.633347198138386
1758972195123480000,10.51847998046875,0.7540369640227407,-9.649403090280293,-1.5782431505538523
1758972195133438200,10.528438232421875,0.4771858428224921,-9.676294604337215,-1.5205333043850957
1758972195143396000,10.53839599609375,0.17122660922808572,-9.695741647607088,-1.4607126035422087
1758972195153354000,10.54835400390625,-0.14070965294931084,-9.705189859431982,-1.3999503840655088
1758972195163313000,10.55831298828125,-0.43951954451203346,-9.704494862905143,-1.341634242566675
1758972195173271000,10.56827099609375,-0.7186595803670585,-9.694173375377058,-1.294968499112129
1758972195183229000,10.57822900390625,-0.9799963215712457,-9.674371527320146,-1.2714252725698052
1758972195193187000,10.58818701171875,-1.2259344181135297,-9.646078914293646,-1.273043667551875
1758972195203145000,10.59814501953125,-1.4560142165929078,-9.611261867934465,-1.2938577613912523
1758972195213103000,10.60810302734375,-1.6675842526525257,-9.573591770231722,-1.31754302675277
1758972195223062000,10.61806201171875,-1.8564644641287624,-9.538376664465666,-1.3203444940395652
1758972195233020200,10.628020263671875,-2.0245831887356935,-9.508941311144829,-1.2851048383541404
1758972195242978000,10.63797802734375,-2.1770720902733505,-9.484567332866787,-1.2139776575338095
1758972195252936200,10.647936279296875,-2.309263323061168,-9.463948323208093,-1.1275469629891217
1758972195262893800,10.657893798828125,-2.4207087049402296,-9.442118184193967,-1.0756147503737359
1758972195272852000,10.66785205078125,-2.5276971074104306,-9.412551897969841,-1.0885755734294653
1758972195282809900,10.677809814453125,-2.6309128594741225,-9.376271793320775,-1.1550806474070996
1758972195292769000,10.68776904296875,-2.7340046928972006,-9.33465091216564,-1.2489634115234016
1758972195302727000,10.697726806640626,-2.8410692293435336,-9.289081001123785,-1.345990684210509
1758972195312685000,10.70768505859375,-2.951690873749554,-9.242743612840771,-1.4246306518137455
1758972195322643000,10.717642822265624,-3.0584944211721417,-9.200475665953755,-1.4721493588358163
1758972195332600300,10.727600341796874,-3.154000621771812,-9.167160256329177,-1.478462779766321
1758972195342558500,10.737558349609374,-3.232804693895578,-9.144913937729596,-1.445650058966875
1758972195352517400,10.747517333984375,-3.2938641427531836,-9.132283588737248,-1.3864527507193385
1758972195362475500,10.7574755859375,-3.340566564956307,-9.125397920876742,-1.318371002009511
1758972195372433400,10.767433349609375,-3.377859353779256,-9.12040376585126,-1.256457420540601
1758972195382391300,10.777391357421875,-3.409954573959112,-9.114644471672177,-1.21071522167176
1758972195392349200,10.78734912109375,-3.438657229091227,-9.107396400240063,-1.1837923626285045
1758972195402307300,10.797307373046875,-3.4662414015874266,-9.098987468335032,-1.1678970935560762
1758972195412265200,10.80726513671875,-3.4931185948580503,-9.090732265686988,-1.1520034319188446
1758972195422224400,10.817224365234376,-3.519244092978537,-9.083272597330808,-1.1311388500012456
1758972195432182300,10.827182373046876,-3.5445749335899945,-9.076467008969187,-1.1064086056314408
1758972195442140400,10.837140380859376,-3.567841535148024,-9.070372199225424,-1.0813060938831418
1758972195452098300,10.847098388671874,-3.5869451718077063,-9.06540200959742,-1.0595684554580598
1758972195462056400,10.857056396484374,-3.600481529729068,-9.061823566588759,-1.0441410230930894
1758972195472014300,10.867014404296874,-3.6060128603711723,-9.060092212751508,-1.0400933551374822
1758972195481973500,10.876973388671875,-3.598452069728076,-9.061630089843273,-1.0528094096519052
1758972195491931100,10.88693115234375,-3.568398292247951,-9.069497169956565,-1.086798992210999
1758972195501889300,10.89688916015625,-3.502674650971591,-9.0876144259274,-1.1475589466653764
1758972195511847200,10.90684716796875,-3.3926337290629744,-9.117515058672428,-1.2374769718691705
1758972195521805300,10.916805419921875,-3.243116536812484,-9.156073629647492,-1.3486664792910217
1758972195531763200,10.92676318359375,-3.076701985774934,-9.195127290663123,-1.4676283742800353
1758972195541721300,10.936721435546875,-2.9391978874012827,-9.220946207052469,-1.5829181566275656
1758972195551680300,10.94668017578125,-2.911173862183094,-9.212296452128887,-1.6819754738375543
1758972195561638400,10.956638427734376,-3.0333199401661752,-9.160236594545841,-1.7491216952629387
1758972195571596300,10.96659619140625,-3.2146649338319895,-9.09115604405701,-1.785277589010447
1758972195581554400,10.976554443359374,-3.3478342178717253,-9.040164692488313,-1.799398176560551
1758972195591512300,10.98651220703125,-3.4111356004372237,-9.019490153250098,-1.784193447035551
1758972195601470200,10.99647021484375,-3.4346894945040343,-9.018494712471961,-1.743572828964144
1758972195611429000,11.00642919921875,-3.434645070840418,-9.029252253329753,-1.68706578271389
1758972195621387300,11.01638720703125,-3.3963743768960235,-9.056946315941214,-1.61453596855402
1758972195631345200,11.02634521484375,-3.3047192987665532,-9.106558780372142,-1.523075536213815
1758972195641303300,11.03630322265625,-3.1745237698405977,-9.169424109607935,-1.4193138407051562
1758972195651261400,11.046261474609375,-3.0459234011515974,-9.227700942009687,-1.3199489188507199
1758972195661219300,11.05621923828125,-2.954854306216538,-9.269009103953838,-1.2347785265654325
1758972195671177500,11.066177490234375,-2.886496224783361,-9.29895591392815,-1.1696014863211661
1758972195681136400,11.076136474609376,-2.820836588653922,-9.324070481440424,-1.1291517678372562
1758972195691094300,11.08609423828125,-2.7507278641611337,-9.34787747348547,-1.1050273073408752
1758972195701052400,11.096052490234374,-2.6661890477776526,-9.374334687778353,-1.0879676706641912
1758972195711010300,11.10601025390625,-2.5644620729669927,-9.403904481133818,-1.0772727467138319
1758972195720968200,11.11596826171875,-2.453665364255011,-9.433539156419037,-1.076227548509836
1758972195730926300,11.12592626953125,-2.3411105598293243,-9.46078430621922,-1.0877245826233177
1758972195740884200,11.13588427734375,-2.22377728895545,-9.48579365979135,-1.1157497038200497
1758972195750843400,11.145843505859375,-2.0926851034507155,-9.509705281254648,-1.1647200709551573
1758972195760801300,11.15580126953125,-1.9423405204653739,-9.533265605062246,-1.2306807358577847
1758972195770759400,11.165759521484375,-1.775771363388002,-9.556175940528512,-1.3025100005328654
1758972195780717300,11.17571728515625,-1.6064295267269015,-9.577546060815452,-1.3639667781449853
1758972195790675500,11.185675537109375,-1.4517010295689106,-9.596341362178325,-1.4047076615951954
1758972195800633300,11.19563330078125,-1.3343522688649594,-9.61009691580832,-1.4268670325636863
1758972195810592500,11.205592529296876,-1.2727873547032476,-9.616173020851612,-1.4420825757436453
1758972195820550100,11.215550048828124,-1.2701035224467516,-9.613539165216684,-1.4618759482331574
1758972195830508300,11.22550830078125,-1.3223966042637825,-9.601618425798415,-1.4935091038592159
1758972195840466200,11.235466064453124,-1.4208034947410224,-9.581384616065025,-1.5325710943117736
1758972195850424300,11.24542431640625,-1.5448312948174774,-9.555385666933654,-1.5743267077624796
1758972195860382200,11.25538232421875,-1.6327246823258696,-9.534571426963806,-1.6113716593042016
1758972195870340400,11.26534033203125,-1.6024647147491573,-9.535653961503504,-1.6351818662196398
1758972195880299300,11.27529931640625,-1.4549917416773737,-9.558208323138953,-1.6413436037197708
1758972195890257400,11.28525732421875,-1.2502606117270887,-9.588054595348238,-1.6359752085544168
1758972195900215300,11.29521533203125,-1.04233075880073,-9.614088615792989,-1.6288748750299213
1758972195910173400,11.30517333984375,-0.8643669320058077,-9.632322191619872,-1.625310606677085
1758972195920131300,11.31513134765625,-0.7299635030612349,-9.642699793249369,-1.6296828304119406
1758972195930089200,11.325089111328126,-0.6402802364613861,-9.64644482499659,-1.6451453340902924
1758972195940048100,11.335048095703126,-0.5905228106018156,-9.644868369460106,-1.672775976076722
1758972195950006300,11.34500634765625,-0.5691077186619863,-9.639987027159332,-1.7079639015749095
1758972195959964200,11.354964111328124,-0.5610642590684816,-9.633883449587225,-1.7446647158540785
1758972195969922300,11.36492236328125,-0.5513523548061028,-9.627653615286945,-1.781761982104927
1758972195979880400,11.37488037109375,-0.5312187905767932,-9.621537762755155,-1.8204973709516226
1758972195989838300,11.38483837890625,-0.49421256361026317,-9.616272974094748,-1.8583363954804837
1758972195999796500,11.39479638671875,-0.4327852678209543,-9.613104865452646,-1.889787910929322
1758972196009755400,11.40475537109375,-0.344048670954071,-9.611880292093753,-1.9141041676707564
1758972196019713300,11.41471337890625,-0.2330684223687276,-9.61138578657508,-1.9332116037227212
1758972196029671400,11.42467138671875,-0.11049296739189884,-9.610314942473172,-1.9493639893613754
1758972196039629300,11.43462939453125,0.013554777210752945,-9.607965164476633,-1.9639730910807847
1758972196049587200,11.444587158203126,0.13305019683786667,-9.604404257124662,-1.9768921938866375
1758972196059545300,11.45454541015625,0.2458599898047745,-9.599918636143206,-1.9878361972272396
1758972196069504300,11.464504150390624,0.35142522760406136,-9.594863690841198,-1.9963632025539875
1758972196079462400,11.47446240234375,0.45137131034731864,-9.589667875763773,-2.0012318315036595
1758972196089420300,11.484420166015624,0.5489838721090927,-9.584688918307423,-2.0006836961016057
1758972196099378400,11.49437841796875,0.6489257536012679,-9.580002221795915,-1.9931949477814137
1758972196109336300,11.50433642578125,0.757971380862221,-9.575245382657647,-1.9775066725231707
1758972196119294500,11.51429443359375,0.8832505692392587,-9.569280336773396,-1.9542611137531696
1758972196129252000,11.524252197265625,1.027926824264601,-9.560586742708086,-1.9258586106114088
1758972196139211500,11.53421142578125,1.1864533985313028,-9.547916061705351,-1.897367698533833
1758972196149169200,11.544169189453125,1.346757284668833,-9.530809444081783,-1.8762398625701664
1758972196159127300,11.554127197265625,1.4952860504038632,-9.510348255333303,-1.867555620855093
1758972196169085200,11.564085205078126,1.6203817719727753,-9.488844279533625,-1.872589961760491
1758972196179043300,11.574043212890626,1.7135558763630687,-9.469089777749776,-1.8895617009580135
1758972196189001200,11.584001220703126,1.7700621919609605,-9.453521037217975,-1.915248661530763
1758972196198960400,11.59396044921875,1.7885301610656081,-9.44394072344601,-1.9451302973143756
1758972196208918300,11.603918212890624,1.7713197908066212,-9.441431370973586,-1.9728627922400832
1758972196218876400,11.61387646484375,1.7245254525363445,-9.446454752093553,-1.9901997114881873
1758972196228834300,11.623834228515625,1.6528360347233713,-9.459028402462602,-1.9913088417738676
1758972196238792400,11.63379248046875,1.5630216160245238,-9.478255080980063,-1.9723202097959815
1758972196248750300,11.643750244140625,1.4633926364064216,-9.503144607564806,-1.9284975808128713
1758972196258709500,11.65370947265625,1.358207630096376,-9.531257187849283,-1.8656870505042373
1758972196268667100,11.663667236328125,1.2590627807334065,-9.558121813899279,-1.7965058161199092
1758972196278625300,11.673625244140625,1.177428453619778,-9.58090823072493,-1.7292266159646212
1758972196288583200,11.683583251953126,1.1041707635767757,-9.600539398390055,-1.6675792842164634
1758972196298541300,11.693541259765626,0.99907445846349,-9.621472880825399,-1.6122962268032133
1758972196308499500,11.70349951171875,0.8039774913642554,-9.6476740745306,-1.564092898517847
1758972196318457300,11.713457275390626,0.515569970546104,-9.674187987446784,-1.5214030729569494
1758972196328417000,11.7234169921875,0.18342475908193737,-9.692464817893505,-1.4808319931156932
1758972196338375200,11.733375244140625,-0.14524500395716167,-9.69874024490118,-1.4435019410222767
1758972196348333000,11.7433330078125,-0.4451443621238693,-9.694052379345893,-1.4133638462595641
1758972196358291200,11.753291259765625,-0.7125356906592846,-9.680784901493787,-1.394660022572428
1758972196368249000,11.7632490234375,-0.956713426465541,-9.660205054801702,-1.3912294636018574
1758972196378207200,11.773207275390625,-1.1880142181072384,-9.633523384103178,-1.3979388981126248
1758972196388165000,11.7831650390625,-1.4085348186679183,-9.602927754831313,-1.403633164231479
1758972196398124300,11.793124267578126,-1.6140858866989611,-9.5718645080477,-1.3944636232174932
1758972196408082200,11.803082275390626,-1.7996563891053199,-9.543819147780537,-1.3591067708931863
1758972196418040000,11.8130400390625,-1.9650892356291412,-9.519986436772346,-1.2956523897230625
1758972196427998000,11.822998046875,-2.1198539731442927,-9.49821299638152,-1.2085340051751583
1758972196437956000,11.8329560546875,-2.260416728436202,-9.47671018962562,-1.1193079077582806
1758972196447914200,11.842914306640624,-2.3901067920580505,-9.450156529220939,-1.0734589605793357
1758972196457873200,11.852873046875,-2.5178973056688903,-9.414708783742785,-1.0926274791687727
1758972196467831000,11.8628310546875,-2.6382904025048015,-9.372900855582952,-1.1655664586514234
1758972196477789200,11.8727890625,-2.7489436110928653,-9.327871042767166,-1.2667018973097204
1758972196487747000,11.8827470703125,-2.855813209488988,-9.28176161802113,-1.365153649841994
1758972196497705200,11.892705322265625,-2.964893469671905,-9.236354788586496,-1.438602186281979
1758972196507663400,11.902663330078125,-3.072567954710126,-9.194808141711354,-1.4782584893658757
1758972196517622300,11.912622314453126,-3.169263072833419,-9.160808841475843,-1.4851748446255921
1758972196527580200,11.922580078125,-3.249800836881995,-9.135933927938341,-1.4641915316991507
1758972196537538000,11.9325380859375,-3.3150454624697563,-9.119111387953161,-1.4222105850599704
1758972196547496200,11.94249609375,-3.3685265850275754,-9.10734437779188,-1.3710203499183058
1758972196557454000,11.9524541015625,-3.4138165100842714,-9.09807795227468,-1.3195543665751814
1758972196567412200,11.962412109375,-3.4525890160709616,-9.090177554413676,-1.272273267701268
1758972196577370000,11.9723701171875,-3.48522988743484,-9.082996702998877,-1.2339825538821518
1758972196587329000,11.9823291015625,-3.511772734184563,-9.076420831739902,-1.2068223058864473
1758972196597287200,11.992287109375,-3.533860355091095,-9.070020901569723,-1.1903532555140555
1758972196607245300,12.002245361328125,-3.553300384098291,-9.0638331528455,-1.1795601318862288
1758972196617203200,12.012203125,-3.570266131946444,-9.058779961109162,-1.1670931567620486
1758972196627161300,12.022161376953125,-3.5836852932289243,-9.05575798293948,-1.1492813865438103
1758972196637119000,12.032118896484375,-3.593571019688248,-9.0546801245749,-1.1266663076970727
1758972196647078100,12.042078125,-3.5995904261082408,-9.05510741007626,-1.1037905320875345
1758972196657036000,12.0520361328125,-3.5999715343803165,-9.056890786361693,-1.0877938484672456
1758972196666994200,12.061994140625,-3.5921328035786746,-9.060208532607556,-1.0860852179184555
1758972196676952000,12.0719521484375,-3.5703140627413985,-9.066602033036947,-1.1045325826264918
1758972196686910200,12.08191015625,-3.5239854422867296,-9.07944397895336,-1.1470092768933624
1758972196696868000,12.0918681640625,-3.4420556393578647,-9.102062053474784,-1.214545228288695
1758972196706826200,12.101826171875,-3.319624899214506,-9.135179894700645,-1.3034468429915607
1758972196716785200,12.11178515625,-3.1673812046095726,-9.174071643152832,-1.405171187453717
1758972196726743300,12.121743408203125,-3.0133468271955848,-9.208977536839246,-1.5115803287312388
1758972196736701200,12.131701171875,-2.9088039181813596,-9.225013894882798,-1.615044502598047
1758972196746659000,12.1416591796875,-2.922430876995623,-9.20512553758621,-1.7016043034151196
1758972196756617000,12.151616943359375,-3.059811348989606,-9.150424810105562,-1.7543173642098904
1758972196766575000,12.1615751953125,-3.2327181846559045,-9.08647577728629,-1.7764745432212947
1758972196776534000,12.171533935546876,-3.3579549221307037,-9.040627049303055,-1.778090015593916
1758972196786492200,12.1814921875,-3.42828196554929,-9.018564855098724,-1.7557777921512723
1758972196796450000,12.191449951171874,-3.4639302020356055,-9.012011780193447,-1.7190759549587964
1758972196806408200,12.201408203125,-3.4693706395238637,-9.018755409234762,-1.6720961771190166
1758972196816366000,12.211365966796874,-3.436765716256201,-9.042381784015893,-1.610711587960273
1758972196826324200,12.22132421875,-3.3633822078764437,-9.082610334029793,-1.537611426566541
1758972196836283100,12.231283203125,-3.261744664914906,-9.132812581047416,-1.4571058112218975
1758972196846241300,12.2412412109375,-3.152925393755734,-9.182529090374707,-1.382261144248396
1758972196856199200,12.25119921875,-3.0638638392508026,-9.220912889304756,-1.3258607732430099
1758972196866157000,12.261156982421875,-2.9983187694117426,-9.248146348667143,-1.2853949073418973
1758972196876115200,12.271115234375,-2.925425967158377,-9.274775996917485,-1.2612594139948488
1758972196886073000,12.281072998046875,-2.8354961053863166,-9.304263372686504,-1.2494094017252326
1758972196896031200,12.29103125,-2.7381892851054666,-9.33528921006918,-1.23495096052289
1758972196905990100,12.300990234375,-2.640956991365552,-9.366341350936889,-1.2113579034894704
1758972196915948000,12.310947998046874,-2.5501629139795896,-9.394714627984166,-1.1859010253455489
1758972196925906200,12.32090625,-2.4817791135832667,-9.414531089088321,-1.1737854940075427
1758972196935864300,12.3308642578125,-2.441969373503327,-9.424609415510297,-1.1764051019214092
1758972196945822200,12.340822265625,-2.403037877562642,-9.432226320254802,-1.195365530718118
1758972196955780000,12.350780029296875,-2.338976178149134,-9.443281967276334,-1.2345040935382245
1758972196965739300,12.3607392578125,-2.242924910887331,-9.459343459761142,-1.288610654518008
1758972196975697200,12.370697265625,-2.1163642313323914,-9.480170559212565,-1.3482463541828096
1758972196985655000,12.380655029296875,-1.9678733133897184,-9.50491161723733,-1.398048495966941
1758972196995613200,12.39061328125,-1.8107549984857438,-9.531713114923239,-1.4275801492691038
1758972197005571000,12.400571044921875,-1.6581874787539244,-9.55813818051219,-1.4362462708055972
1758972197015529200,12.410529296875,-1.5365613329917192,-9.580084639382362,-1.4252514140605925
1758972197025487000,12.420487060546876,-1.4851939877174793,-9.592406360816955,-1.3965396988391876
1758972197035446300,12.4304462890625,-1.5146186735138296,-9.592111761784553,-1.3666346821799873
1758972197045404200,12.440404052734374,-1.589549265205115,-9.581461772954464,-1.3562104649297893
1758972197055362300,12.4503623046875,-1.653628938666731,-9.568249240159988,-1.3727781533710657
1758972197065320200,12.4603203125,-1.6669523844897747,-9.561368832996488,-1.4042362446911631
1758972197075278000,12.470278076171875,-1.6081947828337548,-9.567439677342772,-1.4311479247532783
1758972197085236000,12.480236083984375,-1.4866104303866623,-9.585288637766242,-1.443129746709019
1758972197095195100,12.490195068359375,-1.3270580202035605,-9.60864028725922,-1.4433713003799318
1758972197105153000,12.500153076171875,-1.1527180099289864,-9.631274143871664,-1.4422897887535393
1758972197115111200,12.510111083984375,-0.9806439718250185,-9.64963689903617,-1.4468002519153058
1758972197125069000,12.520069091796875,-0.8219372186858207,-9.662549572101234,-1.4594211024269461
1758972197135027200,12.530027099609375,-0.6838150614790618,-9.6703161144495,-1.479110430020094
1758972197144985000,12.539985107421876,-0.5706867680143565,-9.673874683713912,-1.503611687939614
1758972197154943200,12.549943115234376,-0.48297991605401036,-9.674389647498726,-1.530787425765395
1758972197164902100,12.559902099609374,-0.4173129734009504,-9.67281786813736,-1.5597542847916483
1758972197174860300,12.5698603515625,-0.3672259137282148,-9.66996247870624,-1.589767584130913
1758972197184818000,12.57981787109375,-0.32321178076099605,-9.666440149798989,-1.6204462155111132
1758972197194776000,12.589776123046875,-0.2737388891975395,-9.662722006058692,-1.6514464800611137
