time,seconds_elapsed,z,y,x
1758972184649942000,0.04494189453125,1.4475153684616089,-2.296332359313965,1.1114526987075806
1758972184659899600,0.054899658203125,1.6092712879180908,-2.8374929428100586,1.332053780555725
1758972184669857800,0.06485791015625,1.6192251443862915,-3.1971659660339355,1.5911977291107178
1758972184679816700,0.074816650390625,1.5810585021972656,-3.2589662075042725,1.96835196018219
1758972184689774800,0.08477490234375,1.6404774188995361,-2.8660576343536377,2.3412699699401855
1758972184699732700,0.094732666015625,1.9282060861587524,-1.9853620529174805,2.472210645675659
1758972184709691000,0.10469091796875,2.2926487922668457,-1.300894021987915,2.122715473175049
1758972184719649800,0.11464990234375,2.44392991065979,-1.6505494117736816,1.306349754333496
1758972184729608000,0.12460791015625,2.488452672958374,-2.3004109859466553,0.40394559502601624
1758972184739565800,0.13456591796875,2.7215378284454346,-2.674729585647583,-0.3106553554534912
1758972184749524000,0.14452392578125,3.0726141929626465,-2.45286226272583,-0.716611921787262
1758972184759483000,0.15448291015625,3.448532819747925,-1.774170994758606,-0.906546950340271
1758972184769440800,0.164440673828125,3.7919294834136963,-1.1700776815414429,-1.044328212738037
1758972184779399000,0.17439892578125,3.9710440635681152,-0.9953612685203552,-1.1215153932571411
1758972184789356800,0.184356689453125,3.83210825920105,-0.8539737462997437,-1.1685374975204468
1758972184799316000,0.19431591796875,3.1205155849456787,-0.47086259722709656,-1.1002471446990967
1758972184809273600,0.204273681640625,2.1120142936706543,-0.1708814650774002,-0.9581843018531799
1758972184819231700,0.214231689453125,1.4485324621200562,-0.20748528838157654,-0.7229278683662415
1758972184829190000,0.22418994140625,1.3903982639312744,-0.5220679640769958,-0.2664351463317871
1758972184839148800,0.234148681640625,1.5857497453689575,-0.6570708155632019,0.2273005247116089
1758972184849106700,0.244106689453125,1.5109952688217163,-0.7692255973815918,0.4136997163295746
1758972184859064800,0.25406494140625,1.189422845840454,-0.718325674533844,0.32434746623039246
1758972184869022700,0.264022705078125,0.9260921478271484,-0.56209796667099,0.09616515040397644
1758972184878982000,0.27398193359375,0.8097021579742432,-0.4019562304019928,-0.14464426040649414
1758972184888939800,0.283939697265625,0.730883002281189,-0.30830830335617065,-0.29685109853744507
1758972184898898000,0.29389794921875,0.6480876803398132,-0.3224768340587616,-0.34558987617492676
1758972184908855800,0.303855712890625,0.5545841455459595,-0.3795081675052643,-0.24800607562065125
1758972184918815000,0.31381494140625,0.41300249099731445,-0.4542063772678375,-0.052568137645721436
1758972184928772900,0.32377294921875,0.3118463158607483,-0.5866928100585938,0.14809413254261017
1758972184938730800,0.333730712890625,0.3724433481693268,-0.7893308401107788,0.28358110785484314
1758972184948688600,0.343688720703125,0.5269258618354797,-1.0310993194580078,0.33407464623451233
1758972184958647800,0.353647705078125,0.7350417971611023,-1.337289571762085,0.3456189036369324
1758972184968605700,0.363605712890625,1.0347813367843628,-1.8563505411148071,0.34382128715515137
1758972184978563800,0.373563720703125,1.4453779458999634,-2.6640233993530273,0.38268691301345825
1758972184988521700,0.383521728515625,1.8100794553756714,-3.4384610652923584,0.483569860458374
1758972184998481000,0.39348095703125,1.820348858833313,-3.8266818523406982,0.660362184047699
1758972185008438800,0.403438720703125,1.672537088394165,-3.962742328643799,0.8567783236503601
1758972185018397000,0.41339697265625,1.718266248703003,-3.99019193649292,1.059423804283142
1758972185028354800,0.423354736328125,1.961474061012268,-4.0254034996032715,1.211243748664856
1758972185038313000,0.43331298828125,2.3130273818969727,-4.173923015594482,1.415665626525879
1758972185048272000,0.44327197265625,2.5902349948883057,-4.563375949859619,1.7391257286071777
1758972185058230000,0.45322998046875,2.79968523979187,-5.067146301269531,2.157710313796997
1758972185068187600,0.463187744140625,3.156200885772705,-5.399228096008301,2.5596301555633545
1758972185078145800,0.473145751953125,3.60054349899292,-5.394248962402344,2.79087233543396
1758972185088104700,0.483104736328125,4.011036396026611,-5.136247634887695,2.7638895511627197
1758972185098062800,0.493062744140625,4.23960542678833,-4.827343463897705,2.497262716293335
1758972185108020700,0.503020751953125,4.295109748840332,-4.580223083496094,2.142862558364868
1758972185117979000,0.512978759765625,4.3017964363098145,-4.380529880523682,1.899317741394043
1758972185127937800,0.522937744140625,4.2354021072387695,-4.15848970413208,2.0185024738311768
1758972185137896000,0.53289599609375,4.020086288452148,-3.8379244804382324,2.425603151321411
1758972185147853800,0.542853759765625,3.595041275024414,-3.1201353073120117,2.8753068447113037
1758972185157812000,0.55281201171875,3.095686435699463,-2.202547073364258,3.0920705795288086
1758972185167771000,0.56277099609375,2.559149742126465,-1.4287358522415161,2.9214813709259033
1758972185177728800,0.572728759765625,1.9682464599609375,-1.0148345232009888,2.5068142414093018
1758972185187687000,0.58268701171875,1.4469468593597412,-0.8578643798828125,2.079501152038574
1758972185197644800,0.592644775390625,1.0895050764083862,-0.9919947385787964,1.787485957145691
1758972185207604000,0.60260400390625,0.9106714129447937,-1.2926709651947021,1.7005292177200317
1758972185217561600,0.6125615234375,0.8153366446495056,-1.4051055908203125,1.805102825164795
1758972185227519700,0.622519775390625,0.6396462917327881,-1.3933945894241333,1.9222462177276611
1758972185237478000,0.632477783203125,0.37229499220848083,-1.415690302848816,1.9365819692611694
1758972185247436800,0.642436767578125,0.04169977456331253,-1.5530788898468018,1.900802731513977
1758972185257394700,0.652394775390625,-0.2720235288143158,-1.716016411781311,1.92696213722229
1758972185267352800,0.662352783203125,-0.49120673537254333,-1.8613554239273071,2.0084915161132812
1758972185277311000,0.67231103515625,-0.5408640503883362,-1.9562041759490967,2.038144111633301
1758972185287270000,0.682269775390625,-0.5598750114440918,-2.1256051063537598,1.9385932683944702
1758972185297227800,0.692227783203125,-0.5016663074493408,-2.18752121925354,1.594089150428772
1758972185307186000,0.70218603515625,-0.48823440074920654,-2.1299190521240234,0.84177166223526
1758972185317143800,0.712143798828125,-0.6456743478775024,-1.6785815954208374,-1.2251145839691162
1758972185327103000,0.72210302734375,-0.6375871300697327,-1.2684972286224365,-2.9952750205993652
1758972185337060900,0.732060791015625,-0.893027663230896,-1.1547151803970337,-3.6168742179870605
1758972185347018800,0.742018798828125,-1.5714887380599976,-1.1160160303115845,-3.111422300338745
1758972185356976600,0.7519765625,-2.307055950164795,-1.1723730564117432,-2.4250869750976562
1758972185366935800,0.761935791015625,-2.634739637374878,-1.1279171705245972,-1.769667387008667
1758972185376893700,0.771893798828125,-2.7513134479522705,-0.3484615683555603,-0.916778028011322
1758972185386851800,0.781851806640625,-2.5219192504882812,0.7611449956893921,-0.05044080317020416
1758972185396809700,0.791809814453125,-1.6934425830841064,1.6914877891540527,0.4772890508174896
1758972185406769000,0.801768798828125,-0.9090340733528137,1.920835256576538,0.6727253794670105
1758972185416726800,0.811726806640625,-0.24097560346126556,0.8902928829193115,0.2171671986579895
1758972185426685000,0.821684814453125,0.42254114151000977,-0.04165743291378021,0.018631475046277046
1758972185436642800,0.831642822265625,0.9442290663719177,-0.7424376606941223,0.47828933596611023
1758972185446601000,0.84160107421875,1.4049851894378662,-1.5605660676956177,1.0486791133880615
1758972185456559900,0.851559814453125,1.6969881057739258,-2.131546974182129,1.3407292366027832
1758972185466518000,0.86151806640625,1.953788161277771,-1.9508925676345825,1.2954974174499512
1758972185476475600,0.8714755859375,2.2358756065368652,-1.6586846113204956,0.9094937443733215
1758972185486433800,0.881433837890625,2.6432580947875977,-1.2527775764465332,0.6504390239715576
1758972185496392700,0.891392822265625,2.964651346206665,-1.0506556034088135,0.6259701251983643
1758972185506350800,0.901350830078125,2.9913980960845947,-0.9470158219337463,0.7610360980033875
1758972185516308700,0.911308837890625,2.7937827110290527,-0.7553305625915527,1.1455081701278687
1758972185526267000,0.921266845703125,2.456641435623169,-0.750385046005249,1.4181162118911743
1758972185536225800,0.931225830078125,2.176054000854492,-0.6765747666358948,1.012865424156189
1758972185546184000,0.941183837890625,2.3008673191070557,0.15526442229747772,-0.09506073594093323
1758972185556141800,0.951141845703125,3.2612156867980957,-0.47520992159843445,-0.8712469935417175
1758972185566100000,0.961099853515625,4.542705059051514,-1.6332170963287354,-1.166262149810791
1758972185576059000,0.971058837890625,5.888993740081787,-1.8690093755722046,-1.2835363149642944
1758972185586016800,0.981016845703125,7.173569679260254,-1.2200816869735718,-1.2783035039901733
1758972185595975000,0.990974853515625,8.494711875915527,0.0982823595404625,-1.1867581605911255
1758972185605932800,1.000932861328125,9.86642837524414,0.9547725319862366,-0.9461668133735657
1758972185615891700,1.0108916015625,11.014361381530762,0.9831863641738892,-0.4871339797973633
1758972185625849600,1.020849609375,11.85057258605957,2.128260612487793,-0.10255780071020126
1758972185635807700,1.030807861328125,12.481231689453125,2.180664300918579,0.07560954242944717
1758972185645766000,1.040765869140625,12.621536254882812,1.7904831171035767,0.18754646182060242
1758972185655723800,1.050723876953125,12.438962936401367,0.7391691207885742,0.19360941648483276
1758972185665682700,1.0606826171875,12.123364448547363,-0.12521331012248993,-0.185749351978302
1758972185675640800,1.070640869140625,11.672662734985352,-0.705109179019928,-0.8545207977294922
1758972185685599000,1.080598876953125,11.116006851196289,-1.2918658256530762,-1.612188458442688
1758972185695556900,1.090556884765625,10.512017250061035,-1.6663196086883545,-2.3762459754943848
1758972185705515800,1.100515869140625,9.410746574401855,-1.6987931728363037,-3.0686700344085693
1758972185715474000,1.110473876953125,6.528021335601807,-1.7921228408813477,-3.4535441398620605
1758972185725431800,1.120431884765625,1.6022652387619019,-2.6750667095184326,-3.6491739749908447
1758972185735389700,1.1303896484375,-2.6484718322753906,-4.258608341217041,-3.7346179485321045
1758972185745348900,1.140348876953125,-2.9899046421051025,-6.013867378234863,-3.9701013565063477
1758972185755306800,1.150306640625,-1.30008864402771,-8.275357246398926,-3.4517345428466797
1758972185765264600,1.1602646484375,-0.3739163279533386,-8.722626686096191,-2.0670652389526367
1758972185775222800,1.170222900390625,-0.4415574371814728,-7.430954456329346,-0.3738130033016205
1758972185785181000,1.180180908203125,-0.8575431704521179,-5.164168834686279,1.1497652530670166
1758972185795139800,1.190139892578125,-0.9840230941772461,-2.6980631351470947,2.0068743228912354
1758972185805097700,1.20009765625,-0.9632885456085205,-0.31869515776634216,2.0804271697998047
1758972185815056000,1.210055908203125,-2.2971749305725098,1.1399279832839966,1.7458789348602295
1758972185825013800,1.220013671875,-2.525444746017456,3.0470926761627197,1.402016043663025
1758972185834973000,1.229972900390625,-2.407970428466797,3.5631113052368164,1.2076144218444824
1758972185844930800,1.239930908203125,-2.163081645965576,2.8972702026367188,0.819786787033081
1758972185854889000,1.249888916015625,-1.7629668712615967,1.7915092706680298,0.18802449107170105
1758972185864846600,1.2598466796875,-1.2488659620285034,0.5655848383903503,-0.5005781650543213
1758972185874806000,1.269805908203125,-0.7436733245849609,-0.5727167725563049,-1.0338340997695923
1758972185884763600,1.279763671875,-0.36128976941108704,-1.4770629405975342,-1.2298637628555298
1758972185894721800,1.2897216796875,-0.03892209753394127,-2.2320587635040283,-1.127175211906433
1758972185904679700,1.2996796875,0.13945509493350983,-2.5425734519958496,-0.812933087348938
1758972185914637800,1.309637939453125,0.025202292948961258,-2.331496000289917,-0.4374851882457733
1758972185924596700,1.3195966796875,-0.14342373609542847,-1.9888612031936646,-0.171906515955925
1758972185934555000,1.329554931640625,-0.25172358751296997,-1.7020208835601807,-0.039866454899311066
1758972185944512800,1.3395126953125,-0.2661627233028412,-1.3984216451644897,-0.05702253803610802
1758972185954471000,1.349470947265625,-0.23288597166538239,-0.9913603663444519,-0.16785292327404022
1758972185964429800,1.359429931640625,-0.21304063498973846,-0.48541995882987976,-0.3022565245628357
1758972185974388000,1.369387939453125,-0.24855709075927734,-0.09332861751317978,-0.4304155707359314
1758972185984345900,1.379345947265625,-0.365702360868454,0.009830792434513569,-0.5182916522026062
1758972185994303700,1.3893037109375,-0.5657488703727722,-0.14997485280036926,-0.5665428042411804
1758972186004263000,1.399262939453125,-0.772646963596344,-0.2809230089187622,-0.5892576575279236
1758972186014220800,1.409220703125,-0.9875656366348267,-0.3138575255870819,-0.5931512117385864
1758972186024178700,1.4191787109375,-1.17335045337677,-0.33201122283935547,-0.5989254713058472
1758972186034136800,1.42913671875,-1.2437201738357544,-0.3897586762905121,-0.5916457176208496
1758972186044094700,1.4390947265625,-1.2614248991012573,-0.409938246011734,-0.5609315037727356
1758972186054054000,1.449053955078125,-1.2554361820220947,-0.3702496886253357,-0.5016926527023315
1758972186064011800,1.45901171875,-1.204366683959961,-0.24769821763038635,-0.4214673340320587
1758972186073970000,1.468969970703125,-1.0744802951812744,0.009603358805179596,-0.3888359069824219
1758972186083927800,1.478927734375,-0.8343601226806641,0.42908477783203125,-0.4165218472480774
1758972186093887000,1.488886962890625,-0.5067697167396545,0.9656270742416382,-0.5464167594909668
1758972186103844900,1.498844970703125,-0.12505218386650085,1.544557809829712,-0.7124832272529602
1758972186113803000,1.508802978515625,0.2063443809747696,2.0528013706207275,-0.7904621362686157
1758972186123760600,1.5187607421875,0.27470454573631287,2.2597315311431885,-0.6946094036102295
1758972186133718800,1.52871875,0.1378694474697113,2.175692319869995,-0.48017168045043945
1758972186143677700,1.538677734375,-0.009937585331499577,2.3782801628112793,-0.03456410393118858
1758972186153635800,1.5486357421875,-0.11647681146860123,2.3581318855285645,0.5594603419303894
1758972186163593700,1.55859375,-0.24364222586154938,2.0350117683410645,1.0310217142105103
1758972186173551900,1.5685517578125,-0.3411296308040619,1.2668547630310059,1.188828706741333
1758972186183510800,1.5785107421875,-0.36637797951698303,0.3441757559776306,1.11044180393219
1758972186193469000,1.588468994140625,-0.3494839668273926,-0.6399224400520325,0.8638322353363037
1758972186203426800,1.5984267578125,-0.4189748764038086,-1.3675103187561035,0.5727207660675049
1758972186213385000,1.608385009765625,-0.5682058930397034,-1.5823544263839722,0.321285605430603
1758972186223342800,1.6183427734375,-0.6663455367088318,-1.4249274730682373,0.1386958360671997
1758972186233301800,1.6283017578125,-0.6351863145828247,-1.1986280679702759,0.02155163139104843
1758972186243260000,1.638260009765625,-0.5081351399421692,-1.089142918586731,-0.04325399547815323
1758972186253217800,1.6482177734375,-0.4375736117362976,-0.9939433932304382,-0.055025435984134674
1758972186263175700,1.65817578125,-0.5019922852516174,-0.8245468735694885,-0.016701748594641685
1758972186273134600,1.668134521484375,-0.34129980206489563,-0.8620319366455078,-0.06457100063562393
1758972186283092700,1.6780927734375,-0.12825997173786163,-1.0658841133117676,-0.17096614837646484
1758972186293051000,1.68805078125,-0.039917055517435074,-1.2493375539779663,-0.22128364443778992
1758972186303008800,1.6980087890625,0.023689882829785347,-1.2895712852478027,-0.17525944113731384
1758972186312967700,1.7079677734375,0.14128948748111725,-1.1339061260223389,-0.04284839704632759
1758972186322926300,1.71792626953125,0.2910938858985901,-0.8277280330657959,0.15365959703922272
1758972186332884200,1.72788427734375,0.4707174599170685,-0.37814438343048096,0.36395159363746643
1758972186342842400,1.73784228515625,0.5654079914093018,0.23940326273441315,0.4527786672115326
1758972186352800300,1.74780029296875,0.6349953413009644,1.007413625717163,0.35150131583213806
1758972186362759400,1.757759521484375,0.6954901218414307,1.6725234985351562,0.13171222805976868
1758972186372717300,1.76771728515625,0.7591516375541687,2.107652187347412,-0.1799764186143875
1758972186382675500,1.777675537109375,0.8368871808052063,2.333249092102051,-0.5383444428443909
1758972186392633000,1.787633056640625,0.8837159276008606,2.376371383666992,-0.855371356010437
1758972186402592500,1.797592529296875,0.9449753165245056,2.2691938877105713,-1.085045337677002
1758972186412550100,1.807550048828125,0.9542551040649414,2.0768702030181885,-1.2039514780044556
1758972186422508300,1.81750830078125,0.8680757284164429,1.7762775421142578,-1.1911911964416504
1758972186432466200,1.827466064453125,0.6556324362754822,1.3360857963562012,-1.0312566757202148
1758972186442424300,1.83742431640625,0.4539741575717926,0.6651132702827454,-0.5701367259025574
1758972186452383200,1.84738330078125,0.31934577226638794,-0.29799601435661316,0.1127057746052742
1758972186462341400,1.85734130859375,0.18067391216754913,-1.1613729000091553,0.6568154096603394
1758972186472299300,1.86729931640625,0.02671363577246666,-1.9524259567260742,0.997397780418396
1758972186482257400,1.87725732421875,-0.07315197587013245,-2.6963305473327637,1.1399197578430176
1758972186492215300,1.88721533203125,-0.1312759965658188,-2.953126907348633,0.531315267086029
1758972186502174500,1.897174560546875,-0.08586936444044113,-2.2441246509552,-0.39988961815834045
1758972186512132400,1.90713232421875,-0.050869572907686234,-1.2876207828521729,-1.0341222286224365
1758972186522090200,1.91709033203125,-0.13843297958374023,-0.26388517022132874,-1.4029748439788818
1758972186532048100,1.927048095703125,-0.20466099679470062,0.7405893802642822,-1.4856419563293457
1758972186542007300,1.93700732421875,-0.22355692088603973,1.6297848224639893,-1.3673137426376343
1758972186551965200,1.946965087890625,-0.34377574920654297,2.335132122039795,-1.1710805892944336
1758972186561923300,1.95692333984375,-0.5270795226097107,2.6560065746307373,-1.0160465240478516
1758972186571881200,1.966881103515625,-0.6208866834640503,2.436211347579956,-0.9748956561088562
1758972186581839400,1.97683935546875,-0.5478857159614563,1.7828140258789062,-1.041808843612671
1758972186591798300,1.98679833984375,-0.3025638461112976,0.7767404913902283,-1.1823585033416748
1758972186601756400,1.99675634765625,-0.04079030826687813,-0.30500465631484985,-1.260802984237671
1758972186611714300,2.00671435546875,0.15630145370960236,-0.9033975005149841,-1.2015751600265503
1758972186621672400,2.01667236328125,0.23242445290088654,-1.1112977266311646,-1.0577449798583984
1758972186631631400,2.02663134765625,0.16249783337116241,-1.0497488975524902,-0.9072058200836182
1758972186641589500,2.036589599609375,0.0162466149777174,-0.6627204418182373,-0.8140519261360168
1758972186651547400,2.04654736328125,-0.15247635543346405,-0.1690334975719452,-0.749488890171051
1758972186661505300,2.05650537109375,-0.3054153025150299,0.23245374858379364,-0.6773792505264282
1758972186671463200,2.066463134765625,-0.40747031569480896,0.44615858793258667,-0.5763538479804993
1758972186681422300,2.07642236328125,-0.46284380555152893,0.46402838826179504,-0.4200388193130493
1758972186691380200,2.086380126953125,-0.4596887528896332,0.3064965605735779,-0.281829833984375
1758972186701338400,2.09633837890625,-0.4619620442390442,0.10260653495788574,-0.20982886850833893
1758972186711296300,2.106296142578125,-0.4761609435081482,-0.011346664279699326,-0.2076309621334076
1758972186721254400,2.11625439453125,-0.47165700793266296,-0.04637895151972771,-0.24162247776985168
1758972186731213300,2.12621337890625,-0.4532596170902252,-0.08570132404565811,-0.28265565633773804
1758972186741171500,2.13617138671875,-0.4195733070373535,-0.09290916472673416,-0.26495441794395447
1758972186751129300,2.14612939453125,-0.3782849907875061,-0.06571856141090393,-0.21670301258563995
1758972186761087500,2.15608740234375,-0.3653644025325775,0.035478897392749786,-0.1487085223197937
1758972186771046400,2.16604638671875,-0.36473003029823303,0.16404566168785095,-0.07346782833337784
1758972186781004500,2.176004638671875,-0.35093989968299866,0.2693318724632263,0.008637430146336555
1758972186790962200,2.185962158203125,-0.32819733023643494,0.31013283133506775,0.07630675286054611
1758972186800920300,2.19592041015625,-0.29256635904312134,0.27188023924827576,0.1220012754201889
1758972186810878200,2.205878173828125,-0.24085895717144012,0.20187027752399445,0.13861912488937378
1758972186820837400,2.21583740234375,-0.20101992785930634,0.13576741516590118,0.12129020690917969
1758972186830795300,2.225795166015625,-0.18026670813560486,0.06060102954506874,0.07528702914714813
1758972186840753400,2.23575341796875,-0.1676371991634369,-0.020911140367388725,0.00472551304847002
1758972186850711300,2.245711181640625,-0.16468961536884308,-0.09828369319438934,-0.07774406671524048
1758972186860670200,2.255670166015625,-0.1710689514875412,-0.18661728501319885,-0.17234539985656738
1758972186870628400,2.26562841796875,-0.18194077908992767,-0.2504444718360901,-0.2696368098258972
1758972186880586500,2.27558642578125,-0.19591385126113892,-0.25974395871162415,-0.34001004695892334
1758972186890544400,2.28554443359375,-0.2186809480190277,-0.2232152372598648,-0.3415496051311493
1758972186900502300,2.295502197265625,-0.2387249618768692,-0.14609462022781372,-0.27405846118927
1758972186910461400,2.30546142578125,-0.24715173244476318,-0.04669799655675888,-0.17706932127475739
1758972186920419300,2.31541943359375,-0.24480469524860382,0.05511438474059105,-0.06639580428600311
1758972186930377200,2.325377197265625,-0.23710815608501434,0.12342046946287155,0.06381173431873322
1758972186940335400,2.33533544921875,-0.21617677807807922,0.1479385942220688,0.220545694231987
1758972186950293200,2.345293212890625,-0.17934685945510864,0.18185529112815857,0.38007915019989014
1758972186960252200,2.355252197265625,-0.13132500648498535,0.27627500891685486,0.5394030213356018
1758972186970210300,2.365210205078125,-0.1046995148062706,0.3931278586387634,0.6465020775794983
1758972186980168400,2.37516845703125,-0.09305058419704437,0.5021102428436279,0.6520971059799194
1758972186990126300,2.385126220703125,-0.07875633239746094,0.606041431427002,0.5606423020362854
1758972187000084500,2.39508447265625,-0.06305806338787079,0.6134024262428284,0.4433364272117615
1758972187010043400,2.40504345703125,-0.04729348048567772,0.43600180745124817,0.30633115768432617
1758972187020001500,2.41500146484375,-0.006873885169625282,0.059725914150476456,0.1744157373905182
1758972187029959200,2.424959228515625,0.04583060368895531,-0.3230513036251068,0.1245347410440445
1758972187039917300,2.434917236328125,0.022419555112719536,-0.43693897128105164,0.18166273832321167
1758972187049876200,2.444876220703125,-0.06847679615020752,-0.22380433976650238,0.33889469504356384
1758972187059834400,2.45483447265625,-0.08992163091897964,0.16652533411979675,0.5676684975624084
1758972187069792300,2.464792236328125,-0.10294156521558762,0.6649963855743408,0.8528168797492981
1758972187079750400,2.47475048828125,-0.13892751932144165,1.2519820928573608,1.1608588695526123
1758972187089708300,2.484708251953125,-0.21094898879528046,1.7331197261810303,1.38160240650177
1758972187099667200,2.494667236328125,-0.319076269865036,1.98859703540802,1.4922893047332764
1758972187109625300,2.504625244140625,-0.3820413649082184,2.017195701599121,1.5805877447128296
1758972187119583500,2.51458349609375,-0.21696613729000092,1.3823139667510986,1.5445793867111206
1758972187129541400,2.524541259765625,0.2752707302570343,0.24959252774715424,1.175886869430542
1758972187139499500,2.53449951171875,0.7663426995277405,0.056419868022203445,1.2405973672866821
1758972187149458400,2.54445849609375,0.9763915538787842,0.4072316884994507,1.5807584524154663
1758972187159416300,2.554416259765625,0.8147872090339661,0.7549265623092651,1.8982043266296387
1758972187169374200,2.564374267578125,0.5091396570205688,1.038102626800537,2.05393385887146
1758972187179332400,2.574332275390625,0.25629091262817383,1.2941468954086304,2.0166122913360596
1758972187189290200,2.584290283203125,0.11148658394813538,1.4984546899795532,1.7798012495040894
1758972187199249200,2.594249267578125,0.04489956423640251,1.5366936922073364,1.454431414604187
1758972187209207300,2.604207275390625,0.08111083507537842,1.387962818145752,1.151403546333313
1758972187219165400,2.61416552734375,0.16028155386447906,1.0602315664291382,0.9092692136764526
1758972187229123300,2.624123291015625,0.1984984427690506,0.5583112239837646,0.6775709986686707
1758972187239081500,2.63408154296875,0.16933630406856537,-0.042325619608163834,0.45552411675453186
1758972187249040400,2.644040283203125,0.1599888652563095,-0.586306095123291,0.20988398790359497
1758972187258998300,2.653998291015625,0.20201914012432098,-0.9555763006210327,-0.01906557008624077
1758972187268956400,2.663956298828125,0.2423447221517563,-1.0563346147537231,-0.21473947167396545
1758972187278914300,2.673914306640625,0.28911808133125305,-0.7895470857620239,-0.2681233286857605
1758972187288873200,2.683873291015625,0.288260817527771,-0.2350841462612152,-0.1686691790819168
1758972187298831000,2.6938310546875,0.1829194873571396,0.2794574797153473,0.0303800106048584
1758972187308789200,2.703789306640625,0.020077571272850037,0.5570499300956726,0.29921281337738037
1758972187318747100,2.7137470703125,-0.14227138459682465,0.6438807249069214,0.614850640296936
1758972187328705000,2.723705078125,-0.23264630138874054,0.5973291993141174,0.8727237582206726
1758972187338664000,2.733663818359375,-0.23088593780994415,0.4679427146911621,0.9969058632850647
1758972187348622000,2.7436220703125,-0.19498281180858612,0.2739018499851227,0.9756823182106018
1758972187358580200,2.753580322265625,-0.14911384880542755,0.029078789055347443,0.8436369895935059
1758972187368537900,2.763537841796875,-0.09369799494743347,-0.24202515184879303,0.6420665383338928
1758972187378496000,2.77349609375,-0.0273237656801939,-0.5354985594749451,0.42577847838401794
1758972187388455000,2.783454833984375,0.030122483149170876,-0.8394198417663574,0.25377553701400757
1758972187398413000,2.7934130859375,0.05368799716234207,-1.1488373279571533,0.12797926366329193
1758972187408371000,2.803370849609375,0.04733768850564957,-1.46745765209198,0.0637747198343277
1758972187418329000,2.8133291015625,0.04258687421679497,-1.7468600273132324,0.06406207382678986
1758972187428287000,2.823286865234375,0.046475887298583984,-1.9545016288757324,0.11562193930149078
1758972187438246000,2.833245849609375,0.048108406364917755,-2.0707736015319824,0.2482130080461502
1758972187448204000,2.8432041015625,0.027589550241827965,-2.082779884338379,0.40165022015571594
1758972187458162200,2.853162109375,0.0025574336759746075,-2.0023138523101807,0.5282494425773621
1758972187468120000,2.8631201171875,-0.002016545506194234,-1.8736836910247803,0.6048558354377747
1758972187478078200,2.873078125,-0.002311623888090253,-1.7382316589355469,0.6351423263549805
1758972187488037000,2.883037109375,0.007904262281954288,-1.5880475044250488,0.6237711906433105
1758972187497995300,2.892995361328125,0.007409979589283466,-1.4236856698989868,0.5830336213111877
1758972187507953000,2.902952880859375,-0.01540691964328289,-1.264583945274353,0.5125847458839417
1758972187517911000,2.9129111328125,-0.04363935440778732,-1.1047577857971191,0.44270020723342896
1758972187527869000,2.922868896484375,-0.06679607182741165,-0.9435888528823853,0.3916892111301422
1758972187537828000,2.932828125,-0.08587336540222168,-0.7901481986045837,0.37839630246162415
1758972187547786000,2.942785888671875,-0.11066526174545288,-0.6288567781448364,0.42205190658569336
1758972187557744000,2.952744140625,-0.14450791478157043,-0.4458885192871094,0.5249212980270386
1758972187567702000,2.962701904296875,-0.18306675553321838,-0.21011994779109955,0.6974640488624573
1758972187577660200,2.97266015625,-0.2359241098165512,0.08252257108688354,0.9171136021614075
1758972187587619000,2.982619140625,-0.28921183943748474,0.39049211144447327,1.127856969833374
1758972187597577200,2.9925771484375,-0.29679012298583984,0.6852302551269531,1.2696455717086792
1758972187607535000,3.00253515625,-0.2909034788608551,0.950103759765625,1.312175989151001
1758972187617493000,3.012492919921875,-0.305480033159256,1.1871440410614014,1.2678247690200806
1758972187627452200,3.0224521484375,-0.34180954098701477,1.4342597723007202,1.1850712299346924
1758972187637410000,3.03241015625,-0.398611843585968,1.6949800252914429,1.1077314615249634
1758972187647368000,3.042367919921875,-0.45740458369255066,1.938474178314209,1.0262408256530762
1758972187657326000,3.052326171875,-0.47646427154541016,2.122753143310547,0.9267265200614929
1758972187667284000,3.062283935546875,-0.4573212265968323,2.1209211349487305,0.754051685333252
1758972187677243000,3.072242919921875,-0.4288099408149719,1.8935391902923584,0.4832574725151062
1758972187687201000,3.082200927734375,-0.3850502073764801,1.512877106666565,0.11783023178577423
1758972187697159200,3.0921591796875,-0.3114870488643646,1.0665006637573242,-0.3221266567707062
1758972187707117000,3.102116943359375,-0.2195398062467575,0.6044310331344604,-0.7850365042686462
1758972187717075200,3.1120751953125,-0.14796176552772522,0.17532441020011902,-1.1778117418289185
1758972187727034000,3.1220341796875,-0.14136937260627747,-0.18778933584690094,-1.3960598707199097
1758972187736992000,3.131991943359375,-0.1901925802230835,-0.4149433970451355,-1.397887110710144
1758972187746950000,3.141949951171875,-0.22086606919765472,-0.5031790137290955,-1.293379306793213
1758972187756908000,3.151907958984375,-0.1975436955690384,-0.522350549697876,-1.2203837633132935
1758972187766866000,3.161865966796875,-0.13558419048786163,-0.5469464659690857,-1.2453683614730835
1758972187776824800,3.171824951171875,-0.07063368707895279,-0.5775097012519836,-1.380326509475708
1758972187786783000,3.181782958984375,-0.008081895299255848,-0.5318188667297363,-1.67379891872406
1758972187796741000,3.1917412109375,0.14981293678283691,-0.37421220541000366,-2.2325782775878906
1758972187806699000,3.201698974609375,0.3791095018386841,-0.10498793423175812,-2.7035679817199707
1758972187816657200,3.2116572265625,0.481852650642395,0.209824338555336,-2.853024959564209
1758972187826616000,3.221615966796875,0.38807129859924316,0.4461071789264679,-2.789825916290283
1758972187836574000,3.231573974609375,0.2788774371147156,0.734843909740448,-2.632838249206543
1758972187846532000,3.241531982421875,0.22940948605537415,1.2943053245544434,-2.34256911277771
1758972187856490200,3.251490234375,0.19091083109378815,2.1133790016174316,-1.9556585550308228
1758972187866448000,3.26144775390625,0.10251785069704056,2.7660768032073975,-1.6364916563034058
1758972187876406800,3.27140673828125,-0.03659423068165779,2.85494065284729,-1.52043616771698
1758972187886365000,3.281364990234375,-0.1575893610715866,2.39913272857666,-1.5430059432983398
1758972187896323000,3.291322998046875,-0.14320003986358643,1.6364946365356445,-1.5649336576461792
1758972187906281000,3.301281005859375,-0.010790329426527023,0.7195698618888855,-1.5165703296661377
1758972187916240000,3.311239990234375,0.17867547273635864,-0.3033739924430847,-1.4022741317749023
1758972187926198000,3.321197998046875,0.3707823157310486,-1.0612536668777466,-1.2828282117843628
1758972187936156200,3.33115625,0.5290377736091614,-1.2784233093261719,-1.1578526496887207
1758972187946114000,3.341114013671875,0.624856173992157,-1.0251097679138184,-1.0385686159133911
1758972187956072200,3.351072265625,0.6566013097763062,-0.385839581489563,-0.9551267623901367
1758972187966031000,3.361031005859375,0.6509948372840881,0.33527493476867676,-0.8805592656135559
1758972187975989000,3.370989013671875,0.45799019932746887,0.8805169463157654,-0.8108377456665039
1758972187985947100,3.380947021484375,0.12769217789173126,1.1049580574035645,-0.7049403190612793
1758972187995905000,3.390905029296875,-0.21981225907802582,0.9967700839042664,-0.5744736790657043
1758972188005863000,3.40086279296875,-0.45161300897598267,0.7042830586433411,-0.42121487855911255
1758972188015821800,3.41082177734375,-0.5642199516296387,0.44211137294769287,-0.2890198230743408
1758972188025780000,3.420780029296875,-0.6124743223190308,0.2987092137336731,-0.20651616156101227
1758972188035738000,3.430738037109375,-0.6211346387863159,0.16876637935638428,-0.17628714442253113
1758972188045696000,3.440696044921875,-0.6258569955825806,-0.0009869674686342478,-0.1594381332397461
1758972188055654100,3.450654052734375,-0.5931591987609863,-0.21512135863304138,-0.1862793266773224
1758972188065613000,3.460613037109375,-0.5505028367042542,-0.3594662845134735,-0.2398562729358673
1758972188075571000,3.470571044921875,-0.4898810088634491,-0.38699671626091003,-0.28723523020744324
1758972188085529000,3.480529052734375,-0.44943585991859436,-0.39489510655403137,-0.301742821931839
1758972188095487200,3.4904873046875,-0.44205570220947266,-0.4318701922893524,-0.2985302209854126
1758972188105444900,3.50044482421875,-0.4542370140552521,-0.5318455100059509,-0.2879878580570221
1758972188115404000,3.510404052734375,-0.4650033712387085,-0.700549840927124,-0.2553001940250397
1758972188125362000,3.52036181640625,-0.44840121269226074,-0.9302589297294617,-0.18176980316638947
1758972188135320000,3.530320068359375,-0.3866196274757385,-1.1379990577697754,-0.061041250824928284
1758972188145278000,3.54027783203125,-0.2605050802230835,-1.2490406036376953,0.12564155459403992
1758972188155236000,3.550236083984375,-0.08815036714076996,-1.2908000946044922,0.38462090492248535
1758972188165195000,3.560195068359375,0.09353181719779968,-1.280959129333496,0.7014667987823486
1758972188175153000,3.57015283203125,0.27816343307495117,-1.219922661781311,1.042377233505249
1758972188185111000,3.580111083984375,0.4247574210166931,-1.1173158884048462,1.3281935453414917
1758972188195069200,3.590069091796875,0.49241769313812256,-1.0946247577667236,1.4152599573135376
1758972188205027000,3.600027099609375,0.4630885422229767,-1.3240631818771362,1.12531578540802
1758972188214986000,3.609986083984375,0.31494462490081787,-1.6663752794265747,0.23622877895832062
1758972188224944000,3.619944091796875,0.06697530299425125,-1.7633711099624634,-1.1629619598388672
1758972188234902000,3.629902099609375,-0.08995625376701355,-1.575933575630188,-2.0694494247436523
1758972188244860000,3.63985986328125,-0.10312878340482712,-1.18784761428833,-1.9048246145248413
1758972188254818000,3.649818115234375,-0.2925761938095093,-0.5992514491081238,-1.2707475423812866
1758972188264777000,3.65977685546875,-0.5558658838272095,-0.08348158001899719,-0.7202857136726379
1758972188274734800,3.66973486328125,-0.6472575664520264,0.16507869958877563,-0.32279056310653687
1758972188284693000,3.67969287109375,-0.72760409116745,0.03143329173326492,0.07193224877119064
1758972188294651100,3.689651123046875,-0.6896388530731201,-0.1674736887216568,0.5311448574066162
1758972188304609000,3.699609130859375,-0.3870883285999298,0.2193555235862732,1.0644851922988892
1758972188314568000,3.70956787109375,-0.030888140201568604,1.0005147457122803,1.5435277223587036
1758972188324525600,3.719525634765625,0.15367157757282257,1.6101503372192383,1.79046630859375
1758972188334483700,3.729483642578125,0.15721864998340607,1.8393452167510986,1.8675819635391235
1758972188344441600,3.739441650390625,0.11538305133581161,1.7630339860916138,1.8579041957855225
1758972188354400500,3.749400390625,0.09533371031284332,1.5630500316619873,1.677176594734192
1758972188364358700,3.759358642578125,0.002665291540324688,1.3961645364761353,1.220747709274292
1758972188374316800,3.76931689453125,-0.03876550495624542,1.5664609670639038,0.40030160546302795
1758972188384274700,3.779274658203125,0.1959519237279892,1.8773565292358398,-0.30355721712112427
1758972188394232800,3.78923291015625,0.5143988728523254,1.867096185684204,-0.48273947834968567
1758972188404191700,3.799191650390625,0.7633181810379028,1.4449888467788696,-0.1571406126022339
1758972188414150000,3.80914990234375,0.8893413543701172,0.8645696640014648,0.39384904503822327
1758972188424107800,3.819107666015625,0.8988631963729858,0.4382005035877228,0.956896960735321
1758972188434065700,3.829065673828125,0.8235226273536682,0.20659178495407104,1.4174280166625977
1758972188444023600,3.8390234375,0.6857807636260986,0.026739735156297684,1.7289427518844604
1758972188453982500,3.848982421875,0.533261775970459,-0.13420121371746063,1.9179500341415405
1758972188463940600,3.858940673828125,0.34526631236076355,-0.29375067353248596,1.942968487739563
1758972188473898800,3.868898681640625,0.1839567869901657,-0.37055835127830505,1.7594096660614014
1758972188483856600,3.878856689453125,0.10816721618175507,-0.4439806342124939,1.3951855897903442
1758972188493814800,3.888814697265625,0.1543983668088913,-0.47833383083343506,0.8856613636016846
1758972188503773700,3.898773681640625,0.29746362566947937,-0.38911178708076477,0.304621160030365
1758972188513731800,3.90873193359375,0.47517824172973633,-0.2454872578382492,-0.24872592091560364
1758972188523689700,3.918689697265625,0.5487112998962402,-0.0881170779466629,-0.6865836977958679
1758972188533648000,3.92864794921875,0.5152694582939148,0.4783697724342346,-0.829883337020874
1758972188543605800,3.938605712890625,0.38478896021842957,1.0853705406188965,-0.4733579754829407
1758972188553564700,3.948564697265625,0.17097334563732147,1.1142231225967407,0.5282121896743774
1758972188563522600,3.9585224609375,-0.04147686809301376,0.7648673057556152,1.3437155485153198
1758972188573480700,3.968480712890625,-0.17590205371379852,0.3975686728954315,1.6571767330169678
1758972188583438600,3.9784384765625,-0.24939091503620148,0.1309814453125,1.5366700887680054
1758972188593396700,3.988396728515625,-0.2789866328239441,-0.10142462700605392,1.1790716648101807
1758972188603355600,3.998355712890625,-0.23125319182872772,-0.36675482988357544,0.7671605348587036
1758972188613313800,4.008313720703125,-0.11399447917938232,-0.652427613735199,0.43253278732299805
1758972188623271700,4.018271728515625,0.03863421082496643,-0.9254902601242065,0.20051445066928864
1758972188633229800,4.028229736328125,0.1570223718881607,-1.1889551877975464,0.08158860355615616
1758972188643187700,4.038187744140625,0.19534845650196075,-1.4268304109573364,0.07950574159622192
1758972188653146600,4.048146728515625,0.16244137287139893,-1.6238124370574951,0.20243725180625916
1758972188663104800,4.058104736328125,0.11224957555532455,-1.7477515935897827,0.402616411447525
1758972188673063000,4.06806298828125,0.08417772501707077,-1.7982195615768433,0.6048989295959473
1758972188683020500,4.0780205078125,0.06722324341535568,-1.778853416442871,0.7513525485992432
1758972188692978700,4.087978759765625,0.05549042299389839,-1.7040818929672241,0.8202919363975525
1758972188702937600,4.0979375,0.04026033729314804,-1.6025291681289673,0.8270060420036316
1758972188712895700,4.107895751953125,0.01841469295322895,-1.4931657314300537,0.7991757392883301
1758972188722853600,4.117853515625,0.020871726796030998,-1.375774621963501,0.7484545111656189
1758972188732811800,4.127811767578125,0.05868914723396301,-1.2355983257293701,0.6913571357727051
1758972188742769700,4.137769775390625,0.08056514710187912,-1.101262092590332,0.6512920260429382
1758972188752728600,4.147728515625,0.07026537507772446,-0.9765489101409912,0.6455329060554504
1758972188762686700,4.157686767578125,0.019769443199038506,-0.8572126626968384,0.6833351850509644
1758972188772644900,4.167644775390625,-0.04348968714475632,-0.7404157519340515,0.7538362145423889
1758972188782602800,4.177602783203125,-0.107005275785923,-0.5880944132804871,0.8506818413734436
1758972188792560600,4.187560546875,-0.16671201586723328,-0.3754580318927765,0.9774224758148193
1758972188802519800,4.197519775390625,-0.22393669188022614,-0.07856272161006927,1.129724383354187
1758972188812477700,4.207477783203125,-0.2599087953567505,0.32017746567726135,1.2870972156524658
1758972188822435600,4.217435546875,-0.2681662142276764,0.8123935461044312,1.4087706804275513
1758972188832393700,4.227393798828125,-0.24588780105113983,1.348738193511963,1.435387134552002
1758972188842351600,4.2373515625,-0.21884766221046448,1.8535773754119873,1.3405561447143555
1758972188852310800,4.247310791015625,-0.20460879802703857,2.256965398788452,1.129146695137024
1758972188862268700,4.2572685546875,-0.23377227783203125,2.525818109512329,0.834367573261261
1758972188872226800,4.267226806640625,-0.2916531562805176,2.641792058944702,0.5025696754455566
1758972188882184700,4.277184814453125,-0.359916090965271,2.5721030235290527,0.17388418316841125
1758972188892143600,4.2871435546875,-0.4216929078102112,2.2000572681427,-0.10648489743471146
1758972188902101800,4.297101806640625,-0.43223822116851807,1.625116229057312,-0.33808085322380066
1758972188912060000,4.307059814453125,-0.3964610695838928,0.9725373983383179,-0.5142183303833008
1758972188922017500,4.317017578125,-0.34222525358200073,0.27668753266334534,-0.657661497592926
1758972188931975700,4.3269755859375,-0.3429054319858551,-0.42107078433036804,-0.8022480010986328
1758972188941934600,4.3369345703125,-0.31232568621635437,-0.9067914485931396,-0.9789657592773438
1758972188951892700,4.346892822265625,-0.27616047859191895,-1.0759197473526,-1.1241048574447632
1758972188961850600,4.3568505859375,-0.26710280776023865,-1.0072458982467651,-1.2136845588684082
1758972188971808800,4.366808837890625,-0.2666069269180298,-0.8690531253814697,-1.3313357830047607
1758972188981766700,4.3767666015625,-0.3180307149887085,-0.8184762001037598,-1.5478435754776
1758972188991724800,4.386724853515625,-0.3573373556137085,-0.8279131054878235,-1.8789949417114258
1758972189001683700,4.39668359375,-0.2894272804260254,-0.8133118152618408,-2.4596714973449707
1758972189011641900,4.406641845703125,-0.1345522254705429,-0.8739980459213257,-3.041374921798706
1758972189021599700,4.416599853515625,0.031313180923461914,-0.9636131525039673,-3.3183021545410156
1758972189031558000,4.426557861328125,0.11676017194986343,-0.9514119029045105,-3.243781328201294
1758972189041516800,4.436516845703125,0.1404023915529251,-0.7984181046485901,-2.977890729904175
1758972189051474700,4.446474609375,0.14940093457698822,-0.4749777019023895,-2.665773391723633
1758972189061432600,4.4564326171875,0.12304390221834183,0.011481153778731823,-2.369650363922119
1758972189071390700,4.466390625,0.08165491372346878,0.7008739709854126,-2.0584661960601807
1758972189081348600,4.4763486328125,0.04091734066605568,1.6375987529754639,-1.6693660020828247
1758972189091307500,4.4863076171875,-0.046480681747198105,2.493286371231079,-1.2698431015014648
1758972189101265700,4.496265625,-0.14042715728282928,2.8011577129364014,-1.0935925245285034
1758972189111223800,4.506223876953125,-0.23059992492198944,2.316387414932251,-1.1398601531982422
1758972189121181700,4.516181640625,-0.16290609538555145,1.1608002185821533,-1.3572355508804321
1758972189131139800,4.526139892578125,0.07198444753885269,-0.22923877835273743,-1.71318519115448
1758972189141098800,4.5360986328125,0.3218803107738495,-1.1941310167312622,-1.887211561203003
1758972189151056600,4.546056640625,0.4902607798576355,-1.5170105695724487,-1.856358289718628
1758972189161014800,4.556014892578125,0.5614771842956543,-1.3030812740325928,-1.7155638933181763
1758972189170972700,4.56597265625,0.5734224915504456,-0.7395803332328796,-1.5473815202713013
1758972189180930600,4.5759306640625,0.5429738163948059,-0.0561295822262764,-1.3360227346420288
1758972189190889500,4.585889404296875,0.44141682982444763,0.43223318457603455,-1.0633049011230469
1758972189200847600,4.59584765625,0.25468793511390686,0.5758110880851746,-0.7070420980453491
1758972189210805800,4.6058056640625,-0.015335014089941978,0.4320392906665802,-0.36058375239372253
1758972189220763600,4.615763671875,-0.2803451120853424,0.26420074701309204,-0.13572373986244202
1758972189230721800,4.6257216796875,-0.4542098343372345,0.2648092806339264,-0.07056258618831635
1758972189240680700,4.6356806640625,-0.46968039870262146,0.3539588749408722,-0.11823289841413498
1758972189250638800,4.645638916015625,-0.4371267259120941,0.3728015422821045,-0.18369153141975403
1758972189260596700,4.6555966796875,-0.4117971360683441,0.28809916973114014,-0.2468971312046051
1758972189270555000,4.665554931640625,-0.4394862949848175,0.11120162159204483,-0.3239106833934784
1758972189280512500,4.675512451171875,-0.48680320382118225,-0.05911258980631828,-0.41519400477409363
1758972189290471700,4.6854716796875,-0.5315986275672913,-0.18852810561656952,-0.47759371995925903
1758972189300429600,4.6954296875,-0.5558118224143982,-0.29059216380119324,-0.531686544418335
1758972189310387700,4.7053876953125,-0.566584050655365,-0.3786005675792694,-0.569724977016449
1758972189320345000,4.715344970703125,-0.5873380899429321,-0.49952247738838196,-0.5869241952896118
1758972189330303200,4.72530322265625,-0.6093038320541382,-0.705258309841156,-0.5507177114486694
1758972189340262100,4.73526220703125,-0.6252481937408447,-1.0015064477920532,-0.45006808638572693
1758972189350220300,4.74522021484375,-0.575254499912262,-1.329289436340332,-0.28401386737823486
1758972189360178200,4.75517822265625,-0.461487740278244,-1.5919843912124634,-0.07077191025018692
1758972189370136300,4.76513623046875,-0.29569876194000244,-1.7728447914123535,0.18608039617538452
1758972189380094200,4.77509423828125,-0.07633711397647858,-1.8337395191192627,0.505315363407135
1758972189390053400,4.785053466796875,0.17848585546016693,-1.7960518598556519,0.8738598227500916
1758972189400011300,4.79501123046875,0.4295545518398285,-1.6790505647659302,1.2510223388671875
1758972189409969400,4.804969482421875,0.5926297903060913,-1.5440638065338135,1.5455790758132935
1758972189419927300,4.81492724609375,0.4927774667739868,-1.424617052078247,1.604997158050537
1758972189429885400,4.824885498046875,0.2685675323009491,-1.2129734754562378,1.3013744354248047
1758972189439844400,4.83484423828125,0.01570599153637886,-0.8575490713119507,0.5185494422912598
1758972189449802200,4.84480224609375,-0.1723746955394745,-0.40393975377082825,-0.40170934796333313
1758972189459760000,4.854760009765625,-0.1899385154247284,-0.06957641243934631,-0.8206062316894531
1758972189469718300,4.86471826171875,-0.11206474900245667,0.216774120926857,-0.5801507234573364
1758972189479676200,4.87467626953125,-0.12515631318092346,0.6607744693756104,-0.07168404012918472
1758972189489635300,4.88463525390625,-0.295248419046402,1.0115705728530884,0.42038264870643616
1758972189499593200,4.89459326171875,-0.5156553387641907,0.9692875742912292,0.7202897071838379
1758972189509551400,4.90455126953125,-0.7078218460083008,0.39668741822242737,0.7531152963638306
1758972189519509200,4.91450927734375,-0.8376001119613647,-0.5475006699562073,0.5843337774276733
1758972189529467400,4.92446728515625,-0.7731955647468567,-1.2776453495025635,0.38407549262046814
1758972189539426300,4.93442626953125,-0.3273645341396332,-0.8835087418556213,0.333871454000473
1758972189549384400,4.944384521484375,0.13891100883483887,0.449876606464386,0.44284534454345703
1758972189559342300,4.95434228515625,0.30480092763900757,1.7010869979858398,0.5275146961212158
1758972189569300200,4.96430029296875,0.2517246603965759,2.073641300201416,0.6332485675811768
1758972189579258000,4.974258056640625,0.2227047085762024,1.896331548690796,0.7743654847145081
1758972189589217300,4.98421728515625,0.133894145488739,1.6354069709777832,0.8523125052452087
1758972189599175200,4.994175048828125,-0.05248717591166496,1.5721896886825562,0.7609785795211792
1758972189609133300,5.00413330078125,-0.15876621007919312,1.7729374170303345,0.5591924786567688
1758972189619091200,5.01409130859375,-0.08959246426820755,1.956844687461853,0.41699615120887756
1758972189629049300,5.02404931640625,0.15370939671993256,1.9009699821472168,0.42474037408828735
1758972189639008300,5.03400830078125,0.3619496822357178,1.568613886833191,0.5439599752426147
1758972189648966400,5.04396630859375,0.4514305591583252,1.042984962463379,0.7600371241569519
1758972189658924300,5.05392431640625,0.5074421763420105,0.551638126373291,1.0768537521362305
1758972189668882400,5.06388232421875,0.5276414752006531,0.31232061982154846,1.4591201543807983
1758972189678840000,5.073840087890625,0.5062962174415588,0.3053798973560333,1.824222207069397
1758972189688799500,5.083799560546875,0.38147038221359253,0.2696397304534912,2.110016107559204
1758972189698757000,5.093757080078125,0.16211727261543274,0.20522798597812653,2.2309927940368652
1758972189708715300,5.10371533203125,-0.03869040310382843,0.18630675971508026,2.1481566429138184
1758972189718673200,5.113673095703125,-0.06811833381652832,0.2423228919506073,1.8850826025009155
1758972189728631300,5.12363134765625,-0.06656544655561447,0.3355894684791565,1.3609378337860107
1758972189738590200,5.133590087890625,0.07752621918916702,0.6131086945533752,0.7015511989593506
1758972189748548400,5.14354833984375,0.3054611086845398,0.9538862109184265,0.016083095222711563
1758972189758506200,5.15350634765625,0.5240688323974609,1.2478739023208618,-0.5741879343986511
1758972189768464400,5.16346435546875,0.6705980896949768,1.4398329257965088,-0.9775087237358093
1758972189778422300,5.17342236328125,0.6710090041160583,1.581850528717041,-1.0758055448532104
1758972189788381400,5.18338134765625,0.5276832580566406,1.8032119274139404,-0.25036856532096863
1758972189798339300,5.19333935546875,0.36196112632751465,1.3526655435562134,1.1127898693084717
1758972189808297200,5.203297119140625,0.23558509349822998,0.811661958694458,1.7959316968917847
1758972189818255000,5.213255126953125,0.14798599481582642,0.47891706228256226,1.7960132360458374
1758972189828213200,5.223213134765625,0.08761081099510193,0.2577276825904846,1.4066851139068604
1758972189838172200,5.233172119140625,0.10653895884752274,-0.013791712000966072,0.8832852840423584
1758972189848130300,5.24313037109375,0.19657617807388306,-0.2696770131587982,0.4093438386917114
1758972189858088200,5.253088134765625,0.3025966286659241,-0.47274836897850037,0.0887671560049057
1758972189868046300,5.26304638671875,0.3783792555332184,-0.6359434127807617,-0.03163142874836922
1758972189878004200,5.273004150390625,0.39290866255760193,-0.7993443608283997,0.04315599426627159
1758972189887963400,5.28296337890625,0.3447533845901489,-0.989703357219696,0.2909567356109619
1758972189897921300,5.29292138671875,0.2566823959350586,-1.1681263446807861,0.6877017021179199
1758972189907879400,5.30287939453125,0.20476193726062775,-1.3061864376068115,1.0541279315948486
1758972189917837300,5.31283740234375,0.2211124151945114,-1.3724403381347656,1.237457513809204
1758972189927795200,5.322795166015625,0.2691342532634735,-1.3634532690048218,1.2393392324447632
1758972189937754000,5.332754150390625,0.2817760109901428,-1.2951405048370361,1.1324783563613892
1758972189947712300,5.342712158203125,0.2809251546859741,-1.189510464668274,0.9605081677436829
1758972189957670100,5.352670166015625,0.2919631600379944,-1.0603843927383423,0.7763378024101257
1758972189967628300,5.362628173828125,0.29918962717056274,-0.9302672147750854,0.6324794292449951
1758972189977586200,5.372586181640625,0.2939080595970154,-0.7515422105789185,0.589963436126709
1758972189987544300,5.38254443359375,0.27117717266082764,-0.46224620938301086,0.6756032109260559
1758972189997503200,5.392503173828125,0.21412746608257294,-0.09134242683649063,0.8682272434234619
1758972190007461400,5.40246142578125,0.13798344135284424,0.23946744203567505,1.0593631267547607
1758972190017419300,5.412419189453125,0.08677350729703903,0.46398258209228516,1.1643667221069336
1758972190027377400,5.42237744140625,0.06240025907754898,0.6044510006904602,1.1618047952651978
1758972190037336300,5.43233642578125,0.044434309005737305,0.6923753023147583,1.077488660812378
1758972190047294500,5.44229443359375,0.021576132625341415,0.7687518000602722,0.9468613266944885
1758972190057252000,5.452252197265625,-0.002671416848897934,0.8654400110244751,0.8248617053031921
1758972190067210200,5.462210205078125,-0.020558537915349007,1.0265761613845825,0.733197808265686
1758972190077168000,5.472168212890625,-0.04778776317834854,1.2254165410995483,0.67103111743927
1758972190087126300,5.482126220703125,-0.07724259048700333,1.4238542318344116,0.6141193509101868
1758972190097085200,5.492085205078125,-0.12503887712955475,1.587064504623413,0.5491997599601746
1758972190107043300,5.502043212890625,-0.19695034623146057,1.6884633302688599,0.48119404911994934
1758972190117001200,5.512001220703125,-0.27486085891723633,1.7135039567947388,0.4285963475704193
1758972190126959400,5.52195947265625,-0.33800625801086426,1.6302188634872437,0.4065912067890167
1758972190136917200,5.531917236328125,-0.37437891960144043,1.4809300899505615,0.42185428738594055
1758972190146876400,5.54187646484375,-0.401795357465744,1.279767394065857,0.44602274894714355
1758972190156834300,5.551834228515625,-0.4343453347682953,1.0330545902252197,0.41849231719970703
1758972190166792200,5.561792236328125,-0.48046621680259705,0.7045885324478149,0.2667882740497589
1758972190176750000,5.57175,-0.5257524847984314,0.31001803278923035,-0.03139067813754082
1758972190186708200,5.581708251953125,-0.5417625904083252,-0.005733519326895475,-0.43966925144195557
1758972190196667100,5.591667236328125,-0.5201209783554077,-0.08921562880277634,-0.9041053652763367
1758972190206625300,5.601625244140625,-0.5034764409065247,-0.08204693347215652,-1.432704210281372
1758972190216583200,5.611583251953125,-0.4825570583343506,-0.16759724915027618,-1.9973607063293457
1758972190226541300,5.621541259765625,-0.5037382245063782,-0.39336487650871277,-2.5072021484375
1758972190236499200,5.631499267578125,-0.5550349950790405,-0.6423842906951904,-2.8866817951202393
1758972190246458400,5.641458251953125,-0.5972098708152771,-0.8356238007545471,-3.10437273979187
1758972190256416300,5.651416259765625,-0.5989025831222534,-0.9730588793754578,-3.18442440032959
1758972190266374400,5.66137451171875,-0.5484614968299866,-1.0877742767333984,-3.1356163024902344
1758972190276332300,5.671332275390625,-0.48018819093704224,-1.1749643087387085,-2.9712767601013184
1758972190286290200,5.681290283203125,-0.46213194727897644,-1.1802847385406494,-2.766482353210449
1758972190296249300,5.691249267578125,-0.4069898724555969,-1.0601305961608887,-2.5933451652526855
1758972190306207200,5.701207275390625,-0.22967366874217987,-0.686438798904419,-2.3791348934173584
1758972190316165000,5.7111650390625,-0.04167580604553223,-0.03741687908768654,-2.1112072467803955
1758972190326124000,5.7211240234375,0.07260389626026154,0.7142443656921387,-1.8468539714813232
1758972190336082000,5.73108203125,0.09451558440923691,1.534166693687439,-1.5583404302597046
1758972190346041000,5.741041015625,0.026872094720602036,2.2381348609924316,-1.3014271259307861
1758972190355999000,5.7509990234375,-0.0826173797249794,2.6307058334350586,-1.128907561302185
1758972190365956900,5.760956787109375,-0.17041248083114624,2.423647165298462,-1.0269010066986084
1758972190375914800,5.770914794921875,-0.17551909387111664,1.2578812837600708,-1.1489346027374268
1758972190385873000,5.780872802734375,-0.03615693747997284,-0.2223489135503769,-1.3471964597702026
1758972190395831800,5.790831787109375,0.17910397052764893,-1.134338617324829,-1.3748406171798706
1758972190405790000,5.8007900390625,0.3859570324420929,-1.4339511394500732,-1.3174012899398804
1758972190415747800,5.810747802734375,0.5350876450538635,-1.3149147033691406,-1.169933557510376
1758972190425706000,5.8207060546875,0.506424069404602,-1.0491411685943604,-0.9440945982933044
1758972190435664000,5.830663818359375,0.2541278898715973,-0.7710477113723755,-0.7254855632781982
1758972190445623000,5.840623046875,-0.027109649032354355,-0.39788344502449036,-0.5657390356063843
1758972190455581000,5.850580810546875,-0.24778689444065094,-0.04591289535164833,-0.4296104907989502
1758972190465539000,5.8605390625,-0.38201260566711426,0.21011382341384888,-0.32608142495155334
1758972190475497000,5.8704970703125,-0.4542385935783386,0.2845646142959595,-0.25138428807258606
1758972190485454800,5.880454833984375,-0.4898919463157654,0.1280471831560135,-0.24135643243789673
1758972190495413800,5.890413818359375,-0.4974513351917267,-0.13998159766197205,-0.26459330320358276
1758972190505372000,5.900371826171875,-0.4800233244895935,-0.3830246031284332,-0.3157084286212921
1758972190515329800,5.910329833984375,-0.4196507930755615,-0.5362085700035095,-0.3895381689071655
1758972190525288000,5.920287841796875,-0.3394568860530853,-0.559779703617096,-0.4656324088573456
1758972190535245800,5.930245849609375,-0.25721874833106995,-0.49123629927635193,-0.5362591743469238
1758972190545205000,5.940205078125,-0.19957995414733887,-0.43140918016433716,-0.5861886739730835
1758972190555163000,5.950162841796875,-0.2100893259048462,-0.38549017906188965,-0.6053716540336609
1758972190565121000,5.96012109375,-0.2387595772743225,-0.3671654760837555,-0.5995143055915833
1758972190575079000,5.970078857421875,-0.25916633009910583,-0.4487530291080475,-0.5601394772529602
1758972190585037000,5.980037109375,-0.2573167383670807,-0.7278986573219299,-0.4631071984767914
1758972190594996000,5.989995849609375,-0.24694028496742249,-1.1414806842803955,-0.2826966643333435
1758972190604954000,5.9999541015625,-0.16633331775665283,-1.513697624206543,-0.029140574857592583
1758972190614911700,6.009911865234375,-0.004862665664404631,-1.6794471740722656,0.27881166338920593
1758972190624870000,6.019869873046875,0.2144092321395874,-1.6475030183792114,0.6132261157035828
1758972190634827800,6.029827880859375,0.4108397364616394,-1.548011064529419,0.9344776272773743
1758972190644787000,6.039786865234375,0.5154116749763489,-1.4814480543136597,1.199436068534851
1758972190654744800,6.049744873046875,0.5370988845825195,-1.4202184677124023,1.3500120639801025
1758972190664703000,6.059702880859375,0.4469876289367676,-1.3763126134872437,1.2563505172729492
1758972190674660900,6.069660888671875,0.26434215903282166,-1.3878669738769531,0.7574131488800049
1758972190684619000,6.079618896484375,0.09748474508523941,-1.3761759996414185,-0.26452434062957764
1758972190694577000,6.089576904296875,-0.04663168266415596,-1.2491594552993774,-1.2991390228271484
1758972190704536000,6.0995361328125,-0.12089312821626663,-0.92112135887146,-1.5729670524597168
1758972190714494000,6.109493896484375,-0.08182375878095627,-0.3095453381538391,-1.0971614122390747
1758972190724451800,6.119451904296875,-0.16808567941188812,0.2602768540382385,-0.438144326210022
1758972190734409700,6.12940966796875,-0.3681090474128723,0.3397756814956665,0.008896555751562119
1758972190744367900,6.139367919921875,-0.4601162075996399,-0.037093039602041245,0.2175365835428238
1758972190754326800,6.149326904296875,-0.5357414484024048,-0.6333106160163879,0.3371889591217041
1758972190764285000,6.159284912109375,-0.6054507493972778,-1.1890590190887451,0.4412362575531006
1758972190774242800,6.169242919921875,-0.5592462420463562,-1.2125396728515625,0.5969507694244385
1758972190784201000,6.179200927734375,-0.23393526673316956,-0.19831494987010956,0.81755131483078
1758972190794158800,6.189158935546875,0.18605536222457886,1.2871118783950806,1.0295653343200684
1758972190804118000,6.199117919921875,0.3102084696292877,2.3037776947021484,1.0945000648498535
1758972190814076000,6.209075927734375,0.11550182849168777,2.374767303466797,1.2135831117630005
1758972190824034000,6.219033935546875,-0.019464777782559395,1.9299291372299194,1.4250361919403076
1758972190833992000,6.228991943359375,-0.09644851088523865,1.4812358617782593,1.5218231678009033
1758972190843949800,6.23894970703125,-0.17892608046531677,1.3336164951324463,1.236216425895691
1758972190853909000,6.248908935546875,-0.18824847042560577,1.6408883333206177,0.48923414945602417
1758972190863867000,6.258866943359375,0.16033188998699188,1.9431672096252441,-0.20056851208209991
1758972190873824800,6.26882470703125,0.5527310967445374,1.9290097951889038,-0.556495726108551
1758972190883783000,6.278782958984375,0.7076429128646851,1.450331687927246,-0.37108805775642395
1758972190893740800,6.28874072265625,0.7439873218536377,0.5980314612388611,0.23359091579914093
1758972190903700000,6.298699951171875,0.673134982585907,-0.08421794325113297,0.9083248972892761
1758972190913657900,6.308657958984375,0.5501712560653687,-0.4480763077735901,1.4552733898162842
1758972190923616000,6.318615966796875,0.38312581181526184,-0.6701050996780396,1.8518141508102417
1758972190933574000,6.328573974609375,0.1525607854127884,-0.8647568821907043,2.0906498432159424
1758972190943532000,6.338531982421875,-0.03296700492501259,-1.0494204759597778,2.1739349365234375
1758972190953491000,6.348490966796875,-0.1708737462759018,-1.2278424501419067,2.1179397106170654
1758972190963449000,6.358448974609375,-0.27560415863990784,-1.228432536125183,1.841719150543213
1758972190973406700,6.36840673828125,-0.3319518566131592,-0.658260703086853,1.0531861782073975
1758972190983364900,6.37836474609375,-0.22878018021583557,0.5111016035079956,-0.11997140944004059
1758972190993322800,6.38832275390625,0.15380580723285675,1.4266884326934814,-0.9540862441062927
1758972191003282000,6.398281982421875,0.5633302330970764,1.8089417219161987,-1.3115426301956177
1758972191013239800,6.40823974609375,0.6747995018959045,2.058945417404175,-1.1947773694992065
1758972191023198000,6.418197998046875,0.45214882493019104,1.9532496929168701,-0.5409218072891235
1758972191033155800,6.42815576171875,0.115083709359169,1.1044560670852661,0.6676531434059143
1758972191043114000,6.438114013671875,-0.09925282001495361,0.2055283933877945,1.555545449256897
1758972191053073000,6.448072998046875,-0.14846722781658173,-0.37453898787498474,1.915898323059082
1758972191063031000,6.458031005859375,-0.11863317340612411,-0.6894934773445129,1.8979696035385132
1758972191072989000,6.467989013671875,-0.03893887624144554,-0.8102284073829651,1.6514568328857422
1758972191082947000,6.477947021484375,0.045813027769327164,-0.7892602682113647,1.3227657079696655
1758972191092904700,6.48790478515625,0.12830284237861633,-0.6800326108932495,0.981492280960083
1758972191102864000,6.49786376953125,0.19349436461925507,-0.5534035563468933,0.6722977161407471
1758972191112821800,6.50782177734375,0.23325322568416595,-0.4750749170780182,0.42616063356399536
1758972191122780000,6.51777978515625,0.2538948655128479,-0.46494024991989136,0.2614968419075012
1758972191132737800,6.52773779296875,0.2651965022087097,-0.5047388076782227,0.18009093403816223
1758972191142696000,6.537696044921875,0.2671124041080475,-0.5650873780250549,0.20497551560401917
1758972191152654800,6.54765478515625,0.2551944851875305,-0.6596263647079468,0.3515508472919464
1758972191162613000,6.557613037109375,0.2459157556295395,-0.7567622661590576,0.5801392793655396
1758972191172571000,6.56757080078125,0.24149970710277557,-0.8185473084449768,0.8143309950828552
1758972191182529000,6.577529052734375,0.22803130745887756,-0.8452444672584534,0.9807966947555542
1758972191192487000,6.58748681640625,0.20717689394950867,-0.8523684144020081,1.0473523139953613
1758972191202444800,6.59744482421875,0.19271059334278107,-0.8469741940498352,1.0254203081130981
1758972191212404000,6.607404052734375,0.19339768588542938,-0.8283941149711609,0.9485388994216919
1758972191222361900,6.61736181640625,0.19791628420352936,-0.808144748210907,0.8424079418182373
1758972191232319700,6.62731982421875,0.20527006685733795,-0.7850096225738525,0.738801896572113
1758972191242278000,6.63727783203125,0.2063973844051361,-0.74881511926651,0.6543357372283936
1758972191252235800,6.64723583984375,0.19139818847179413,-0.6975058317184448,0.6188280582427979
1758972191262195000,6.65719482421875,0.15434803068637848,-0.6427208781242371,0.6384726166725159
1758972191272152800,6.66715283203125,0.11525016278028488,-0.5751035213470459,0.707874059677124
1758972191282111000,6.677111083984375,0.08649494498968124,-0.4954281151294708,0.7981038093566895
1758972191292068900,6.68706884765625,0.07377994805574417,-0.3838193118572235,0.8912039399147034
1758972191302027000,6.697027099609375,0.045884400606155396,-0.21932409703731537,0.9632728099822998
1758972191311986000,6.70698583984375,0.005576126743108034,-0.001817607437260449,1.0098932981491089
1758972191321943600,6.716943603515625,-0.04656217619776726,0.26975637674331665,1.02848219871521
1758972191331901400,6.7269013671875,-0.10017533600330353,0.5781131386756897,1.0238591432571411
1758972191341859600,6.736859619140625,-0.14957457780838013,0.8903732895851135,1.0071183443069458
1758972191351817700,6.746817626953125,-0.18480180203914642,1.192659616470337,0.9828404188156128
1758972191361776600,6.756776611328125,-0.19650879502296448,1.476784586906433,0.9593204259872437
1758972191371734500,6.766734619140625,-0.19658683240413666,1.738083839416504,0.9453628063201904
1758972191381692400,6.7766923828125,-0.19741401076316833,1.954746961593628,0.9515045881271362
1758972191391650600,6.786650634765625,-0.22347863018512726,2.076098680496216,0.978040337562561
1758972191401608400,6.7966083984375,-0.2565271258354187,2.0277483463287354,0.9880031943321228
1758972191411567400,6.8065673828125,-0.27728885412216187,1.781177282333374,0.9470120668411255
1758972191421525500,6.816525390625,-0.2739013135433197,1.3521363735198975,0.8206839561462402
1758972191431483400,6.8264833984375,-0.25607866048812866,0.7808018326759338,0.5018668174743652
1758972191441441500,6.836441650390625,-0.1986640989780426,0.15974386036396027,-0.17461201548576355
1758972191451399700,6.846399658203125,-0.11407198011875153,-0.4405672550201416,-1.1264207363128662
1758972191461358600,6.856358642578125,-0.01378132589161396,-0.8949182629585266,-1.9004991054534912
1758972191471316500,6.86631640625,-0.010910438373684883,-0.9845117926597595,-2.2359378337860107
1758972191481274600,6.876274658203125,-0.11907792091369629,-0.7707175016403198,-2.2722558975219727
1758972191491232500,6.886232421875,-0.31266337633132935,-0.5215292572975159,-2.3120577335357666
1758972191501190400,6.8961904296875,-0.46084511280059814,-0.38631922006607056,-2.5128836631774902
1758972191511149300,6.9061494140625,-0.4895190894603729,-0.37027499079704285,-2.8849992752075195
1758972191521107500,6.916107421875,-0.4206859767436981,-0.4653194844722748,-3.289672374725342
1758972191531065300,6.9260654296875,-0.3129192888736725,-0.6387466788291931,-3.4983134269714355
1758972191541023500,6.9360234375,-0.2573029100894928,-0.8288649320602417,-3.413242816925049
1758972191550981600,6.945981689453125,-0.24111194908618927,-0.9490044116973877,-3.1706180572509766
1758972191560940500,6.9559404296875,-0.14879879355430603,-0.847821831703186,-2.85840106010437
1758972191570898400,6.9658984375,0.057247575372457504,-0.40295037627220154,-2.4723784923553467
1758972191580856600,6.975856689453125,0.23782454431056976,0.2395438849925995,-2.0771474838256836
1758972191590814500,6.985814453125,0.27280810475349426,0.9909902215003967,-1.709464192390442
1758972191600772600,6.995772705078125,0.16535700857639313,1.8599740266799927,-1.3486500978469849
1758972191610730500,7.00573046875,-0.05853787809610367,2.4270639419555664,-1.1130486726760864
1758972191620689700,7.015689697265625,-0.3226992189884186,2.286877155303955,-1.0737478733062744
1758972191630647300,7.025647216796875,-0.3950956463813782,1.428155541419983,-1.4000847339630127
1758972191640605400,7.03560546875,-0.17139172554016113,0.4252106845378876,-1.7094535827636719
1758972191650563600,7.0455634765625,0.1520095020532608,-0.24226616322994232,-1.7946687936782837
1758972191660521500,7.055521484375,0.4440767765045166,-0.36567333340644836,-1.696531891822815
1758972191670480400,7.06548046875,0.6406620144844055,-0.05584116280078888,-1.5111372470855713
1758972191680438500,7.0754384765625,0.6827625632286072,0.33659905195236206,-1.2653450965881348
1758972191690396700,7.085396728515625,0.5189451575279236,0.4839181900024414,-0.9919715523719788
1758972191700354600,7.0953544921875,0.2415897250175476,0.4169466197490692,-0.7572565078735352
1758972191710312700,7.105312744140625,-0.0992664024233818,0.3074158728122711,-0.6100364327430725
1758972191720271600,7.115271728515625,-0.38537564873695374,0.2939285635948181,-0.5317422151565552
1758972191730229500,7.1252294921875,-0.5292433500289917,0.2991832494735718,-0.4995376467704773
1758972191740187400,7.1351875,-0.5733649730682373,0.18157538771629333,-0.47709864377975464
1758972191750145500,7.1451455078125,-0.5427407622337341,-0.08570478111505508,-0.4627399444580078
1758972191760103400,7.155103515625,-0.45663386583328247,-0.44918525218963623,-0.4599532186985016
1758972191770062300,7.165062255859375,-0.347808301448822,-0.7670779824256897,-0.45730283856391907
1758972191780020500,7.1750205078125,-0.3006061613559723,-1.0586824417114258,-0.443295955657959
1758972191789978600,7.184978515625,-0.342582643032074,-1.2053160667419434,-0.41941937804222107
1758972191799936500,7.1949365234375,-0.3956490755081177,-1.2031171321868896,-0.379041850566864
1758972191809894700,7.204894775390625,-0.44913092255592346,-1.0925402641296387,-0.31576913595199585
1758972191819853600,7.214853515625,-0.4851243495941162,-0.9977210760116577,-0.23340289294719696
1758972191829811500,7.2248115234375,-0.5069715976715088,-0.9906367659568787,-0.13018091022968292
1758972191839769600,7.23476953125,-0.5362165570259094,-1.0711106061935425,-0.007764978799968958
1758972191849727700,7.244727783203125,-0.5304310917854309,-1.1786223649978638,0.12979581952095032
1758972191859685400,7.254685302734375,-0.4732935130596161,-1.2565462589263916,0.2943858206272125
1758972191869644300,7.264644287109375,-0.3727906048297882,-1.2745354175567627,0.48149845004081726
1758972191879602400,7.2746025390625,-0.2189113050699234,-1.2665674686431885,0.7118480205535889
1758972191889560600,7.284560546875,-0.06578566879034042,-1.2486246824264526,0.9664017558097839
1758972191899518500,7.2945185546875,0.03347060829401016,-1.2042590379714966,1.1932628154754639
1758972191909476600,7.3044765625,0.05001256614923477,-1.1533362865447998,1.308221697807312
1758972191919435500,7.314435546875,0.03298031911253929,-1.1381574869155884,1.2212988138198853
1758972191929393400,7.324393310546875,0.040344759821891785,-1.27130126953125,0.8171424865722656
1758972191939351600,7.3343515625,0.02882552333176136,-1.4728114604949951,-0.016703879460692406
1758972191949309700,7.344309814453125,-0.023730896413326263,-1.5329411029815674,-1.03758704662323
1758972191959267600,7.354267578125,-0.06979186087846756,-1.41075599193573,-1.4698662757873535
1758972191969225500,7.3642255859375,-0.06668289005756378,-0.9702915549278259,-1.0949922800064087
1758972191979184600,7.3741845703125,-0.1911047101020813,-0.41683024168014526,-0.4436935484409332
1758972191989142500,7.384142578125,-0.47085273265838623,-0.2511339485645294,0.05422302335500717
1758972191999100400,7.394100341796875,-0.6142032146453857,-0.4446147382259369,0.346426397562027
1758972192009058600,7.40405859375,-0.6640229821205139,-0.7144398093223572,0.5398792028427124
1758972192019016400,7.414016357421875,-0.7175986170768738,-0.7324654459953308,0.7212183475494385
1758972192028975400,7.423975341796875,-0.6432396769523621,-0.15244066715240479,0.9142187237739563
1758972192038933500,7.43393359375,-0.22655192017555237,0.9801689982414246,1.1051445007324219
1758972192048891600,7.4438916015625,0.1885872185230255,1.9011763334274292,1.213945746421814
1758972192058849500,7.453849609375,0.24876481294631958,2.139608860015869,1.1685665845870972
1758972192068807700,7.4638076171875,0.08256145566701889,1.8943719863891602,1.1779547929763794
1758972192078766600,7.4737666015625,0.0568571574985981,1.561360239982605,1.2221325635910034
1758972192088724700,7.483724853515625,0.06563253700733185,1.199889898300171,1.2165106534957886
1758972192098682400,7.493682373046875,0.023926105350255966,0.915208637714386,1.1046898365020752
1758972192108640500,7.503640625,-0.0013547500129789114,0.8248792290687561,0.9186741709709167
1758972192118598400,7.513598388671875,0.12818166613578796,0.9353945851325989,0.6722665429115295
1758972192128557600,7.5235576171875,0.27995574474334717,1.0416933298110962,0.4115060567855835
1758972192138515500,7.533515380859375,0.38033854961395264,0.9992084503173828,0.350943386554718
1758972192148473600,7.5434736328125,0.5193526148796082,0.7546240091323853,0.5482292771339417
1758972192158431500,7.553431396484375,0.6035394072532654,0.4670119285583496,0.848857045173645
1758972192168389600,7.5633896484375,0.5803616642951965,0.20335471630096436,1.131953477859497
1758972192178348500,7.5733486328125,0.4305519163608551,-0.06831620633602142,1.3404744863510132
1758972192188306700,7.583306640625,0.30542275309562683,-0.3231429159641266,1.4356895685195923
1758972192198264600,7.5932646484375,0.19583341479301453,-0.5479301810264587,1.405269980430603
1758972192208222700,7.60322265625,0.08661212027072906,-0.6712630391120911,1.1600873470306396
1758972192218180400,7.613180419921875,0.09086306393146515,-0.6421651244163513,0.7402144074440002
1758972192228138500,7.623138427734375,0.2116033285856247,-0.297713965177536,0.18073275685310364
1758972192238097400,7.633097412109375,0.41579240560531616,0.46437087655067444,-0.3186038136482239
1758972192248055600,7.6430556640625,0.562245786190033,1.3737218379974365,-0.4120922088623047
1758972192258013400,7.653013427734375,0.5053063035011292,1.7291958332061768,-0.1276399791240692
1758972192267971600,7.6629716796875,0.2620731592178345,1.5557670593261719,0.40470993518829346
1758972192277929500,7.672929443359375,0.02040940150618553,1.095725417137146,0.9559863805770874
1758972192287888600,7.682888671875,-0.06790714710950851,0.6554439067840576,1.337374210357666
1758972192297846500,7.692846435546875,-0.05133882164955139,0.3021305501461029,1.4784168004989624
1758972192307804700,7.7028046875,-0.005649363622069359,0.06670206785202026,1.4350794553756714
1758972192317762600,7.712762451171875,0.04752304404973984,-0.06705253571271896,1.2895725965499878
1758972192327720200,7.72272021484375,0.10277218371629715,-0.15216663479804993,1.110594630241394
1758972192337679400,7.732679443359375,0.14178483188152313,-0.28128573298454285,0.9251712560653687
1758972192347637200,7.74263720703125,0.19163334369659424,-0.434931218624115,0.7139391303062439
1758972192357595100,7.75259521484375,0.2417822629213333,-0.5867111682891846,0.4947516918182373
1758972192367553300,7.76255322265625,0.26933133602142334,-0.7416000962257385,0.3332591950893402
1758972192377511200,7.77251123046875,0.2761996388435364,-0.8704182505607605,0.2888086438179016
1758972192387470300,7.78247021484375,0.25676894187927246,-0.9661234617233276,0.3912825286388397
1758972192397428200,7.79242822265625,0.20968425273895264,-1.0110241174697876,0.6409773230552673
1758972192407386400,7.802386474609375,0.1503751277923584,-0.9736652970314026,0.9591939449310303
1758972192417344300,7.81234423828125,0.11144264042377472,-0.8919932842254639,1.1837929487228394
1758972192427302400,7.822302490234375,0.09965575486421585,-0.8142266273498535,1.2509573698043823
1758972192437261300,7.83226123046875,0.11304505914449692,-0.7602973580360413,1.1830065250396729
1758972192447219500,7.842219482421875,0.12976811826229095,-0.7116925120353699,1.045361876487732
1758972192457177000,7.852177001953125,0.14610767364501953,-0.6326618790626526,0.9179141521453857
1758972192467135200,7.86213525390625,0.16151033341884613,-0.49224191904067993,0.8646612763404846
1758972192477093000,7.872093017578125,0.17108146846294403,-0.26133546233177185,0.9184853434562683
1758972192487052300,7.88205224609375,0.16112524271011353,0.027635090053081512,1.0575129985809326
1758972192497010200,7.89201025390625,0.1277313232421875,0.2909490168094635,1.20002281665802
1758972192506968300,7.90196826171875,0.07041424512863159,0.4904698431491852,1.2716953754425049
1758972192516926200,7.91192626953125,0.015924638137221336,0.6309784650802612,1.2487200498580933
1758972192526884400,7.92188427734375,-0.02695837989449501,0.7407012581825256,1.1403735876083374
1758972192536842200,7.93184228515625,-0.039734628051519394,0.8507931232452393,0.9904466271400452
1758972192546801400,7.941801513671875,-0.035116974264383316,0.9979692697525024,0.849455714225769
1758972192556759300,7.95175927734375,-0.03226419538259506,1.2026060819625854,0.7755476832389832
1758972192566717400,7.961717529296875,-0.02985376864671707,1.4532678127288818,0.7771577835083008
1758972192576675000,7.971675048828125,-0.02052684687077999,1.6979126930236816,0.8078209161758423
1758972192586633200,7.98163330078125,-0.0038061898667365313,1.8484843969345093,0.7969216704368591
1758972192596592000,7.991592041015625,0.0023182816803455353,1.8028281927108765,0.71220862865448
1758972192606550300,8.00155029296875,-0.021449364721775055,1.5586442947387695,0.5921216607093811
1758972192616508200,8.011508056640626,-0.05366029962897301,1.2517040967941284,0.4598426818847656
1758972192626466300,8.02146630859375,-0.05890939012169838,0.9209535717964172,0.25600409507751465
1758972192636424200,8.031424072265626,-0.0542864091694355,0.5853087306022644,-0.07689265161752701
1758972192646383400,8.04138330078125,-0.12876251339912415,0.18435172736644745,-0.4879496991634369
1758972192656341200,8.05134130859375,-0.2776643633842468,-0.21220733225345612,-0.8410294651985168
1758972192666299400,8.06129931640625,-0.43356794118881226,-0.42366018891334534,-1.001818299293518
1758972192676257300,8.07125732421875,-0.5471736192703247,-0.4434589147567749,-1.0281833410263062
1758972192686215200,8.081215087890625,-0.5646836161613464,-0.4300970435142517,-1.1456199884414673
1758972192696174300,8.09117431640625,-0.5405181050300598,-0.427753210067749,-1.526691198348999
1758972192706132200,8.10113232421875,-0.5439799427986145,-0.38513436913490295,-2.16145658493042
1758972192716090000,8.111090087890625,-0.5379495024681091,-0.24866387248039246,-2.8192732334136963
1758972192726048300,8.12104833984375,-0.5067353844642639,-0.169180765748024,-3.27307391166687
1758972192736006100,8.131006103515626,-0.44457826018333435,-0.19618256390094757,-3.416872501373291
1758972192745964300,8.14096435546875,-0.41247305274009705,-0.31645384430885315,-3.282642364501953
1758972192755923200,8.150923095703124,-0.4095313251018524,-0.410310834646225,-3.031590223312378
1758972192765881300,8.16088134765625,-0.3144647181034088,-0.4188814163208008,-2.792722225189209
1758972192775839200,8.170839111328124,-0.11326716840267181,-0.15823890268802643,-2.567753553390503
1758972192785797400,8.18079736328125,0.07590994238853455,0.28623494505882263,-2.330578088760376
1758972192795755300,8.19075537109375,0.099504753947258,0.7057283520698547,-2.1419687271118164
1758972192805714400,8.20071435546875,-0.02315938100218773,1.1468197107315063,-1.9426201581954956
1758972192815672000,8.210672119140625,-0.15451952815055847,1.6989431381225586,-1.7110615968704224
1758972192825630200,8.220630126953125,-0.2322193831205368,2.0967824459075928,-1.548966884613037
1758972192835588000,8.230588134765625,-0.25212252140045166,2.1740169525146484,-1.4442863464355469
1758972192845546200,8.240546142578125,-0.15361405909061432,1.586169958114624,-1.25995934009552
1758972192855505200,8.250505126953126,-0.013349094428122044,0.1190643385052681,-1.3193256855010986
1758972192865463300,8.26046337890625,0.18674564361572266,-1.062324047088623,-1.3617397546768188
1758972192875421200,8.270421142578124,0.40462392568588257,-1.3766883611679077,-1.3222440481185913
1758972192885379300,8.28037939453125,0.5744033455848694,-1.013926386833191,-1.2407835721969604
1758972192895337200,8.290337158203124,0.6540254950523376,-0.21471044421195984,-1.160213589668274
1758972192905295400,8.30029541015625,0.5995728969573975,0.632705807685852,-1.069495677947998
1758972192915254300,8.310254150390625,0.40214452147483826,1.1547846794128418,-0.9564788341522217
1758972192925212400,8.32021240234375,0.07134289294481277,1.3608670234680176,-0.836383044719696
1758972192935170000,8.330170166015625,-0.23673264682292938,1.3382620811462402,-0.7118008732795715
1758972192945128200,8.340128173828125,-0.4739358723163605,1.0999358892440796,-0.5969288945198059
1758972192955086300,8.35008642578125,-0.5560331344604492,0.8067798614501953,-0.5076216459274292
1758972192965045200,8.360045166015626,-0.4979565143585205,0.4499916732311249,-0.47198083996772766
1758972192975003100,8.370003173828126,-0.37951964139938354,0.17704641819000244,-0.4440666735172272
1758972192984961300,8.379961181640626,-0.2807847857475281,-0.07394187152385712,-0.42487460374832153
1758972192994919400,8.38991943359375,-0.29917818307876587,-0.29470354318618774,-0.3870611786842346
1758972193004877300,8.399877197265624,-0.3796943426132202,-0.42986083030700684,-0.3357630968093872
1758972193014836200,8.409836181640625,-0.44492074847221375,-0.5322356820106506,-0.28561630845069885
1758972193024794400,8.41979443359375,-0.4740229547023773,-0.6685857772827148,-0.24512720108032227
1758972193034752300,8.429752197265625,-0.469749391078949,-0.8502967357635498,-0.1915033906698227
1758972193044710100,8.439710205078125,-0.45381250977516174,-1.1154264211654663,-0.10673283785581589
1758972193054668300,8.449668212890625,-0.4111257493495941,-1.4232441186904907,0.02478950284421444
1758972193064626200,8.459626220703125,-0.3158831298351288,-1.652093529701233,0.23509187996387482
1758972193074585000,8.469585205078126,-0.1759081780910492,-1.738517165184021,0.577480137348175
1758972193084543200,8.479543212890626,0.011580223217606544,-1.7462421655654907,1.0088222026824951
1758972193094501400,8.48950146484375,0.19068606197834015,-1.7126597166061401,1.4093546867370605
1758972193104459300,8.499459228515626,0.31470414996147156,-1.7059434652328491,1.6304199695587158
1758972193114417400,8.50941748046875,0.35531389713287354,-1.8181493282318115,1.5432759523391724
1758972193124376300,8.519376220703125,0.3444412648677826,-1.95982027053833,1.0571538209915161
1758972193134334200,8.529334228515625,0.24237748980522156,-1.9593725204467773,-0.019094599410891533
1758972193144292400,8.539292236328125,0.012929114513099194,-1.7216119766235352,-1.3963134288787842
1758972193154250500,8.54925048828125,-0.1816536784172058,-1.514983892440796,-2.047109603881836
1758972193164208000,8.5592080078125,-0.29429182410240173,-1.2089272737503052,-1.6650722026824951
1758972193174167000,8.5691669921875,-0.5194695591926575,-0.4859861433506012,-0.9327713847160339
1758972193184125200,8.579125244140625,-0.7127708196640015,0.13045866787433624,-0.21976138651371002
1758972193194083300,8.589083251953125,-0.8066331148147583,0.2981312870979309,0.38202032446861267
1758972193204041200,8.599041259765626,-0.8783650994300842,0.22575803101062775,0.8562025427818298
1758972193213999400,8.608999267578126,-0.957955539226532,0.049857303500175476,1.1486400365829468
1758972193223957200,8.618957275390626,-1.0196410417556763,-0.13113804161548615,1.2035388946533203
1758972193233916200,8.628916259765624,-1.0160611867904663,-0.028557607904076576,1.036323070526123
1758972193243874300,8.638874267578124,-0.7040902376174927,0.8019191026687622,0.8838006258010864
1758972193253832400,8.64883251953125,-0.2181086242198944,1.8973687887191772,1.072110891342163
1758972193263790300,8.658790283203125,0.10879359394311905,2.197763204574585,1.4046685695648193
1758972193273748200,8.668748291015625,0.1993333399295807,1.5964289903640747,1.6020021438598633
1758972193283707400,8.678707275390625,0.17566423118114471,0.7765229344367981,1.5034385919570923
1758972193293665300,8.688665283203125,0.1393408477306366,0.2887393832206726,1.0463242530822754
1758972193303623200,8.698623046875,0.15805648267269135,0.23685142397880554,0.1460280418395996
1758972193313581300,8.708581298828125,0.34760749340057373,0.5740653872489929,-0.6054763197898865
1758972193323540000,8.7185400390625,0.6931363940238953,0.861783504486084,-0.6589936017990112
1758972193333498000,8.728498046875,0.9313936829566956,0.8805526494979858,-0.4008137285709381
1758972193343457000,8.73845703125,0.9410199522972107,0.6997594237327576,-0.0998176708817482
1758972193353415000,8.748414794921874,0.8144732117652893,0.4520803689956665,0.25363385677337646
1758972193363372800,8.758372802734375,0.6886532306671143,0.13451732695102692,0.6845954060554504
1758972193373331000,8.7683310546875,0.5377191305160522,-0.3214781582355499,1.1318013668060303
1758972193383288800,8.778288818359375,0.39009425044059753,-0.7966502904891968,1.5114294290542603
1758972193393247700,8.788247802734375,0.24988360702991486,-1.1736425161361694,1.7606682777404785
1758972193403206000,8.798205810546875,0.09081139415502548,-1.400138020515442,1.8298686742782593
1758972193413163800,8.808163818359375,-0.03394811227917671,-1.3820008039474487,1.6766595840454102
1758972193423122000,8.818121826171875,-0.07366649806499481,-1.088099718093872,1.3041622638702393
1758972193433080000,8.828080078125,0.054247260093688965,-0.39700859785079956,0.7734935879707336
1758972193443038000,8.838037841796876,0.27333593368530273,0.38402196764945984,0.2305477261543274
1758972193452996900,8.847996826171874,0.44279128313064575,0.9671567678451538,-0.18169496953487396
1758972193462955000,8.857955078125,0.45486098527908325,1.306075930595398,-0.376800000667572
1758972193472913000,8.867912841796874,0.3343478739261627,1.4710502624511719,-0.24240411818027496
1758972193482870800,8.877870849609375,0.18059347569942474,1.36248779296875,0.5490356683731079
1758972193492829000,8.887828857421875,0.042643867433071136,0.9304104447364807,1.5109667778015137
1758972193502787800,8.897787841796875,-0.041860632598400116,0.4609188735485077,2.043309450149536
1758972193512746000,8.90774609375,-0.08052786439657211,0.09213605523109436,2.0926718711853027
1758972193522704000,8.917703857421875,-0.07757814973592758,-0.16734185814857483,1.8572938442230225
1758972193532662000,8.927662109375,-0.041065145283937454,-0.41237425804138184,1.512718915939331
1758972193542620000,8.937619873046875,0.03934101387858391,-0.7018033862113953,1.1405575275421143
1758972193552578000,8.947578125,0.16304324567317963,-0.9727861881256104,0.7801176309585571
1758972193562537000,8.957536865234376,0.27793121337890625,-1.153326153755188,0.48985520005226135
1758972193572495000,8.9674951171875,0.3211929500102997,-1.254428744316101,0.34946557879447937
1758972193582453000,8.977452880859374,0.29504629969596863,-1.2895835638046265,0.38682547211647034
1758972193592411000,8.987410888671874,0.23240500688552856,-1.2513575553894043,0.5708171725273132
1758972193602368800,8.99736865234375,0.16437989473342896,-1.1505569219589233,0.8016812801361084
1758972193612328000,9.007327880859375,0.125318244099617,-0.9959924221038818,0.9557691216468811
1758972193622285800,9.017285888671875,0.1299031376838684,-0.8193550705909729,0.9658153653144836
1758972193632244000,9.027243896484375,0.18980295956134796,-0.6458221673965454,0.8678756952285767
1758972193642201900,9.037201904296875,0.269025593996048,-0.47199177742004395,0.73237144947052
1758972193652160000,9.047159912109375,0.30026689171791077,-0.2978537976741791,0.62501460313797
1758972193662119000,9.057118896484376,0.27645769715309143,-0.11159870028495789,0.5945121049880981
1758972193672077000,9.0670771484375,0.2236703783273697,0.11828350275754929,0.6748160123825073
1758972193682035000,9.077034912109376,0.175249844789505,0.3579871654510498,0.8441101908683777
1758972193691993000,9.0869931640625,0.1433395892381668,0.5651720762252808,1.0510401725769043
1758972193701950700,9.09695068359375,0.12340449541807175,0.7130259275436401,1.2216711044311523
1758972193711908900,9.106908935546874,0.11264372617006302,0.8130984902381897,1.301804542541504
1758972193721867800,9.11686767578125,0.09852124750614166,0.8858086466789246,1.2673845291137695
1758972193731826000,9.126825927734375,0.0795920342206955,0.9448285698890686,1.141750693321228
1758972193741783800,9.13678369140625,0.04829855635762215,1.0135841369628906,0.9881845712661743
1758972193751742000,9.146741943359375,0.005953230429440737,1.122010588645935,0.8723354339599609
1758972193761699800,9.156699951171875,-0.04826127365231514,1.2827768325805664,0.8193846344947815
1758972193771658000,9.166657958984375,-0.11081120371818542,1.444450855255127,0.8133245706558228
1758972193781617000,9.176616943359376,-0.1987607628107071,1.513264536857605,0.79341721534729
1758972193791575000,9.186574951171876,-0.3009220063686371,1.3547415733337402,0.6975333094596863
1758972193801533000,9.196532958984376,-0.4111124277114868,0.9367653131484985,0.4974838197231293
1758972193811491000,9.206490966796874,-0.4811389148235321,0.4702806770801544,0.30302271246910095
1758972193821448700,9.21644873046875,-0.4996183514595032,0.009380718693137169,0.1440703570842743
1758972193831407900,9.226407958984375,-0.4615953266620636,-0.4192630350589752,-0.06453851610422134
1758972193841365800,9.23636572265625,-0.39365461468696594,-0.7890794277191162,-0.4368228614330292
1758972193851324000,9.246323974609375,-0.3128833472728729,-1.0230828523635864,-0.94024658203125
1758972193861281800,9.25628173828125,-0.27878448367118835,-1.015933871269226,-1.3599876165390015
1758972193871240000,9.266239990234375,-0.3623611330986023,-0.7710573077201843,-1.548072099685669
1758972193881197800,9.27619775390625,-0.4254288077354431,-0.4254581034183502,-1.6444505453109741
1758972193891157000,9.286156982421875,-0.43733179569244385,-0.16857276856899261,-1.8877196311950684
1758972193901115000,9.296114990234376,-0.4167087972164154,-0.0429764948785305,-2.390376091003418
1758972193911073000,9.306072998046876,-0.41911283135414124,-0.03002341277897358,-2.9242477416992188
1758972193921031000,9.316031005859376,-0.4634323716163635,-0.10294315963983536,-3.247075319290161
1758972193930988800,9.32598876953125,-0.493435263633728,-0.26642078161239624,-3.3367578983306885
1758972193940947000,9.335947021484374,-0.486296683549881,-0.4701736271381378,-3.2207796573638916
1758972193950905900,9.34590576171875,-0.44428664445877075,-0.5390341877937317,-2.989823341369629
1758972193960863700,9.35586376953125,-0.3127986490726471,-0.3820062279701233,-2.744866132736206
1758972193970822000,9.36582177734375,-0.08375775068998337,0.04616829380393028,-2.480077028274536
1758972193980779800,9.37577978515625,0.10410855710506439,0.6172829270362854,-2.211763858795166
1758972193990738000,9.385738037109375,0.17751193046569824,1.2654212713241577,-1.887588620185852
1758972194000696000,9.395696044921875,0.0825372189283371,1.901491641998291,-1.4949854612350464
1758972194010655000,9.405655029296875,-0.11946594715118408,2.230745553970337,-1.2341842651367188
1758972194020612900,9.41561279296875,-0.30222564935684204,2.2673115730285645,-1.0999462604522705
1758972194030571000,9.425571044921876,-0.3607083857059479,1.8120166063308716,-0.9763553142547607
1758972194040529000,9.43552880859375,-0.26956382393836975,0.2032676339149475,-1.1796554327011108
1758972194050486800,9.44548681640625,-0.03415690362453461,-1.3685214519500732,-1.3826985359191895
1758972194060445700,9.45544580078125,0.2549888789653778,-2.0409858226776123,-1.4205687046051025
1758972194070403800,9.46540380859375,0.4944278299808502,-1.9494861364364624,-1.3478633165359497
1758972194080361700,9.47536181640625,0.6211357116699219,-1.3702932596206665,-1.201979637145996
1758972194090320000,9.48531982421875,0.5258272886276245,-0.6784783601760864,-1.0483344793319702
1758972194100278000,9.495278076171875,0.2768363952636719,-0.1029178574681282,-0.9044004678726196
1758972194110236000,9.50523583984375,-0.06532254815101624,0.33446505665779114,-0.753607451915741
1758972194120194800,9.51519482421875,-0.41549307107925415,0.6022882461547852,-0.5905019044876099
1758972194130153000,9.525153076171875,-0.6712404489517212,0.6894729733467102,-0.4491053521633148
1758972194140110800,9.53511083984375,-0.7498478889465332,0.6265323162078857,-0.3258875608444214
1758972194150069000,9.545069091796876,-0.7015584111213684,0.34474432468414307,-0.24641349911689758
1758972194160027000,9.55502685546875,-0.6062851548194885,-0.07596347481012344,-0.2216961681842804
1758972194169984800,9.56498486328125,-0.4999997019767761,-0.4855821430683136,-0.2151344120502472
1758972194179943700,9.574943603515624,-0.4139809310436249,-0.765706479549408,-0.21263477206230164
1758972194189901800,9.58490185546875,-0.4163804352283478,-0.921486496925354,-0.22962307929992676
1758972194199860000,9.59485986328125,-0.4430341422557831,-0.9119747281074524,-0.2884272634983063
1758972194209817900,9.60481787109375,-0.45200634002685547,-0.7986993193626404,-0.33956795930862427
1758972194219776000,9.61477587890625,-0.4498497247695923,-0.6842326521873474,-0.3552369177341461
1758972194229734000,9.62473388671875,-0.4459601640701294,-0.6939595937728882,-0.3542584776878357
1758972194239692800,9.63469287109375,-0.4516385495662689,-0.8255215883255005,-0.3486839532852173
1758972194249651000,9.64465087890625,-0.4289470911026001,-1.050006628036499,-0.33831334114074707
1758972194259609000,9.654609130859376,-0.34325990080833435,-1.306201457977295,-0.28447461128234863
1758972194269567000,9.66456689453125,-0.18003687262535095,-1.5598437786102295,-0.11250071227550507
1758972194279524900,9.67452490234375,0.031297467648983,-1.8521933555603027,0.1974978893995285
1758972194289482800,9.684482666015626,0.23506471514701843,-2.076786518096924,0.5995681285858154
1758972194299442000,9.69444189453125,0.39189666509628296,-2.1168272495269775,0.9588112235069275
1758972194309399800,9.70439990234375,0.4717925786972046,-2.03446102142334,1.1468794345855713
1758972194319358000,9.71435791015625,0.4718250632286072,-1.9997851848602295,1.0564895868301392
1758972194329316000,9.724316162109375,0.42181596159935,-2.030539035797119,0.5349909663200378
1758972194339274000,9.73427392578125,0.2184457927942276,-1.9186030626296997,-0.4902522563934326
1758972194349231900,9.74423193359375,-0.031065240502357483,-1.5155082941055298,-1.3855394124984741
1758972194359191000,9.75419091796875,-0.1616181880235672,-0.9970307946205139,-1.5682649612426758
1758972194369149000,9.76414892578125,-0.23012161254882812,-0.6414090394973755,-1.1970019340515137
1758972194379107000,9.774107177734376,-0.36815059185028076,-0.4676867723464966,-0.7830625772476196
1758972194389065000,9.78406494140625,-0.4641631543636322,-0.3852158486843109,-0.45940861105918884
1758972194399023000,9.794023193359376,-0.5280976295471191,-0.2671635150909424,-0.09788767993450165
1758972194408981000,9.80398095703125,-0.6462120413780212,-0.09906213730573654,0.35716426372528076
1758972194418940200,9.813940185546874,-0.7466720938682556,0.13142326474189758,0.8419956564903259
1758972194428898000,9.82389794921875,-0.6426963806152344,0.8424571752548218,1.2194417715072632
1758972194438856200,9.833856201171875,-0.2751980125904083,1.795079231262207,1.3940659761428833
1758972194448813800,9.843813720703125,-0.04182121530175209,2.148789882659912,1.1075242757797241
1758972194458772000,9.85377197265625,-0.053289588540792465,1.7330917119979858,0.577863872051239
1758972194468729900,9.863729736328125,-0.05795145034790039,1.0706584453582764,0.4504891335964203
1758972194478689000,9.87368896484375,0.001672198879532516,0.7557872533798218,0.6338078379631042
1758972194488647000,9.88364697265625,0.007153517100960016,0.8024839162826538,0.8981872797012329
1758972194498605000,9.89360498046875,-0.025355691090226173,0.9490145444869995,1.1606199741363525
1758972194508563000,9.90356298828125,-0.009473130106925964,1.0561732053756714,1.313472867012024
1758972194518521000,9.91352099609375,0.14014485478401184,1.1452807188034058,1.2249464988708496
1758972194528479000,9.92347900390625,0.36409032344818115,1.2050668001174927,0.6720172762870789
1758972194538438100,9.933438232421874,0.5203672647476196,1.2110769748687744,0.4452584385871887
1758972194548396000,9.94339599609375,0.7036393880844116,1.0485563278198242,0.7879087328910828
1758972194558354200,9.953354248046875,0.8602082133293152,0.8198338747024536,1.1965776681900024
1758972194568311800,9.963311767578125,0.8592231273651123,0.5035960078239441,1.5316108465194702
1758972194578270000,9.97327001953125,0.6659567356109619,0.08861935138702393,1.7928634881973267
1758972194588228000,9.98322802734375,0.3490631878376007,-0.35339534282684326,1.8676625490188599
1758972194598187000,9.99318701171875,0.027157850563526154,-0.7580019235610962,1.738368272781372
1758972194608145000,10.003144775390625,-0.17330095171928406,-0.9828334450721741,1.3808274269104004
1758972194618103000,10.01310302734375,-0.15609852969646454,-1.0231572389602661,0.8765631914138794
1758972194628061200,10.023061279296876,0.014726481400430202,-0.8143805265426636,0.3069639205932617
1758972194638019000,10.03301904296875,0.29807722568511963,-0.4029810130596161,-0.22180455923080444
1758972194647977200,10.042977294921876,0.5494948029518127,0.015220231376588345,-0.6337782740592957
1758972194657936100,10.05293603515625,0.710417628288269,0.547610878944397,-0.7502505779266357
1758972194667894000,10.06289404296875,0.6749086380004883,1.2750475406646729,-0.38276201486587524
1758972194677852000,10.072851806640625,0.3950687646865845,1.5662689208984375,0.46376392245292664
1758972194687810000,10.08281005859375,0.0912976861000061,1.4078699350357056,1.4254531860351562
1758972194697768000,10.092767822265625,-0.05080379173159599,1.0617892742156982,1.9554553031921387
1758972194707726000,10.10272607421875,-0.035600606352090836,0.6664091944694519,2.0272700786590576
1758972194717685000,10.11268505859375,0.0314151793718338,0.31424954533576965,1.7970627546310425
1758972194727643100,10.12264306640625,0.13434316217899323,0.036673590540885925,1.4385501146316528
1758972194737601000,10.13260107421875,0.26246410608291626,-0.15695711970329285,1.0782716274261475
1758972194747559200,10.14255908203125,0.35138919949531555,-0.272869348526001,0.7904003858566284
1758972194757517000,10.15251708984375,0.37709030508995056,-0.3927547335624695,0.6082010269165039
1758972194767475200,10.16247509765625,0.3481651544570923,-0.6127209067344666,0.5584645867347717
1758972194777434000,10.17243408203125,0.30988141894340515,-0.8127924799919128,0.5844509601593018
1758972194787392300,10.182392333984374,0.2944992780685425,-0.9370231032371521,0.6742268800735474
1758972194797350000,10.192349853515625,0.28252464532852173,-1.0207509994506836,0.7979573607444763
1758972194807308000,10.20230810546875,0.2725633382797241,-1.0682159662246704,0.8899101614952087
1758972194817266000,10.212265869140625,0.24885162711143494,-1.08857262134552,0.9237565398216248
1758972194827224000,10.22222412109375,0.2171134054660797,-1.0942071676254272,0.8890923261642456
1758972194837183000,10.232182861328125,0.1844784915447235,-1.0913634300231934,0.8000298142433167
1758972194847141000,10.24214111328125,0.1493695080280304,-1.0695332288742065,0.6981596350669861
1758972194857099000,10.25209912109375,0.13687768578529358,-1.0148122310638428,0.6413597464561462
1758972194867057200,10.26205712890625,0.12518614530563354,-0.9036816358566284,0.6727325916290283
1758972194877015000,10.27201513671875,0.10059478133916855,-0.7163759469985962,0.8070629835128784
1758972194886973000,10.281972900390626,0.06875376403331757,-0.4774389863014221,1.0141501426696777
1758972194896930800,10.291930908203126,0.04487879201769829,-0.2332838475704193,1.2112122774124146
1758972194906890000,10.301889892578124,0.018328940495848656,0.00196434766985476,1.338492751121521
1758972194916847900,10.311847900390624,-0.024113591760396957,0.24659059941768646,1.3826160430908203
1758972194926806000,10.321805908203125,-0.07133383303880692,0.5254201292991638,1.3505537509918213
1758972194936764000,10.331763916015625,-0.08459743857383728,0.8398704528808594,1.2433574199676514
1758972194946722000,10.34172216796875,-0.052804093807935715,1.177618145942688,1.0778616666793823
1758972194956680000,10.351679931640625,-0.03587011620402336,1.5109100341796875,0.913797914981842
1758972194966639000,10.36163916015625,-0.051412589848041534,1.8280398845672607,0.8108047246932983
1758972194976597000,10.371596923828125,-0.10355648398399353,2.1067638397216797,0.794765293598175
1758972194986555100,10.38155517578125,-0.17550577223300934,2.274024486541748,0.8208219408988953
1758972194996513000,10.391512939453126,-0.25368472933769226,2.2504818439483643,0.79932701587677
1758972195006471000,10.401470947265626,-0.32383719086647034,1.9237456321716309,0.6640333533287048
1758972195016429000,10.411428955078126,-0.37259194254875183,1.2883528470993042,0.42023801803588867
1758972195026387000,10.421386962890624,-0.3575131297111511,0.6333135366439819,0.20334886014461517
1758972195036345900,10.431345947265624,-0.2914946973323822,0.08661345392465591,0.10308883339166641
1758972195046304000,10.441303955078125,-0.2443721890449524,-0.366041898727417,0.04237861558794975
1758972195056262100,10.45126220703125,-0.23023773729801178,-0.7119090557098389,-0.18017509579658508
1758972195066220000,10.461219970703125,-0.23270249366760254,-0.9813764691352844,-0.6949851512908936
1758972195076178200,10.47117822265625,-0.2675888240337372,-1.1349833011627197,-1.2990087270736694
1758972195086136000,10.481135986328125,-0.3249240219593048,-1.0289567708969116,-1.6624362468719482
1758972195096095000,10.491094970703125,-0.40725645422935486,-0.6624647974967957,-1.7911792993545532
1758972195106053000,10.50105322265625,-0.48610997200012207,-0.32555171847343445,-1.9575786590576172
1758972195116011000,10.511010986328126,-0.5485749840736389,-0.18189257383346558,-2.3392064571380615
1758972195125969000,10.520968994140626,-0.5792276859283447,-0.17499685287475586,-2.81412672996521
1758972195135927000,10.530927001953126,-0.603499710559845,-0.28126710653305054,-3.1798040866851807
1758972195145885000,10.540885009765624,-0.6233258843421936,-0.4898964762687683,-3.328223705291748
1758972195155844000,10.550843994140624,-0.634353756904602,-0.7560077905654907,-3.2553420066833496
1758972195165802000,10.560802001953125,-0.5836600065231323,-0.9235911965370178,-3.068079948425293
1758972195175760100,10.570760009765625,-0.3791438639163971,-0.8455866575241089,-2.864287853240967
1758972195185718000,10.580718017578125,-0.1064302995800972,-0.5799800157546997,-2.6729562282562256
1758972195195676200,10.59067626953125,0.16877010464668274,-0.14578010141849518,-2.463927745819092
1758972195205634000,10.600634033203125,0.35248613357543945,0.5053539872169495,-2.2022347450256348
1758972195215592000,10.610592041015625,0.3667002320289612,1.334367275238037,-1.8651081323623657
1758972195225551000,10.620551025390625,0.146817147731781,2.093792676925659,-1.5303937196731567
1758972195235509000,10.630509033203126,-0.11741823703050613,2.5537326335906982,-1.3095769882202148
1758972195245467000,10.640466796875,-0.34435978531837463,2.5756936073303223,-1.1651017665863037
1758972195255425000,10.650425048828126,-0.37111175060272217,1.4310797452926636,-1.0225577354431152
1758972195265383000,10.6603828125,-0.1973080039024353,-0.6390438675880432,-1.2260818481445312
1758972195275341000,10.670341064453124,0.09611215442419052,-1.9022877216339111,-1.3324782848358154
1758972195285300000,10.680300048828125,0.3707663416862488,-2.1265065670013428,-1.3682423830032349
1758972195295258000,10.690258056640625,0.5990239977836609,-1.6134172677993774,-1.3617589473724365
1758972195305216000,10.700216064453125,0.6854409575462341,-0.7731146216392517,-1.3159427642822266
1758972195315174100,10.710174072265625,0.6172651052474976,-0.01967250369489193,-1.194887399673462
1758972195325132000,10.720132080078125,0.33112573623657227,0.4380987882614136,-1.0188874006271362
1758972195335089200,10.730089111328125,-0.06869437545537949,0.5765557289123535,-0.8272857069969177
1758972195345047300,10.74004736328125,-0.40399834513664246,0.5704605579376221,-0.6289571523666382
1758972195355006200,10.750006103515625,-0.5779046416282654,0.48201829195022583,-0.4747113883495331
1758972195364964400,10.75996435546875,-0.6101642847061157,0.2992314398288727,-0.3874305486679077
1758972195374922200,10.769922119140626,-0.5603610277175903,-0.0065441858023405075,-0.3697602152824402
1758972195384880400,10.77988037109375,-0.45890048146247864,-0.31107237935066223,-0.3647571802139282
1758972195394838300,10.78983837890625,-0.4047378897666931,-0.5820836424827576,-0.38515886664390564
1758972195404796400,10.79979638671875,-0.438624769449234,-0.7231025695800781,-0.3967289626598358
1758972195414755300,10.80975537109375,-0.47996047139167786,-0.6906425952911377,-0.3811614513397217
1758972195424713500,10.81971337890625,-0.49238651990890503,-0.5811403393745422,-0.35998934507369995
1758972195434671400,10.82967138671875,-0.499899297952652,-0.552465558052063,-0.33739399909973145
1758972195444629500,10.83962939453125,-0.49484729766845703,-0.6071181893348694,-0.3009595572948456
1758972195454587100,10.849587158203125,-0.48722559213638306,-0.7391547560691833,-0.2574038505554199
1758972195464545300,10.859545166015625,-0.4773426055908203,-0.9782406091690063,-0.20701070129871368
1758972195474503200,10.869503173828125,-0.4033373296260834,-1.2343288660049438,-0.11045300960540771
1758972195484462300,10.87946240234375,-0.24691897630691528,-1.3982064723968506,0.08183174580335617
1758972195494420200,10.889420166015626,-0.012285960838198662,-1.5384052991867065,0.41804996132850647
1758972195504378400,10.89937841796875,0.26977503299713135,-1.6968109607696533,0.8691779971122742
1758972195514336300,10.909336181640626,0.5048485398292542,-1.857401728630066,1.30336594581604
1758972195524294400,10.91929443359375,0.5867327451705933,-2.053107261657715,1.5245054960250854
1758972195534252300,10.929252197265624,0.5162129998207092,-2.330580949783325,1.3169512748718262
1758972195544211500,10.93921142578125,0.3444223701953888,-2.5407631397247314,0.3038661479949951
1758972195554169300,10.94916943359375,0.07552165538072586,-2.401557207107544,-1.4587392807006836
1758972195564127200,10.959127197265625,-0.15466654300689697,-1.8129167556762695,-2.413283348083496
1758972195574085000,10.969085205078125,-0.11964943259954453,-0.9613766670227051,-1.891399621963501
1758972195584043300,10.979043212890625,-0.24021100997924805,-0.4375144839286804,-0.9398255348205566
1758972195594001400,10.98900146484375,-0.5381960868835449,-0.33907607197761536,-0.39258748292922974
1758972195603959300,10.998959228515625,-0.678142249584198,-0.2412525713443756,-0.1266508847475052
1758972195613918200,11.008918212890626,-0.8076645731925964,-0.13034282624721527,0.24772271513938904
1758972195623876400,11.01887646484375,-0.9143782258033752,0.12266067415475845,0.8944453001022339
1758972195633834200,11.028834228515626,-0.754867434501648,1.0730807781219482,1.5574815273284912
1758972195643792400,11.03879248046875,-0.3568696975708008,2.23950457572937,1.8355944156646729
1758972195653750500,11.04875048828125,-0.07922904193401337,2.7272422313690186,1.4706193208694458
1758972195663708200,11.058708251953124,-0.05754531919956207,2.261341094970703,1.042159914970398
1758972195673666300,11.068666259765624,-0.01678803563117981,1.555556058883667,0.8953587412834167
1758972195683625200,11.078625244140625,0.1120610237121582,1.308968186378479,0.879941463470459
1758972195693583400,11.088583251953125,0.16647499799728394,1.2457783222198486,0.998746395111084
1758972195703541200,11.098541259765625,0.17848558723926544,1.1240345239639282,1.1799137592315674
1758972195713499400,11.10849951171875,0.23420503735542297,1.0271319150924683,1.2893108129501343
1758972195723457300,11.118457275390625,0.3226590156555176,0.9281518459320068,1.2974505424499512
1758972195733415400,11.12841552734375,0.45742321014404297,0.8786428570747375,1.3157248497009277
1758972195743374300,11.138374267578126,0.6605430245399475,0.8530701398849487,1.4343409538269043
1758972195753332500,11.14833251953125,0.8267738223075867,0.7418048977851868,1.623379111289978
1758972195763290400,11.158290283203126,0.8666126132011414,0.5034586191177368,1.7886979579925537
1758972195773248300,11.168248291015624,0.7227702140808105,0.15646976232528687,1.816361904144287
1758972195783206100,11.1782060546875,0.45980513095855713,-0.20650283992290497,1.6653097867965698
1758972195793164300,11.188164306640624,0.18708732724189758,-0.4601665437221527,1.2889331579208374
1758972195803122200,11.1981220703125,0.0936170369386673,-0.5235492587089539,0.7188338041305542
1758972195813081300,11.208081298828125,0.11130867898464203,-0.4940129220485687,0.09630842506885529
1758972195823039200,11.218039306640625,0.26692917943000793,-0.2682149410247803,-0.45773905515670776
1758972195832997400,11.227997314453125,0.41216519474983215,0.08192761987447739,-0.9206199049949646
1758972195842955300,11.237955322265625,0.5117234587669373,0.49855732917785645,-1.232617735862732
1758972195852913400,11.247913330078125,0.7018588185310364,1.721266746520996,-0.8919333815574646
1758972195862871300,11.257871337890625,0.6924700736999512,2.2950057983398438,0.34465113282203674
1758972195872830500,11.26783056640625,0.39831382036209106,1.752037525177002,1.6341142654418945
1758972195882788400,11.277788330078126,0.08714954555034637,0.9118556976318359,2.252546787261963
1758972195892746200,11.287746337890624,-0.05778047442436218,0.16373060643672943,2.2579898834228516
1758972195902704000,11.2977041015625,-0.09238718450069427,-0.36653751134872437,1.901703119277954
1758972195912662300,11.307662353515624,-0.03515958413481712,-0.6445797681808472,1.40828275680542
1758972195922620400,11.317620361328125,0.07283692061901093,-0.752936065196991,0.9118940234184265
1758972195932578300,11.327578369140625,0.20908157527446747,-0.8005453944206238,0.46610110998153687
1758972195942537200,11.337537109375,0.3071011006832123,-0.8803139925003052,0.11550848931074142
1758972195952495400,11.347495361328125,0.3243812620639801,-1.0130667686462402,-0.09265190362930298
1758972195962453200,11.357453369140625,0.31715506315231323,-1.1633877754211426,-0.13855016231536865
1758972195972411400,11.367411376953125,0.32600101828575134,-1.3183685541152954,-0.07655922323465347
1758972195982369500,11.37736962890625,0.3354690670967102,-1.3725330829620361,0.06198081374168396
1758972195992327200,11.3873271484375,0.2841861844062805,-1.360587477684021,0.29901760816574097
1758972196002286000,11.3972861328125,0.21496742963790894,-1.2756003141403198,0.6024717688560486
1758972196012244200,11.407244140625,0.17267057299613953,-1.1628029346466064,0.8805534243583679
1758972196022202400,11.417202392578124,0.15304946899414062,-1.0745247602462769,1.0488532781600952
1758972196032160300,11.42716015625,0.1478254199028015,-1.044555425643921,1.0871260166168213
1758972196042118400,11.437118408203125,0.14573855698108673,-1.0709036588668823,1.0432182550430298
1758972196052076300,11.447076171875,0.1411837488412857,-1.1130309104919434,0.9666060209274292
1758972196062034400,11.457034423828125,0.13121500611305237,-1.152513861656189,0.8784423470497131
1758972196071993300,11.466993408203125,0.11219285428524017,-1.1796032190322876,0.8076720237731934
1758972196081951500,11.476951416015625,0.07159082591533661,-1.1841844320297241,0.7713103294372559
1758972196091909400,11.486909423828125,0.010181264951825142,-1.123071551322937,0.7942169308662415
1758972196101867300,11.4968671875,-0.07385185360908508,-0.953178346157074,0.9046116471290588
1758972196111825200,11.5068251953125,-0.17238162457942963,-0.6456631422042847,1.1251879930496216
1758972196121783300,11.516783203125,-0.26898086071014404,-0.21223369240760803,1.4247328042984009
1758972196131742200,11.5267421875,-0.34031549096107483,0.27330929040908813,1.6974879503250122
1758972196141700400,11.536700439453124,-0.34762853384017944,0.7564921975135803,1.8500388860702515
1758972196151658200,11.546658203125,-0.30353379249572754,1.218784213066101,1.8534868955612183
1758972196161616400,11.556616455078125,-0.2436147928237915,1.6432108879089355,1.718267798423767
1758972196171574300,11.56657421875,-0.19375374913215637,2.0080769062042236,1.4743038415908813
1758972196181532400,11.576532470703125,-0.15914277732372284,2.284412384033203,1.1533652544021606
1758972196191490300,11.586490234375,-0.1416868269443512,2.439831256866455,0.7891452312469482
1758972196201449500,11.596449462890625,-0.13183259963989258,2.359665632247925,0.3860504925251007
1758972196211407400,11.606407470703125,-0.1442623734474182,1.9949475526809692,-0.013667075894773006
1758972196221365200,11.616365234375,-0.18551740050315857,1.3665111064910889,-0.419757604598999
1758972196231323100,11.6263232421875,-0.23091763257980347,0.5602007508277893,-0.8057702779769897
1758972196241281300,11.63628125,-0.3349393904209137,-0.3776860535144806,-1.1169252395629883
1758972196251239400,11.646239501953126,-0.45404285192489624,-1.1532851457595825,-1.3435002565383911
1758972196261198300,11.6561982421875,-0.5147847533226013,-1.5127031803131104,-1.3834553956985474
1758972196271156200,11.66615625,-0.5324543118476868,-1.4320354461669922,-1.1729503870010376
1758972196281114400,11.6761142578125,-0.5237804055213928,-1.1449971199035645,-0.9544042348861694
1758972196291072300,11.686072265625,-0.49558550119400024,-0.8666301369667053,-1.0588734149932861
1758972196301030400,11.696030517578125,-0.46881088614463806,-0.5269756317138672,-1.8402917385101318
1758972196310988500,11.705988525390625,-0.4291209876537323,-0.28355902433395386,-2.879387855529785
1758972196320946200,11.7159462890625,-0.40874701738357544,-0.3295981287956238,-3.474860191345215
1758972196330906000,11.725906005859375,-0.3937864601612091,-0.5495507717132568,-3.552485704421997
1758972196340864300,11.7358642578125,-0.3527956008911133,-0.7870418429374695,-3.3164703845977783
1758972196350822100,11.745822265625,-0.27685025334358215,-0.8332090973854065,-2.9668173789978027
1758972196360780300,11.7557802734375,-0.11811491847038269,-0.5844581127166748,-2.661815881729126
1758972196370738000,11.765738037109376,0.035050395876169205,-0.23618750274181366,-2.4676034450531006
1758972196380696000,11.775696044921874,0.1113390401005745,0.212515726685524,-2.3068037033081055
1758972196390655000,11.785655029296874,0.10039025545120239,0.886377215385437,-2.071868658065796
1758972196400613000,11.795613037109375,-0.0018482337472960353,1.707742691040039,-1.7624530792236328
1758972196410571000,11.805571044921875,-0.12830205261707306,2.4188106060028076,-1.4406538009643555
1758972196420529200,11.815529052734375,-0.2993912398815155,2.7371902465820312,-1.2893776893615723
1758972196430487000,11.825487060546875,-0.43146324157714844,2.5266993045806885,-1.2371927499771118
1758972196440445200,11.835445068359375,-0.3853442370891571,1.1453896760940552,-1.2403435707092285
1758972196450404000,11.845404052734375,-0.1642613708972931,-0.7980806827545166,-1.4667927026748657
1758972196460362200,11.8553623046875,0.15666311979293823,-1.8999723196029663,-1.5424062013626099
1758972196470320000,11.865320068359376,0.49054867029190063,-2.009129285812378,-1.4653130769729614
1758972196480278300,11.8752783203125,0.6953867673873901,-1.4037694931030273,-1.3471148014068604
1758972196490236200,11.885236083984376,0.7125673890113831,-0.5519062876701355,-1.2598557472229004
1758972196500194000,11.895194091796874,0.5439514517784119,0.05489467456936836,-1.187628984451294
1758972196510152200,11.905152099609374,0.23898620903491974,0.24364754557609558,-1.0647474527359009
1758972196520111000,11.915111083984375,-0.09413475543260574,0.19311831891536713,-0.9011106491088867
1758972196530069000,11.925069091796875,-0.38308852910995483,0.11092918366193771,-0.7398524880409241
1758972196540027100,11.935027099609375,-0.5427436828613281,0.045760031789541245,-0.6120482087135315
1758972196549985300,11.9449853515625,-0.5720491409301758,0.0014527543680742383,-0.5206295847892761
1758972196559943200,11.954943115234375,-0.5539449453353882,-0.02894856035709381,-0.4530298113822937
1758972196569901300,11.9649013671875,-0.524147629737854,-0.1865304708480835,-0.4066377878189087
1758972196579860200,11.974860107421875,-0.4893750250339508,-0.4081997275352478,-0.36694496870040894
1758972196589818000,11.984818115234376,-0.44321179389953613,-0.6140881776809692,-0.3377748429775238
1758972196599776000,11.99477587890625,-0.412104994058609,-0.7420395016670227,-0.32353225350379944
1758972196609734100,12.004734130859376,-0.4258088171482086,-0.7651740908622742,-0.3001616895198822
1758972196619692000,12.014692138671874,-0.45906320214271545,-0.7142800092697144,-0.25619396567344666
1758972196629650200,12.024650146484374,-0.5121727585792542,-0.6794493794441223,-0.20819474756717682
1758972196639608000,12.034608154296874,-0.551415741443634,-0.7273878455162048,-0.17529645562171936
1758972196649567200,12.044567138671875,-0.5574427843093872,-0.8688666820526123,-0.1327980011701584
1758972196659525000,12.054525146484375,-0.5206261277198792,-1.136460304260254,-0.08272071182727814
1758972196669483300,12.064483154296875,-0.4201248586177826,-1.407984972000122,0.013757890090346336
1758972196679441200,12.074441162109375,-0.23124520480632782,-1.6148055791854858,0.2240927517414093
1758972196689399300,12.0843994140625,-0.005059739574790001,-1.7683932781219482,0.560828685760498
1758972196699357000,12.09435693359375,0.23097462952136993,-1.885257601737976,0.9861123561859131
1758972196709316400,12.10431640625,0.4021762013435364,-1.9299981594085693,1.3452070951461792
1758972196719274000,12.11427392578125,0.4776318073272705,-2.0099971294403076,1.4294370412826538
1758972196729232100,12.124232177734376,0.43878135085105896,-2.2157344818115234,1.0267585515975952
1758972196739190000,12.13418994140625,0.2861787676811218,-2.330854654312134,-0.170822873711586
1758972196749148200,12.144148193359374,0.04458850622177124,-1.9970173835754395,-1.6462229490280151
1758972196759106000,12.15410595703125,-0.14016030728816986,-1.276012659072876,-2.2489991188049316
1758972196769064200,12.164064208984374,-0.16299770772457123,-0.6947300434112549,-1.7046371698379517
1758972196779023000,12.174023193359375,-0.32436317205429077,-0.35268160700798035,-0.9675940871238708
1758972196788981200,12.183981201171875,-0.45141005516052246,-0.16377322375774384,-0.5076781511306763
1758972196798939100,12.193939208984375,-0.49369919300079346,-0.024869397282600403,-0.1662997603416443
1758972196808897300,12.203897216796875,-0.6229059100151062,0.05456683784723282,0.25193291902542114
1758972196818855200,12.213855224609375,-0.7769508957862854,0.019524432718753815,0.7122203707695007
1758972196828813000,12.22381298828125,-0.7978526949882507,0.2311599850654602,1.1166006326675415
1758972196838772000,12.23377197265625,-0.47466370463371277,1.1075857877731323,1.3879079818725586
1758972196848730000,12.243730224609376,0.012380503118038177,1.9958528280258179,1.3605245351791382
1758972196858688000,12.25368798828125,0.24951130151748657,2.1929996013641357,1.0311744213104248
1758972196868646100,12.263646240234374,0.22885341942310333,1.685117244720459,0.9644120931625366
1758972196878604300,12.273604248046874,0.22998739778995514,1.1624224185943604,1.0971461534500122
1758972196888562200,12.283562255859374,0.12693877518177032,0.8579213619232178,1.1555466651916504
1758972196898521000,12.29352099609375,0.007923170924186707,0.8196275234222412,1.1585829257965088
1758972196908479200,12.303479248046875,-0.024997495114803314,0.9836963415145874,1.1289526224136353
1758972196918437000,12.31343701171875,0.13760313391685486,1.1592493057250977,0.9689533114433289
1758972196928395000,12.32339501953125,0.34011390805244446,1.3209166526794434,0.6240092515945435
1758972196938353200,12.333353271484375,0.5003461837768555,1.369503140449524,0.5281996726989746
1758972196948311000,12.34331103515625,0.6763198971748352,1.2152658700942993,0.7466832399368286
1758972196958269200,12.353269287109375,0.7832231521606445,0.959519624710083,1.0588406324386597
1758972196968228000,12.36322802734375,0.7870154976844788,0.6303550601005554,1.3531683683395386
1758972196978186200,12.373186279296876,0.6252473592758179,0.20185641944408417,1.5648307800292969
1758972196988144000,12.38314404296875,0.3177252411842346,-0.24432319402694702,1.6144417524337769
1758972196998102300,12.393102294921874,0.0353742353618145,-0.5825529098510742,1.5553745031356812
1758972197008060200,12.40306005859375,-0.18121320009231567,-0.6886404752731323,1.3192408084869385
1758972197018018300,12.413018310546875,-0.31871458888053894,-0.3285895884037018,0.7168758511543274
1758972197027977200,12.422977294921875,-0.2804974317550659,0.46419695019721985,-0.07225475460290909
