time,seconds_elapsed,z,y,x
1758614206337597000,0.121596923828125,9.975142478942871,2.7007343769073486,0.0071826050989329815
1758614206347641900,0.131641845703125,9.707664489746094,2.8155810832977295,0.28131869435310364
1758614206357666800,0.141666748046875,10.401759147644043,3.046097993850708,0.31184476613998413
1758614206367724800,0.151724853515625,10.455778121948242,2.7941081523895264,0.3158849775791168
1758614206377768000,0.161767822265625,9.35077953338623,2.1954829692840576,1.2274773120880127
1758614206387791400,0.171791259765625,8.908899307250977,3.023427724838257,0.7529764175415039
1758614206397850400,0.181850341796875,8.931718826293945,3.3134255409240723,0.2763058543205261
1758614206407879200,0.191879150390625,9.218574523925781,3.357867956161499,-0.11611878126859665
1758614206417934800,0.201934814453125,9.580846786499023,3.3872716426849365,-0.3801543414592743
1758614206427953200,0.211953125,9.660828590393066,3.4724903106689453,-0.4932803809642792
1758614206438017500,0.222017578125,9.418939590454102,3.5948190689086914,-0.5438578724861145
1758614206448059000,0.232058837890625,9.164705276489258,2.9442696571350098,0.4851251244544983
1758614206458086400,0.24208642578125,9.226056098937988,3.0573954582214355,0.5440823435783386
1758614206468142600,0.252142578125,9.650578498840332,3.036895275115967,0.4596118927001953
1758614206478159600,0.26215966796875,9.822361946105957,3.0725090503692627,0.46507367491722107
1758614206488226600,0.2722265625,10.02916145324707,3.1844379901885986,0.46484923362731934
1758614206498292000,0.2822919921875,9.999682426452637,3.1068508625030518,0.2115127593278885
1758614206508301000,0.292301025390625,9.632845878601074,3.0593409538269043,0.02910451404750347
1758614206518350300,0.302350341796875,9.130288124084473,2.947486639022827,0.0867898091673851
1758614206528367900,0.312367919921875,8.441282272338867,2.6396822929382324,-0.25812485814094543
1758614206538434000,0.32243408203125,8.501660346984863,2.6828527450561523,-0.5517138838768005
1758614206548475000,0.332474853515625,9.047389030456543,2.8201451301574707,0.025438392534852028
1758614206558505000,0.3425048828125,9.168221473693848,2.9851205348968506,0.4436754882335663
1758614206568558000,0.35255810546875,8.983717918395996,3.021707057952881,0.5867290496826172
1758614206578598700,0.3625986328125,8.780884742736816,3.0183401107788086,0.6139631271362305
1758614206588643600,0.3726435546875,8.583288192749023,2.9661166667938232,0.3531447649002075
1758614206598684200,0.38268408203125,8.939425468444824,2.869525671005249,0.21719898283481598
1758614206608703200,0.392703125,9.339780807495117,3.1238346099853516,0.10729016363620758
1758614206618766600,0.4027666015625,8.576030731201172,3.1866824626922607,-0.07489362359046936
1758614206628808200,0.41280810546875,8.354192733764648,3.134010076522827,0.024839842692017555
1758614206638849300,0.422849365234375,8.411728858947754,3.376572608947754,0.19198505580425262
1758614206648890000,0.43289013671875,8.30398941040039,3.763984441757202,1.604414463043213
1758614206658908400,0.442908447265625,8.214730262756348,4.7276506423950195,2.3582887649536133
1758614206668974300,0.452974365234375,8.167744636535645,4.928613662719727,1.800215244293213
1758614206678991600,0.46299169921875,8.025962829589844,4.341959476470947,1.1728595495224
1758614206689057300,0.473057373046875,7.632490634918213,3.601552724838257,0.3116951286792755
1758614206699077600,0.48307763671875,7.870489120483398,2.9485342502593994,-0.030301615595817566
1758614206709130800,0.493130859375,8.366238594055176,3.1162030696868896,-0.023119010031223297
1758614206719184100,0.50318408203125,8.926107406616211,3.0772974491119385,-0.2777273952960968
1758614206729199400,0.513199462890625,9.23907470703125,3.0172927379608154,-0.5695955753326416
1758614206739265800,0.523265869140625,8.906729698181152,2.851943254470825,-0.5930138230323792
1758614206749307100,0.53330712890625,8.192060470581055,2.877156972885132,-0.6658873558044434
1758614206759354600,0.543354736328125,7.631892204284668,2.9874398708343506,-0.582614004611969
1758614206769390000,0.55339013671875,7.349600791931152,3.0638298988342285,-0.4924573600292206
1758614206779424000,0.563424072265625,7.624335289001465,3.104830741882324,-0.40873512625694275
1758614206789474800,0.573474853515625,8.29897689819336,2.986093282699585,-0.49978959560394287
1758614206799517200,0.58351708984375,9.35773754119873,2.867280960083008,-0.6928969621658325
1758614206809532400,0.593532470703125,10.195708274841309,2.708814859390259,-0.7730278968811035
1758614206819598600,0.6035986328125,10.559476852416992,2.661604166030884,-0.7439981698989868
1758614206829639700,0.6136396484375,10.636764526367188,2.5754127502441406,-0.7186346054077148
1758614206839682000,0.62368212890625,10.679336547851562,2.4932618141174316,-0.7754969000816345
1758614206849701400,0.633701416015625,10.73649787902832,2.501865863800049,-0.8533084392547607
1758614206859765200,0.64376513671875,10.379537582397461,2.4643068313598633,-0.8876502513885498
1758614206869806600,0.653806640625,10.015469551086426,2.5097968578338623,-1.0527005195617676
1758614206879824400,0.663824462890625,9.805228233337402,2.426149368286133,-0.9520692825317383
1758614206889890000,0.67389013671875,10.058489799499512,2.568230152130127,-1.0357915163040161
1758614206899933000,0.683932861328125,10.219948768615723,2.6682629585266113,-1.0311527252197266
1758614206909974000,0.69397412109375,10.385448455810547,2.4713399410247803,-0.8506149649620056
1758614206920013600,0.704013671875,10.648286819458008,2.5736920833587646,-0.8512135148048401
1758614206930035000,0.714034912109375,10.189348220825195,2.7561001777648926,-0.40394672751426697
1758614206940098000,0.72409814453125,9.891120910644531,2.6927287578582764,-0.2991255819797516
1758614206950136800,0.73413671875,9.790040016174316,2.565910816192627,-0.4761468768119812
1758614206960181200,0.74418115234375,9.49353313446045,2.5073277950286865,-0.6004208922386169
1758614206970222000,0.75422216796875,9.033098220825195,2.5476551055908203,-0.6529436707496643
1758614206980266200,0.764266357421875,8.600945472717285,2.5620203018188477,-0.7916577458381653
1758614206990307000,0.77430712890625,8.251391410827637,2.6070611476898193,-0.8601169586181641
1758614207000322800,0.78432275390625,8.104073524475098,2.3592612743377686,-0.6904278993606567
1758614207010390800,0.794390869140625,8.146495819091797,2.2125415802001953,-0.7250690460205078
1758614207020420000,0.804420166015625,8.390106201171875,2.087968349456787,-0.9668834209442139
1758614207030474200,0.81447412109375,8.220566749572754,2.416722059249878,-0.9996540546417236
1758614207040513000,0.824512939453125,7.3611226081848145,2.140042304992676,-0.8209118843078613
1758614207050532600,0.83453271484375,6.674286365509033,2.2292263507843018,-0.7921066880226135
1758614207060595700,0.844595703125,6.473023414611816,2.0351462364196777,-0.8497171401977539
1758614207070621400,0.854621337890625,6.621912956237793,1.940350890159607,-0.7949497699737549
1758614207080655400,0.8646552734375,7.225625991821289,1.7134253978729248,-0.9651625752449036
1758614207090720800,0.874720703125,7.980772018432617,1.5046809911727905,-1.2349591255187988
1758614207100756000,0.884755859375,8.613814353942871,1.5470284223556519,-1.5311667919158936
1758614207110804500,0.894804443359375,9.011775016784668,1.4609867334365845,-1.6314988136291504
1758614207120822000,0.904822021484375,8.871639251708984,1.2642881870269775,-1.689483404159546
1758614207130888200,0.91488818359375,9.270873069763184,1.3285574913024902,-2.008286237716675
1758614207140930600,0.9249306640625,10.190171241760254,1.2863596677780151,-2.190619707107544
1758614207150958600,0.93495849609375,10.143933296203613,1.2399719953536987,-1.9759645462036133
1758614207161012700,0.9450126953125,10.635567665100098,1.1680711507797241,-1.8164509534835815
1758614207171054000,0.95505419921875,12.010512351989746,1.3358149528503418,-1.8407670259475708
1758614207181096700,0.9650966796875,12.326173782348633,1.3879636526107788,-1.604414463043213
1758614207191152400,0.97515234375,12.26691722869873,1.2547861337661743,-1.2064532041549683
1758614207201179000,0.985178955078125,12.773514747619629,1.2826935052871704,-1.4532804489135742
1758614207211196000,0.99519580078125,13.125238418579102,1.554510235786438,-1.4733319282531738
1758614207221251600,1.00525146484375,13.305102348327637,0.9570072889328003,-1.1656020879745483
1758614207231305700,1.0153056640625,12.993183135986328,1.1484686136245728,-1.1568483114242554
1758614207241321500,1.025321533203125,11.596390724182129,0.8649053573608398,-1.1224316358566284
1758614207251386600,1.03538671875,11.997718811035156,0.5229834318161011,-0.9011176824569702
1758614207261431600,1.045431640625,12.132616996765137,0.5321861505508423,-0.8682721853256226
1758614207271460900,1.0554609375,11.349937438964844,0.8589198589324951,-0.3098994791507721
1758614207281512700,1.0655126953125,9.968932151794434,1.1748796701431274,-0.060303956270217896
1758614207291543300,1.075543212890625,9.375469207763672,0.8976759910583496,0.1613093465566635
1758614207301597400,1.085597412109375,8.780659675598145,0.6495768427848816,0.2793734073638916
1758614207311633400,1.09563330078125,7.406911849975586,0.38224926590919495,-0.09075520932674408
1758614207321677800,1.105677734375,5.676427841186523,0.5822399258613586,-0.6911761164665222
1758614207331720400,1.115720458984375,6.486865043640137,-0.754397988319397,-1.0797849893569946
1758614207341763600,1.125763671875,14.133346557617188,-4.8855180740356445,0.8438064455986023
1758614207351804400,1.135804443359375,11.382708549499512,-4.2008514404296875,-1.1793687343597412
1758614207361820000,1.14581982421875,6.391022205352783,-0.1785924881696701,-3.811718702316284
1758614207371888400,1.155888427734375,5.04682731628418,4.11211633682251,-5.771821975708008
1758614207381928200,1.16592822265625,5.091718673706055,6.378976345062256,-6.414290904998779
1758614207391949600,1.175949462890625,3.356072187423706,4.036623954772949,-5.721468925476074
1758614207402010600,1.1860107421875,2.0246715545654297,0.4156184494495392,-4.6728081703186035
1758614207412030500,1.196030517578125,0.8922142386436462,-1.9584569931030273,-3.0200610160827637
1758614207422094000,1.206093994140625,0.7235726714134216,-3.670760154724121,-1.4675707817077637
1758614207432135200,1.21613525390625,1.4674960374832153,-4.827907562255859,-0.9060556888580322
1758614207442145800,1.226145751953125,1.964442491531372,-5.169305801391602,-1.0466402769088745
1758614207452220400,1.236220458984375,3.0142250061035156,-4.920309066772461,-1.49854576587677
1758614207462262500,1.246262451171875,4.05390739440918,-4.90571928024292,-1.8540847301483154
1758614207472304400,1.256304443359375,3.4140567779541016,-5.157709121704102,-2.1582980155944824
1758614207482319400,1.2663193359375,2.130016565322876,-5.656750202178955,-2.0423288345336914
1758614207492386000,1.276385986328125,2.7067947387695312,-6.560636520385742,-1.9532196521759033
1758614207502427400,1.286427490234375,3.4293947219848633,-7.34623384475708,-1.9356372356414795
1758614207512444000,1.29644384765625,4.085705280303955,-9.142034530639648,-3.3755252361297607
1758614207522509300,1.30650927734375,4.470947265625,-9.788095474243164,-2.690708637237549
1758614207532526300,1.3165263671875,5.686154365539551,-10.55528736114502,-3.904344320297241
1758614207542594600,1.326594482421875,6.259640216827393,-10.631302833557129,-5.644928932189941
1758614207552634000,1.336634033203125,6.594529151916504,-9.853411674499512,-7.115043640136719
1758614207562631400,1.34663134765625,7.475445747375488,-10.544512748718262,-11.40051555633545
1758614207572718800,1.35671875,8.1301851272583,-10.242769241333008,-14.248717308044434
1758614207582735400,1.3667353515625,9.046939849853516,-8.727463722229004,-16.030378341674805
1758614207592800800,1.37680078125,9.951648712158203,-7.683217525482178,-18.18141746520996
1758614207602822700,1.38682275390625,9.6664400100708,-6.00458288192749,-18.341903686523438
1758614207612849700,1.396849609375,9.686117172241211,-6.516493320465088,-21.153221130371094
1758614207622896600,1.406896728515625,8.620697021484375,-6.564302444458008,-23.30852699279785
1758614207632942800,1.41694287109375,7.926453590393066,-4.6262712478637695,-23.13113021850586
1758614207643009300,1.42700927734375,7.847370147705078,-4.020089149475098,-23.77345085144043
1758614207653033500,1.437033447265625,6.7533698081970215,-3.6314802169799805,-23.81467628479004
1758614207663085300,1.447085205078125,5.9135284423828125,-3.6266918182373047,-23.8107852935791
1758614207673134300,1.45713427734375,4.74111795425415,-3.596165657043457,-23.104644775390625
1758614207683151000,1.467151123046875,2.8853871822357178,-3.607837438583374,-21.9148006439209
1758614207693218800,1.47721875,0.6210708618164062,-3.3638534545898438,-20.588863372802734
1758614207703259600,1.487259765625,-1.4754267930984497,-3.2059109210968018,-19.28215217590332
1758614207713276000,1.49727587890625,-2.7043256759643555,-3.205087900161743,-17.61174774169922
1758614207723324200,1.50732421875,-3.7888989448547363,-3.3197851181030273,-15.786542892456055
1758614207733360600,1.517360595703125,-4.746729373931885,-3.2620248794555664,-14.10394287109375
1758614207743403300,1.5274033203125,-4.9432783126831055,-2.911947727203369,-12.848857879638672
1758614207753466600,1.537466552734375,-6.6192193031311035,-2.5620951652526855,-11.612028121948242
1758614207763507000,1.5475068359375,-11.497180938720703,-2.586411237716675,-9.850942611694336
1758614207773526000,1.557526123046875,-7.908721446990967,-1.0161889791488647,-10.93222427368164
1758614207783590700,1.567590576171875,-1.9360113143920898,0.5043535232543945,-12.82080078125
1758614207793626600,1.577626708984375,-3.2353146076202393,-1.0561422109603882,-10.22032356262207
1758614207803676400,1.587676513671875,-5.317895889282227,-3.4623897075653076,-7.04905366897583
1758614207813716700,1.597716796875,-4.589983940124512,-3.257012128829956,-6.77424430847168
1758614207823733200,1.607733154296875,-3.2980127334594727,-2.868927001953125,-6.913631439208984
1758614207833799000,1.617798828125,-3.1121628284454346,-3.2854433059692383,-5.77294397354126
1758614207843816000,1.62781591796875,-3.726724624633789,-2.9974656105041504,-5.120150089263916
1758614207853882600,1.637882568359375,-2.5596261024475098,-1.5197194814682007,-6.363862991333008
1758614207863925200,1.64792529296875,-0.4271405339241028,-0.8521113395690918,-7.278522968292236
1758614207873967600,1.657967529296875,0.3936217129230499,0.60184246301651,-9.183035850524902
1758614207884009500,1.668009521484375,2.607959032058716,-0.2902969419956207,-8.800786018371582
1758614207894026800,1.67802685546875,2.643497943878174,-2.6604819297790527,-6.0651116371154785
1758614207904066000,1.688066162109375,2.613645315170288,-2.8966848850250244,-5.114314079284668
1758614207914107600,1.698107666015625,2.0127005577087402,-2.5189247131347656,-5.0243072509765625
1758614207924149200,1.708149169921875,0.9163807034492493,-2.296114206314087,-4.5737481117248535
1758614207934212900,1.718212890625,0.02678513154387474,-1.218798279762268,-5.617246150970459
1758614207964334800,1.7483349609375,3.6558711528778076,-9.09302806854248,0.195950448513031
1758614207984423200,1.768423095703125,-1.845929503440857,-6.674884796142578,-4.683432579040527
1758614207994441000,1.77844091796875,0.13295301795005798,-7.661594867706299,-4.924798011779785
1758614208004484900,1.78848486328125,1.167921543121338,-7.199214935302734,-8.291569709777832
1758614208014548500,1.798548583984375,3.903296947479248,-7.645134925842285,-12.2141695022583
1758614208044648200,1.828648193359375,-1.3666402101516724,-10.059687614440918,-9.356315612792969
1758614208064753700,1.848753662109375,-0.3024176061153412,-10.827103614807129,-9.742305755615234
1758614208084815000,1.868815185546875,0.6125415563583374,-11.451316833496094,-7.574131965637207
1758614208104899000,1.888899169921875,-1.1195886135101318,-5.154716491699219,-7.91163969039917
1758614208114955800,1.898955810546875,-0.789936900138855,-3.5114707946777344,-8.81619930267334
1758614208124977200,1.90897705078125,-0.23784898221492767,0.19782091677188873,-11.845088005065918
1758614208135013400,1.919013427734375,-4.411017417907715,2.674173593521118,-13.098977088928223
1758614208145073700,1.92907373046875,1.5049054622650146,-6.621089935302734,-12.891803741455078
1758614208155116300,1.9391162109375,3.227234363555908,-10.819771766662598,-10.570100784301758
1758614208165172700,1.9491728515625,3.424232244491577,-11.65190601348877,-8.68167495727539
1758614208175191800,1.95919189453125,0.773476779460907,-11.394754409790039,-6.746411323547363
1758614208185231400,1.9692314453125,-0.5888239741325378,-9.77717113494873,-4.293701648712158
1758614208195298000,1.979298095703125,-2.5415198802948,-8.075642585754395,-2.483236074447632
1758614208205337900,1.989337890625,-3.3073651790618896,-5.975254058837891,-2.0240731239318848
1758614208215379000,1.99937890625,-2.6186580657958984,-4.461445331573486,-2.181716203689575
1758614208225397000,2.00939697265625,-3.489025354385376,-3.4158525466918945,-3.101463794708252
1758614208235463200,2.019463134765625,-1.7211318016052246,-2.9426236152648926,-5.688772678375244
1758614208245504800,2.0295048828125,-0.5491700172424316,-2.750563621520996,-6.701220989227295
1758614208255545600,2.039545654296875,-0.41352352499961853,-3.778125047683716,-6.8447980880737305
1758614208265588000,2.049587890625,0.02843114547431469,-4.076876640319824,-6.665083408355713
1758614208275629300,2.05962939453125,0.6251859068870544,-2.5002946853637695,-6.950816631317139
1758614208285672400,2.06967236328125,0.7965958118438721,-2.43475341796875,-4.985775470733643
1758614208295712500,2.07971240234375,1.8475006818771362,-3.3873465061187744,-4.600907325744629
1758614208305754000,2.089754150390625,-0.5599439144134521,-3.9839515686035156,-5.2154693603515625
1758614208315796700,2.099796630859375,-1.3263877630233765,-5.136086463928223,-5.745859622955322
1758614208325838800,2.1098388671875,-1.281197190284729,-7.359551429748535,-6.739528179168701
1758614208335879000,2.11987890625,-2.8955624103546143,-10.983026504516602,-8.573785781860352
1758614208345921000,2.129921142578125,-1.9424457550048828,-12.68867015838623,-9.730484962463379
1758614208355961000,2.139961181640625,-1.5592238903045654,-12.752490997314453,-9.490466117858887
1758614208366003200,2.150003173828125,-2.3160159587860107,-11.871499061584473,-9.460687637329102
1758614208376045000,2.160045166015625,-1.895684003829956,-10.768895149230957,-9.449316024780273
1758614208386087000,2.1700869140625,-1.441384196281433,-8.794351577758789,-9.514482498168945
1758614208396128000,2.1801279296875,-2.1273229122161865,-7.342043876647949,-9.137619972229004
1758614208406169600,2.190169677734375,-1.826027750968933,-6.736759662628174,-8.71489429473877
1758614208416210700,2.200210693359375,-1.2402713298797607,-7.446565628051758,-7.521908283233643
1758614208426251500,2.21025146484375,-1.4462474584579468,-9.384522438049316,-5.2201828956604
1758614208436296400,2.22029638671875,-1.509993076324463,-10.477849960327148,-3.0387656688690186
1758614208446335200,2.230335205078125,-1.6376339197158813,-10.21231746673584,-2.35379958152771
1758614208456377300,2.24037744140625,-1.0063128471374512,-8.738836288452148,-3.050886392593384
1758614208466420500,2.25042041015625,-0.7939771413803101,-7.011344909667969,-4.300360202789307
1758614208476460000,2.2604599609375,0.5894225239753723,-5.342287063598633,-5.670217990875244
1758614208486503000,2.2705029296875,1.4546271562576294,-4.028468608856201,-7.2632598876953125
1758614208496544000,2.2805439453125,0.9575310349464417,-3.9501335620880127,-7.756839275360107
1758614208506586000,2.290586181640625,0.8689455986022949,-7.841459274291992,-4.751592636108398
1758614208516628200,2.300628173828125,1.2143092155456543,-8.820987701416016,-4.521150588989258
1758614208526668800,2.310668701171875,1.5231611728668213,-7.502679824829102,-5.124713897705078
1758614208536709600,2.320709716796875,0.9929951429367065,-4.4531402587890625,-5.964480400085449
1758614208546754000,2.330754150390625,-2.044947624206543,-3.652204990386963,-5.2564697265625
1758614208556794400,2.34079443359375,-3.8441152572631836,-0.11364976316690445,-3.877110481262207
1758614208566836200,2.350836181640625,-1.2568811178207397,-1.4894927740097046,-4.071414947509766
1758614208576876000,2.3608759765625,-0.5181202292442322,-5.38478422164917,-4.714332580566406
1758614208586918700,2.370918701171875,-1.9330934286117554,-3.7806689739227295,-5.146860122680664
1758614208596960500,2.38096044921875,-2.3084592819213867,-4.287491321563721,-4.666448593139648
1758614208607001000,2.3910009765625,-1.4056956768035889,-4.982558250427246,-3.6717326641082764
1758614208617042200,2.401042236328125,-0.2976292073726654,-7.718457221984863,-5.404087543487549
1758614208627086300,2.41108642578125,-2.8446857929229736,-7.779284954071045,-4.670713424682617
1758614208637127000,2.421126953125,-1.8118869066238403,-5.336675643920898,-3.8941690921783447
1758614208647166700,2.431166748046875,0.903287410736084,-3.88010311126709,-3.3802387714385986
1758614208657208000,2.4412080078125,1.5354315042495728,-4.354828357696533,-4.920982360839844
1758614208667251200,2.451251220703125,-2.1606922149658203,-6.017526626586914,-4.943652629852295
1758614208677292300,2.461292236328125,-1.557203769683838,-14.9530611038208,-1.2535890340805054
1758614208687332900,2.471332763671875,1.7213561534881592,-21.476961135864258,0.7100304365158081
1758614208697376000,2.4813759765625,-0.5983259677886963,-19.886762619018555,-1.0333973169326782
1758614208707417600,2.49141748046875,-3.2294039726257324,-15.617676734924316,-1.5975310802459717
1758614208717457400,2.50145751953125,-0.9674819707870483,-11.303849220275879,-2.7234044075012207
1758614208727500500,2.51150048828125,-1.4529811143875122,-9.393126487731934,-3.9327006340026855
1758614208737540600,2.52154052734375,0.2439092993736267,-8.912714958190918,-4.028019905090332
1758614208747583700,2.531583740234375,-0.9007435441017151,-8.338780403137207,-4.102389812469482
1758614208757625300,2.541625244140625,-1.5940146446228027,-7.75055456161499,-4.558186054229736
1758614208767666400,2.55166650390625,-0.6673089265823364,-8.1441011428833,-5.173720359802246
1758614208777708800,2.561708740234375,0.989852786064148,-8.099808692932129,-4.690690040588379
1758614208787751000,2.5717509765625,1.039307951927185,-8.073996543884277,-3.3673698902130127
1758614208797790700,2.581790771484375,0.2858078181743622,-8.223559379577637,-0.6047604084014893
1758614208807832000,2.59183203125,-1.0086323022842407,-9.676839828491211,1.2983306646347046
1758614208817875000,2.601875,-0.5335328578948975,-10.511892318725586,2.2487540245056152
1758614208827915500,2.61191552734375,-0.1776946634054184,-10.123133659362793,1.7556980848312378
1758614208837956400,2.621956298828125,1.366266131401062,-6.717307090759277,-0.5423614978790283
1758614208847999500,2.63199951171875,2.128295660018921,-4.836512088775635,-1.058311939239502
1758614208858041600,2.64204150390625,-0.44262802600860596,-8.809090614318848,1.1941828727722168
1758614208868082000,2.65208203125,-1.2756606340408325,-12.964153289794922,2.4063971042633057
1758614208878123000,2.662123046875,1.7090110778808594,-11.126154899597168,1.9466356039047241
1758614208888167000,2.6721669921875,3.4625394344329834,-7.912761688232422,3.100865364074707
1758614208898208500,2.68220849609375,-3.6459202766418457,-19.18720817565918,4.5580363273620605
1758614208908248300,2.692248291015625,-2.076969861984253,-17.081806182861328,1.0339958667755127
1758614208918290400,2.70229052734375,2.2812252044677734,-14.094815254211426,-0.6547393202781677
1758614208928330500,2.71233056640625,1.2986299991607666,-11.809325218200684,-0.8866028189659119
1758614208938372600,2.72237255859375,-0.43110594153404236,-11.760767936706543,-0.2959083616733551
1758614208948414500,2.73241455078125,0.47996261715888977,-10.962151527404785,0.9737667441368103
1758614208958455800,2.742455810546875,0.12217910587787628,-11.507580757141113,2.515856981277466
1758614208968497700,2.75249755859375,0.9836428165435791,-11.507131576538086,2.3972692489624023
1758614208978541800,2.762541748046875,0.6245125532150269,-10.918008804321289,1.4089128971099854
1758614208988580400,2.772580322265625,0.7576900124549866,-10.81004524230957,1.0188076496124268
1758614208998622700,2.782622802734375,1.508721113204956,-9.917306900024414,0.37813422083854675
1758614209008663800,2.792663818359375,0.23732523620128632,-10.336441993713379,1.2583026885986328
1758614209018705700,2.80270556640625,0.9837924242019653,-10.493486404418945,1.9088521003723145
1758614209028724000,2.812723876953125,0.6023662090301514,-10.92070198059082,2.2132151126861572
1758614209038788900,2.822788818359375,0.9415197968482971,-10.726996421813965,2.0673930644989014
1758614209048831700,2.832831787109375,0.910993754863739,-11.048118591308594,1.8326865434646606
1758614209058871800,2.842871826171875,0.8925883173942566,-11.881750106811523,1.8784756660461426
1758614209068913000,2.852912841796875,0.8406640887260437,-12.043882369995117,1.8466029167175293
1758614209078954000,2.8629541015625,1.4458733797073364,-11.359739303588867,1.4211831092834473
1758614209088995800,2.872995849609375,2.3679401874542236,-9.98067855834961,0.1553238332271576
1758614209099036700,2.88303662109375,-0.36893153190612793,-7.978527545928955,-0.9724199771881104
1758614209109079600,2.89307958984375,0.9062801599502563,-7.907599449157715,0.5364508032798767
1758614209119121000,2.903120849609375,1.3997101783752441,-8.757540702819824,2.832714796066284
1758614209129175800,2.91317578125,-0.25101709365844727,-9.030180931091309,2.9077579975128174
1758614209139203600,2.92320361328125,0.7917325496673584,-8.154950141906738,0.8563011884689331
1758614209149245400,2.933245361328125,1.2949638366699219,-8.281767845153809,-0.735169529914856
1758614209159287300,2.943287353515625,0.9498246908187866,-10.187478065490723,0.6199486255645752
1758614209169327900,2.953327880859375,-0.02050035260617733,-10.520196914672852,1.5708955526351929
1758614209179370500,2.96337060546875,-0.444049596786499,-9.67885971069336,1.2801496982574463
1758614209189412400,2.973412353515625,0.1621323525905609,-9.403002738952637,0.8580220341682434
1758614209199455500,2.98345556640625,0.9540894031524658,-9.438241958618164,0.253860205411911
1758614209209495600,2.99349560546875,1.0041431188583374,-9.431957244873047,-0.33107319474220276
1758614209219538000,3.003537841796875,1.4015806913375854,-8.740856170654297,-0.8902689218521118
1758614209229579000,3.0135791015625,1.026289463043213,-9.294665336608887,-0.8373720645904541
1758614209239619800,3.023619873046875,0.8529343605041504,-10.03611946105957,-0.29149407148361206
1758614209249661200,3.0336611328125,0.2663549482822418,-9.963096618652344,0.3382558226585388
1758614209259704300,3.043704345703125,0.2529623806476593,-9.743951797485352,0.9519196152687073
1758614209269745000,3.053744873046875,1.469141960144043,-9.770736694335938,1.2062287330627441
1758614209279787000,3.063787109375,1.2474539279937744,-9.783905029296875,0.782380223274231
1758614209289826600,3.07382666015625,1.2336872816085815,-9.864859580993652,0.7532756924629211
1758614209299871200,3.083871337890625,0.9392752647399902,-9.804854393005371,0.783652126789093
1758614209309933600,3.09393359375,0.9539397358894348,-9.775525093078613,0.8876502513885498
1758614209319951600,3.10395166015625,1.0247182846069336,-9.78255844116211,1.0794109106063843
1758614209329994000,3.113993896484375,1.062127709388733,-9.777545928955078,1.2737152576446533
1758614209340035800,3.124035888671875,1.0898107290267944,-9.756446838378906,1.353696584701538
1758614209350077700,3.13407763671875,1.0972177982330322,-9.700407028198242,1.3671640157699585
1758614209360118500,3.144118408203125,1.12467622756958,-9.67654037475586,1.3588590621948242
1758614209370159900,3.154159912109375,1.1255741119384766,-9.692028045654297,1.3754688501358032
1758614209380202800,3.16420263671875,1.1435306072235107,-9.689783096313477,1.3932757377624512
1758614209390243800,3.174243896484375,1.1673229932785034,-9.686041831970215,1.3586345911026
1758614209400287000,3.184286865234375,1.1732336282730103,-9.68469524383545,1.3215993642807007
1758614209410326300,3.194326171875,1.1563993692398071,-9.684321403503418,1.2524667978286743
1758614209420368100,3.2043681640625,1.1502642631530762,-9.681628227233887,1.183334231376648
1758614209430411500,3.21441162109375,1.1406126022338867,-9.664419174194336,1.0928034782409668
1758614209440450800,3.224450927734375,1.0795605182647705,-9.681927680969238,1.0261398553848267
1758614209450494000,3.234493896484375,1.0018986463546753,-9.70542049407959,0.9546879529953003
1758614209460534000,3.244533935546875,0.9837924242019653,-9.724200248718262,0.8961796164512634
1758614209470575400,3.254575439453125,0.9621698260307312,-9.72502326965332,0.8187421560287476
1758614209480618800,3.26461865234375,0.8820388913154602,-9.759289741516113,0.7639747858047485
1758614209490658300,3.274658203125,0.8258499503135681,-9.753005027770996,0.7177367806434631
1758614209500700400,3.284700439453125,0.7947252988815308,-9.745448112487793,0.6523451209068298
1758614209510741800,3.29474169921875,0.7754220962524414,-9.784728050231934,0.627056360244751
1758614209520784600,3.30478466796875,0.8158990740776062,-9.761534690856934,0.5184943079948425
1758614209530799900,3.3147998046875,0.8532336354255676,-9.731681823730469,0.45759180188179016
1758614209540842500,3.324842529296875,0.8138789534568787,-9.753304481506348,0.5065233111381531
1758614209550883600,3.334883544921875,0.8163479566574097,-9.763105392456055,0.5589712858200073
1758614209560925000,3.344925048828125,0.8236053586006165,-9.776497840881348,0.6137386560440063
1758614209570991400,3.354991455078125,0.7974188327789307,-9.785101890563965,0.6722469329833984
1758614209581035500,3.365035400390625,0.7675660848617554,-9.817423820495605,0.6937199234962463
1758614209591074600,3.375074462890625,0.8021323680877686,-9.803058624267578,0.6721721291542053
1758614209601117400,3.385117431640625,0.8402899503707886,-9.818621635437012,0.674267053604126
1758614209611157200,3.3951572265625,0.7837269902229309,-9.857975959777832,0.7089081406593323
1758614209621199600,3.40519970703125,0.6927472949028015,-9.94858169555664,0.7146692276000977
1758614209631241500,3.415241455078125,0.7117512822151184,-9.948431968688965,0.6668599843978882
1758614209641284600,3.42528466796875,0.7630021572113037,-9.900398254394531,0.594136118888855
1758614209651325400,3.435325439453125,0.8037036061286926,-9.870545387268066,0.5834370255470276
1758614209661367000,3.445366943359375,0.9149591326713562,-9.791911125183105,0.5953332185745239
1758614209671407900,3.455407958984375,0.9878326654434204,-9.795876502990723,0.6546645164489746
1758614209681449500,3.465449462890625,1.0800094604492188,-9.781136512756348,0.7844003438949585
1758614209691492900,3.475492919921875,1.1272200345993042,-9.727043151855469,0.9348609447479248
1758614209701531600,3.48553173828125,1.1860276460647583,-9.68349838256836,1.0434978008270264
1758614209711573000,3.495572998046875,1.2828432321548462,-9.667037963867188,1.0705822706222534
1758614209721614300,3.5056142578125,1.389011025428772,-9.64676284790039,1.0428245067596436
1758614209731658000,3.515657958984375,1.4189386367797852,-9.654169082641602,1.0867431163787842
1758614209741697800,3.52569775390625,1.4056956768035889,-9.702128410339355,1.1306617259979248
1758614209751740200,3.535740234375,1.4128782749176025,-9.729811668395996,1.1817630529403687
1758614209761782000,3.545781982421875,1.4858266115188599,-9.699060440063477,1.2114660739898682
1758614209771822300,3.555822265625,1.4715362787246704,-9.656264305114746,1.277456283569336
1758614209781866500,3.565866455078125,1.4371943473815918,-9.608604431152344,1.3149404525756836
1758614209791906300,3.57590625,1.4588170051574707,-9.541642189025879,1.2806735038757324
1758614209801948200,3.5859482421875,1.4514847993850708,-9.550919532775879,1.2305448055267334
1758614209811990500,3.595990478515625,1.365368366241455,-9.600823402404785,1.212663173675537
1758614209822030600,3.606030517578125,1.266083836555481,-9.660229682922363,1.1733832359313965
1758614209832073500,3.616073486328125,1.2312182188034058,-9.68851089477539,1.1148749589920044
1758614209842114300,3.6261142578125,1.2285995483398438,-9.727641105651855,1.0573393106460571
1758614209852155000,3.63615478515625,1.2247090339660645,-9.72853946685791,0.9977087378501892
1758614209862197200,3.646197265625,1.138742208480835,-9.748590469360352,0.9800515174865723
1758614209872240400,3.656240478515625,1.0671405792236328,-9.736394882202148,0.9506477117538452
1758614209882281500,3.666281494140625,1.0550947189331055,-9.714473724365234,0.8554033637046814
1758614209892308200,3.67630810546875,1.062127709388733,-9.714174270629883,0.7921066880226135
1758614209902364000,3.686364013671875,1.0357166528701782,-9.733028411865234,0.749160647392273
1758614209912405200,3.6964052734375,0.9675567746162415,-9.769989013671875,0.7587375044822693
1758614209922447400,3.706447265625,0.9293243288993835,-9.786673545837402,0.7659949064254761
1758614209932488700,3.71648876953125,0.909572184085846,-9.777320861816406,0.7732523083686829
1758614209942529300,3.726529296875,0.9082254767417908,-9.808296203613281,0.764723002910614
1758614209952572000,3.736572021484375,0.9464578628540039,-9.793931007385254,0.747963547706604
1758614209962614800,3.74661474609375,0.9202712774276733,-9.777320861816406,0.7720552086830139
1758614209972654800,3.75665478515625,0.852410614490509,-9.749862670898438,0.7987655401229858
1758614209982695400,3.7666953125,0.8595932126045227,-9.748665809631348,0.7891887426376343
1758614209992737000,3.776737060546875,0.9347861409187317,-9.730783462524414,0.7686883807182312
1758614210002772500,3.7867724609375,1.0398317575454712,-9.705719947814941,0.7469161152839661
1758614210012822500,3.796822509765625,1.0572644472122192,-9.697489738464355,0.8077437877655029
1758614210022862000,3.806862060546875,1.0383353233337402,-9.692925453186035,0.8687211275100708
1758614210032902400,3.81690234375,1.0633996725082397,-9.703848838806152,0.8960300087928772
1758614210042945800,3.82694580078125,1.1003601551055908,-9.703774452209473,0.8743325471878052
1758614210052987000,3.83698681640625,1.1216834783554077,-9.72517204284668,0.8430582880973816
1758614210063029200,3.847029296875,1.1204116344451904,-9.731082916259766,0.8227823972702026
1758614210073069300,3.8570693359375,1.1014076471328735,-9.72509765625,0.8360252976417542
1758614210083112000,3.86711181640625,1.1014823913574219,-9.715744972229004,0.8694692850112915
1758614210093153800,3.87715380859375,1.0889877080917358,-9.725696563720703,0.9184008240699768
1758614210103194000,3.887194091796875,1.0509048700332642,-9.730709075927734,0.9745897054672241
1758614210113236000,3.897236083984375,1.0748469829559326,-9.738116264343262,1.0137947797775269
1758614210123278000,3.907278076171875,1.0890624523162842,-9.750012397766113,0.9981576800346375
1758614210133321700,3.91732177734375,1.086593508720398,-9.719710350036621,0.9124153256416321
1758614210143362300,3.9273623046875,1.1175684928894043,-9.709983825683594,0.8670002818107605
1758614210153400000,3.937400146484375,1.125948190689087,-9.718439102172852,0.8788964748382568
1758614210163445200,3.9474453125,1.1020809412002563,-9.73774242401123,0.9241618514060974
1758614210173485600,3.957485595703125,1.0818798542022705,-9.73430061340332,0.9600749015808105
1758614210183527200,3.967527099609375,1.054496169090271,-9.73557186126709,0.9912742972373962
1758614210193569500,3.977569580078125,1.050979733467102,-9.73093318939209,1.013944387435913
1758614210203610400,3.9876103515625,1.0688613653182983,-9.722329139709473,0.9662100076675415
1758614210213651700,3.997651611328125,1.0794856548309326,-9.712528228759766,0.9113678336143494
1758614210223695600,4.007695556640625,1.072303056716919,-9.71357536315918,0.8839093446731567
1758614210233736400,4.017736328125,1.0960206985473633,-9.738639831542969,0.876502275466919
1758614210243777000,4.027777099609375,1.103128433227539,-9.753080368041992,0.8847323656082153
1758614210253819600,4.037819580078125,1.1187655925750732,-9.747319221496582,0.9335890412330627
1758614210263861500,4.047861572265625,1.128491997718811,-9.692327499389648,0.9184008240699768
1758614210273901300,4.0579013671875,1.1404629945755005,-9.66958236694336,0.8993968367576599
1758614210283944700,4.06794482421875,1.1665748357772827,-9.68619155883789,0.87530517578125
1758614210293986000,4.077986083984375,1.1473463773727417,-9.71237850189209,0.8513631820678711
1758614210304033300,4.088033203125,1.1222072839736938,-9.726519584655762,0.8274959921836853
1758614210314069500,4.098069580078125,1.0994622707366943,-9.740659713745117,0.7989152073860168
1758614210324109800,4.10810986328125,1.086294174194336,-9.747842788696289,0.8037036061286926
1758614210334150000,4.11814990234375,1.0720038414001465,-9.747842788696289,0.8084920048713684
1758614210344193300,4.128193359375,1.0577133893966675,-9.738265991210938,0.8026561141014099
1758614210354238200,4.13823828125,1.0301800966262817,-9.750162124633789,0.7979425191879272
1758614210364277500,4.148277587890625,1.048136591911316,-9.744176864624023,0.7943512201309204
1758614210374317000,4.158317138671875,1.060032844543457,-9.742979049682617,0.7930793166160583
1758614210384359200,4.168359130859375,1.0601075887680054,-9.735871315002441,0.7979425191879272
1758614210394400800,4.17840087890625,1.0696096420288086,-9.738340377807617,0.8133552074432373
1758614210404440600,4.188440673828125,1.0636241436004639,-9.749039649963379,0.8061726093292236
1758614210414483500,4.1984833984375,1.0565162897109985,-9.741857528686523,0.8098387122154236
1758614210424523500,4.2085234375,1.048136591911316,-9.749039649963379,0.8133552074432373
1758614210434566700,4.218566650390625,1.0732009410858154,-9.750386238098145,0.8335562944412231
1758614210444608300,4.228608154296875,1.081580638885498,-9.75046157836914,0.8490437865257263
1758614210454652400,4.23865234375,1.0602573156356812,-9.730259895324707,0.8755296468734741
1758614210464691200,4.248691162109375,1.0854711532592773,-9.704148292541504,0.9029881358146667
1758614210474731300,4.258731201171875,1.1094132661819458,-9.706767082214355,0.9386767148971558
1758614210484775200,4.268775146484375,1.0832266807556152,-9.69846248626709,0.9543886780738831
1758614210494817000,4.278817138671875,1.1045500040054321,-9.694870948791504,0.9638906121253967
1758614210504859000,4.28885888671875,1.109338402748108,-9.690007209777832,0.9424176216125488
1758614210514899500,4.2988994140625,1.095047950744629,-9.679159164428711,0.9293991923332214
1758614210524940800,4.30894091796875,1.0651204586029053,-9.701904296875,0.9436895847320557
1758614210534983000,4.31898291015625,1.0937012434005737,-9.728240013122559,0.9493758082389832
1758614210545024500,4.3290244140625,1.0542716979980469,-9.7413330078125,0.954239010810852
1758614210555065900,4.33906591796875,1.0590602159500122,-9.751059532165527,0.9899275898933411
1758614210565106200,4.349106201171875,1.0580127239227295,-9.742829322814941,1.0138696432113647
1758614210575150000,4.359150146484375,1.0745476484298706,-9.737966537475586,1.009081244468689
1758614210585190100,4.369190185546875,1.103203296661377,-9.716418266296387,0.9911994934082031
1758614210595232800,4.379232666015625,1.0961703062057495,-9.690082550048828,0.9806500673294067
1758614210605273000,4.389273193359375,1.087790608406067,-9.687687873840332,0.978330671787262
1758614210615315000,4.39931494140625,1.06609308719635,-9.729212760925293,0.935160219669342
1758614210625359400,4.409359375,1.0648959875106812,-9.730484962463379,0.9399486184120178
1758614210635399000,4.41939892578125,1.0876408815383911,-9.709012031555176,0.938826322555542
1758614210645440000,4.42943994140625,1.1162965297698975,-9.699509620666504,0.9494506120681763
1758614210655482000,4.439482177734375,1.12968909740448,-9.734375,0.9742156267166138
1758614210665523500,4.4495234375,1.1344027519226074,-9.721132278442383,0.9480290412902832
1758614210675566000,4.459566162109375,1.1129297018051147,-9.707889556884766,0.9279028177261353
1758614210685605400,4.46960546875,1.0985645055770874,-9.719785690307617,0.9267057180404663
1758614210695650600,4.479650634765625,1.0842740535736084,-9.726967811584473,0.932691216468811
1758614210705689300,4.489689453125,1.0794109106063843,-9.729287147521973,0.9124153256416321
1758614210715732200,4.499732177734375,1.0662428140640259,-9.738789558410645,0.9064298272132874
1758614210725773300,4.509773193359375,1.06145441532135,-9.732728958129883,0.8910171389579773
1758614210735814700,4.519814697265625,1.0755202770233154,-9.738490104675293,0.8503156900405884
1758614210745857800,4.52985791015625,1.0719289779663086,-9.739612579345703,0.838419497013092
1758614210755896800,4.539896728515625,1.0814310312271118,-9.732280731201172,0.8133552074432373
1758614210765939000,4.54993896484375,1.0945991277694702,-9.72517204284668,0.8085668087005615
1758614210775981300,4.559981201171875,1.0636241436004639,-9.727566719055176,0.821809709072113
1758614210786022400,4.5700224609375,1.048136591911316,-9.731232643127441,0.8529343605041504
1758614210796065000,4.58006494140625,1.0504560470581055,-9.738415718078613,0.8492682576179504
1758614210806104600,4.5901044921875,1.0743231773376465,-9.733551979064941,0.8241291046142578
1758614210816147500,4.6001474609375,1.0769418478012085,-9.734824180603027,0.8109610080718994
1758614210826188800,4.610188720703125,1.0401309728622437,-9.71462345123291,0.844704270362854
1758614210836231000,4.62023095703125,1.0628011226654053,-9.718289375305176,0.8505401611328125
1758614210846271700,4.630271728515625,1.0997616052627563,-9.725471496582031,0.8503156900405884
1758614210856313300,4.640313232421875,1.0937761068344116,-9.731382369995117,0.8479214906692505
1758614210866354000,4.65035400390625,1.0889877080917358,-9.732579231262207,0.8455272912979126
1758614210876397600,4.6603974609375,1.1103858947753906,-9.738565444946289,0.83580082654953
1758614210886438100,4.670438232421875,1.0817302465438843,-9.75165843963623,0.8406640887260437
1758614210896481500,4.6804814453125,1.0675146579742432,-9.740959167480469,0.8551040887832642
1758614210906520800,4.690520751953125,1.065045714378357,-9.744550704956055,0.8503156900405884
1758614210916563200,4.700563232421875,1.0925041437149048,-9.739762306213379,0.8382698893547058
1758614210926605300,4.710605224609375,1.10926353931427,-9.71230411529541,0.8348281979560852
1758614210936646400,4.720646484375,1.0962450504302979,-9.69314956665039,0.8373720645904541
1758614210946688300,4.730688232421875,1.0854711532592773,-9.707515716552734,0.838569164276123
1758614210956731000,4.74073095703125,1.0937012434005737,-9.733701705932617,0.8323591947555542
1758614210966771200,4.750771240234375,1.0972177982330322,-9.755324363708496,0.8453028202056885
1758614210976813800,4.760813720703125,1.085097074508667,-9.738490104675293,0.8527098894119263
1758614210986853400,4.770853271484375,1.0779893398284912,-9.733777046203613,0.8682721853256226
1758614210996895200,4.780895263671875,1.0863690376281738,-9.721880912780762,0.87665194272995
1758614211006938000,4.790938232421875,1.0816553831100464,-9.71462345123291,0.8624363541603088
1758614211016978400,4.800978515625,1.0505307912826538,-9.726519584655762,0.860042154788971
1758614211027020500,4.8110205078125,1.0553191900253296,-9.730035781860352,0.8504653573036194
1758614211037062700,4.821062744140625,1.0648212432861328,-9.737217903137207,0.8515875935554504
1758614211047103500,4.831103515625,1.062352180480957,-9.749114036560059,0.838419497013092
1758614211057147600,4.841147705078125,1.0874165296554565,-9.749114036560059,0.8310872912406921
1758614211067161300,4.851161376953125,1.0826281309127808,-9.743054389953613,0.8144775032997131
1758614211077231000,4.861231201171875,1.0122984647750854,-9.733551979064941,0.844704270362854
1758614211087269600,4.87126953125,1.0146926641464233,-9.733551979064941,0.8494926691055298
1758614211097311700,4.881311767578125,1.043198585510254,-9.746570587158203,0.8146271109580994
1758614211107355600,4.891355712890625,1.0491840839385986,-9.747842788696289,0.8289175033569336
1758614211117396500,4.901396484375,1.058835744857788,-9.745673179626465,0.8598924875259399
1758614211127439400,4.911439453125,1.1076176166534424,-9.789965629577637,0.8772504925727844
1758614211137478400,4.921478515625,1.0910825729370117,-9.703699111938477,0.8111106157302856
1758614211147520000,4.93152001953125,1.0922049283981323,-9.736021041870117,0.8335562944412231
1758614211157563000,4.94156298828125,1.0421510934829712,-9.728913307189941,0.8565256595611572
1758614211167604700,4.951604736328125,1.045742392539978,-9.758915901184082,0.8897452354431152
1758614211177644500,4.96164453125,1.0610054731369019,-9.749189376831055,0.8813654780387878
1758614211187686700,4.971686767578125,1.094374656677246,-9.746794700622559,0.8693196773529053
1758614211197727700,4.981727783203125,1.1086649894714355,-9.736021041870117,0.8538321852684021
1758614211207771600,4.991771728515625,1.1242272853851318,-9.730110168457031,0.8693196773529053
1758614211217810700,5.001810791015625,1.1076923608779907,-9.711181640625,0.9029133319854736
1758614211227852000,5.01185205078125,1.0622773170471191,-9.730259895324707,0.9196727275848389
1758614211237894000,5.021893798828125,1.065868616104126,-9.732579231262207,0.9041104316711426
1758614211247936800,5.031936767578125,1.1099369525909424,-9.7181396484375,0.8598924875259399
1758614211257977900,5.041977783203125,1.1279683113098145,-9.725471496582031,0.8752303719520569
1758614211268018000,5.052017822265625,1.0599579811096191,-9.737367630004883,0.8946084380149841
1758614211278060000,5.06206005859375,1.0862194299697876,-9.761384963989258,0.9169792532920837
1758614211288103400,5.072103515625,1.0898107290267944,-9.751808166503906,0.9062801599502563
1758614211298143500,5.0821435546875,1.0492589473724365,-9.754277229309082,0.9267057180404663
1758614211308184600,5.0921845703125,1.0565162897109985,-9.735198020935059,0.9423428177833557
1758614211318227500,5.1022275390625,1.0384849309921265,-9.742156028747559,0.9041852355003357
1758614211328268500,5.1122685546875,1.0934020280838013,-9.732654571533203,0.8860790729522705
1758614211338310700,5.122310546875,1.0740987062454224,-9.742006301879883,0.8610895872116089
1758614211348351700,5.132351806640625,1.1300631761550903,-9.767070770263672,0.8487445116043091
1758614211358395600,5.142395751953125,1.131185531616211,-9.807847023010254,0.8854057192802429
1758614211368434400,5.152434326171875,1.096768856048584,-9.78061294555664,0.9478045701980591
1758614211378476000,5.16247607421875,0.9739163517951965,-9.767295837402344,0.9448866844177246
1758614211388518400,5.172518310546875,0.9834931492805481,-9.732429504394531,0.8925883173942566
1758614211398559200,5.182559326171875,1.000028133392334,-9.728389739990234,0.7851485013961792
1758614211408603100,5.19260302734375,1.0987889766693115,-9.738863945007324,0.7058405876159668
1758614211418643700,5.202643798828125,1.1269208192825317,-9.763704299926758,0.6888567209243774
1758614211428664300,5.212664306640625,1.1246014833450317,-9.793931007385254,0.7662941813468933
1758614211438726400,5.222726318359375,1.0937761068344116,-9.806500434875488,0.8940098881721497
1758614211448767700,5.232767822265625,1.0522516965866089,-9.7744779586792,0.9552865028381348
1758614211458808600,5.24280859375,0.9952397346496582,-9.730409622192383,0.9928455352783203
1758614211468850400,5.252850341796875,0.9808745384216309,-9.731457710266113,0.979752242565155
1758614211478894600,5.26289453125,1.033247709274292,-9.748066902160645,0.9316437244415283
1758614211488934000,5.272933837890625,1.0581623315811157,-9.750236511230469,0.8790461421012878
1758614211498977000,5.28297705078125,1.083974838256836,-9.74821662902832,0.895581066608429
1758614211509016600,5.2930166015625,1.1019313335418701,-9.753304481506348,0.9515455365180969
1758614211519060000,5.30306005859375,1.0878653526306152,-9.712827682495117,0.9876829981803894
1758614211529077200,5.3130771484375,1.0426000356674194,-9.681702613830566,0.9689783453941345
1758614211539142700,5.323142578125,1.0114754438400269,-9.67422103881836,0.9250596761703491
1758614211549184300,5.333184326171875,0.9706991314888,-9.726669311523438,0.9093477129936218
1758614211559224600,5.343224609375,0.9299977421760559,-9.773131370544434,0.9008932113647461
1758614211569266000,5.353265869140625,0.9155576825141907,-9.793257713317871,0.8721627593040466
1758614211579309300,5.363309326171875,0.9742156267166138,-9.78824520111084,0.8863783478736877
1758614211589350100,5.37335009765625,0.9564836025238037,-9.774104118347168,0.9378536939620972
1758614211599392800,5.383392822265625,0.8470984697341919,-9.736246109008789,1.0424504280090332
1758614211609433000,5.39343310546875,0.6743418574333191,-9.683648109436035,1.0734254121780396
1758614211619474200,5.40347412109375,0.4869955778121948,-9.685667991638184,1.0563666820526123
1758614211629516500,5.4135166015625,0.5622633099555969,-9.651102066040039,1.0527005195617676
1758614211639559000,5.423558837890625,0.5297171473503113,-9.668384552001953,0.9214683771133423
1758614211649599500,5.433599609375,0.526649534702301,-9.751059532165527,0.744297444820404
1758614211659642600,5.443642578125,0.6010194420814514,-9.7652006149292,0.6113444566726685
1758614211669683200,5.45368310546875,0.6448632478713989,-9.801936149597168,0.5416881442070007
1758614211679724500,5.463724609375,0.7116764783859253,-9.815179824829102,0.5544073581695557
1758614211689766700,5.4737666015625,0.6569091081619263,-9.805827140808105,0.6096236109733582
1758614211699808300,5.483808349609375,0.6119430065155029,-9.754725456237793,0.6769605278968811
1758614211709849900,5.493849853515625,0.6252607107162476,-9.727566719055176,0.7248445749282837
1758614211719891200,5.50389111328125,0.6134393811225891,-9.714473724365234,0.7452700734138489
1758614211729933800,5.513933837890625,0.5847089290618896,-9.75173282623291,0.7952490448951721
1758614211739975700,5.5239755859375,0.43432316184043884,-9.805377960205078,0.8277952671051025
1758614211750015500,5.534015380859375,0.5442319512367249,-9.80103874206543,0.8869768977165222
1758614211760056300,5.544056396484375,0.7317278981208801,-9.741632461547852,0.8961048126220703
1758614211770100000,5.554099853515625,0.6309469938278198,-9.89314079284668,0.8943091630935669
1758614211780140300,5.564140380859375,0.6394014954566956,-9.983596801757812,1.079859733581543
1758614211790182700,5.5741826171875,0.5219359993934631,-9.933168411254883,1.2978817224502563
1758614211800224300,5.584224365234375,0.9335890412330627,-9.65843391418457,1.4100351333618164
1758614211810267000,5.594266845703125,0.8809913992881775,-9.60404109954834,1.2841150760650635
1758614211820308200,5.60430810546875,0.9445874094963074,-9.637933731079102,1.1535563468933105
1758614211830348500,5.6143486328125,0.8044517636299133,-9.731532096862793,1.0426000356674194
1758614211840390400,5.624390380859375,0.6499509215354919,-9.816676139831543,0.9127146005630493
1758614211850432800,5.634432861328125,1.012597680091858,-9.783381462097168,0.8408136963844299
1758614211860473300,5.644473388671875,0.9071779847145081,-9.872490882873535,0.7763199210166931
1758614211870516000,5.654515869140625,0.7791630029678345,-10.017115592956543,0.848669707775116
1758614211880557600,5.6645576171875,1.3732242584228516,-9.919476509094238,1.220070242881775
1758614211890598700,5.6745986328125,1.130886197090149,-9.808370590209961,1.521515130996704
1758614211900637000,5.684636962890625,0.7409306168556213,-9.716793060302734,1.6599299907684326
1758614211910681000,5.69468115234375,0.8496423363685608,-9.586084365844727,1.5147066116333008
1758614211920723200,5.70472314453125,0.8439561128616333,-9.567154884338379,1.0541969537734985
1758614211930764300,5.714764404296875,1.0063128471374512,-9.651551246643066,0.6782324314117432
1758614211940807000,5.724806884765625,1.2180501222610474,-9.732429504394531,0.541837751865387
1758614211950848000,5.734847900390625,0.7835025191307068,-9.841889381408691,0.599223792552948
1758614211960891600,5.7448916015625,0.615683913230896,-9.868974685668945,0.8098387122154236
1758614211970932500,5.754932373046875,0.4837035536766052,-9.833660125732422,0.9574562311172485
1758614211980974000,5.76497412109375,-0.06150105595588684,-9.798120498657227,0.9267805218696594
1758614211991015200,5.77501513671875,-0.22700025141239166,-9.852140426635742,0.8317606449127197
1758614212001056500,5.785056396484375,0.2745101749897003,-9.80919361114502,0.9347861409187317
1758614212011096600,5.7950966796875,-0.3444657623767853,-9.741482734680176,0.9476549625396729
1758614212021140700,5.805140625,-0.08910919725894928,-9.512312889099121,1.1305869817733765
1758614212031183000,5.81518310546875,-0.6587047576904297,-9.365069389343262,1.2165536880493164
1758614212041222100,5.82522216796875,-0.7359925508499146,-9.324666976928711,1.2780548334121704
1758614212051264800,5.8352646484375,-0.4017769694328308,-9.270124435424805,1.2600983381271362
1758614212061306000,5.84530615234375,-0.34850597381591797,-9.282394409179688,1.0760440826416016
1758614212071348700,5.8553486328125,-0.3109469413757324,-9.18513011932373,0.8974515199661255
1758614212081389600,5.8653896484375,-0.1975216418504715,-9.19395923614502,0.9672574996948242
1758614212091431200,5.87543115234375,-0.4925321936607361,-9.111284255981445,1.2425159215927124
1758614212101473000,5.88547314453125,-0.6858639717102051,-8.939051628112793,1.48081374168396
1758614212111513300,5.895513427734375,-0.615833580493927,-8.709956169128418,1.4915876388549805
1758614212121556000,5.905555908203125,-0.5960813760757446,-8.655787467956543,1.1445780992507935
1758614212131597600,5.91559765625,-0.8393921256065369,-8.72873592376709,0.7407061457633972
1758614212141641000,5.925640869140625,-0.9983820915222168,-8.897077560424805,0.30114567279815674
1758614212151680800,5.9356806640625,-1.1909656524658203,-9.01327133178711,0.15569792687892914
1758614212161721300,5.945721435546875,-2.0665700435638428,-9.127744674682617,0.38209962844848633
1758614212171764700,5.9557646484375,-2.7760767936706543,-9.262417793273926,0.793827474117279
1758614212181804000,5.965803955078125,-2.601898670196533,-9.221641540527344,0.6990320682525635
1758614212191849200,5.97584912109375,-2.0144214630126953,-9.248651504516602,0.4263923466205597
1758614212201888500,5.985888427734375,-1.6460884809494019,-9.3265380859375,0.38479310274124146
1758614212211928800,5.9959287109375,-1.8101661205291748,-9.245733261108398,0.5185691118240356
1758614212221971700,6.0059716796875,-2.649259090423584,-9.177872657775879,0.7973439693450928
1758614212232013600,6.016013671875,-3.171494245529175,-9.192537307739258,0.8427590131759644
1758614212242053000,6.02605322265625,-3.4705450534820557,-9.202338218688965,0.48729485273361206
1758614212252097800,6.036097900390625,-3.1151556968688965,-9.290101051330566,0.010100538842380047
1758614212262139000,6.046138916015625,-3.146430015563965,-9.333869934082031,-0.06165069341659546
1758614212272179700,6.0561796875,-3.524414539337158,-9.227028846740723,0.43005847930908203
1758614212282222300,6.066222412109375,-3.6923828125,-8.877775192260742,1.099088191986084
1758614212292263000,6.076262939453125,-3.8965632915496826,-8.432378768920898,1.4048726558685303
1758614212302304000,6.086303955078125,-4.003629207611084,-8.069581985473633,1.4782699346542358
1758614212312345900,6.096345947265625,-4.220528602600098,-7.942988395690918,1.2545616626739502
1758614212322389000,6.106388916015625,-4.264522075653076,-8.04040241241455,0.9139865040779114
1758614212332430000,6.11643017578125,-4.108449935913086,-8.109684944152832,0.384194552898407
1758614212342472400,6.126472412109375,-4.011110782623291,-8.121805191040039,0.14978724718093872
1758614212352514300,6.136514404296875,-4.434286117553711,-8.041524887084961,0.2083703726530075
1758614212362554400,6.146554443359375,-4.901005744934082,-8.00336742401123,0.5998223423957825
1758614212372594700,6.1565947265625,-5.156960964202881,-7.856198787689209,0.6174795627593994
1758614212382637300,6.16663720703125,-5.355454921722412,-7.591489791870117,0.5020341873168945
1758614212392678400,6.176678466796875,-5.666177749633789,-7.271938800811768,0.16909049451351166
1758614212402720800,6.186720703125,-5.711069107055664,-6.9910688400268555,-0.11873743683099747
1758614212412762400,6.196762451171875,-5.890634059906006,-6.691269874572754,-0.3378817141056061
1758614212422803200,6.20680322265625,-6.131401062011719,-6.620416641235352,-0.34820669889450073
1758614212432847000,6.21684716796875,-6.623110294342041,-6.731372833251953,-0.22857144474983215
1758614212442888000,6.226887939453125,-6.321964263916016,-7.073145389556885,-0.00673369225114584
1758614212452928800,6.2369287109375,-5.9940338134765625,-7.499088764190674,0.08439560979604721
1758614212462972000,6.246971923828125,-5.808108806610107,-7.362993240356445,-0.22460605204105377
1758614212473011500,6.257011474609375,-6.079476833343506,-7.031171798706055,-0.3357119560241699
1758614212483053600,6.267053466796875,-6.584728240966797,-6.998176574707031,-0.10399813950061798
1758614212493094700,6.2770947265625,-6.784045219421387,-6.869114398956299,0.18300679326057434
1758614212503137300,6.28713720703125,-6.706757545471191,-6.812326908111572,0.5207388401031494
1758614212513180000,6.297179931640625,-6.756811141967773,-6.841431140899658,0.623390257358551
1758614212523221000,6.307220947265625,-6.793248176574707,-6.807388782501221,0.26223990321159363
1758614212533262300,6.317262451171875,-7.014038562774658,-7.0569844245910645,0.08140286058187485
1758614212543303000,6.327302978515625,-7.326107501983643,-7.2066969871521,0.02214636653661728
1758614212553343700,6.33734375,-7.394641399383545,-7.258471488952637,-0.10317512601613998
1758614212563387400,6.347387451171875,-7.148188591003418,-7.300145626068115,0.30945056676864624
1758614212573428500,6.357428466796875,-7.757662296295166,-6.959345817565918,0.37663784623146057
1758614212583469300,6.36746923828125,-7.8332295417785645,-6.544775009155273,0.599373459815979
1758614212593513000,6.377512939453125,-8.217124938964844,-5.9735331535339355,0.3544166684150696
1758614212603555000,6.38755517578125,-7.722497463226318,-5.7230401039123535,0.259471595287323
1758614212613595100,6.39759521484375,-7.758934497833252,-5.470227241516113,0.09195230901241302
1758614212623635500,6.407635498046875,-8.176572799682617,-5.556044101715088,0.18876783549785614
1758614212633677000,6.417677001953125,-8.264260292053223,-5.725508689880371,0.19879356026649475
1758614212643719400,6.427719482421875,-8.101604461669922,-5.876867294311523,0.08125322312116623
1758614212653761000,6.437760986328125,-8.326659202575684,-5.7089738845825195,0.0022445640061050653
1758614212663803600,6.4478037109375,-8.341174125671387,-5.073687553405762,-0.016086041927337646
1758614212673844500,6.457844482421875,-8.204180717468262,-4.9147725105285645,0.17889176309108734
1758614212683884800,6.467884765625,-7.949347972869873,-4.621856689453125,0.02214636653661728
1758614212693926100,6.477926025390625,-8.054543495178223,-4.434959411621094,0.16467618942260742
1758614212703969500,6.487969482421875,-8.600420951843262,-4.2597336769104,0.142155721783638
1758614212714014500,6.498014404296875,-8.735544204711914,-4.062586307525635,0.6261585354804993
1758614212724056300,6.508056396484375,-8.209118843078613,-3.9894134998321533,0.6516717672348022
1758614212734095600,6.518095703125,-8.056937217712402,-3.7539587020874023,0.5606921315193176
1758614212744110600,6.528110595703125,-8.42123031616211,-3.787402629852295,0.42010757327079773
1758614212754151700,6.538151611328125,-8.658106803894043,-3.707645893096924,0.547075092792511
1758614212764195600,6.548195556640625,-8.33481502532959,-3.6225767135620117,0.3910030722618103
1758614212774236000,6.55823583984375,-8.271891593933105,-3.4706199169158936,0.5456535220146179
1758614212784300800,6.56830078125,-8.678906440734863,-3.450418710708618,0.4474164545536041
1758614212794343400,6.578343505859375,-9.049259185791016,-2.915539026260376,0.2928408086299896
1758614212804385800,6.5883857421875,-9.216704368591309,-2.7160720825195312,0.320000022649765
1758614212814427600,6.598427734375,-9.245808601379395,-2.5154082775115967,0.3214963972568512
1758614212824468500,6.608468505859375,-9.540669441223145,-2.622922897338867,0.4140472710132599
1758614212834509000,6.618509033203125,-9.656713485717773,-2.6570401191711426,0.34513914585113525
1758614212844553700,6.6285537109375,-9.628955841064453,-2.727220296859741,0.03546411171555519
1758614212854594300,6.63859423828125,-10.218228340148926,-2.497152328491211,0.2819920778274536
1758614212864633900,6.6486337890625,-9.90810489654541,-2.389338493347168,0.6189759373664856
1758614212874676200,6.65867626953125,-10.345794677734375,-2.1722142696380615,0.09270049631595612
1758614212884718000,6.668718017578125,-10.288333892822266,-1.6674866676330566,-0.08910919725894928
1758614212894759700,6.678759765625,-10.521918296813965,-1.3908815383911133,-0.4453963339328766
1758614212904801800,6.6888017578125,-10.7442045211792,-1.3647698163986206,-0.08858546614646912
1758614212914842400,6.69884228515625,-10.802712440490723,-1.374122142791748,-0.11103110015392303
1758614212924885200,6.70888525390625,-10.599953651428223,-1.4005331993103027,-0.6479308605194092
1758614212934925000,6.718925048828125,-10.746747970581055,-1.1823616027832031,-1.0240449905395508
1758614212944968000,6.728968017578125,-10.972926139831543,-0.9087491631507874,-1.2479028701782227
1758614212955009000,6.739009033203125,-10.931401252746582,-0.6877344250679016,-1.301547884941101
1758614212965050600,6.749050537109375,-10.878205299377441,-0.5604676604270935,-1.2125883102416992
1758614212975093200,6.75909326171875,-10.771139144897461,-0.5000888705253601,-0.8916904926300049
1758614212985134000,6.769134033203125,-10.614992141723633,-0.5517886877059937,-0.8712649345397949
1758614212995174700,6.779174560546875,-10.415301322937012,-0.6455366611480713,-1.0411036014556885
1758614213005217500,6.789217529296875,-10.203863143920898,-0.4801870882511139,-1.2235866785049438
1758614213015258400,6.79925830078125,-10.109441757202148,-0.3363105058670044,-1.3745710849761963
1758614213025300500,6.809300537109375,-9.9610013961792,-0.19797055423259735,-1.3838485479354858
1758614213035340500,6.819340576171875,-10.109665870666504,-0.2959831953048706,-1.2752116918563843
1758614213045385200,6.82938525390625,-10.320206642150879,-0.49066171050071716,-1.2003928422927856
1758614213055425500,6.839425537109375,-10.312050819396973,-0.6034136414527893,-1.1009587049484253
1758614213065466600,6.849466552734375,-10.234688758850098,-0.7643488645553589,-0.9329156279563904
1758614213075507500,6.859507568359375,-10.130764961242676,-0.7611317038536072,-0.8749310970306396
1758614213085549600,6.869549560546875,-10.21800422668457,-0.8678981065750122,-0.7535001635551453
1758614213095590400,6.87959033203125,-10.221894264221191,-1.0223989486694336,-0.6566846370697021
1758614213105633500,6.889633544921875,-10.14445686340332,-1.0570400953292847,-0.6667851805686951
1758614213115673900,6.899673828125,-10.049885749816895,-1.1971756219863892,-0.6753893494606018
1758614213125717000,6.909717041015625,-10.019434928894043,-1.3608791828155518,-0.6647650599479675
1758614213135758800,6.9197587890625,-10.014945983886719,-1.4408605098724365,-0.6688801050186157
1758614213145799000,6.929798828125,-9.98067855834961,-1.5509189367294312,-0.6351368427276611
1758614213155840000,6.939840087890625,-10.118419647216797,-1.7156699895858765,-0.6010194420814514
1758614213165883400,6.94988330078125,-10.013374328613281,-1.7111060619354248,-0.5919663906097412
1758614213175924000,6.959924072265625,-10.059612274169922,-1.6178070306777954,-0.6090250611305237
1758614213185966600,6.969966552734375,-10.112210273742676,-1.5970821380615234,-0.6766612529754639
1758614213196006400,6.98000634765625,-10.080711364746094,-1.6239421367645264,-0.7807341814041138
1758614213206049000,6.990049072265625,-10.018013000488281,-1.7504607439041138,-0.8129063248634338
1758614213216091000,7.0000908203125,-9.974393844604492,-1.9634698629379272,-0.7178863883018494
1758614213226133000,7.010133056640625,-9.8576021194458,-2.101884603500366,-0.534355878829956
1758614213236173300,7.02017333984375,-9.837100982666016,-2.1600935459136963,-0.35351884365081787
1758614213246214700,7.030214599609375,-9.675567626953125,-2.1229088306427,-0.19048866629600525
1758614213256259300,7.04025927734375,-9.796699523925781,-2.431910276412964,0.054991818964481354
1758614213266300000,7.0502998046875,-9.3898344039917,-2.7889456748962402,0.6711995005607605
1758614213276340500,7.060340576171875,-9.223886489868164,-2.1885247230529785,1.4024035930633545
1758614213286382600,7.070382568359375,-8.947805404663086,-0.9642647504806519,1.251793384552002
1758614213296425500,7.080425537109375,-9.27723217010498,-0.7764695286750793,0.2868552803993225
1758614213306464500,7.090464599609375,-10.09133529663086,-1.3720271587371826,-0.0355389304459095
1758614213316507100,7.100507080078125,-10.301501274108887,-1.4532055854797363,0.03763385862112045
1758614213326548000,7.1105478515625,-9.93818187713623,-1.1434557437896729,-0.18629881739616394
1758614213336589000,7.120589111328125,-9.662099838256836,-0.8271218538284302,-0.5004629492759705
1758614213346632000,7.1306318359375,-9.779191970825195,-0.6808511018753052,-0.8343044519424438
1758614213356674600,7.140674560546875,-9.739089012145996,-0.5517886877059937,-0.9088240265846252
1758614213366713900,7.1507138671875,-9.725321769714355,-0.43768998980522156,-0.7983166575431824
1758614213376757200,7.16075732421875,-9.838298797607422,-0.4828057289123535,-0.5642085671424866
1758614213386797300,7.17079736328125,-9.911171913146973,-0.62458735704422,-0.36077627539634705
1758614213396838700,7.180838623046875,-9.794304847717285,-0.7173627018928528,-0.22827216982841492
1758614213406881500,7.190881591796875,-9.608979225158691,-0.6607996821403503,-0.11776479333639145
1758614213416921600,7.200921630859375,-9.5809965133667,-0.5585223436355591,-0.0504278726875782
1758614213426965000,7.210965087890625,-9.574711799621582,-0.48460137844085693,-0.020126258954405785
1758614213437008100,7.221008056640625,-9.577330589294434,-0.4174140989780426,-0.05776011571288109
1758614213447047200,7.231047119140625,-9.679906845092773,-0.3884592354297638,-0.08933365345001221
1758614213457090000,7.241090087890625,-9.715670585632324,-0.34267011284828186,-0.15809212625026703
1758614213467129600,7.251129638671875,-9.773056983947754,-0.27383682131767273,-0.30533552169799805
1758614213477171500,7.26117138671875,-9.766098022460938,-0.23119010031223297,-0.49238255620002747
1758614213487214000,7.271214111328125,-9.747319221496582,-0.22333413362503052,-0.6416460275650024
1758614213497254100,7.281254150390625,-9.745298385620117,-0.26583120226860046,-0.7314286231994629
1758614213507298800,7.291298828125,-9.801562309265137,-0.3074304759502411,-0.7636755108833313
1758614213517340700,7.301340576171875,-9.914763450622559,-0.35404258966445923,-0.7455693483352661
1758614213527378700,7.311378662109375,-9.929502487182617,-0.4530278444290161,-0.7652466893196106
1758614213537421300,7.32142138671875,-9.885583877563477,-0.47659578919410706,-0.8336310982704163
1758614213547462700,7.331462646484375,-9.80216121673584,-0.4836287498474121,-0.8901193141937256
1758614213557504800,7.3415048828125,-9.796549797058105,-0.49140989780426025,-1.0203039646148682
1758614213567547000,7.351546875,-9.752631187438965,-0.48602294921875,-1.156474232673645
1758614213577587500,7.36158740234375,-9.725471496582031,-0.5226841568946838,-1.2284499406814575
1758614213587630000,7.371630126953125,-9.753154754638672,-0.5751321315765381,-1.2513444423675537
1758614213597671400,7.38167138671875,-9.763031005859375,-0.6072294116020203,-1.2658593654632568
1758614213607713800,7.3917138671875,-9.809642791748047,-0.6117185354232788,-1.3085808753967285
1758614213617754400,7.40175439453125,-9.838298797607422,-0.6091746687889099,-1.3334954977035522
1758614213627795700,7.411795654296875,-9.875333786010742,-0.6067056655883789,-1.3404536247253418
1758614213637839600,7.421839599609375,-9.902717590332031,-0.5959317684173584,-1.3367127180099487
1758614213647878000,7.4318779296875,-9.914763450622559,-0.6389525532722473,-1.3262381553649902
1758614213657920800,7.441920654296875,-9.82759952545166,-0.6223428249359131,-1.3288567066192627
1758614213667963000,7.451962890625,-9.844209671020508,-0.6116437315940857,-1.3060370683670044
1758614213678004700,7.462004638671875,-9.821314811706543,-0.6238391995429993,-1.2967594861984253
1758614213688044800,7.472044921875,-9.756746292114258,-0.5880758166313171,-1.2908488512039185
1758614213698089500,7.48208935546875,-9.753080368041992,-0.5954828262329102,-1.2550854682922363
1758614213708128800,7.492128662109375,-9.71013355255127,-0.5954828262329102,-1.2612205743789673
1758614213718172200,7.502172119140625,-9.670853614807129,-0.6038625836372375,-1.272218942642212
1758614213728210700,7.512210693359375,-9.674520492553711,-0.6301987767219543,-1.2544869184494019
1758614213738253600,7.522253662109375,-9.6757173538208,-0.6468833684921265,-1.2617442607879639
1758614213748293600,7.532293701171875,-9.671003341674805,-0.6517465710639954,-1.2486510276794434
1758614213758337500,7.542337646484375,-9.69150447845459,-0.6601263284683228,-1.2045079469680786
1758614213768377900,7.5523779296875,-9.7413330078125,-0.6099976897239685,-1.1872247457504272
1758614213778421500,7.56242138671875,-9.773505210876465,-0.5884498953819275,-1.1905168294906616
1758614213788460500,7.57246044921875,-9.778443336486816,-0.6049848198890686,-1.2215665578842163
1758614213798503000,7.5825029296875,-9.765275001525879,-0.5834370255470276,-1.2394483089447021
1758614213808544800,7.592544677734375,-9.77253246307373,-0.5964555144309998,-1.269300937652588
1758614213818586400,7.60258642578125,-9.73317813873291,-0.5915922522544861,-1.2933177947998047
1758614213828593000,7.612593017578125,-9.723751068115234,-0.6129156351089478,-1.328108549118042
1758614213838669600,7.622669677734375,-9.751059532165527,-0.5938368439674377,-1.3349919319152832
1758614213848713200,7.632713134765625,-9.711705207824707,-0.5998223423957825,-1.3459903001785278
1758614213858752500,7.64275244140625,-9.698686599731445,-0.6188263297080994,-1.3593080043792725
1758614213868796000,7.6527958984375,-9.678336143493652,-0.606930136680603,-1.3652935028076172
1758614213878837000,7.6628369140625,-9.716493606567383,-0.6104466319084167,-1.3555670976638794
1758614213888878600,7.672878662109375,-9.755997657775879,-0.6367080211639404,-1.3448679447174072
1758614213898919000,7.6829189453125,-9.781062126159668,-0.6558616161346436,-1.3364882469177246
1758614213908960000,7.6929599609375,-9.82991886138916,-0.6631190776824951,-1.3005003929138184
1758614213919001300,7.70300146484375,-9.824906349182129,-0.6273556351661682,-1.2979565858840942
1758614213929018600,7.7130185546875,-9.789067268371582,-0.6226420998573303,-1.2957119941711426
1758614213939086000,7.723086181640625,-9.714997291564941,-0.6145616769790649,-1.2708722352981567
1758614213949127700,7.733127685546875,-9.669732093811035,-0.6421697735786438,-1.2414684295654297
1758614213959167200,7.743167236328125,-9.662549018859863,-0.6614730358123779,-1.2070517539978027
1758614213969209900,7.7532099609375,-9.674370765686035,-0.6640917062759399,-1.1580454111099243
1758614213979251000,7.7632509765625,-9.715970039367676,-0.6403741240501404,-1.1076176166534424
1758614213989295000,7.773295166015625,-9.749263763427734,-0.6346130967140198,-1.0584616661071777
1758614213999334700,7.783334716796875,-9.75861644744873,-0.634912371635437,-0.9880571365356445
1758614214009377000,7.793376953125,-9.739537239074707,-0.6469581723213196,-0.9715221524238586
1758614214019417900,7.80341796875,-9.701305389404297,-0.6388029456138611,-0.9441384673118591
1758614214029461000,7.8134609375,-9.658284187316895,-0.6377554535865784,-0.9264812469482422
1758614214039502600,7.823502685546875,-9.62716007232666,-0.623539924621582,-0.9074024558067322
1758614214049543000,7.83354296875,-9.596110343933105,-0.6201730370521545,-0.8729109764099121
1758614214059584000,7.843583984375,-9.59715747833252,-0.6108207106590271,-0.8406640887260437
1758614214069628000,7.8536279296875,-9.604265213012695,-0.6132897138595581,-0.8132055997848511
1758614214079668700,7.863668701171875,-9.614066123962402,-0.6180781126022339,-0.7868693470954895
1758614214089708000,7.8737080078125,-9.620126724243164,-0.6239888072013855,-0.8024316430091858
1758614214099751400,7.88375146484375,-9.616535186767578,-0.6215946078300476,-0.8000374436378479
1758614214109793300,7.893793212890625,-9.617657661437988,-0.6084265112876892,-0.8046762347221375
1758614214119834400,7.90383447265625,-9.618854522705078,-0.6120926141738892,-0.7844751477241516
1758614214129875500,7.91387548828125,-9.644967079162598,-0.5833622217178345,-0.7936778664588928
1758614214139916800,7.923916748046875,-9.66531753540039,-0.574907660484314,-0.8114098906517029
1758614214149958700,7.933958740234375,-9.66763687133789,-0.5461024641990662,-0.8434323668479919
1758614214160001000,7.9440009765625,-9.67003059387207,-0.5351788997650146,-0.8779986500740051
1758614214170041000,7.954041015625,-9.674894332885742,-0.5326350331306458,-0.9065794348716736
1758614214180085800,7.964085693359375,-9.657012939453125,-0.5206640362739563,-0.9244611263275146
1758614214190125300,7.974125244140625,-9.653421401977539,-0.5132569670677185,-0.9638158082962036
1758614214200169000,7.9841689453125,-9.643918991088867,-0.5036801695823669,-0.9793033003807068
1758614214210208500,7.99420849609375,-9.666589736938477,-0.4976198673248291,-0.9982324838638306
1758614214220249300,8.004249267578125,-9.700033187866211,-0.5070470571517944,-1.0041431188583374
1758614214230292200,8.014292236328124,-9.720383644104004,-0.5081692934036255,-1.0183587074279785
1758614214240334600,8.02433447265625,-9.743802070617676,-0.49619829654693604,-1.0480618476867676
1758614214250373600,8.03437353515625,-9.727117538452148,-0.4866214990615845,-1.0659434795379639
1758614214260415000,8.0444150390625,-9.727267265319824,-0.5080196857452393,-1.082777738571167
1758614214270457600,8.05445751953125,-9.717690467834473,-0.5224596858024597,-1.065045714378357
1758614214280500000,8.0645,-9.708189010620117,-0.5487959384918213,-1.0473884344100952
1758614214290542800,8.07454296875,-9.696292877197266,-0.5523872375488281,-1.0545710325241089
1758614214300582000,8.084581787109375,-9.706991195678711,-0.5536591410636902,-1.0330979824066162
1758614214310624000,8.0946240234375,-9.712902069091797,-0.5441571474075317,-1.0162638425827026
1758614214320664600,8.10466455078125,-9.721282005310059,-0.5477484464645386,-1.010278344154358
1758614214330708500,8.11470849609375,-9.702128410339355,-0.5514145493507385,-0.9972598552703857
1758614214340748300,8.124748291015624,-9.681927680969238,-0.5657798051834106,-0.9962871670722961
1758614214350791000,8.134791015625,-9.675941467285156,-0.5562030076980591,-1.0081833600997925
1758614214360832500,8.14483251953125,-9.658060073852539,-0.558597207069397,-1.0106524229049683
1758614214370874400,8.154874267578125,-9.660453796386719,-0.5645078420639038,-1.0202292203903198
1758614214380915700,8.164915771484376,-9.663970947265625,-0.5454290509223938,-1.0164883136749268
1758614214390956300,8.174956298828125,-9.674744606018066,-0.5285948514938354,-1.0354174375534058
1758614214400996900,8.184996826171876,-9.704597473144531,-0.5057750940322876,-1.0446949005126953
1758614214411039200,8.195039306640625,-9.702278137207031,-0.4900631606578827,-1.0851719379425049
1758614214421082000,8.20508203125,-9.701081275939941,-0.4911854565143585,-1.0959458351135254
1758614214431123200,8.215123291015624,-9.69165325164795,-0.5234323740005493,-1.108141303062439
1758614214441163500,8.22516357421875,-9.691802978515625,-0.5388450026512146,-1.1225064992904663
1758614214451205400,8.235205322265625,-9.701379776000977,-0.5579237937927246,-1.124975562095642
1758614214461248500,8.24524853515625,-9.697789192199707,-0.5675754547119141,-1.1131541728973389
1758614214471289900,8.255289794921875,-9.713425636291504,-0.5829881429672241,-1.1191396713256836
1758614214481332700,8.265332763671875,-9.697789192199707,-0.5496188998222351,-1.1225813627243042
1758614214491373300,8.275373291015624,-9.701455116271973,-0.5530605912208557,-1.1452513933181763
1758614214501414000,8.285413818359375,-9.678784370422363,-0.547075092792511,-1.1632078886032104
1758614214511455000,8.295455078125,-9.672799110412598,-0.5434837937355042,-1.1608136892318726
1758614214521497600,8.30549755859375,-9.662099838256836,-0.5602431893348694,-1.1586439609527588
1758614214531539200,8.315539306640625,-9.665616989135742,-0.5591208934783936,-1.1418845653533936
1758614214541580300,8.325580322265624,-9.671602249145508,-0.5591957569122314,-1.1275193691253662
1758614214551623700,8.335623779296874,-9.68230152130127,-0.5628618597984314,-1.1048492193222046
1758614214561663700,8.345663818359375,-9.697564125061035,-0.5545569658279419,-1.0975918769836426
1758614214571704800,8.355704833984374,-9.713051795959473,-0.5485714673995972,-1.092653751373291
1758614214581748200,8.365748291015626,-9.716567993164062,-0.5390694737434387,-1.0818798542022705
1758614214591788800,8.375788818359375,-9.698686599731445,-0.5427355766296387,-1.0688613653182983
1758614214601829000,8.3858291015625,-9.684321403503418,-0.5307645797729492,-1.0747721195220947
1758614214611870500,8.395870361328125,-9.683198928833008,-0.536750078201294,-1.0796353816986084
1758614214621914000,8.4059140625,-9.686790466308594,-0.5511152744293213,-1.0677391290664673
1758614214631954200,8.4159541015625,-9.69389820098877,-0.5427355766296387,-1.0688613653182983
1758614214641997000,8.4259970703125,-9.69270133972168,-0.5368249416351318,-1.0664671659469604
1758614214652039400,8.436039306640625,-9.699809074401855,-0.5176712870597839,-1.0627262592315674
1758614214662081000,8.4460810546875,-9.69038200378418,-0.49133509397506714,-1.0577882528305054
1758614214672121000,8.45612109375,-9.684471130371094,-0.5009118914604187,-1.053074598312378
1758614214682163000,8.466162841796875,-9.69397258758545,-0.497395396232605,-1.0458920001983643
1758614214692204300,8.476204345703126,-9.713126182556152,-0.4961234927177429,-1.0517278909683228
1758614214702247000,8.486246826171875,-9.716717720031738,-0.5163993835449219,-1.0542716979980469
1758614214712287500,8.49628759765625,-9.719186782836914,-0.5187187790870667,-1.0685621500015259
1758614214722328000,8.506328125,-9.6989107131958,-0.5211129784584045,-1.0710312128067017
1758614214732369700,8.51636962890625,-9.695320129394531,-0.5235071778297424,-1.0770914554595947
1758614214742412500,8.52641259765625,-9.68342399597168,-0.5307645797729492,-1.0628758668899536
1758614214752456200,8.536456298828124,-9.690531730651855,-0.5080196857452393,-1.0746225118637085
1758614214762494500,8.546494384765625,-9.72502326965332,-0.4924573600292206,-1.0731260776519775
1758614214772537900,8.556537841796874,-9.740585327148438,-0.4887164235115051,-1.0909329652786255
1758614214782578200,8.566578125,-9.707290649414062,-0.5210381746292114,-1.0805331468582153
1758614214792619500,8.57661962890625,-9.672724723815918,-0.529417872428894,-1.0867431163787842
1758614214802661600,8.58666162109375,-9.65604019165039,-0.513855516910553,-1.1106103658676147
1758614214812704300,8.596704345703126,-9.634417533874512,-0.48400282859802246,-1.108066439628601
1758614214822743600,8.60674365234375,-9.655740737915039,-0.47330373525619507,-1.1103110313415527
1758614214832784600,8.61678466796875,-9.680879592895508,-0.49709612131118774,-1.1127800941467285
1758614214842829300,8.626829345703126,-9.69157886505127,-0.49477675557136536,-1.1019313335418701
1758614214852870400,8.636870361328125,-9.69389820098877,-0.48400282859802246,-1.1018564701080322
1758614214862910500,8.646910400390626,-9.69509506225586,-0.48400282859802246,-1.1030535697937012
1758614214872952600,8.65695263671875,-9.69277572631836,-0.4911854565143585,-1.105522632598877
1758614214882994700,8.66699462890625,-9.681927680969238,-0.4709095358848572,-1.0994622707366943
1758614214893035500,8.677035400390626,-9.644891738891602,-0.45190557837486267,-1.0887632369995117
1758614214903077000,8.6870771484375,-9.653495788574219,-0.4614075720310211,-1.0779893398284912
1758614214913119000,8.697118896484374,-9.651176452636719,-0.4769698679447174,-1.0685621500015259
1758614214923161300,8.707161376953126,-9.658284187316895,-0.4817582666873932,-1.0602573156356812
1758614214933201200,8.717201171875,-9.664270401000977,-0.47465047240257263,-1.0529998540878296
1758614214943245600,8.72724560546875,-9.682151794433594,-0.4925321936607361,-1.0434978008270264
1758614214953286000,8.737285888671876,-9.707290649414062,-0.5128828883171082,-1.026813268661499
1758614214963328000,8.747327880859375,-9.717989921569824,-0.5092915892601013,-1.0362404584884644
1758614214973369600,8.75736962890625,-9.698836326599121,-0.4866214990615845,-1.0326491594314575
1758614214983409700,8.76740966796875,-9.679458618164062,-0.489165335893631,-1.0363152027130127
1758614214993451300,8.777451171875,-9.684247016906738,-0.4999392330646515,-1.026813268661499
1758614215003491600,8.78749169921875,-9.69741439819336,-0.49874213337898254,-1.02561616897583
1758614215013535000,8.797534912109375,-9.701005935668945,-0.49866732954978943,-1.029132604598999
1758614215023576300,8.807576416015625,-9.727192878723145,-0.49627313017845154,-1.0349684953689575
1758614215033617000,8.817616943359376,-9.724947929382324,-0.5104886889457703,-1.0529998540878296
1758614215043659500,8.827659423828125,-9.742829322814941,-0.514005184173584,-1.0625017881393433
1758614215053703200,8.837703125,-9.740509986877441,-0.5223100781440735,-1.069684386253357
1758614215063742200,8.8477421875,-9.715520858764648,-0.5282207727432251,-1.087715744972229
1758614215073783300,8.857783203125,-9.714323997497559,-0.5342810750007629,-1.0818051099777222
1758614215083826000,8.867825927734375,-9.717915534973145,-0.5389946699142456,-1.0806827545166016
1758614215093867800,8.87786767578125,-9.702352523803711,-0.5199158787727356,-1.0830022096633911
1758614215103908900,8.887908935546875,-9.707140922546387,-0.5127332806587219,-1.08651864528656
1758614215113949700,8.89794970703125,-9.7035493850708,-0.5175216794013977,-1.0841244459152222
1758614215123993900,8.907993896484374,-9.676091194152832,-0.5247790813446045,-1.0771663188934326
1758614215134037200,8.918037353515626,-9.697564125061035,-0.5308393836021423,-1.048435926437378
1758614215144077800,8.928077880859375,-9.700706481933594,-0.538171648979187,-1.0473135709762573
1758614215154116400,8.938116455078125,-9.716119766235352,-0.5179705619812012,-1.026888132095337
1758614215164157700,8.94815771484375,-9.713650703430176,-0.5048772692680359,-1.0136451721191406
1758614215174199600,8.958199462890626,-9.727940559387207,-0.5121347308158875,-0.9992799162864685
1758614215184245500,8.96824560546875,-9.693299293518066,-0.4894646108150482,-1.006462574005127
1758614215194284000,8.978283935546875,-9.677812576293945,-0.4919336438179016,-0.9910498857498169
1758614215204324400,8.988324462890626,-9.64676284790039,-0.4811597168445587,-1.0042928457260132
1758614215214366000,8.998365966796875,-9.633519172668457,-0.46694415807724,-0.9827449917793274
1758614215224407000,9.008406982421874,-9.656488418579102,-0.4679167866706848,-0.9933692216873169
1758614215234448400,9.018448486328126,-9.681628227233887,-0.4834791123867035,-0.9861866235733032
1758614215244490500,9.028490478515625,-9.685218811035156,-0.4917091727256775,-1.0029460191726685
1758614215254531300,9.03853125,-9.670928955078125,-0.4857984781265259,-1.0005518198013306
1758614215264573400,9.048573486328126,-9.723451614379883,-0.5048772692680359,-0.9980828166007996
1758614215274614300,9.0586142578125,-9.688885688781738,-0.5024082660675049,-1.0173112154006958
1758614215284657000,9.068656982421874,-9.672125816345215,-0.47494974732398987,-1.0183587074279785
1758614215294699300,9.07869921875,-9.650652885437012,-0.47734397649765015,-1.0209025144577026
1758614215304740600,9.08874072265625,-9.648932456970215,-0.4692635238170624,-1.0077344179153442
1758614215314782500,9.098782470703124,-9.662025451660156,-0.4572925269603729,-1.0135703086853027
1758614215324824000,9.108823974609376,-9.675193786621094,-0.46080902218818665,-1.0159645080566406
1758614215334864000,9.11886376953125,-9.697863578796387,-0.45355159044265747,-1.027711033821106
1758614215344905700,9.12890576171875,-9.68701457977295,-0.43207859992980957,-1.0312275886535645
1758614215354947300,9.138947265625,-9.688286781311035,-0.4487631916999817,-1.0313023328781128
1758614215364989200,9.1489892578125,-9.688286781311035,-0.45355159044265747,-1.0301052331924438
1758614215375030300,9.1590302734375,-9.6942720413208,-0.4486883580684662,-1.042001485824585
1758614215385073000,9.169072998046875,-9.707963943481445,-0.4340986907482147,-1.0513538122177124
1758614215395114800,9.17911474609375,-9.703250885009766,-0.45325231552124023,-1.044320821762085
1758614215405155300,9.1891552734375,-9.699584007263184,-0.43529579043388367,-1.0526257753372192
1758614215415197700,9.19919775390625,-9.67811107635498,-0.43776482343673706,-1.043198585510254
1758614215425240000,9.209239990234375,-9.648333549499512,-0.4438251256942749,-1.0397568941116333
1758614215435280100,9.219280029296876,-9.622072219848633,-0.4438251256942749,-1.044620156288147
1758614215445322200,9.229322265625,-9.632845878601074,-0.4545990526676178,-1.031526803970337
1758614215455362300,9.2393623046875,-9.657835960388184,-0.4654477834701538,-1.0088567733764648
1758614215465403600,9.249403564453125,-9.696292877197266,-0.47487494349479675,-0.9920225143432617
1758614215475446800,9.25944677734375,-9.72502326965332,-0.4867711365222931,-0.9895535111427307
1758614215485489000,9.269489013671874,-9.753828048706055,-0.5345055460929871,-0.9909002184867859
1758614215495530000,9.279530029296875,-9.750611305236816,-0.6071546077728271,-1.033172845840454
1758614215505570800,9.28957080078125,-9.713800430297852,-0.6488286852836609,-1.0706570148468018
1758614215515612700,9.29961279296875,-9.66150188446045,-0.6821978688240051,-1.1009587049484253
1758614215525655000,9.309655029296875,-9.59835433959961,-0.688108503818512,-1.1227309703826904
1758614215535696600,9.319696533203125,-9.569549560546875,-0.6548141837120056,-1.109562873840332
1758614215545737000,9.329737060546876,-9.604265213012695,-0.6117933392524719,-1.0851719379425049
1758614215555777800,9.33977783203125,-9.66494369506836,-0.5987749099731445,-1.0394576787948608
1758614215565821400,9.349821533203125,-9.738863945007324,-0.6059575080871582,-1.0057891607284546
1758614215575861200,9.359861328125,-9.845107078552246,-0.6394014954566956,-0.9792284965515137
1758614215585904000,9.369904052734375,-9.884686470031738,-0.6979097723960876,-0.9651625752449036
1758614215595945200,9.3799453125,-9.849072456359863,-0.7409306168556213,-0.9727940559387207
1758614215605986800,9.38998681640625,-9.734674453735352,-0.7732523083686829,-0.9842413663864136
1758614215616028400,9.4000283203125,-9.585335731506348,-0.7269394993782043,-0.9703250527381897
1758614215626069200,9.4100693359375,-9.452981948852539,-0.6596773862838745,-0.9132382869720459
1758614215636111600,9.420111572265625,-9.427767753601074,-0.6348375678062439,-0.870217502117157
1758614215646153000,9.430153076171875,-9.557578086853027,-0.6099228858947754,-0.8026561141014099
1758614215656194600,9.440194580078124,-9.677886962890625,-0.5680243372917175,-0.7815572023391724
1758614215666236200,9.450236083984375,-9.731232643127441,-0.5000888705253601,-0.7414543628692627
1758614215676278500,9.460278564453125,-9.729886054992676,-0.4728548228740692,-0.7006781101226807
1758614215686319000,9.470319091796876,-9.73198127746582,-0.41935938596725464,-0.6477811932563782
1758614215696359700,9.480359619140625,-9.787945747375488,-0.41112932562828064,-0.608127236366272
1758614215706402300,9.49040234375,-9.901894569396973,-0.4406079351902008,-0.6017676591873169
1758614215716442000,9.500442138671875,-9.867253303527832,-0.40701428055763245,-0.6351368427276611
1758614215726485500,9.510485595703125,-9.881468772888184,-0.3651905655860901,-0.6383540034294128
1758614215736526300,9.5205263671875,-9.845256805419922,-0.2445826679468155,-0.6651391386985779
1758614215746570800,9.53057080078125,-9.841291427612305,-0.08424597233533859,-0.7273135781288147
1758614215756611000,9.540611083984375,-9.79101276397705,0.010399813763797283,-0.8164227604866028
1758614215766648800,9.55064892578125,-9.736021041870117,0.07504326105117798,-0.8616133332252502
1758614215776694500,9.560694580078126,-9.714548110961914,0.0727238729596138,-0.8844330906867981
1758614215786735400,9.5707353515625,-9.586832046508789,0.12060791254043579,-0.9383774399757385
1758614215796777200,9.580777099609374,-9.412803649902344,0.09412205219268799,-0.947729766368866
1758614215806818800,9.59081884765625,-9.44879150390625,0.0512508787214756,-0.9597756266593933
1758614215816859600,9.600859619140625,-9.619528770446777,-0.016759412363171577,-0.9164555072784424
1758614215826901200,9.6109013671875,-9.9610013961792,-0.11192893236875534,-0.8940098881721497
1758614215836943400,9.620943359375,-10.175806045532227,-0.10190320760011673,-0.9240122437477112
1758614215846983400,9.6309833984375,-10.542268753051758,-0.12143091857433319,-0.9784802794456482
1758614215857026800,9.64102685546875,-10.915315628051758,0.15659575164318085,-1.1694927215576172
1758614215867068700,9.651068603515625,-11.228431701660156,0.42040684819221497,-1.3094786405563354
1758614215877108700,9.661108642578125,-11.306617736816406,0.6201730370521545,-1.3686603307724
1758614215887151600,9.671151611328124,-10.902521133422852,1.1112836599349976,-1.8075474500656128
1758614215897148000,9.68114794921875,-11.197531700134277,1.5132851600646973,-2.6292076110839844
1758614215907234300,9.691234375,-11.89618968963623,1.481038212776184,-2.918531894683838
1758614215917276000,9.70127587890625,-11.585467338562012,1.6382324695587158,-2.923694372177124
1758614215927317800,9.71131787109375,-11.344176292419434,1.389310359954834,-2.387094020843506
1758614215937357300,9.721357421875,-11.693730354309082,1.488370418548584,-1.7213561534881592
1758614215947399000,9.73139892578125,-11.979762077331543,1.571120023727417,-1.7099089622497559
1758614215957441800,9.74144189453125,-11.957316398620605,1.970577597618103,-1.3600561618804932
1758614215967458000,9.7514580078125,-11.451541900634766,2.4810662269592285,-1.1465981006622314
1758614215977500200,9.761500244140626,-11.304073333740234,2.543240785598755,-1.4654759168624878
1758614215987541000,9.771541015625,-11.270256042480469,2.1012113094329834,-1.6594810485839844
1758614215997582800,9.781582763671874,-10.898855209350586,1.6102502346038818,-1.228973627090454
1758614216007649500,9.7916494140625,-10.571971893310547,1.211241602897644,-0.5458031892776489
1758614216017689000,9.801689208984374,-10.461315155029297,0.7898620963096619,-0.11963526904582977
1758614216027732000,9.81173193359375,-10.613645553588867,0.49215808510780334,-0.0015711948508396745
1758614216037772300,9.821772216796875,-10.69721794128418,0.15577274560928345,-0.03808277100324631
1758614216047816700,9.831816650390625,-10.738219261169434,-0.23777416348457336,-0.13242928683757782
1758614216057857800,9.84185791015625,-10.711434364318848,-0.7030723094940186,-0.20964229106903076
1758614216067898000,9.851898193359375,-10.507477760314941,-1.0568156242370605,-0.20941783487796783
1758614216077939200,9.861939208984374,-10.307861328125,-1.3247417211532593,-0.1703624129295349
1758614216087982800,9.87198291015625,-10.126276016235352,-1.5744868516921997,-0.18719664216041565
1758614216098023200,9.882023193359375,-10.183736801147461,-1.8822914361953735,-0.1925087869167328
1758614216108064800,9.892064697265624,-10.223465919494629,-2.3422775268554688,-0.12741641700267792
1758614216118106000,9.902106201171875,-9.906009674072266,-2.769866943359375,0.06269815564155579
1758614216128147700,9.912147705078125,-9.633295059204102,-3.030385971069336,0.2709188759326935
1758614216138188800,9.922188720703126,-9.613468170166016,-3.2736966609954834,0.46252983808517456
1758614216148230400,9.93223046875,-9.210943222045898,-3.5253872871398926,0.5341314077377319
1758614216158273500,9.9422734375,-8.877326011657715,-3.645246982574463,0.532934308052063
1758614216168314400,9.952314453125,-8.439187049865723,-3.6898388862609863,0.7335235476493835
1758614216178354200,9.962354248046875,-8.257377624511719,-3.564068555831909,1.0413280725479126
1758614216188396800,9.972396728515625,-8.066888809204102,-3.4938883781433105,1.2903250455856323
1758614216198439400,9.982439453125,-7.898471355438232,-3.540350914001465,1.4765490293502808
1758614216208480300,9.992480224609375,-7.967529296875,-3.6810102462768555,1.1991209983825684
1758614216218521600,10.002521484375,-8.32336711883545,-4.039018154144287,0.5158008337020874
1758614216228564700,10.012564697265624,-8.542885780334473,-4.561553001403809,-0.26478374004364014
1758614216238604000,10.02260400390625,-8.495600700378418,-5.010091304779053,-0.8563011884689331
1758614216248646000,10.03264599609375,-8.410231590270996,-5.3145294189453125,-1.146298885345459
1758614216258687700,10.042687744140625,-8.308178901672363,-5.381567001342773,-1.0922796726226807
1758614216268729000,10.05272900390625,-8.070854187011719,-5.232677459716797,-0.8417863249778748
1758614216278771500,10.062771484375,-7.972766399383545,-5.034033298492432,-0.4638765752315521
1758614216288812500,10.0728125,-7.904531955718994,-4.862773418426514,-0.09906009584665298
1758614216298854700,10.082854736328125,-7.906476974487305,-4.815562725067139,0.01339256577193737
1758614216308896500,10.092896484375,-7.706785678863525,-4.988768100738525,-0.023268647491931915
1758614216318936300,10.102936279296875,-7.644237041473389,-5.20753812789917,0.017956512048840523
1758614216328940000,10.11293994140625,-7.505373477935791,-5.4456868171691895,0.08491934090852737
1758614216339020500,10.1230205078125,-7.254655838012695,-5.683236122131348,-0.0014215572737157345
1758614216349063000,10.13306298828125,-7.1059160232543945,-5.792022705078125,-0.02671031281352043
1758614216359104800,10.143104736328125,-6.931737422943115,-5.857264995574951,0.09142857789993286
1758614216369145000,10.15314501953125,-6.987851619720459,-5.88240385055542,0.12015900015830994
1758614216379185000,10.163184814453125,-7.027580738067627,-5.8984150886535645,-0.026560675352811813
1758614216389226800,10.173226806640624,-6.985008716583252,-5.962684631347656,-0.08207622915506363
1758614216399269000,10.18326904296875,-6.85444974899292,-6.067206382751465,-0.22662615776062012
1758614216409311500,10.1933115234375,-6.762272834777832,-6.233753204345703,-0.3892074227333069
1758614216419354400,10.203354248046875,-6.421174049377441,-6.518363952636719,-0.3712508976459503
1758614216429393200,10.21339306640625,-6.568492412567139,-6.61196231842041,-0.4869207739830017
1758614216439434500,10.2234345703125,-6.463895797729492,-6.759205341339111,-0.43350014090538025
1758614216449478000,10.233477783203124,-6.29592752456665,-6.910563945770264,-0.2885012924671173
1758614216459520500,10.2435205078125,-6.165817737579346,-7.027580738067627,-0.07870937883853912
1758614216469560300,10.253560302734375,-6.1898345947265625,-7.181333065032959,0.11364976316690445
1758614216479605000,10.26360498046875,-6.086359977722168,-7.3407721519470215,0.22430677711963654
1758614216489642200,10.273642333984375,-5.972111701965332,-7.454720973968506,0.2993500232696533
1758614216499684000,10.28368408203125,-5.932607173919678,-7.529390335083008,0.3965396583080292
1758614216509725200,10.29372509765625,-6.063689708709717,-7.451354026794434,0.34513914585113525
1758614216519766800,10.303766845703125,-5.8369140625,-7.39052677154541,0.30630818009376526
1758614216529811200,10.313811279296875,-5.822399139404297,-7.316306114196777,0.2506429851055145
1758614216539850000,10.32385009765625,-5.650465488433838,-7.320570945739746,0.34528878331184387
1758614216549891800,10.333891845703125,-5.5989155769348145,-7.293411731719971,0.3965396583080292
1758614216559933700,10.34393359375,-5.955726146697998,-7.284358501434326,0.36249709129333496
1758614216569976000,10.35397607421875,-5.573477268218994,-7.427636623382568,0.2463783174753189
1758614216580017400,10.364017333984375,-5.29964017868042,-7.534852027893066,0.09285013377666473
1758614216590056700,10.374056640625,-5.178433895111084,-7.551910877227783,-0.1190367192029953
1758614216600101000,10.38410107421875,-5.117830753326416,-7.568295955657959,-0.19699791073799133
1758614216610143000,10.39414306640625,-5.384036064147949,-7.61333703994751,-0.2008884847164154
1758614216620184600,10.4041845703125,-5.369969844818115,-7.682544231414795,-0.20141221582889557
1758614216630224000,10.414223876953125,-5.052887916564941,-7.755867004394531,-0.2057517021894455
1758614216640267000,10.42426708984375,-4.693009376525879,-7.821707248687744,-0.27346271276474
1758614216650306800,10.434306884765626,-4.505887508392334,-7.932139873504639,-0.20949265360832214
1758614216660348400,10.444348388671875,-4.442515850067139,-8.070405006408691,-0.048407766968011856
1758614216670389800,10.4543896484375,-4.375927448272705,-8.235006332397461,0.13871406018733978
1758614216680433200,10.46443310546875,-4.513594150543213,-8.375815391540527,0.16467618942260742
1758614216690474500,10.474474609375,-4.403236389160156,-8.541913032531738,0.1678185760974884
1758614216700515300,10.484515380859374,-4.141071319580078,-8.699182510375977,0.2645592987537384
1758614216710555600,10.4945556640625,-3.8669350147247314,-8.8001127243042,0.3163338899612427
1758614216720600800,10.504600830078125,-3.9280619621276855,-8.841487884521484,0.23994390666484833
1758614216730640000,10.514639892578124,-3.7432594299316406,-8.853533744812012,0.20560206472873688
1758614216740680700,10.5246806640625,-3.507730007171631,-8.90605640411377,0.17313070595264435
1758614216750723600,10.5347236328125,-3.3646016120910645,-8.878597259521484,0.1273415982723236
1758614216760764400,10.544764404296876,-3.2964415550231934,-8.90186595916748,0.22587797045707703
1758614216770806800,10.554806884765625,-3.2147395610809326,-8.893561363220215,0.472555547952652
1758614216780846300,10.564846435546874,-3.103259563446045,-8.88525676727295,0.6988824605941772
1758614216790889500,10.574889404296876,-3.090914487838745,-8.879046440124512,0.8909423351287842
1758614216800931800,10.584931884765625,-3.0951790809631348,-8.827197074890137,1.040505051612854
1758614216810973700,10.5949736328125,-3.0377182960510254,-8.85779857635498,1.1784709692001343
1758614216821013800,10.605013671875,-2.9769654273986816,-8.957382202148438,1.2395230531692505
1758614216831055000,10.61505517578125,-2.7382185459136963,-8.967632293701172,1.3171101808547974
1758614216841097500,10.625097412109374,-2.7047746181488037,-8.943764686584473,1.3135188817977905
1758614216851139300,10.635139404296876,-2.4459762573242188,-8.969202995300293,1.3085808753967285
1758614216861178000,10.64517822265625,-2.293271064758301,-9.001974105834961,1.3673136234283447
1758614216871221200,10.65522119140625,-2.1016602516174316,-9.190143585205078,1.4665981531143188
1758614216881261800,10.66526171875,-2.0067899227142334,-9.28995132446289,1.3342437744140625
1758614216891304400,10.675304443359375,-1.9306992292404175,-9.259425163269043,1.1718120574951172
1758614216901345000,10.685344970703126,-1.956661343574524,-9.315464973449707,1.1153987646102905
1758614216911386400,10.695386474609375,-1.9320459365844727,-9.390433311462402,1.0586860179901123
1758614216921427200,10.70542724609375,-1.868973731994629,-9.43943977355957,1.0449193716049194
1758614216931471600,10.7154716796875,-1.6891093254089355,-9.519794464111328,1.062651515007019
1758614216941512000,10.725511962890625,-1.587654948234558,-9.49585247039795,1.0324994325637817
1758614216951553500,10.735553466796874,-1.6712275743484497,-9.514857292175293,1.0363900661468506
1758614216961594600,10.7455947265625,-1.565059781074524,-9.539173126220703,1.081056833267212
1758614216971637200,10.75563720703125,-1.4431798458099365,-9.515604972839355,1.1236287355422974
1758614216981676800,10.7656767578125,-1.3119477033615112,-9.502436637878418,1.3605799674987793
1758614216991718400,10.775718505859375,-1.3364882469177246,-9.442132949829102,1.4900164604187012
1758614217001761500,10.785761474609375,-1.1307365894317627,-9.360730171203613,1.6411504745483398
1758614217011801600,10.795801513671876,-0.8949825167655945,-9.266234397888184,1.7922096252441406
1758614217021846000,10.805845947265626,-1.059808373451233,-9.301847457885742,1.7939304113388062
1758614217031885000,10.815885009765625,-1.4098855257034302,-9.397615432739258,1.6899323463439941
1758614217041927700,10.825927734375,-1.2988544702529907,-9.592742919921875,1.5174001455307007
1758614217051968500,10.835968505859375,-1.0887632369995117,-9.755399703979492,1.2600234746932983
1758614217062009000,10.846009033203124,-1.1490671634674072,-9.780089378356934,0.9427168965339661
1758614217072051200,10.85605126953125,-1.166425108909607,-9.759289741516113,0.6016179919242859
1758614217082092500,10.866092529296875,-1.1801170110702515,-9.7158203125,0.24398411810398102
1758614217092134000,10.8761337890625,-0.9181015491485596,-9.721206665039062,0.04945522919297218
1758614217102175700,10.88617578125,-0.758438229560852,-9.809942245483398,0.08147767931222916
1758614217112217600,10.896217529296875,-0.6557120084762573,-9.952547073364258,0.4010287821292877
1758614217122259000,10.906259033203124,-0.18248306214809418,-9.974244117736816,0.8032546639442444
1758614217132301300,10.91630126953125,0.20470423996448517,-9.620126724243164,1.0436475276947021
1758614217142340900,10.9263408203125,0.08095394819974899,-9.459715843200684,1.4927847385406494
1758614217152384000,10.936384033203124,-0.5140799880027771,-9.700407028198242,2.0632033348083496
1758614217162427000,10.946427001953126,-0.805349588394165,-9.813982009887695,2.184260129928589
1758614217172467200,10.95646728515625,-0.541987419128418,-9.651176452636719,1.7664719820022583
1758614217182509800,10.966509765625,-0.6713491082191467,-9.5269775390625,1.2954127788543701
1758614217192550700,10.976550537109375,-1.135001301765442,-9.545083999633789,0.9859622120857239
1758614217202591700,10.986591796875,-0.819340705871582,-9.597307205200195,0.8277952671051025
1758614217212634000,10.996634033203126,-0.8751555681228638,-9.596708297729492,0.960523784160614
1758614217222672400,11.00667236328125,-1.1816133260726929,-9.594614028930664,1.3246668577194214
1758614217232717000,11.016717041015625,-0.9936684966087341,-9.527725219726562,1.5092449188232422
1758614217242758400,11.02675830078125,-0.3250128924846649,-9.420360565185547,1.5820436477661133
1758614217252800800,11.03680078125,0.5844096541404724,-9.345317840576172,1.5890765190124512
1758614217262839000,11.046839111328126,0.9015665650367737,-9.438017845153809,1.6561890840530396
1758614217272882400,11.05688232421875,0.47741878032684326,-9.694795608520508,1.8032079935073853
1758614217282923800,11.066923828125,0.14260463416576385,-9.934515953063965,1.8448820114135742
1758614217292966000,11.0769658203125,0.09928455203771591,-10.180145263671875,1.536778211593628
1758614217303005700,11.087005615234375,0.19490298628807068,-10.401309967041016,1.1100865602493286
1758614217313049000,11.097049072265625,0.10108020156621933,-10.482488632202148,0.8904185891151428
1758614217323089400,11.10708935546875,-0.3602525293827057,-10.413056373596191,0.9825205206871033
1758614217333130000,11.1171298828125,-0.8197147846221924,-10.20999813079834,1.1124807596206665
1758614217343171600,11.127171630859374,-1.060032844543457,-10.006715774536133,1.1125556230545044
1758614217353214200,11.137214111328126,-1.1109095811843872,-9.829395294189453,1.0030208826065063
1758614217363257000,11.147257080078125,-1.0975170135498047,-9.680805206298828,0.8941594958305359
1758614217373298200,11.157298095703124,-0.969576895236969,-9.567230224609375,0.8286930918693542
1758614217383338200,11.167338134765625,-0.8839093446731567,-9.497200012207031,0.8311620950698853
1758614217393380900,11.177380859375,-0.685639500617981,-9.450961112976074,0.8352771401405334
1758614217403424000,11.187424072265625,-0.49949032068252563,-9.398364067077637,0.7739257216453552
1758614217413464000,11.197464111328125,-0.4661959707736969,-9.417442321777344,0.7461678981781006
1758614217423504400,11.20750439453125,-0.5153518915176392,-9.458967208862305,0.7139210104942322
1758614217433521400,11.217521484375,-0.6385036706924438,-9.5316162109375,0.7116016149520874
1758614217443590000,11.22758984375,-0.7187842130661011,-9.653571128845215,0.7612813115119934
1758614217453630500,11.23763037109375,-0.6557120084762573,-9.7675199508667,0.8592939376831055
1758614217463670000,11.247669921875,-0.47150808572769165,-9.794978141784668,0.8463503122329712
1758614217473711900,11.2577119140625,-0.152031809091568,-9.830965995788574,0.7945008873939514
1758614217483754200,11.267754150390624,0.08312369138002396,-9.805004119873047,0.7888146638870239
1758614217493796600,11.277796630859376,0.22542905807495117,-9.743428230285645,0.8518120646476746
1758614217503837700,11.287837646484375,0.3272574543952942,-9.710806846618652,0.9816226959228516
1758614217513877500,11.29787744140625,0.2405424565076828,-9.73085880279541,1.209820032119751
1758614217523920600,11.307920654296876,0.19303251802921295,-9.775750160217285,1.366041660308838
1758614217533963500,11.317963623046875,0.2908954918384552,-9.801262855529785,1.4334534406661987
1758614217544005400,11.32800537109375,0.4147206246852875,-9.752032279968262,1.3700071573257446
1758614217554048300,11.33804833984375,0.3645172119140625,-9.765050888061523,1.3498808145523071
1758614217564088800,11.3480888671875,0.31199440360069275,-9.720309257507324,1.24416184425354
1758614217574126300,11.358126220703125,0.361973375082016,-9.688735961914062,1.1260229349136353
1758614217584169000,11.3681689453125,0.6271312236785889,-9.627309799194336,1.1872996091842651
1758614217594214400,11.37821435546875,0.592789351940155,-9.305438995361328,1.306560754776001
1758614217604257800,11.3882578125,0.4909609854221344,-9.433229446411133,1.337161660194397
1758614217614293500,11.39829345703125,0.5963058471679688,-9.658883094787598,1.31007719039917
1758614217624335600,11.408335693359374,0.5321113467216492,-9.633668899536133,1.2675801515579224
1758614217634377700,11.418377685546876,0.5398924946784973,-9.739462852478027,1.1737574338912964
1758614217644418000,11.42841796875,0.6537666916847229,-9.899425506591797,1.1268459558486938
1758614217654460700,11.438460693359374,0.6688053011894226,-10.036718368530273,1.1210849285125732
1758614217664500200,11.448500244140625,0.7689128518104553,-10.093280792236328,1.1870002746582031
1758614217674542000,11.4585419921875,0.6867617964744568,-10.052579879760742,1.1804910898208618
1758614217684583200,11.468583251953126,0.604461133480072,-10.005518913269043,1.1108347177505493
1758614217694625800,11.478625732421875,0.6747159957885742,-9.973944664001465,0.9830442667007446
1758614217704667000,11.4886669921875,0.7005284428596497,-9.967659950256348,0.9244611263275146
1758614217714709200,11.498709228515626,0.6930465698242188,-10.043975830078125,0.9025391936302185
1758614217724750300,11.508750244140625,0.7660697102546692,-9.895236015319824,0.7445219159126282
1758614217734793000,11.51879296875,0.7912088632583618,-9.799318313598633,0.6519710421562195
1758614217744833000,11.5288330078125,0.8162731528282166,-9.801637649536133,0.6386532783508301
1758614217754876700,11.538876708984375,0.8071452379226685,-9.753304481506348,0.7691373229026794
1758614217764917800,11.548917724609375,0.6670844554901123,-9.681328773498535,0.989852786064148
1758614217774958000,11.5589580078125,0.5314379334449768,-9.679533004760742,1.1456254720687866
1758614217785000700,11.569000732421875,0.45654433965682983,-9.719186782836914,1.2053309679031372
1758614217795041500,11.57904150390625,0.47165772318840027,-9.774927139282227,1.1165958642959595
1758614217805081600,11.58908154296875,0.4630535840988159,-9.797147750854492,1.0149918794631958
1758614217815124200,11.599124267578125,0.45833998918533325,-9.769615173339844,1.0045171976089478
1758614217825166800,11.609166748046874,0.5431097149848938,-9.74470043182373,1.012597680091858
1758614217835206400,11.619206298828125,0.6804022192955017,-9.736544609069824,1.0131962299346924
1758614217845249500,11.62924951171875,0.6720224618911743,-9.75704574584961,1.0608558654785156
1758614217855289900,11.639289794921876,0.5825392007827759,-9.807398796081543,1.1301380395889282
1758614217865331200,11.649331298828125,0.6843675971031189,-9.800664901733398,1.167921543121338
1758614217875371800,11.659371826171874,0.7942764163017273,-9.768792152404785,1.205779790878296
1758614217885414000,11.669413818359375,0.8841338157653809,-9.69397258758545,1.2666823863983154
1758614217895456300,11.679456298828125,0.8869768977165222,-9.635988235473633,1.3792846202850342
1758614217905496800,11.689496826171874,0.8203881978988647,-9.63995361328125,1.4690672159194946
1758614217915540000,11.6995400390625,0.7832032442092896,-9.675642013549805,1.4606126546859741
1758614217925580500,11.70958056640625,0.7793126702308655,-9.728913307189941,1.3731495141983032
1758614217935623200,11.719623046875,0.7896376252174377,-9.77013874053955,1.2499228715896606
1758614217945664500,11.72966455078125,0.7606827616691589,-9.792584419250488,1.2081739902496338
1758614217955705000,11.739705078125,0.7786392569541931,-9.786747932434082,1.241543173789978
1758614217965747200,11.749747314453124,0.8051251173019409,-9.746420860290527,1.2894272804260254
1758614217975788500,11.75978857421875,0.8794202208518982,-9.690606117248535,1.334767460823059
1758614217985829600,11.76982958984375,0.8510639071464539,-9.658733367919922,1.4115315675735474
1758614217995871700,11.779871826171876,0.737788200378418,-9.641899108886719,1.4252982139587402
1758614218005912800,11.789912841796875,0.7531260848045349,-9.6594820022583,1.351077914237976
1758614218015956000,11.7999560546875,0.7907599210739136,-9.722179412841797,1.2216414213180542
1758614218025996500,11.80999658203125,0.7256675958633423,-9.787346839904785,1.1570727825164795
1758614218036037000,11.820037109375,0.6874351501464844,-9.820791244506836,1.1653777360916138
1758614218046078500,11.830078369140624,0.6647650599479675,-9.81839656829834,1.167921543121338
1758614218056120300,11.840120361328125,0.6040869951248169,-9.785027503967285,1.2054057121276855
1758614218066162200,11.850162109375,0.5029320120811462,-9.745747566223145,1.2562077045440674
1758614218076203000,11.860203125,0.4540005028247833,-9.739686965942383,1.2481272220611572
1758614218086246400,11.870246337890626,0.4718821942806244,-9.72390079498291,1.192088007926941
1758614218096285400,11.880285400390624,0.4453963339328766,-9.722179412841797,1.094374656677246
1758614218106326300,11.890326171875,0.4860977530479431,-9.737592697143555,1.035567045211792
1758614218116370400,11.900370361328125,0.48953941464424133,-9.760188102722168,1.01753568649292
1758614218126410000,11.910409912109374,0.5003881454467773,-9.767594337463379,1.0604069232940674
1758614218136451000,11.920451171875,0.4563947021961212,-9.751134872436523,1.1215338706970215
1758614218146492000,11.930491943359375,0.3860650360584259,-9.7536039352417,1.1672481298446655
1758614218156536300,11.940536376953125,0.4207061231136322,-9.729586601257324,1.1290156841278076
1758614218166578400,11.950578369140626,0.49799394607543945,-9.732728958129883,1.0093055963516235
1758614218176618200,11.9606181640625,0.5408651232719421,-9.728988647460938,0.9674071073532104
1758614218186661000,11.9706611328125,0.5445312261581421,-9.742156028747559,0.9636662006378174
1758614218196701200,11.980701171875,0.5135562419891357,-9.766247749328613,1.0209773778915405
1758614218206742500,11.990742431640625,0.43851301074028015,-9.778518676757812,1.1011831760406494
1758614218216784000,12.000783935546876,0.36586394906044006,-9.76550006866455,1.1504887342453003
1758614218226825500,12.010825439453125,0.472031831741333,-9.777620315551758,1.1558756828308105
1758614218236865800,12.02086572265625,0.5972784757614136,-9.768118858337402,1.1326818466186523
1758614218246907000,12.030906982421875,0.5568015575408936,-9.749039649963379,1.1461492776870728
1758614218256950300,12.0409501953125,0.5045031905174255,-9.717989921569824,1.1632827520370483
1758614218266990000,12.050989990234376,0.413448691368103,-9.708337783813477,1.2008417844772339
1758614218277032200,12.0610322265625,0.33601123094558716,-9.710732460021973,1.2262053489685059
1758614218287073800,12.07107373046875,0.3775356709957123,-9.721206665039062,1.1615619659423828
1758614218297117200,12.0811171875,0.4786158800125122,-9.731382369995117,1.0082582235336304
1758614218307134700,12.091134765625,0.4890905022621155,-9.744101524353027,0.9138368368148804
1758614218317201200,12.101201171875,0.46163201332092285,-9.758466720581055,0.9317933917045593
1758614218327239700,12.11123974609375,0.4080617427825928,-9.764601707458496,0.9796773791313171
1758614218337281300,12.12128125,0.3985597789287567,-9.770812034606934,1.0333973169326782
1758614218347324400,12.131324462890625,0.3944447338581085,-9.76744556427002,1.0417770147323608
1758614218357365500,12.141365478515626,0.4159925580024719,-9.752107620239258,1.0644471645355225
1758614218367407600,12.15140771484375,0.39459437131881714,-9.74013614654541,1.0753706693649292
1758614218377447700,12.16144775390625,0.3993827700614929,-9.7413330078125,1.0740987062454224
1758614218387489800,12.17148974609375,0.40873512625694275,-9.761534690856934,1.039382815361023
1758614218397531400,12.181531494140625,0.39302316308021545,-9.783905029296875,0.9903764724731445
1758614218407573200,12.1915732421875,0.3680337071418762,-9.770736694335938,0.983418345451355
1758614218417614300,12.2016142578125,0.391900897026062,-9.762357711791992,0.9678560495376587
1758614218427655400,12.211655517578125,0.3910030722618103,-9.781661033630371,0.9962871670722961
1758614218437697800,12.22169775390625,0.3958662748336792,-9.767594337463379,1.0440963506698608
1758614218447739000,12.23173876953125,0.3817255198955536,-9.771410942077637,1.1002105474472046
1758614218457779700,12.24177978515625,0.37222355604171753,-9.767969131469727,1.1229554414749146
1758614218467822800,12.25182275390625,0.3817255198955536,-9.763105392456055,1.1038765907287598
1758614218477863200,12.26186328125,0.419883131980896,-9.749862670898438,1.077540397644043
1758614218487905000,12.271905029296875,0.4890905022621155,-9.736769676208496,1.0617536306381226
1758614218497945300,12.2819453125,0.515426754951477,-9.738265991210938,1.1153239011764526
1758614218507987500,12.291987548828125,0.3849427402019501,-9.739313125610352,1.1721113920211792
1758614218518030600,12.302030517578125,0.27391162514686584,-9.778593063354492,1.1878232955932617
1758614218528044500,12.31204443359375,0.22460605204105377,-9.858275413513184,1.1338789463043213
1758614218538111700,12.32211181640625,0.1694645881652832,-9.897480010986328,1.102829098701477
1758614218548153000,12.332153076171876,0.16355390846729279,-9.857826232910156,1.0601824522018433
1758614218558194700,12.342194580078125,0.24862287938594818,-9.761159896850586,1.0377367734909058
1758614218568235000,12.352235107421874,0.23096564412117004,-9.705195426940918,1.0692355632781982
1758614218578278000,12.36227783203125,0.21420623362064362,-9.705046653747559,1.0561422109603882
1758614218588325400,12.372325439453125,0.20283377170562744,-9.711629867553711,0.9750386476516724
1758614218598362000,12.382362060546875,0.2421136498451233,-9.726967811584473,0.9246855974197388
1758614218608404200,12.392404296875,0.29456162452697754,-9.7366943359375,0.9374796152114868
1758614218618443300,12.402443359375,0.33279404044151306,-9.748889923095703,0.988506019115448
1758614218628486000,12.41248583984375,0.31857845187187195,-9.761085510253906,1.0362404584884644
1758614218638525700,12.422525634765625,0.2720411717891693,-9.77791976928711,1.0697592496871948
1758614218648570400,12.4325703125,0.2552817463874817,-9.788543701171875,1.0554687976837158
1758614218658609400,12.442609375,0.22423195838928223,-9.794529914855957,1.0675146579742432
1758614218668652000,12.452652099609375,0.22677579522132874,-9.76168441772461,1.0902595520019531
1758614218678693600,12.462693603515625,0.21128830313682556,-9.736470222473145,1.0773907899856567
1758614218688735000,12.47273486328125,0.26987141370773315,-9.70317554473877,1.0785130262374878
1758614218698776000,12.482776123046875,0.30795419216156006,-9.70781421661377,1.0413280725479126
1758614218708819000,12.49281884765625,0.3520224690437317,-9.71245288848877,1.0029460191726685
1758614218718859500,12.502859619140626,0.3197755515575409,-9.724498748779297,1.028010368347168
1758614218728885000,12.512885009765625,0.31386488676071167,-9.73661994934082,1.064970850944519
1758614218738943000,12.52294287109375,0.31872808933258057,-9.742680549621582,1.0959458351135254
1758614218748983000,12.532983154296875,0.29964929819107056,-9.763628959655762,1.069684386253357
1758614218759025400,12.543025390625,0.28296470642089844,-9.760038375854492,1.06145441532135
1758614218769066800,12.553066650390624,0.29239189624786377,-9.764527320861816,1.0053402185440063
1758614218779107800,12.56310791015625,0.3447650372982025,-9.768043518066406,0.983568012714386
1758614218789150000,12.57314990234375,0.3651905655860901,-9.749114036560059,1.0122236013412476
1758614218799189800,12.583189697265626,0.31289222836494446,-9.750685691833496,1.0972177982330322
1758614218809232600,12.593232666015625,0.2916437089443207,-9.721057891845703,1.1511621475219727
1758614218819272700,12.603272705078124,0.29403790831565857,-9.728240013122559,1.1570727825164795
1758614218829314600,12.613314453125,0.3016694188117981,-9.727117538452148,1.1224316358566284
1758614218839357400,12.623357421875,0.2777273952960968,-9.735273361206055,1.0842740535736084
1758614218849400000,12.633400146484375,0.26321256160736084,-9.762507438659668,1.0376620292663574
1758614218859439600,12.643439697265626,0.30114567279815674,-9.784953117370605,0.9836428165435791
1758614218869482200,12.653482177734375,0.345363587141037,-9.771859169006348,0.9703998565673828
1758614218879523300,12.6635234375,0.38464346528053284,-9.78989028930664,0.9855880737304688
1758614218889562000,12.67356201171875,0.3347393274307251,-9.766023635864258,1.0158149003982544
1758614218899604700,12.683604736328125,0.29792848229408264,-9.758017539978027,1.0888381004333496
1758614218909647400,12.6936474609375,0.2570773959159851,-9.761534690856934,1.1128548383712769
1758614218919687700,12.703687744140625,0.2725648880004883,-9.757793426513672,1.0830022096633911
1758614218929729500,12.7137294921875,0.27712884545326233,-9.775450706481934,1.0160393714904785
1758614218939771400,12.723771484375,0.2866308391094208,-9.78255844116211,1.006387710571289
1758614218949813000,12.73381298828125,0.2711433470249176,-9.7814359664917,1.0339210033416748
1758614218959855400,12.74385546875,0.233135387301445,-9.77328109741211,1.0830769538879395
1758614218969896400,12.753896484375,0.2356044054031372,-9.77096176147461,1.1021558046340942
1758614218979937300,12.763937255859375,0.23433248698711395,-9.778069496154785,1.08419930934906
1758614218989979100,12.773979248046874,0.2510918974876404,-9.77440357208252,1.0567407608032227
1758614219000020700,12.784020751953125,0.28805238008499146,-9.768342971801758,1.0231471061706543
1758614219010062000,12.79406201171875,0.31551089882850647,-9.769615173339844,1.0337713956832886
1758614219020103200,12.804103271484376,0.29643210768699646,-9.769615173339844,1.0350433588027954
1758614219030144500,12.81414453125,0.2976292073726654,-9.75165843963623,1.0172364711761475
1758614219040185000,12.82418505859375,0.3238905966281891,-9.770886421203613,1.0384849309921265
1758614219050228700,12.834228759765624,0.34656068682670593,-9.785401344299316,1.0764929056167603
1758614219060268800,12.844268798828125,0.3348141312599182,-9.768941879272461,1.1255741119384766
1758614219070312200,12.854312255859375,0.35164836049079895,-9.7512845993042,1.175702691078186
1758614219080351700,12.864351806640625,0.33032500743865967,-9.72270393371582,1.202263355255127
1758614219090393300,12.874393310546875,0.34102410078048706,-9.738190650939941,1.1854290962219238
1758614219100436200,12.884436279296875,0.3241898715496063,-9.739089012145996,1.1365724802017212
1758614219110477000,12.89447705078125,0.3776853084564209,-9.752032279968262,1.078961968421936
1758614219120520200,12.904520263671875,0.410979688167572,-9.773505210876465,1.0666916370391846
