time,seconds_elapsed,z,y,x
1758614206387791400,0.171791259765625,9.402100563049316,2.7806899547576904,0.3230779767036438
1758614206397850400,0.181850341796875,9.403087615966797,2.777618646621704,0.3207608759403229
1758614206407879200,0.191879150390625,9.404643058776855,2.7735602855682373,0.3101162910461426
1758614206417934800,0.201934814453125,9.405625343322754,2.77180552482605,0.29563698172569275
1758614206427953200,0.211953125,9.404874801635742,2.775526523590088,0.2844056487083435
1758614206438017500,0.222017578125,9.402351379394531,2.78417706489563,0.28328239917755127
1758614206448059000,0.232058837890625,9.399089813232422,2.794313430786133,0.2915816605091095
1758614206458086400,0.24208642578125,9.396713256835938,2.80161452293396,0.2980654835700989
1758614206468142600,0.252142578125,9.395734786987305,2.8047475814819336,0.2994224727153778
1758614206478159600,0.26215966796875,9.395709037780762,2.804450273513794,0.3030363619327545
1758614206488226600,0.2722265625,9.396873474121094,2.799971103668213,0.3082720935344696
1758614206498292000,0.2822919921875,9.398937225341797,2.792027473449707,0.31729361414909363
1758614206508301000,0.292301025390625,9.400934219360352,2.7828733921051025,0.3378773629665375
1758614206518350300,0.302350341796875,9.402932167053223,2.7720844745635986,0.3694748282432556
1758614206528367900,0.312367919921875,9.405342102050781,2.758570671081543,0.40735843777656555
1758614206538434000,0.32243408203125,9.409672737121582,2.7393031120300293,0.4363454282283783
1758614206548475000,0.332474853515625,9.412278175354004,2.725796937942505,0.4638515114784241
1758614206558505000,0.3425048828125,9.409080505371094,2.731065273284912,0.4965815246105194
1758614206568558000,0.35255810546875,9.399717330932617,2.757432460784912,0.5272380709648132
1758614206578598700,0.3625986328125,9.385885238647461,2.800828456878662,0.5446264147758484
1758614206588643600,0.3726435546875,9.368969917297363,2.8573343753814697,0.5423681139945984
1758614206598684200,0.38268408203125,9.351094245910645,2.9204611778259277,0.5138654112815857
1758614206608703200,0.392703125,9.333039283752441,2.9842653274536133,0.47396039962768555
1758614206618766600,0.4027666015625,9.313881874084473,3.0488243103027344,0.4386082887649536
1758614206628808200,0.41280810546875,9.295299530029297,3.1104094982147217,0.39856889843940735
1758614206638849300,0.422849365234375,9.278679847717285,3.165302276611328,0.35081350803375244
1758614206648890000,0.43289013671875,9.263164520263672,3.215698719024658,0.298618346452713
1758614206658908400,0.442908447265625,9.233784675598145,3.2992236614227295,0.2974075376987457
1758614206668974300,0.452974365234375,9.215015411376953,3.353501796722412,0.2713359594345093
1758614206678991600,0.46299169921875,9.218306541442871,3.3473188877105713,0.23322980105876923
1758614206689057300,0.473057373046875,9.231403350830078,3.312269449234009,0.21487845480442047
1758614206699077600,0.48307763671875,9.252546310424805,3.2536396980285645,0.20081838965415955
1758614206709130800,0.493130859375,9.275811195373535,3.1880626678466797,0.17800533771514893
1758614206719184100,0.50318408203125,9.296089172363281,3.1302292346954346,0.14320532977581024
1758614206729199400,0.513199462890625,9.308320045471191,3.0952675342559814,0.10303349792957306
1758614206739265800,0.523265869140625,9.311888694763184,3.0854880809783936,0.06777346879243851
1758614206749307100,0.53330712890625,9.309769630432129,3.092365026473999,0.039667073637247086
1758614206759354600,0.543354736328125,9.30705738067627,3.100729465484619,0.01657729595899582
1758614206769390000,0.55339013671875,9.309059143066406,3.094754219055176,-0.004709786269813776
1758614206779424000,0.563424072265625,9.319365501403809,3.0634491443634033,-0.02877414971590042
1758614206789474800,0.573474853515625,9.338296890258789,3.004819869995117,-0.05795789510011673
1758614206799517200,0.58351708984375,9.363348960876465,2.924893856048584,-0.09389269351959229
1758614206809532400,0.593532470703125,9.39083480834961,2.8341145515441895,-0.12702667713165283
1758614206819598600,0.6035986328125,9.41757869720459,2.742499828338623,-0.15495619177818298
1758614206829639700,0.6136396484375,9.441168785095215,2.6585211753845215,-0.18083903193473816
1758614206839682000,0.62368212890625,9.460657119750977,2.586337089538574,-0.2072003334760666
1758614206849701400,0.633701416015625,9.47590446472168,2.527937650680542,-0.2299540489912033
1758614206859765200,0.64376513671875,9.48747444152832,2.482869863510132,-0.24349795281887054
1758614206869806600,0.653806640625,9.496585845947266,2.4469478130340576,-0.25180596113204956
1758614206879824400,0.663824462890625,9.504166603088379,2.4164347648620605,-0.26030299067497253
1758614206889890000,0.67389013671875,9.51050853729248,2.390228271484375,-0.2704593241214752
1758614206899933000,0.683932861328125,9.515606880187988,2.368598461151123,-0.2812005877494812
1758614206909974000,0.69397412109375,9.519902229309082,2.349938154220581,-0.2921609580516815
1758614206920013600,0.704013671875,9.524203300476074,2.3313148021698,-0.30106210708618164
1758614206930035000,0.714034912109375,9.528006553649902,2.3154101371765137,-0.30344367027282715
1758614206940098000,0.72409814453125,9.531098365783691,2.302292585372925,-0.30614370107650757
1758614206950136800,0.73413671875,9.5335054397583,2.2910895347595215,-0.31511449813842773
1758614206960181200,0.74418115234375,9.536104202270508,2.27896785736084,-0.3242289125919342
1758614206970222000,0.75422216796875,9.539556503295898,2.2638087272644043,-0.328835666179657
1758614206980266200,0.764266357421875,9.543770790100098,2.245793342590332,-0.3300950825214386
1758614206990307000,0.77430712890625,9.548439025878906,2.226174831390381,-0.3279719352722168
1758614207000322800,0.78432275390625,9.553289413452148,2.2058520317077637,-0.3240118622779846
1758614207010390800,0.794390869140625,9.55797290802002,2.185734987258911,-0.32222047448158264
1758614207020420000,0.804420166015625,9.56244945526123,2.1659491062164307,-0.3230166435241699
1758614207030474200,0.81447412109375,9.566950798034668,2.1464171409606934,-0.32010313868522644
1758614207040513000,0.824512939453125,9.573184967041016,2.1201071739196777,-0.30884790420532227
1758614207050532600,0.83453271484375,9.581009864807129,2.085507869720459,-0.3016815483570099
1758614207060595700,0.844595703125,9.590210914611816,2.041550397872925,-0.3098791241645813
1758614207070621400,0.854621337890625,9.600348472595215,1.9895765781402588,-0.33317503333091736
1758614207080655400,0.8646552734375,9.611063003540039,1.929815411567688,-0.37334567308425903
1758614207090720800,0.874720703125,9.621667861938477,1.8652069568634033,-0.424995094537735
1758614207100756000,0.884755859375,9.630816459655762,1.8039385080337524,-0.4788544476032257
1758614207110804500,0.894804443359375,9.63790225982666,1.7498998641967773,-0.5336614847183228
1758614207120822000,0.904822021484375,9.644027709960938,1.7005716562271118,-0.5804237127304077
1758614207130888200,0.91488818359375,9.64969539642334,1.6413313150405884,-0.652313232421875
1758614207140930600,0.9249306640625,9.659347534179688,1.5763262510299683,-0.6695622801780701
1758614207150958600,0.93495849609375,9.672224998474121,1.500838279724121,-0.6570146679878235
1758614207161012700,0.9450126953125,9.686712265014648,1.415187954902649,-0.6332141757011414
1758614207171054000,0.95505419921875,9.701086044311523,1.3212701082229614,-0.6158648729324341
1758614207181096700,0.9650966796875,9.714619636535645,1.2263439893722534,-0.5986270904541016
1758614207191152400,0.97515234375,9.726197242736816,1.137507677078247,-0.5858973264694214
1758614207201179000,0.985178955078125,9.734978675842285,1.0616322755813599,-0.5824383497238159
1758614207211196000,0.99519580078125,9.741336822509766,1.0005944967269897,-0.5841870903968811
1758614207221251600,1.00525146484375,9.746012687683105,0.9538899660110474,-0.5843350887298584
1758614207231305700,1.0153056640625,9.749671936035156,0.9204390048980713,-0.5768774747848511
1758614207241321500,1.025321533203125,9.752459526062012,0.8965113162994385,-0.5673604607582092
1758614207251386600,1.03538671875,9.754638671875,0.8715001940727234,-0.5688781142234802
1758614207261431600,1.045431640625,9.757264137268066,0.8466469645500183,-0.5613459944725037
1758614207271460900,1.0554609375,9.760490417480469,0.8247815370559692,-0.5372809171676636
1758614207281512700,1.0655126953125,9.764281272888184,0.8057078123092651,-0.4957362413406372
1758614207291543300,1.075543212890625,9.767231941223145,0.7896440625190735,-0.4623298645019531
1758614207301597400,1.085597412109375,9.768131256103516,0.7837227582931519,-0.45333003997802734
1758614207311633400,1.09563330078125,9.765613555908203,0.7970554828643799,-0.48332875967025757
1758614207321677800,1.105677734375,9.757488250732422,0.8295769691467285,-0.582515299320221
1758614207331720400,1.115720458984375,9.740623474121094,0.8696569800376892,-0.7746427655220032
1758614207341763600,1.125763671875,9.71540355682373,0.9082399606704712,-1.011012315750122
1758614207351804400,1.135804443359375,9.689728736877441,0.980466365814209,-1.176413893699646
1758614207361820000,1.14581982421875,9.658323287963867,1.0850331783294678,-1.3325161933898926
1758614207371888400,1.155888427734375,9.617162704467773,1.186005711555481,-1.5295997858047485
1758614207381928200,1.16592822265625,9.569605827331543,1.279630184173584,-1.7381889820098877
1758614207391949600,1.175949462890625,9.53276252746582,1.325705885887146,-1.8986995220184326
1758614207402010600,1.1860107421875,9.489839553833008,1.3491764068603516,-2.087769031524658
1758614207412030500,1.196030517578125,9.43010139465332,1.3470474481582642,-2.3440911769866943
1758614207422094000,1.206093994140625,9.340063095092773,1.323007345199585,-2.692392587661743
1758614207432135200,1.21613525390625,9.213314056396484,1.2855337858200073,-3.1142196655273438
1758614207442145800,1.226145751953125,9.054344177246094,1.2340096235275269,-3.5682179927825928
1758614207452220400,1.236220458984375,8.865463256835938,1.1669328212738037,-4.034593105316162
1758614207462262500,1.246262451171875,8.653379440307617,1.0876890420913696,-4.491331100463867
1758614207472304400,1.256304443359375,8.423367500305176,1.0077236890792847,-4.92620325088501
1758614207482319400,1.2663193359375,8.162206649780273,0.9266055226325989,-5.362452507019043
1758614207492386000,1.276385986328125,7.844600677490234,0.8213151693344116,-5.832990646362305
1758614207502427400,1.286427490234375,7.475279808044434,0.6772873997688293,-6.31645393371582
1758614207512444000,1.29644384765625,7.062854290008545,0.47205042839050293,-6.791860580444336
1758614207522509300,1.30650927734375,6.61572790145874,0.2328720986843109,-7.239753723144531
1758614207532526300,1.3165263671875,6.138849258422852,-0.079896941781044,-7.651422500610352
1758614207542594600,1.326594482421875,5.650533676147461,-0.4692995846271515,-8.005456924438477
1758614207552634000,1.336634033203125,5.149651050567627,-0.9399048686027527,-8.296612739562988
1758614207562631400,1.34663134765625,4.638094902038574,-1.4778063297271729,-8.517058372497559
1758614207572718800,1.35671875,4.118292331695557,-2.040193796157837,-8.66679859161377
1758614207582735400,1.3667353515625,3.587728500366211,-2.60209059715271,-8.751769065856934
1758614207592800800,1.37680078125,3.056978940963745,-3.1495373249053955,-8.773334503173828
1758614207602822700,1.38682275390625,2.5490400791168213,-3.6664130687713623,-8.734753608703613
1758614207612849700,1.396849609375,2.083804130554199,-4.158736228942871,-8.637059211730957
1758614207622896600,1.406896728515625,1.686038851737976,-4.60690975189209,-8.495279312133789
1758614207632942800,1.41694287109375,1.3642981052398682,-4.998351097106934,-8.330143928527832
1758614207643009300,1.42700927734375,1.123755931854248,-5.342883110046387,-8.1502685546875
1758614207653033500,1.437033447265625,0.9761412143707275,-5.640190124511719,-7.966901779174805
1758614207663085300,1.447085205078125,0.9118955135345459,-5.891214370727539,-7.790903091430664
1758614207673134300,1.45713427734375,0.924286961555481,-6.096607685089111,-7.629755973815918
1758614207683151000,1.467151123046875,0.998347818851471,-6.260169506072998,-7.486636161804199
1758614207693218800,1.47721875,1.109644889831543,-6.386591911315918,-7.363168239593506
1758614207703259600,1.487259765625,1.231215476989746,-6.477132797241211,-7.264088153839111
1758614207713276000,1.49727587890625,1.339523434638977,-6.533866882324219,-7.193774700164795
1758614207723324200,1.50732421875,1.4256821870803833,-6.562784194946289,-7.150762557983398
1758614207733360600,1.517360595703125,1.4807021617889404,-6.573445796966553,-7.129755973815918
1758614207743403300,1.5274033203125,1.4970228672027588,-6.572702884674072,-7.127035140991211
1758614207753466600,1.537466552734375,1.4780939817428589,-6.5658111572265625,-7.137328624725342
1758614207763507000,1.5475068359375,1.4330766201019287,-6.5710673332214355,-7.141674995422363
1758614207773526000,1.557526123046875,1.3544771671295166,-6.611835479736328,-7.119350910186768
1758614207783590700,1.567590576171875,1.2731131315231323,-6.646019458770752,-7.102514743804932
1758614207793626600,1.577626708984375,1.2209104299545288,-6.624486446380615,-7.131736755371094
1758614207803676400,1.587676513671875,0.9302253723144531,-6.525496959686279,-7.265582084655762
1758614207813716700,1.597716796875,0.8761473894119263,-6.478952407836914,-7.3137993812561035
1758614207823733200,1.607733154296875,0.8063351511955261,-6.435995578765869,-7.35961389541626
1758614207833799000,1.617798828125,0.7145338654518127,-6.390711307525635,-7.40839958190918
1758614207843816000,1.62781591796875,0.5980421304702759,-6.3508172035217285,-7.452889919281006
1758614207853882600,1.637882568359375,0.45593199133872986,-6.317341327667236,-7.491291522979736
1758614207863925200,1.64792529296875,0.3013777732849121,-6.278958320617676,-7.531266689300537
1758614207873967600,1.657967529296875,0.15615399181842804,-6.1897406578063965,-7.609130382537842
1758614207884009500,1.668009521484375,0.04132695123553276,-6.086950778961182,-7.693079471588135
1758614207894026800,1.67802685546875,-0.06214011833071709,-5.994620323181152,-7.765100479125977
1758614207904066000,1.688066162109375,-0.13513588905334473,-5.910337924957275,-7.828521251678467
1758614207914107600,1.698107666015625,-0.17660140991210938,-5.837039470672607,-7.882508277893066
1758614207924149200,1.708149169921875,-0.1982320249080658,-5.770555019378662,-7.930795669555664
1758614207964334800,1.7483349609375,0.26003769040107727,-6.411097526550293,-7.420666694641113
1758614207984423200,1.768423095703125,0.08148270845413208,-6.457904815673828,-7.384099960327148
1758614207994441000,1.77844091796875,-0.048789460211992264,-6.513105392456055,-7.335746765136719
1758614208014548500,1.798548583984375,-0.22690033912658691,-6.687807083129883,-7.1734137535095215
1758614208024565500,1.8085654296875,-0.20824946463108063,-6.738079071044922,-7.12678337097168
1758614208064753700,1.848753662109375,0.08669666945934296,-6.912430763244629,-6.960381031036377
1758614208074772200,1.858772216796875,0.14653649926185608,-6.9631218910217285,-6.908658504486084
1758614208094856400,1.8788564453125,0.1974894255399704,-7.099670886993408,-6.766962051391602
1758614208114955800,1.898955810546875,0.09172586351633072,-7.030305862426758,-6.841233253479004
1758614208124977200,1.90897705078125,0.09374841302633286,-7.047340393066406,-6.823659896850586
1758614208135013400,1.919013427734375,0.08712615072727203,-6.989201545715332,-6.883284568786621
1758614208145073700,1.92907373046875,-0.008112427778542042,-6.886752128601074,-6.986320972442627
1758614208155116300,1.9391162109375,-0.13154219090938568,-6.800564765930176,-7.069027423858643
1758614208165172700,1.9491728515625,-0.2153892070055008,-6.733076572418213,-7.131298065185547
1758614208175191800,1.95919189453125,-0.23407135903835297,-6.673818588256836,-7.186199188232422
1758614208185231400,1.9692314453125,-0.2221076637506485,-6.628873825073242,-7.228058815002441
1758614208195298000,1.979298095703125,-0.21303541958332062,-6.607729911804199,-7.247664928436279
1758614208205337900,1.989337890625,-0.22532831132411957,-6.609683513641357,-7.24551248550415
1758614208215379000,1.99937890625,-0.2385687530040741,-6.611708164215088,-7.2432379722595215
1758614208225397000,2.00939697265625,-0.22980903089046478,-6.600446701049805,-7.253786563873291
1758614208235463200,2.019463134765625,-0.25684654712677,-6.589473247528076,-7.262850761413574
1758614208245504800,2.0295048828125,-0.29983267188072205,-6.569692134857178,-7.2791056632995605
1758614208255545600,2.039545654296875,-0.3335178792476654,-6.545535087585449,-7.299373626708984
1758614208265588000,2.049587890625,-0.35585424304008484,-6.524415493011475,-7.31720495223999
1758614208275629300,2.05962939453125,-0.36073756217956543,-6.507543563842773,-7.331974506378174
1758614208285672400,2.06967236328125,-0.3543626368045807,-6.4895243644714355,-7.348238945007324
1758614208295712500,2.07971240234375,-0.34694162011146545,-6.486825942993164,-7.350975513458252
1758614208305754000,2.089754150390625,-0.3334965407848358,-6.512253284454346,-7.3290839195251465
1758614208315796700,2.099796630859375,-0.35355454683303833,-6.572134017944336,-7.274488925933838
1758614208325838800,2.1098388671875,-0.4286295771598816,-6.676732540130615,-7.17451286315918
1758614208335879000,2.11987890625,-0.5343101024627686,-6.817018032073975,-7.034123420715332
1758614208345921000,2.129921142578125,-0.6538792252540588,-6.983852863311768,-6.858162879943848
1758614208355961000,2.139961181640625,-0.7226912975311279,-7.153230667114258,-6.674215316772461
1758614208366003200,2.150003173828125,-0.7060291171073914,-7.299266338348389,-6.5160088539123535
1758614208376045000,2.160045166015625,-0.6340323090553284,-7.411874771118164,-6.395172595977783
1758614208386087000,2.1700869140625,-0.5419963002204895,-7.503441333770752,-6.296087741851807
1758614208396128000,2.1801279296875,-0.4550572335720062,-7.6016316413879395,-6.184192657470703
1758614208406169600,2.190169677734375,-0.39275017380714417,-7.729930400848389,-6.027442455291748
1758614208416210700,2.200210693359375,-0.36078083515167236,-7.881277084350586,-5.8302178382873535
1758614208426251500,2.21025146484375,-0.35048621892929077,-8.035063743591309,-5.617027759552002
1758614208436296400,2.22029638671875,-0.3394753336906433,-8.155769348144531,-5.440984725952148
1758614208446335200,2.230335205078125,-0.31881359219551086,-8.22844123840332,-5.331718921661377
1758614208456377300,2.24037744140625,-0.31027257442474365,-8.290979385375977,-5.234455585479736
1758614208466420500,2.25042041015625,-0.29395943880081177,-8.348380088806152,-5.143370628356934
1758614208476460000,2.2604599609375,-0.2845726013183594,-8.407585144042969,-5.04654598236084
1758614208486503000,2.2705029296875,-0.2759464979171753,-8.451393127441406,-4.9733195304870605
1758614208496544000,2.2805439453125,-0.27003759145736694,-8.465359687805176,-4.949839115142822
1758614208506586000,2.290586181640625,-0.26896607875823975,-8.454509735107422,-4.9684062004089355
1758614208516628200,2.300628173828125,-0.15160222351551056,-8.46815299987793,-4.950104236602783
1758614208526668800,2.310668701171875,-0.1361500769853592,-8.455697059631348,-4.97179651260376
1758614208536709600,2.320709716796875,-0.12374112010002136,-8.436388969421387,-5.004813194274902
1758614208546754000,2.330754150390625,-0.12240386009216309,-8.398395538330078,-5.068344593048096
1758614208556794400,2.34079443359375,-0.15535379946231842,-8.345344543457031,-5.154338359832764
1758614208566836200,2.350836181640625,-0.22026754915714264,-8.309040069580078,-5.210323810577393
1758614208576876000,2.3608759765625,-0.28776371479034424,-8.31480884552002,-5.197812557220459
1758614208586918700,2.370918701171875,-0.29878103733062744,-8.35306453704834,-5.135482311248779
1758614208596960500,2.38096044921875,-0.27413210272789,-8.40932846069336,-5.044221878051758
1758614208607001000,2.3910009765625,-0.22946405410766602,-8.478403091430664,-4.929518699645996
1758614208617042200,2.401042236328125,-0.1637653112411499,-8.557140350341797,-4.794231414794922
1758614208627086300,2.41108642578125,-0.2133122831583023,-8.628752708435059,-4.662107944488525
1758614208637127000,2.421126953125,-0.18198640644550323,-8.709603309631348,-4.51063346862793
1758614208647166700,2.431166748046875,-0.1790475994348526,-8.775813102722168,-4.3805460929870605
1758614208657208000,2.4412080078125,-0.16298821568489075,-8.834434509277344,-4.261725902557373
1758614208667251200,2.451251220703125,-0.12660275399684906,-8.89193058013916,-4.141698360443115
1758614208677292300,2.461292236328125,-0.11292728036642075,-8.94050407409668,-4.036183834075928
1758614208687332900,2.471332763671875,-0.12101047486066818,-9.006585121154785,-3.8862462043762207
1758614208697376000,2.4813759765625,-0.102216936647892,-9.112082481384277,-3.632577419281006
1758614208707417600,2.49141748046875,-0.07735516130924225,-9.23725700378418,-3.30199933052063
1758614208717457400,2.50145751953125,-0.06073269248008728,-9.363158226013184,-2.9263761043548584
1758614208727500500,2.51150048828125,-0.03726606070995331,-9.470893859863281,-2.5567378997802734
1758614208737540600,2.52154052734375,0.04383891820907593,-9.480952262878418,-2.519073963165283
1758614208747583700,2.531583740234375,0.0882192850112915,-9.562883377075195,-2.186229944229126
1758614208757625300,2.541625244140625,0.1489572376012802,-9.632168769836426,-1.8534489870071411
1758614208767666400,2.55166650390625,0.14513666927814484,-9.628912925720215,-1.870575189590454
1758614208777708800,2.561708740234375,0.2259913831949234,-9.66539192199707,-1.6629014015197754
1758614208787751000,2.5717509765625,0.30220749974250793,-9.69804859161377,-1.446592092514038
1758614208797790700,2.581790771484375,0.375019371509552,-9.720956802368164,-1.2643157243728638
1758614208807832000,2.59183203125,0.23216019570827484,-9.778751373291016,-0.7471502423286438
1758614208817875000,2.601875,0.2940266728401184,-9.790183067321777,-0.549537718296051
1758614208827915500,2.61191552734375,0.33289778232574463,-9.799617767333984,-0.304631769657135
1758614208837956400,2.621956298828125,0.37931475043296814,-9.80241870880127,-0.06958537548780441
1758614208847999500,2.63199951171875,0.45840534567832947,-9.798164367675781,0.14818044006824493
1758614208858041600,2.64204150390625,0.5758033990859985,-9.787284851074219,0.3371025323867798
1758614208868082000,2.65208203125,0.692091703414917,-9.771989822387695,0.5150976181030273
1758614208878123000,2.662123046875,0.7714810967445374,-9.755037307739258,0.6929342746734619
1758614208888167000,2.6721669921875,0.8524182438850403,-9.733955383300781,0.8715532422065735
1758614208898208500,2.68220849609375,0.96391761302948,-9.707709312438965,1.0331240892410278
1758614208908248300,2.692248291015625,1.0383778810501099,-9.681467056274414,1.194599986076355
1758614208918290400,2.70229052734375,1.0684658288955688,-9.660804748535156,1.3279097080230713
1758614208928330500,2.71233056640625,1.0819419622421265,-9.646931648254395,1.4150066375732422
1758614208938372600,2.72237255859375,1.1163831949234009,-9.638631820678711,1.444499135017395
1758614208948414500,2.73241455078125,1.1549339294433594,-9.635854721069336,1.4326740503311157
1758614208958455800,2.742455810546875,1.1839337348937988,-9.637042045593262,1.4006645679473877
1758614208968497700,2.75249755859375,1.202637791633606,-9.638809204101562,1.372275471687317
1758614208978541800,2.762541748046875,1.2188791036605835,-9.638883590698242,1.3573369979858398
1758614208988580400,2.772580322265625,1.2325451374053955,-9.638893127441406,1.3448801040649414
1758614208998622700,2.782622802734375,1.2555609941482544,-9.63769817352295,1.3320844173431396
1758614209008663800,2.792663818359375,1.269765019416809,-9.637557029724121,1.319596767425537
1758614209018705700,2.80270556640625,1.283783197402954,-9.637801170349121,1.3041613101959229
1758614209028724000,2.812723876953125,1.2904232740402222,-9.638720512390137,1.2907389402389526
1758614209038788900,2.822788818359375,1.29273521900177,-9.639790534973145,1.2803844213485718
1758614209048831700,2.832831787109375,1.290837287902832,-9.641270637512207,1.2711228132247925
1758614209058871800,2.842871826171875,1.2844058275222778,-9.643539428710938,1.2603802680969238
1758614209068913000,2.852912841796875,1.273482084274292,-9.646645545959473,1.2476341724395752
1758614209078954000,2.8629541015625,1.259172797203064,-9.650681495666504,1.2308378219604492
1758614209088995800,2.872995849609375,1.2581384181976318,-9.656135559082031,1.1883844137191772
1758614209099036700,2.88303662109375,1.2426081895828247,-9.663448333740234,1.1444629430770874
1758614209109079600,2.89307958984375,1.2407060861587524,-9.673212051391602,1.0610071420669556
1758614209119121000,2.903120849609375,1.2389034032821655,-9.681438446044922,0.9853912591934204
1758614209129175800,2.91317578125,1.1965059041976929,-9.689506530761719,0.9580792188644409
1758614209139203600,2.92320361328125,1.2052761316299438,-9.691624641418457,0.9251230955123901
1758614209149245400,2.933245361328125,1.2203853130340576,-9.688220024108887,0.9408301711082458
1758614209159287300,2.943287353515625,1.221571683883667,-9.68685531616211,0.9532637000083923
1758614209169327900,2.953327880859375,1.2159227132797241,-9.686673164367676,0.9622955918312073
1758614209179370500,2.96337060546875,1.0052977800369263,-9.706191062927246,1.0076316595077515
1758614209189412400,2.973412353515625,1.0135581493377686,-9.704219818115234,1.0182900428771973
1758614209199455500,2.98345556640625,1.026506781578064,-9.701732635498047,1.0289843082427979
1758614209209495600,2.99349560546875,1.0383912324905396,-9.702919960021973,1.005595088005066
1758614209219538000,3.003537841796875,1.0475070476531982,-9.701504707336426,1.0097718238830566
1758614209229579000,3.0135791015625,1.0528590679168701,-9.703496932983398,0.9847550392150879
1758614209239619800,3.023619873046875,1.0493764877319336,-9.707776069641113,0.9455258250236511
1758614209249661200,3.0336611328125,1.0500681400299072,-9.70820426940918,0.940338134765625
1758614209259704300,3.043704345703125,1.0609246492385864,-9.707408905029297,0.9363725781440735
1758614209269745000,3.053744873046875,1.077942967414856,-9.706053733825684,0.9309495687484741
1758614209279787000,3.063787109375,1.0881569385528564,-9.704947471618652,0.9306122064590454
1758614209289826600,3.07382666015625,1.0942736864089966,-9.70409870147705,0.9322847723960876
1758614209299871200,3.083871337890625,1.100202202796936,-9.703242301940918,0.9342102408409119
1758614209309933600,3.09393359375,1.1067142486572266,-9.70239543914795,0.9353253245353699
1758614209319951600,3.10395166015625,1.1125175952911377,-9.701676368713379,0.9358860850334167
1758614209329994000,3.113993896484375,1.1174041032791138,-9.701064109802246,0.9364158511161804
1758614209340035800,3.124035888671875,1.1218538284301758,-9.70046615600586,0.9372929334640503
1758614209350077700,3.13407763671875,1.1258597373962402,-9.699891090393066,0.9384424686431885
1758614209360118500,3.144118408203125,1.1295675039291382,-9.699377059936523,0.9392865300178528
1758614209370159900,3.154159912109375,1.1332120895385742,-9.69890308380127,0.9397923350334167
1758614209380202800,3.16420263671875,1.1366455554962158,-9.698497772216797,0.9398291707038879
1758614209390243800,3.174243896484375,1.1403889656066895,-9.698081970214844,0.9395996332168579
1758614209400287000,3.184286865234375,1.144558072090149,-9.697615623474121,0.9393391609191895
1758614209410326300,3.194326171875,1.1489142179489136,-9.697126388549805,0.9390780925750732
1758614209420368100,3.2043681640625,1.153397798538208,-9.696589469909668,0.939116358757019
1758614209430411500,3.21441162109375,1.1583603620529175,-9.695972442626953,0.9393870830535889
1758614209440450800,3.224450927734375,1.163888931274414,-9.695268630981445,0.9398332238197327
1758614209450494000,3.234493896484375,1.169798731803894,-9.694507598876953,0.9403244256973267
1758614209460534000,3.244533935546875,1.1759090423583984,-9.69372272491455,0.9407933354377747
1758614209470575400,3.254575439453125,1.182220458984375,-9.692913055419922,0.9412222504615784
1758614209480618800,3.26461865234375,1.1886396408081055,-9.692106246948242,0.9414505958557129
1758614209490658300,3.274658203125,1.194979190826416,-9.691298484802246,0.9417467713356018
1758614209500700400,3.284700439453125,1.2011911869049072,-9.690499305725098,0.9420595765113831
1758614209510741800,3.29474169921875,1.2071384191513062,-9.68976879119873,0.9419713020324707
1758614209520784600,3.30478466796875,1.2138147354125977,-9.688982009887695,0.9414868354797363
1758614209530799900,3.3147998046875,1.2208565473556519,-9.688128471374512,0.9411675930023193
1758614209540842500,3.324842529296875,1.2280410528182983,-9.687263488769531,0.940711498260498
1758614209550883600,3.334883544921875,1.2352956533432007,-9.686348915100098,0.9406328797340393
1758614209560925000,3.344925048828125,1.242859125137329,-9.685321807861328,0.9412477016448975
1758614209570991400,3.354991455078125,1.250345230102539,-9.684247970581055,0.942390501499176
1758614209581035500,3.365035400390625,1.2575758695602417,-9.68317699432373,0.9437721967697144
1758614209591074600,3.375074462890625,1.2644686698913574,-9.682117462158203,0.9454337358474731
1758614209601117400,3.385117431640625,1.2708818912506104,-9.681124687194824,0.9469896554946899
1758614209611157200,3.3951572265625,1.2765594720840454,-9.680231094360352,0.9485061168670654
1758614209621199600,3.40519970703125,1.2811858654022217,-9.67946720123291,0.9500544667243958
1758614209631241500,3.415241455078125,1.2846620082855225,-9.678864479064941,0.9514864683151245
1758614209641284600,3.42528466796875,1.2872120141983032,-9.67848014831543,0.9519521594047546
1758614209651325400,3.435325439453125,1.2889041900634766,-9.67835521697998,0.950924813747406
1758614209661367000,3.445366943359375,1.2900688648223877,-9.678406715393066,0.9488406181335449
1758614209671407900,3.455407958984375,1.290305733680725,-9.678603172302246,0.9465113282203674
1758614209681449500,3.465449462890625,1.2896900177001953,-9.678923606872559,0.9440695643424988
1758614209691492900,3.475492919921875,1.2883468866348267,-9.67935848236084,0.9414412379264832
1758614209701531600,3.48553173828125,1.2866559028625488,-9.679813385009766,0.9390801191329956
1758614209711573000,3.495572998046875,1.2848725318908691,-9.680243492126465,0.9370762705802917
1758614209721614300,3.5056142578125,1.283228874206543,-9.680601119995117,0.935629665851593
1758614209731658000,3.515657958984375,1.2818517684936523,-9.680938720703125,0.9340175986289978
1758614209741697800,3.52569775390625,1.2802449464797974,-9.681278228759766,0.9327083826065063
1758614209751740200,3.535740234375,1.278449296951294,-9.681601524353027,0.9318079352378845
1758614209761782000,3.545781982421875,1.2766278982162476,-9.681917190551758,0.9310404658317566
1758614209771822300,3.555822265625,1.2756671905517578,-9.682099342346191,0.9304478764533997
1758614209781866500,3.565866455078125,1.2756730318069458,-9.682129859924316,0.9301356077194214
1758614209791906300,3.57590625,1.2765331268310547,-9.682037353515625,0.9299087524414062
1758614209801948200,3.5859482421875,1.2770816087722778,-9.681952476501465,0.9300479292869568
1758614209811990500,3.595990478515625,1.2777528762817383,-9.681825637817383,0.9304320812225342
1758614209822030600,3.606030517578125,1.2789112329483032,-9.681607246398926,0.9311130046844482
1758614209832073500,3.616073486328125,1.2804934978485107,-9.681316375732422,0.9319649338722229
1758614209842114300,3.6261142578125,1.282091498374939,-9.681008338928223,0.9329636693000793
1758614209852155000,3.63615478515625,1.2833329439163208,-9.680739402770996,0.934057354927063
1758614209862197200,3.646197265625,1.2843480110168457,-9.680499076843262,0.9351487755775452
1758614209872240400,3.656240478515625,1.2848671674728394,-9.680314064025879,0.9363462328910828
1758614209882281500,3.666281494140625,1.2852215766906738,-9.680150985717773,0.9375566244125366
1758614209892308200,3.67630810546875,1.2853981256484985,-9.680036544799805,0.9384863376617432
1758614209902364000,3.686364013671875,1.2852712869644165,-9.679983139038086,0.9392040967941284
1758614209912405200,3.6964052734375,1.2846713066101074,-9.680021286010742,0.9396364688873291
1758614209922447400,3.706447265625,1.283818244934082,-9.680108070373535,0.9399130344390869
1758614209932488700,3.71648876953125,1.2828609943389893,-9.680217742919922,0.9400951862335205
1758614209942529300,3.726529296875,1.2815594673156738,-9.680376052856445,0.940243124961853
1758614209952572000,3.736572021484375,1.2800146341323853,-9.680572509765625,0.9403127431869507
1758614209962614800,3.74661474609375,1.278267502784729,-9.680808067321777,0.9402554035186768
1758614209972654800,3.75665478515625,1.2762057781219482,-9.681100845336914,0.9400586485862732
1758614209982695400,3.7666953125,1.2738580703735352,-9.681463241577148,0.9395031929016113
1758614209992737000,3.776737060546875,1.2718852758407593,-9.681794166564941,0.9387632012367249
1758614210002772500,3.7867724609375,1.2707613706588745,-9.682060241699219,0.9375443458557129
1758614210012822500,3.796822509765625,1.2701504230499268,-9.682273864746094,0.9361667633056641
1758614210022862000,3.806862060546875,1.2697153091430664,-9.682443618774414,0.9349961280822754
1758614210032902400,3.81690234375,1.2693212032318115,-9.682559967041016,0.9343263506889343
1758614210042945800,3.82694580078125,1.2689616680145264,-9.682619094848633,0.934218168258667
1758614210052987000,3.83698681640625,1.269028902053833,-9.68261432647705,0.9341567754745483
1758614210063029200,3.847029296875,1.2696808576583862,-9.682531356811523,0.934134840965271
1758614210073069300,3.8570693359375,1.2705274820327759,-9.68242073059082,0.9341380596160889
1758614210083112000,3.86711181640625,1.2710192203521729,-9.682358741760254,0.9341073632240295
1758614210093153800,3.87715380859375,1.271725058555603,-9.682270050048828,0.9340667128562927
1758614210103194000,3.887194091796875,1.2724225521087646,-9.682185173034668,0.9339904189109802
1758614210113236000,3.897236083984375,1.2730231285095215,-9.682101249694824,0.9340503215789795
1758614210123278000,3.907278076171875,1.2739369869232178,-9.681968688964844,0.934177815914154
1758614210133321700,3.91732177734375,1.2756110429763794,-9.681777000427246,0.9338757991790771
1758614210143362300,3.9273623046875,1.2771611213684082,-9.681623458862305,0.9333600997924805
1758614210153400000,3.937400146484375,1.2781469821929932,-9.681558609008789,0.9326756596565247
1758614210163445200,3.9474453125,1.278822898864746,-9.681539535522461,0.9319424033164978
1758614210173485600,3.957485595703125,1.2793077230453491,-9.681534767150879,0.9313214421272278
1758614210183527200,3.967527099609375,1.279503583908081,-9.681554794311523,0.9308536648750305
1758614210193569500,3.977569580078125,1.2794603109359741,-9.681580543518066,0.9306426048278809
1758614210203610400,3.9876103515625,1.2796666622161865,-9.68156623840332,0.9305124878883362
1758614210213651700,3.997651611328125,1.2800029516220093,-9.681544303894043,0.9302841424942017
1758614210223695600,4.007695556640625,1.27988600730896,-9.681612014770508,0.9297254681587219
1758614210233736400,4.017736328125,1.2795416116714478,-9.681741714477539,0.9288510084152222
1758614210243777000,4.027777099609375,1.2793298959732056,-9.681893348693848,0.9275646209716797
1758614210253819600,4.037819580078125,1.2792282104492188,-9.682037353515625,0.9261963963508606
1758614210263861500,4.047861572265625,1.2793673276901245,-9.682141304016113,0.9249152541160583
1758614210273901300,4.0579013671875,1.2796766757965088,-9.682193756103516,0.9239378571510315
1758614210283944700,4.06794482421875,1.2801889181137085,-9.68218994140625,0.9232841730117798
1758614210293986000,4.077986083984375,1.2808964252471924,-9.682129859924316,0.9229055643081665
1758614210304033300,4.088033203125,1.2818763256072998,-9.682012557983398,0.9227848052978516
1758614210314069500,4.098069580078125,1.2827242612838745,-9.681901931762695,0.9227903485298157
1758614210324109800,4.10810986328125,1.2836902141571045,-9.681777000427246,0.9227415323257446
1758614210334150000,4.11814990234375,1.2845813035964966,-9.681653022766113,0.9228131771087646
1758614210344193300,4.128193359375,1.285244345664978,-9.681538581848145,0.9230789542198181
1758614210354238200,4.13823828125,1.285577654838562,-9.681474685668945,0.9232757091522217
1758614210364277500,4.148277587890625,1.2856758832931519,-9.681445121765137,0.9234592914581299
1758614210374317000,4.158317138671875,1.2857040166854858,-9.681434631347656,0.9235414266586304
1758614210384359200,4.168359130859375,1.2857203483581543,-9.681436538696289,0.9234774112701416
1758614210394400800,4.17840087890625,1.2856706380844116,-9.681438446044922,0.9235297441482544
1758614210404440600,4.188440673828125,1.2854490280151367,-9.68147087097168,0.9235002398490906
1758614210414483500,4.1984833984375,1.2853238582611084,-9.681487083435059,0.9235128164291382
1758614210424523500,4.2085234375,1.2850712537765503,-9.681530952453613,0.9234122037887573
1758614210434566700,4.218566650390625,1.2844573259353638,-9.681618690490723,0.9233317971229553
1758614210444608300,4.228608154296875,1.2838071584701538,-9.681720733642578,0.9231759905815125
1758614210454652400,4.23865234375,1.2831177711486816,-9.681833267211914,0.9229558110237122
1758614210464691200,4.248691162109375,1.2823243141174316,-9.681944847106934,0.922878086566925
1758614210474731300,4.258731201171875,1.281593918800354,-9.682035446166992,0.9229435324668884
1758614210484775200,4.268775146484375,1.2814944982528687,-9.682035446166992,0.9230757355690002
1758614210494817000,4.278817138671875,1.2818629741668701,-9.681962966918945,0.9233320951461792
1758614210504859000,4.28885888671875,1.2826757431030273,-9.68182373046875,0.9236668348312378
1758614210514899500,4.2988994140625,1.2835497856140137,-9.681674003601074,0.9240074753761292
1758614210524940800,4.30894091796875,1.2843111753463745,-9.681547164916992,0.9242790937423706
1758614210534983000,4.31898291015625,1.285115122795105,-9.681421279907227,0.9244998097419739
1758614210545024500,4.3290244140625,1.2857823371887207,-9.681326866149902,0.9245498180389404
1758614210555065900,4.33906591796875,1.286060094833374,-9.681275367736816,0.9247114658355713
1758614210565106200,4.349106201171875,1.2861173152923584,-9.681254386901855,0.9248483180999756
1758614210575150000,4.359150146484375,1.2859296798706055,-9.681256294250488,0.9250897765159607
1758614210585190100,4.369190185546875,1.2856478691101074,-9.6812744140625,0.9252891540527344
1758614210595232800,4.379232666015625,1.2853443622589111,-9.681303024291992,0.9253988265991211
1758614210605273000,4.389273193359375,1.2850455045700073,-9.68135929107666,0.925241231918335
1758614210615315000,4.39931494140625,1.2846450805664062,-9.681443214416504,0.9249088168144226
1758614210625359400,4.409359375,1.2842071056365967,-9.681547164916992,0.924433708190918
1758614210635399000,4.41939892578125,1.2837773561477661,-9.681657791137695,0.923879086971283
1758614210645440000,4.42943994140625,1.2831557989120483,-9.681807518005371,0.9231704473495483
1758614210655482000,4.439482177734375,1.2823394536972046,-9.681987762451172,0.9224237203598022
1758614210665523500,4.4495234375,1.2817273139953613,-9.682143211364746,0.921630859375
1758614210675566000,4.459566162109375,1.2812062501907349,-9.682300567626953,0.9207002520561218
1758614210685605400,4.46960546875,1.2805391550064087,-9.682476043701172,0.9197825789451599
1758614210695650600,4.479650634765625,1.2798234224319458,-9.682655334472656,0.9188911318778992
1758614210705689300,4.489689453125,1.2789644002914429,-9.682849884033203,0.9180424213409424
1758614210715732200,4.499732177734375,1.2776938676834106,-9.683094024658203,0.9172276258468628
1758614210725773300,4.509773193359375,1.276373028755188,-9.683350563049316,0.9163470268249512
1758614210735814700,4.519814697265625,1.2750438451766968,-9.683622360229492,0.9153348803520203
1758614210745857800,4.52985791015625,1.273573875427246,-9.683914184570312,0.9143002033233643
1758614210755896800,4.539896728515625,1.2721056938171387,-9.684211730957031,0.9131854176521301
1758614210765939000,4.54993896484375,1.2707397937774658,-9.684514045715332,0.9118654131889343
1758614210775981300,4.559981201171875,1.2693499326705933,-9.684818267822266,0.9105702638626099
1758614210786022400,4.5700224609375,1.2679705619812012,-9.685112953186035,0.909365713596344
1758614210796065000,4.58006494140625,1.2666946649551392,-9.685371398925781,0.9083974361419678
1758614210806104600,4.5901044921875,1.26547372341156,-9.685620307922363,0.9074332118034363
1758614210816147500,4.6001474609375,1.264130711555481,-9.685893058776855,0.9064079523086548
1758614210826188800,4.610188720703125,1.2626606225967407,-9.686182022094727,0.905360996723175
1758614210836231000,4.62023095703125,1.261184811592102,-9.686471939086914,0.9043248295783997
1758614210846271700,4.630271728515625,1.260038137435913,-9.6867094039917,0.9033732414245605
1758614210856313300,4.640313232421875,1.2590301036834717,-9.686924934387207,0.9024826884269714
1758614210866354000,4.65035400390625,1.257928490638733,-9.687146186828613,0.9016324877738953
1758614210876397600,4.6603974609375,1.2568286657333374,-9.687363624572754,0.9008244276046753
1758614210886438100,4.670438232421875,1.2556463479995728,-9.68758773803711,0.9000625014305115
1758614210896481500,4.6804814453125,1.2542108297348022,-9.687836647033691,0.8993746042251587
1758614210906520800,4.690520751953125,1.2526034116744995,-9.688102722167969,0.8987708687782288
1758614210916563200,4.700563232421875,1.2511650323867798,-9.688343048095703,0.8981870412826538
1758614210926605300,4.710605224609375,1.249945878982544,-9.688562393188477,0.8975023031234741
1758614210936646400,4.720646484375,1.2489547729492188,-9.688741683959961,0.8969485759735107
1758614210946688300,4.730688232421875,1.2480437755584717,-9.688904762268066,0.8964551091194153
1758614210956731000,4.74073095703125,1.2471585273742676,-9.689064025878906,0.8959715366363525
1758614210966771200,4.750771240234375,1.2464019060134888,-9.689199447631836,0.8955557942390442
1758614210976813800,4.760813720703125,1.2458586692810059,-9.689305305480957,0.895156741142273
1758614210986853400,4.770853271484375,1.245153546333313,-9.68942928314209,0.8947895169258118
1758614210996895200,4.780895263671875,1.24429452419281,-9.689567565917969,0.8944980502128601
1758614211006938000,4.790938232421875,1.2436069250106812,-9.689684867858887,0.894182562828064
1758614211016978400,4.800978515625,1.2428631782531738,-9.689814567565918,0.8938212394714355
1758614211027020500,4.8110205078125,1.241890788078308,-9.689979553222656,0.8933768272399902
1758614211037062700,4.821062744140625,1.240821361541748,-9.690147399902344,0.8930268883705139
1758614211047103500,4.831103515625,1.2399687767028809,-9.690302848815918,0.8925462365150452
1758614211057147600,4.841147705078125,1.2391724586486816,-9.690443992614746,0.8921167254447937
1758614211067161300,4.851161376953125,1.2383041381835938,-9.6906099319458,0.8915109634399414
1758614211077231000,4.861231201171875,1.23725163936615,-9.690791130065918,0.8910130858421326
1758614211087269600,4.87126953125,1.2360821962356567,-9.690983772277832,0.890537679195404
1758614211097311700,4.881311767578125,1.2349284887313843,-9.691168785095215,0.8901231288909912
1758614211107355600,4.891355712890625,1.2336807250976562,-9.691370010375977,0.8896600604057312
1758614211117396500,4.901396484375,1.232187271118164,-9.691610336303711,0.8891074657440186
1758614211127439400,4.911439453125,1.230918526649475,-9.691816329956055,0.8886244893074036
1758614211137478400,4.921478515625,1.2290772199630737,-9.692025184631348,0.8889060616493225
1758614211147520000,4.93152001953125,1.2269692420959473,-9.692280769348145,0.8890329003334045
1758614211157563000,4.94156298828125,1.2248507738113403,-9.692543029785156,0.8890975117683411
1758614211167604700,4.951604736328125,1.2230194807052612,-9.692770957946777,0.8891147971153259
1758614211177644500,4.96164453125,1.2213150262832642,-9.692985534667969,0.8891223669052124
1758614211187686700,4.971686767578125,1.2197169065475464,-9.69318962097168,0.8891007304191589
1758614211197727700,4.981727783203125,1.2180943489074707,-9.693377494812012,0.8892589211463928
1758614211207771600,4.991771728515625,1.2161858081817627,-9.693608283996582,0.8893600702285767
1758614211217810700,5.001810791015625,1.2141691446304321,-9.693848609924316,0.8894980549812317
1758614211227852000,5.01185205078125,1.2121500968933105,-9.69408130645752,0.8897275924682617
1758614211237894000,5.021893798828125,1.2100117206573486,-9.694303512573242,0.8901991248130798
1758614211247936800,5.031936767578125,1.2078990936279297,-9.694515228271484,0.8907657265663147
1758614211257977900,5.041977783203125,1.205552101135254,-9.694765090942383,0.8912393450737
1758614211268018000,5.052017822265625,1.2030681371688843,-9.695043563842773,0.8915597796440125
1758614211278060000,5.06206005859375,1.2006070613861084,-9.695340156555176,0.8916416764259338
1758614211288103400,5.072103515625,1.1979460716247559,-9.695662498474121,0.8917211890220642
1758614211298143500,5.0821435546875,1.1951481103897095,-9.696003913879395,0.8917796611785889
1758614211308184600,5.0921845703125,1.1922478675842285,-9.696343421936035,0.8919594287872314
1758614211318227500,5.1022275390625,1.1890869140625,-9.696712493896484,0.8921647071838379
1758614211328268500,5.1122685546875,1.1859714984893799,-9.697081565856934,0.8923020958900452
1758614211338310700,5.122310546875,1.18190598487854,-9.697564125061035,0.8924380540847778
1758614211348351700,5.132351806640625,1.177747368812561,-9.698065757751465,0.8924877643585205
1758614211358395600,5.142395751953125,1.173268437385559,-9.698590278625488,0.892684817314148
1758614211368434400,5.152434326171875,1.1683531999588013,-9.699134826660156,0.8932268619537354
1758614211378476000,5.16247607421875,1.1628738641738892,-9.699718475341797,0.8940489888191223
1758614211388518400,5.172518310546875,1.157346487045288,-9.70028305053711,0.8950996994972229
1758614211398559200,5.182559326171875,1.151626706123352,-9.700873374938965,0.8960662484169006
1758614211408603100,5.19260302734375,1.1457386016845703,-9.701521873474121,0.8965945243835449
1758614211418643700,5.202643798828125,1.1395171880722046,-9.702265739440918,0.8964714407920837
1758614211428664300,5.212664306640625,1.132991075515747,-9.703079223632812,0.8959428668022156
1758614211438726400,5.222726318359375,1.1259106397628784,-9.703971862792969,0.8951979279518127
1758614211448767700,5.232767822265625,1.1182531118392944,-9.704923629760742,0.8944743275642395
1758614211458808600,5.24280859375,1.1097670793533325,-9.705945014953613,0.8939741253852844
1758614211468850400,5.252850341796875,1.1004085540771484,-9.707029342651367,0.8937534093856812
1758614211478894600,5.26289453125,1.0904368162155151,-9.708165168762207,0.8936463594436646
1758614211488934000,5.272933837890625,1.0801994800567627,-9.709328651428223,0.893440842628479
1758614211498977000,5.28297705078125,1.0697680711746216,-9.710511207580566,0.8931432366371155
1758614211509016600,5.2930166015625,1.0594178438186646,-9.711675643920898,0.8928157687187195
1758614211519060000,5.30306005859375,1.0494542121887207,-9.712769508361816,0.8926976919174194
1758614211529077200,5.3130771484375,1.0395783185958862,-9.713820457458496,0.8927950263023376
1758614211539142700,5.323142578125,1.029381275177002,-9.71487045288086,0.8931818008422852
1758614211549184300,5.333184326171875,1.0191954374313354,-9.715890884399414,0.8937677145004272
1758614211559224600,5.343224609375,1.009463906288147,-9.716843605041504,0.8944562077522278
1758614211569266000,5.353265869140625,0.9998394250869751,-9.717759132385254,0.8953134417533875
1758614211579309300,5.363309326171875,0.9900131821632385,-9.718707084655762,0.8959545493125916
1758614211589350100,5.37335009765625,0.9804073572158813,-9.71965503692627,0.8962264657020569
1758614211599392800,5.383392822265625,0.9712477326393127,-9.720541954040527,0.8965866565704346
1758614211609433000,5.39343310546875,0.9618956446647644,-9.721364974975586,0.8977420330047607
1758614211619474200,5.40347412109375,0.9512133598327637,-9.722230911254883,0.8997412323951721
1758614211629516500,5.4135166015625,0.9405521750450134,-9.723039627075195,0.9022207260131836
1758614211639559000,5.423558837890625,0.9302218556404114,-9.723736763000488,0.9053881764411926
1758614211649599500,5.433599609375,0.9210855960845947,-9.724309921264648,0.9085997343063354
1758614211659642600,5.443642578125,0.9135199189186096,-9.724791526794434,0.9110678434371948
1758614211669683200,5.45368310546875,0.9065055847167969,-9.725369453430176,0.9119089841842651
1758614211679724500,5.463724609375,0.9000830054283142,-9.725980758666992,0.9117385149002075
1758614211689766700,5.4737666015625,0.8939971923828125,-9.726644515991211,0.910635769367218
1758614211699808300,5.483808349609375,0.8885411620140076,-9.727288246154785,0.9091049432754517
1758614211709849900,5.493849853515625,0.8835002779960632,-9.72791862487793,0.9072797298431396
1758614211719891200,5.50389111328125,0.8783851265907288,-9.728535652160645,0.9056276082992554
1758614211729933800,5.513933837890625,0.8727613091468811,-9.729194641113281,0.9039921760559082
1758614211739975700,5.5239755859375,0.8656826615333557,-9.729990005493164,0.9022225141525269
1758614211750015500,5.534015380859375,0.8581181168556213,-9.730823516845703,0.9004697799682617
1758614211760056300,5.544056396484375,0.8487853407859802,-9.731816291809082,0.8985753059387207
1758614211770100000,5.554099853515625,0.8376739025115967,-9.733001708984375,0.8961519002914429
1758614211780140300,5.564140380859375,0.824869692325592,-9.734379768371582,0.8930689692497253
1758614211790182700,5.5741826171875,0.8105194568634033,-9.735803604125977,0.8906674981117249
1758614211800224300,5.584224365234375,0.7956382632255554,-9.73710823059082,0.8898167610168457
1758614211810267000,5.594266845703125,0.780433177947998,-9.738408088684082,0.8890808820724487
1758614211820308200,5.60430810546875,0.7643808126449585,-9.739731788635254,0.888522744178772
1758614211830348500,5.6143486328125,0.7469221949577332,-9.741157531738281,0.8877328038215637
1758614211840390400,5.624390380859375,0.7285671830177307,-9.742693901062012,0.8861081600189209
1758614211850432800,5.634432861328125,0.7094058394432068,-9.74437427520752,0.8831833600997925
1758614211860473300,5.644473388671875,0.688441276550293,-9.746272087097168,0.8788385987281799
1758614211870516000,5.654515869140625,0.6652377247810364,-9.748458862304688,0.872437059879303
1758614211880557600,5.6645576171875,0.6399040818214417,-9.750692367553711,0.8663808107376099
1758614211890598700,5.6745986328125,0.6109241247177124,-9.75278091430664,0.8637986779212952
1758614211900637000,5.684636962890625,0.5802162885665894,-9.75442886352539,0.866371750831604
1758614211920723200,5.70472314453125,0.5133054256439209,-9.75759220123291,0.8729454874992371
1758614211930764300,5.714764404296875,0.4774667024612427,-9.759099006652832,0.8764330744743347
1758614211940807000,5.724806884765625,0.44697171449661255,-9.760748863220215,0.8741388916969299
1758614211950848000,5.734847900390625,0.40977931022644043,-9.762613296508789,0.8715360164642334
1758614211960891600,5.7448916015625,0.3723974823951721,-9.764580726623535,0.866265058517456
1758614211970932500,5.754932373046875,0.3315242826938629,-9.766732215881348,0.8585832715034485
1758614211980974000,5.76497412109375,0.2839612662792206,-9.76901626586914,0.8495890498161316
1758614211991015200,5.77501513671875,0.22773092985153198,-9.771400451660156,0.8390424251556396
1758614212001056500,5.785056396484375,0.16216258704662323,-9.773672103881836,0.8277474045753479
1758614212011096600,5.7950966796875,0.08289013057947159,-9.775582313537598,0.8168373703956604
1758614212021140700,5.805140625,-0.007773873396217823,-9.776863098144531,0.8056016564369202
1758614212031183000,5.81518310546875,-0.11114796996116638,-9.777094841003418,0.7950831055641174
1758614212041222100,5.82522216796875,-0.2247547060251236,-9.775786399841309,0.7871513366699219
1758614212051264800,5.8352646484375,-0.34857767820358276,-9.772499084472656,0.7828600406646729
1758614212061306000,5.84530615234375,-0.4826210141181946,-9.766692161560059,0.7841640114784241
1758614212071348700,5.8553486328125,-0.6262847781181335,-9.757955551147461,0.7913423180580139
1758614212081389600,5.8653896484375,-0.7794134020805359,-9.745975494384766,0.8028566837310791
1758614212091431200,5.87543115234375,-0.9405463337898254,-9.730586051940918,0.8168367743492126
1758614212101473000,5.88547314453125,-1.107663869857788,-9.711679458618164,0.8321500420570374
1758614212111513300,5.895513427734375,-1.2778838872909546,-9.68941879272461,0.8475457429885864
1758614212121556000,5.905555908203125,-1.4450663328170776,-9.664674758911133,0.861358642578125
1758614212131597600,5.91559765625,-1.6084825992584229,-9.637918472290039,0.8714775443077087
1758614212141641000,5.925640869140625,-1.7720239162445068,-9.60849380493164,0.879126250743866
1758614212151680800,5.9356806640625,-1.9394261837005615,-9.57580852508545,0.8824021816253662
1758614212161721300,5.945721435546875,-2.111496925354004,-9.539645195007324,0.8791376948356628
1758614212171764700,5.9557646484375,-2.2867865562438965,-9.49979019165039,0.8722051978111267
1758614212181804000,5.965803955078125,-2.460918426513672,-9.456648826599121,0.8670740127563477
1758614212191849200,5.97584912109375,-2.630108594894409,-9.411601066589355,0.8604719042778015
1758614212201888500,5.985888427734375,-2.777655601501465,-9.370985984802246,0.8398581147193909
1758614212211928800,5.9959287109375,-2.9246528148651123,-9.328293800354004,0.8157620429992676
1758614212221971700,6.0059716796875,-3.0713794231414795,-9.283416748046875,0.787996232509613
1758614212232013600,6.016013671875,-3.219233274459839,-9.235504150390625,0.7603474259376526
1758614212242053000,6.02605322265625,-3.36842679977417,-9.184287071228027,0.7339603900909424
1758614212252097800,6.036097900390625,-3.5145492553710938,-9.132083892822266,0.699373185634613
1758614212262139000,6.046138916015625,-3.656094551086426,-9.079734802246094,0.653832197189331
1758614212272179700,6.0561796875,-3.8024344444274902,-9.021946907043457,0.6181448698043823
1758614212282222300,6.066222412109375,-3.947563648223877,-8.961443901062012,0.5877302885055542
1758614212292263000,6.076262939453125,-4.094781875610352,-8.896663665771484,0.5641502141952515
1758614212302304000,6.086303955078125,-4.242715358734131,-8.828271865844727,0.5450707674026489
1758614212312345900,6.096345947265625,-4.389859676361084,-8.757233619689941,0.5254694223403931
1758614212322389000,6.106388916015625,-4.533141613006592,-8.685286521911621,0.502606213092804
1758614212332430000,6.11643017578125,-4.6703901290893555,-8.613774299621582,0.47587743401527405
1758614212342472400,6.126472412109375,-4.799305438995361,-8.544302940368652,0.44457873702049255
1758614212352514300,6.136514404296875,-4.921399116516113,-8.476343154907227,0.40934720635414124
1758614212362554400,6.146554443359375,-5.040930271148682,-8.407450675964355,0.3740426003932953
1758614212372594700,6.1565947265625,-5.1616387367248535,-8.335236549377441,0.3426673114299774
1758614212382637300,6.16663720703125,-5.283322811126709,-8.259703636169434,0.3161645233631134
1758614212392678400,6.176678466796875,-5.405068874359131,-8.181485176086426,0.291005402803421
1758614212402720800,6.186720703125,-5.526364326477051,-8.100930213928223,0.26520633697509766
1758614212412762400,6.196762451171875,-5.6474480628967285,-8.017912864685059,0.23566502332687378
1758614212422803200,6.20680322265625,-5.769765853881836,-7.931286334991455,0.20154418051242828
1758614212432847000,6.21684716796875,-5.95259428024292,-7.796314716339111,0.14213383197784424
1758614212442888000,6.226887939453125,-6.070515155792236,-7.705323219299316,0.11377658694982529
1758614212452928800,6.2369287109375,-6.189089775085449,-7.610717296600342,0.0910639539361
1758614212462972000,6.246971923828125,-6.3089141845703125,-7.511878490447998,0.07333081215620041
1758614212473011500,6.257011474609375,-6.431265830993652,-7.407543182373047,0.057011231780052185
1758614212483053600,6.267053466796875,-6.554202556610107,-7.299110412597656,0.03909711539745331
1758614212493094700,6.2770947265625,-6.673959732055664,-7.189844131469727,0.023015812039375305
1758614212503137300,6.28713720703125,-6.789179801940918,-7.081176280975342,0.010443712584674358
1758614212513180000,6.297179931640625,-6.902595043182373,-6.970675945281982,0.003138785483315587
1758614212523221000,6.307220947265625,-7.01442289352417,-6.8581318855285645,0.003236433956772089
1758614212533262300,6.317262451171875,-7.124643325805664,-6.743557929992676,0.006099815480411053
1758614212543303000,6.327302978515625,-7.23159122467041,-6.628735065460205,0.008603885769844055
1758614212553343700,6.33734375,-7.333719730377197,-6.515564441680908,0.010805362835526466
1758614212563387400,6.347387451171875,-7.431769847869873,-6.4034953117370605,0.013581035658717155
1758614212573428500,6.357428466796875,-7.527130603790283,-6.291111946105957,0.019338205456733704
1758614212583469300,6.36746923828125,-7.621377944946289,-6.176527976989746,0.034785088151693344
1758614212593513000,6.377512939453125,-7.715510368347168,-6.058412075042725,0.051496721804142
1758614212603555000,6.38755517578125,-7.807211875915527,-5.939486026763916,0.07795099169015884
1758614212613595100,6.39759521484375,-7.896075248718262,-5.820359706878662,0.10730839520692825
1758614212623635500,6.407635498046875,-7.982170104980469,-5.701072692871094,0.137347012758255
1758614212633677000,6.417677001953125,-8.065923690795898,-5.581167221069336,0.1660664826631546
1758614212643719400,6.427719482421875,-8.146329879760742,-5.462308406829834,0.19150421023368835
1758614212653761000,6.437760986328125,-8.22309398651123,-5.345272064208984,0.21193964779376984
1758614212663803600,6.4478037109375,-8.29752254486084,-5.228177547454834,0.23112918436527252
1758614212673844500,6.457844482421875,-8.370272636413574,-5.1101603507995605,0.2468000203371048
1758614212683884800,6.467884765625,-8.441768646240234,-4.990401744842529,0.2618411183357239
1758614212693926100,6.477926025390625,-8.511425018310547,-4.870079517364502,0.27218732237815857
1758614212703969500,6.487969482421875,-8.579334259033203,-4.749141693115234,0.27721211314201355
1758614212714014500,6.498014404296875,-8.646340370178223,-4.6258320808410645,0.2803076505661011
1758614212724056300,6.508056396484375,-8.711883544921875,-4.500952243804932,0.2840546667575836
1758614212734095600,6.518095703125,-8.775659561157227,-4.375171661376953,0.28596481680870056
1758614212744110600,6.528110595703125,-8.837672233581543,-4.248859882354736,0.2807306945323944
1758614212754151700,6.538151611328125,-8.898466110229492,-4.120760917663574,0.26971232891082764
1758614212764195600,6.548195556640625,-8.95765209197998,-3.9911768436431885,0.25897932052612305
1758614212774236000,6.55823583984375,-9.015026092529297,-3.8608646392822266,0.24318906664848328
1758614212784300800,6.56830078125,-9.071471214294434,-3.7278239727020264,0.2188110053539276
1758614212794343400,6.578343505859375,-9.125533103942871,-3.5947279930114746,0.19678103923797607
1758614212804385800,6.5883857421875,-9.178777694702148,-3.4579384326934814,0.16994670033454895
1758614212814427600,6.598427734375,-9.230117797851562,-3.3195767402648926,0.14636020362377167
1758614212824468500,6.608468505859375,-9.278468132019043,-3.1830203533172607,0.12074588239192963
1758614212834509000,6.618509033203125,-9.323503494262695,-3.049522876739502,0.0938592180609703
1758614212844553700,6.6285537109375,-9.365468978881836,-2.9188289642333984,0.06772391498088837
1758614212854594300,6.63859423828125,-9.404080390930176,-2.7924911975860596,0.03788338229060173
1758614212864633900,6.6486337890625,-9.439569473266602,-2.6703202724456787,0.007279783952981234
1758614212874676200,6.65867626953125,-9.471454620361328,-2.554802894592285,-0.025460239499807358
1758614212884718000,6.668718017578125,-9.499933242797852,-2.4462523460388184,-0.05684509873390198
1758614212894759700,6.678759765625,-9.52514934539795,-2.3451321125030518,-0.08936292678117752
1758614212904801800,6.6888017578125,-9.54790210723877,-2.2490181922912598,-0.12497729808092117
1758614212914842400,6.69884228515625,-9.568652153015137,-2.1563994884490967,-0.16422176361083984
1758614212924885200,6.70888525390625,-9.587101936340332,-2.0698797702789307,-0.19803965091705322
1758614212934925000,6.718925048828125,-9.603671073913574,-1.988356351852417,-0.22828495502471924
1758614212944968000,6.728968017578125,-9.61812973022461,-1.9138455390930176,-0.25468629598617554
1758614212955009000,6.739009033203125,-9.630509376525879,-1.8473281860351562,-0.2770702540874481
1758614212965050600,6.749050537109375,-9.64107894897461,-1.7879350185394287,-0.2983674108982086
1758614212975093200,6.75909326171875,-9.650324821472168,-1.733394980430603,-0.3204358220100403
1758614212985134000,6.769134033203125,-9.658421516418457,-1.683595061302185,-0.34134650230407715
1758614212995174700,6.779174560546875,-9.665616035461426,-1.6373001337051392,-0.3623538613319397
1758614213005217500,6.789217529296875,-9.675067901611328,-1.5709997415542603,-0.40144580602645874
1758614213015258400,6.79925830078125,-9.685050010681152,-1.492160677909851,-0.45758554339408875
1758614213025300500,6.809300537109375,-9.700115203857422,-1.352691411972046,-0.5604842305183411
1758614213035340500,6.819340576171875,-9.703604698181152,-1.3114992380142212,-0.5967962145805359
1758614213045385200,6.82938525390625,-9.705016136169434,-1.2886680364608765,-0.6230385303497314
1758614213055425500,6.839425537109375,-9.705930709838867,-1.2696874141693115,-0.6472405791282654
1758614213065466600,6.849466552734375,-9.706388473510742,-1.254719853401184,-0.6691393852233887
1758614213075507500,6.859507568359375,-9.706398010253906,-1.2440998554229736,-0.6886375546455383
1758614213085549600,6.869549560546875,-9.705893516540527,-1.2375611066818237,-0.707223117351532
1758614213095590400,6.87959033203125,-9.705150604248047,-1.2339746952056885,-0.7235257029533386
1758614213105633500,6.889633544921875,-9.704434394836426,-1.2320609092712402,-0.7362803220748901
1758614213115673900,6.899673828125,-9.70382308959961,-1.2306557893753052,-0.746606707572937
1758614213125717000,6.909717041015625,-9.70329761505127,-1.2296037673950195,-0.7551102638244629
1758614213135758800,6.9197587890625,-9.702824592590332,-1.229146122932434,-0.7619386911392212
1758614213145799000,6.929798828125,-9.702442169189453,-1.228667140007019,-0.767521858215332
1758614213155840000,6.939840087890625,-9.702142715454102,-1.2279061079025269,-0.7725307941436768
1758614213165883400,6.94988330078125,-9.702216148376465,-1.2258480787277222,-0.7748746871948242
1758614213175924000,6.959924072265625,-9.702581405639648,-1.2222005128860474,-0.7760446667671204
1758614213185966600,6.969966552734375,-9.70337963104248,-1.216495156288147,-0.7750354409217834
1758614213196006400,6.98000634765625,-9.704702377319336,-1.2087047100067139,-0.7706626653671265
1758614213206049000,6.990049072265625,-9.706391334533691,-1.1998060941696167,-0.7632678151130676
1758614213216091000,7.0000908203125,-9.708240509033203,-1.190504550933838,-0.7543137073516846
1758614213226133000,7.010133056640625,-9.710034370422363,-1.1821478605270386,-0.7442209124565125
1758614213236173300,7.02017333984375,-9.711617469787598,-1.1754719018936157,-0.734094500541687
1758614213246214700,7.030214599609375,-9.71222972869873,-1.1802438497543335,-0.718153178691864
1758614213256259300,7.04025927734375,-9.707345962524414,-1.2503776550292969,-0.6634452939033508
1758614213266300000,7.0502998046875,-9.662700653076172,-1.6667248010635376,-0.30062174797058105
1758614213276340500,7.060340576171875,-9.658832550048828,-1.710647702217102,-0.12927111983299255
1758614213286382600,7.070382568359375,-9.661407470703125,-1.6977276802062988,-0.10510063916444778
1758614213296425500,7.080425537109375,-9.663864135742188,-1.6841959953308105,-0.0966566726565361
1758614213306464500,7.090464599609375,-9.667428016662598,-1.6632119417190552,-0.10328858345746994
1758614213316507100,7.100507080078125,-9.672952651977539,-1.6302802562713623,-0.11115360260009766
1758614213326548000,7.1105478515625,-9.679150581359863,-1.5931917428970337,-0.10919039696455002
1758614213336589000,7.120589111328125,-9.685111045837402,-1.5569872856140137,-0.1024332121014595
1758614213346632000,7.1306318359375,-9.693997383117676,-1.4989206790924072,-0.1255255490541458
1758614213356674600,7.140674560546875,-9.707915306091309,-1.397881031036377,-0.19613465666770935
1758614213366713900,7.1507138671875,-9.715804100036621,-1.3356832265853882,-0.2349744290113449
1758614213376757200,7.16075732421875,-9.718430519104004,-1.3129892349243164,-0.2535880506038666
1758614213386797300,7.17079736328125,-9.720307350158691,-1.295640468597412,-0.2702427804470062
1758614213396838700,7.180838623046875,-9.722335815429688,-1.2775825262069702,-0.2829659879207611
1758614213406881500,7.190881591796875,-9.72446060180664,-1.2589316368103027,-0.2934132516384125
1758614213416921600,7.200921630859375,-9.726540565490723,-1.239821434020996,-0.30567803978919983
1758614213426965000,7.210965087890625,-9.728507995605469,-1.2204900979995728,-0.3204258978366852
1758614213437008100,7.221008056640625,-9.730358123779297,-1.2008037567138672,-0.3380536735057831
1758614213447047200,7.231047119140625,-9.732219696044922,-1.1792906522750854,-0.3595329821109772
1758614213457090000,7.241090087890625,-9.734017372131348,-1.1565847396850586,-0.3838782012462616
1758614213467129600,7.251129638671875,-9.735788345336914,-1.1324321031570435,-0.41004177927970886
1758614213477171500,7.26117138671875,-9.73731517791748,-1.1086840629577637,-0.43770813941955566
1758614213487214000,7.271214111328125,-9.738545417785645,-1.0859512090682983,-0.46647363901138306
1758614213497254100,7.281254150390625,-9.73914623260498,-1.067718267440796,-0.4951589107513428
1758614213507298800,7.291298828125,-9.739227294921875,-1.053823709487915,-0.5225024819374084
1758614213517340700,7.301340576171875,-9.738980293273926,-1.0429290533065796,-0.5483896136283875
1758614213527378700,7.311378662109375,-9.738612174987793,-1.0333976745605469,-0.5724068880081177
1758614213537421300,7.32142138671875,-9.738263130187988,-1.0243139266967773,-0.594279944896698
1758614213547462700,7.331462646484375,-9.737845420837402,-1.0155608654022217,-0.6157788634300232
1758614213557504800,7.3415048828125,-9.737207412719727,-1.0077354907989502,-0.6382812261581421
1758614213567547000,7.351546875,-9.736459732055664,-1.0000977516174316,-0.6613253951072693
1758614213577587500,7.36158740234375,-9.735601425170898,-0.9929148554801941,-0.6843645572662354
1758614213587630000,7.371630126953125,-9.734635353088379,-0.9870456457138062,-0.706180989742279
1758614213597671400,7.38167138671875,-9.733695030212402,-0.9815975427627563,-0.726475715637207
1758614213607713800,7.3917138671875,-9.73276138305664,-0.9768535494804382,-0.7451398372650146
1758614213617754400,7.40175439453125,-9.731821060180664,-0.9729766249656677,-0.7622845768928528
1758614213627795700,7.411795654296875,-9.730923652648926,-0.9697325229644775,-0.7777224779129028
1758614213637839600,7.421839599609375,-9.73006820678711,-0.9671357870101929,-0.7915312647819519
1758614213647878000,7.4318779296875,-9.729231834411621,-0.9652217626571655,-0.8040628433227539
1758614213657920800,7.441920654296875,-9.72852611541748,-0.9629945755004883,-0.8152037858963013
1758614213667963000,7.451962890625,-9.727758407592773,-0.9611504673957825,-0.826455295085907
1758614213678004700,7.462004638671875,-9.726910591125488,-0.9601611495018005,-0.8375236392021179
1758614213688044800,7.472044921875,-9.726068496704102,-0.9590950608253479,-0.8484583497047424
1758614213698089500,7.48208935546875,-9.72517204284668,-0.9583997130393982,-0.8594719767570496
1758614213708128800,7.492128662109375,-9.724313735961914,-0.9575551152229309,-0.8700423240661621
1758614213718172200,7.502172119140625,-9.723550796508789,-0.9561657905578613,-0.8800088167190552
1758614213728210700,7.512210693359375,-9.722843170166016,-0.9547886252403259,-0.8892648220062256
1758614213738253600,7.522253662109375,-9.72223949432373,-0.9531201124191284,-0.8976418375968933
1758614213748293600,7.532293701171875,-9.721753120422363,-0.9513086080551147,-0.904784083366394
1758614213758337500,7.542337646484375,-9.721368789672852,-0.949199378490448,-0.9111108183860779
1758614213768377900,7.5523779296875,-9.72097110748291,-0.9473095536231995,-0.917347252368927
1758614213778421500,7.56242138671875,-9.720651626586914,-0.9454990029335022,-0.9225283265113831
1758614213788460500,7.57246044921875,-9.720403671264648,-0.9438102841377258,-0.9269117116928101
1758614213798503000,7.5825029296875,-9.720237731933594,-0.9420057535171509,-0.9304233193397522
1758614213808544800,7.592544677734375,-9.720125198364258,-0.9403066635131836,-0.9333673715591431
1758614213818586400,7.60258642578125,-9.720113754272461,-0.9383180737495422,-0.9354531168937683
1758614213828593000,7.612593017578125,-9.72014045715332,-0.9362655878067017,-0.9372299313545227
1758614213838669600,7.622669677734375,-9.720185279846191,-0.9344482421875,-0.9385614991188049
1758614213848713200,7.632713134765625,-9.720314979553223,-0.9325880408287048,-0.9390609264373779
1758614213858752500,7.64275244140625,-9.720562934875488,-0.9305984377861023,-0.9384840726852417
1758614213868796000,7.6527958984375,-9.720907211303711,-0.9283114075660706,-0.9372100234031677
1758614213878837000,7.6628369140625,-9.721271514892578,-0.9260509014129639,-0.9356469511985779
1758614213888878600,7.672878662109375,-9.721702575683594,-0.9238088130950928,-0.9333734512329102
1758614213898919000,7.6829189453125,-9.722212791442871,-0.921574592590332,-0.9302524328231812
1758614213908960000,7.6929599609375,-9.722707748413086,-0.9195842742919922,-0.9270512461662292
1758614213919001300,7.70300146484375,-9.72326374053955,-0.9178566932678223,-0.9229521155357361
1758614213929018600,7.7130185546875,-9.723840713500977,-0.9164260625839233,-0.9182694554328918
1758614213939086000,7.723086181640625,-9.724442481994629,-0.9150601029396057,-0.9132729172706604
1758614213949127700,7.733127685546875,-9.724977493286133,-0.9139954447746277,-0.9085915088653564
1758614213959167200,7.743167236328125,-9.725479125976562,-0.9130673408508301,-0.9041421413421631
1758614213969209900,7.7532099609375,-9.725972175598145,-0.9121151566505432,-0.8998003005981445
1758614213979251000,7.7632509765625,-9.726479530334473,-0.9111175537109375,-0.8952815532684326
1758614213989295000,7.773295166015625,-9.727068901062012,-0.909861147403717,-0.8901644349098206
1758614213999334700,7.783334716796875,-9.727770805358887,-0.9083960652351379,-0.8840005397796631
1758614214009377000,7.793376953125,-9.728517532348633,-0.9069515466690063,-0.8772509098052979
1758614214019417900,7.80341796875,-9.729251861572266,-0.9053688049316406,-0.8706960678100586
1758614214029461000,7.8134609375,-9.729948997497559,-0.9036169052124023,-0.8647211790084839
1758614214039502600,7.823502685546875,-9.730548858642578,-0.9020591974258423,-0.8595654368400574
1758614214049543000,7.83354296875,-9.731063842773438,-0.9006983637809753,-0.8551378846168518
1758614214059584000,7.843583984375,-9.731550216674805,-0.89925217628479,-0.8511276245117188
1758614214069628000,7.8536279296875,-9.732032775878906,-0.8975507616996765,-0.8473976850509644
1758614214079668700,7.863668701171875,-9.732583999633789,-0.8952850103378296,-0.8434885740280151
1758614214089708000,7.8737080078125,-9.73316478729248,-0.8926880359649658,-0.8394936919212341
1758614214099751400,7.88375146484375,-9.733759880065918,-0.889874279499054,-0.8355387449264526
1758614214109793300,7.893793212890625,-9.734338760375977,-0.8867571353912354,-0.8321113586425781
1758614214119834400,7.90383447265625,-9.734834671020508,-0.8836962580680847,-0.8295999765396118
1758614214129875500,7.91387548828125,-9.735239028930664,-0.8807844519615173,-0.8279287815093994
1758614214139916800,7.923916748046875,-9.735572814941406,-0.8779699206352234,-0.8269888758659363
1758614214149958700,7.933958740234375,-9.735859870910645,-0.8751225471496582,-0.8266450762748718
1758614214160001000,7.9440009765625,-9.736119270324707,-0.8722848892211914,-0.8266232013702393
1758614214170041000,7.954041015625,-9.736348152160645,-0.8694057464599609,-0.8269327282905579
1758614214180085800,7.964085693359375,-9.736567497253418,-0.8665561676025391,-0.8273035287857056
1758614214190125300,7.974125244140625,-9.73676872253418,-0.8637662529945374,-0.8278680443763733
1758614214200169000,7.9841689453125,-9.736946105957031,-0.8611077666282654,-0.8285614848136902
1758614214210208500,7.99420849609375,-9.737076759338379,-0.8586224913597107,-0.8296048641204834
1758614214220249300,8.004249267578125,-9.737162590026855,-0.856225848197937,-0.8310866951942444
1758614214230292200,8.014292236328124,-9.737222671508789,-0.8539991974830627,-0.8326249718666077
1758614214240334600,8.02433447265625,-9.73727798461914,-0.8518961668014526,-0.8341568112373352
1758614214250373600,8.03437353515625,-9.737332344055176,-0.8498083353042603,-0.8356688022613525
1758614214260415000,8.0444150390625,-9.737363815307617,-0.8480031490325928,-0.8370866775512695
1758614214270457600,8.05445751953125,-9.737351417541504,-0.8465737104415894,-0.8387287855148315
1758614214280500000,8.0645,-9.737277030944824,-0.8454986214637756,-0.8406201601028442
1758614214290542800,8.07454296875,-9.737164497375488,-0.8445418477058411,-0.8429050445556641
1758614214300582000,8.084581787109375,-9.737017631530762,-0.8437526226043701,-0.8453806042671204
1758614214310624000,8.0946240234375,-9.736842155456543,-0.8431273698806763,-0.8480396866798401
1758614214320664600,8.10466455078125,-9.736677169799805,-0.8425397872924805,-0.8505406379699707
1758614214330708500,8.11470849609375,-9.736527442932129,-0.8417680263519287,-0.8529886603355408
1758614214340748300,8.124748291015624,-9.736388206481934,-0.8409593105316162,-0.8553518056869507
1758614214350791000,8.134791015625,-9.736227989196777,-0.8400934934616089,-0.8580653667449951
1758614214360832500,8.14483251953125,-9.73605728149414,-0.839293897151947,-0.8607439398765564
1758614214370874400,8.154874267578125,-9.73587417602539,-0.8384113311767578,-0.8637045621871948
1758614214380915700,8.164915771484376,-9.735669136047363,-0.8375270366668701,-0.8668254017829895
1758614214390956300,8.174956298828125,-9.73547077178955,-0.8364661335945129,-0.8701137900352478
1758614214400996900,8.184996826171876,-9.735304832458496,-0.8351515531539917,-0.8732094168663025
1758614214411039200,8.195039306640625,-9.735149383544922,-0.8338873386383057,-0.8761410713195801
1758614214421082000,8.20508203125,-9.735027313232422,-0.8324483036994934,-0.8788726329803467
1758614214431123200,8.215123291015624,-9.734891891479492,-0.8311782479286194,-0.8815789222717285
1758614214441163500,8.22516357421875,-9.734715461730957,-0.8302556872367859,-0.8843969106674194
1758614214451205400,8.235205322265625,-9.73448657989502,-0.8296275734901428,-0.8874711394309998
1758614214461248500,8.24524853515625,-9.734262466430664,-0.8290842175483704,-0.8904814720153809
1758614214471289900,8.255289794921875,-9.734045028686523,-0.8285343647003174,-0.893299400806427
1758614214481332700,8.265332763671875,-9.733919143676758,-0.8276934623718262,-0.8954941034317017
1758614214491373300,8.275373291015624,-9.73383903503418,-0.8266844749450684,-0.897270143032074
1758614214501414000,8.285413818359375,-9.733816146850586,-0.8254059553146362,-0.8987182378768921
1758614214511455000,8.295455078125,-9.733829498291016,-0.8239970207214355,-0.8998593091964722
1758614214521497600,8.30549755859375,-9.733842849731445,-0.8226498961448669,-0.9008985161781311
1758614214531539200,8.315539306640625,-9.733899116516113,-0.8212325572967529,-0.9016454219818115
1758614214541580300,8.325580322265624,-9.733949661254883,-0.819756805896759,-0.9024086594581604
1758614214551623700,8.335623779296874,-9.734031677246094,-0.8182439804077148,-0.9029149413108826
1758614214561663700,8.345663818359375,-9.734116554260254,-0.8167448043823242,-0.9033246636390686
1758614214571704800,8.355704833984374,-9.734236717224121,-0.8151547312736511,-0.9034954309463501
1758614214581748200,8.365748291015626,-9.734373092651367,-0.8134450316429138,-0.9035471081733704
1758614214591788800,8.375788818359375,-9.734524726867676,-0.8116861581802368,-0.9035205841064453
1758614214601829000,8.3858291015625,-9.7346773147583,-0.8099606037139893,-0.903403639793396
1758614214611870500,8.395870361328125,-9.734823226928711,-0.8081150054931641,-0.9034803509712219
1758614214621914000,8.4059140625,-9.734943389892578,-0.8063468337059021,-0.9037774205207825
1758614214631954200,8.4159541015625,-9.735050201416016,-0.8045938611030579,-0.9041974544525146
1758614214641997000,8.4259970703125,-9.735138893127441,-0.8029682040214539,-0.9046886563301086
1758614214652039400,8.436039306640625,-9.7352294921875,-0.8014294505119324,-0.9050750732421875
1758614214662081000,8.4460810546875,-9.735353469848633,-0.7998295426368713,-0.9051657319068909
1758614214672121000,8.45612109375,-9.735474586486816,-0.798163652420044,-0.9053518176078796
1758614214682163000,8.466162841796875,-9.735566139221191,-0.7965115308761597,-0.9058188199996948
1758614214692204300,8.476204345703126,-9.735645294189453,-0.7949365973472595,-0.9063336849212646
1758614214702247000,8.486246826171875,-9.735699653625488,-0.7937982678413391,-0.9067209959030151
1758614214712287500,8.49628759765625,-9.735756874084473,-0.792959451675415,-0.9068790078163147
1758614214722328000,8.506328125,-9.735790252685547,-0.7922921776771545,-0.9070923924446106
1758614214732369700,8.51636962890625,-9.735769271850586,-0.7917580604553223,-0.907748818397522
1758614214742412500,8.52641259765625,-9.735695838928223,-0.7912695407867432,-0.9089977145195007
1758614214752456200,8.536456298828124,-9.73562240600586,-0.7905399203300476,-0.9104087948799133
1758614214762494500,8.546494384765625,-9.735579490661621,-0.7898674607276917,-0.9114495515823364
1758614214772537900,8.556537841796874,-9.735599517822266,-0.7891804575920105,-0.911787211894989
1758614214782578200,8.566578125,-9.735692024230957,-0.788524866104126,-0.9114152193069458
1758614214792619500,8.57661962890625,-9.735807418823242,-0.7878152132034302,-0.9107515215873718
1758614214802661600,8.58666162109375,-9.735925674438477,-0.7870508432388306,-0.9102198481559753
1758614214812704300,8.596704345703126,-9.736017227172852,-0.7861948609352112,-0.9099231362342834
1758614214822743600,8.60674365234375,-9.736087799072266,-0.7852353453636169,-0.910042405128479
1758614214832784600,8.61678466796875,-9.736146926879883,-0.7842626571655273,-0.9102310538291931
1758614214842829300,8.626829345703126,-9.736226081848145,-0.78324955701828,-0.9102168083190918
1758614214852870400,8.636870361328125,-9.736364364624023,-0.7821269035339355,-0.9097342491149902
1758614214862910500,8.646910400390626,-9.736515045166016,-0.781083881855011,-0.9090089797973633
1758614214872952600,8.65695263671875,-9.736677169799805,-0.78000807762146,-0.9082131385803223
1758614214882994700,8.66699462890625,-9.736822128295898,-0.7790619730949402,-0.9074689745903015
1758614214893035500,8.677035400390626,-9.737009048461914,-0.7780676484107971,-0.9063127636909485
1758614214903077000,8.6870771484375,-9.737142562866211,-0.7774655818939209,-0.9054296612739563
1758614214913119000,8.697118896484374,-9.737229347229004,-0.7771108746528625,-0.9047808051109314
1758614214923161300,8.707161376953126,-9.737323760986328,-0.7767307162284851,-0.9040371179580688
1758614214933201200,8.717201171875,-9.737445831298828,-0.7761763334274292,-0.9032377004623413
1758614214943245600,8.72724560546875,-9.737578392028809,-0.7752102613449097,-0.9026358723640442
1758614214953286000,8.737285888671876,-9.737723350524902,-0.7741543650627136,-0.9019612669944763
1758614214963328000,8.747327880859375,-9.73788833618164,-0.7732628583908081,-0.9009464979171753
1758614214973369600,8.75736962890625,-9.738070487976074,-0.7722909450531006,-0.899806559085846
1758614214983409700,8.76740966796875,-9.738199234008789,-0.7715464234352112,-0.8990577459335327
1758614214993451300,8.777451171875,-9.738300323486328,-0.7707435488700867,-0.8986726403236389
1758614215003491600,8.78749169921875,-9.738390922546387,-0.7698639035224915,-0.8984499573707581
1758614215013535000,8.797534912109375,-9.738472938537598,-0.7690756320953369,-0.8982126712799072
1758614215023576300,8.807576416015625,-9.73858642578125,-0.7681030631065369,-0.8978487253189087
1758614215033617000,8.817616943359376,-9.73874568939209,-0.7667896151542664,-0.897206723690033
1758614215043659500,8.827659423828125,-9.738945960998535,-0.7651568055152893,-0.8964435458183289
1758614215053703200,8.837703125,-9.739118576049805,-0.7637917995452881,-0.8957052826881409
1758614215063742200,8.8477421875,-9.739269256591797,-0.7626650929450989,-0.8950375318527222
1758614215073783300,8.857783203125,-9.739398956298828,-0.7616937160491943,-0.8944898843765259
1758614215083826000,8.867825927734375,-9.739498138427734,-0.760852038860321,-0.8940991759300232
1758614215093867800,8.87786767578125,-9.739604949951172,-0.7598530054092407,-0.8937687873840332
1758614215103908900,8.887908935546875,-9.739736557006836,-0.7587750554084778,-0.893265426158905
1758614215113949700,8.89794970703125,-9.739893913269043,-0.7577062845230103,-0.8924598097801208
1758614215123993900,8.907993896484374,-9.74008846282959,-0.7564780116081238,-0.8913872241973877
1758614215134037200,8.918037353515626,-9.740273475646973,-0.7551910281181335,-0.89043128490448
1758614215144077800,8.928077880859375,-9.740468978881836,-0.7539350986480713,-0.8893754482269287
1758614215154116400,8.938116455078125,-9.740686416625977,-0.7523637413978577,-0.8883275985717773
1758614215164157700,8.94815771484375,-9.740886688232422,-0.7505965828895569,-0.8876394629478455
1758614215174199600,8.958199462890626,-9.74103832244873,-0.7490379214286804,-0.8872904777526855
1758614215184245500,8.96824560546875,-9.741191864013672,-0.7476117014884949,-0.8867599368095398
1758614215194284000,8.978283935546875,-9.741313934326172,-0.7463749647140503,-0.8864642381668091
1758614215204324400,8.988324462890626,-9.741421699523926,-0.7452060580253601,-0.8862698078155518
1758614215214366000,8.998365966796875,-9.741538047790527,-0.7440929412841797,-0.885935366153717
1758614215224407000,9.008406982421874,-9.741641998291016,-0.7429600954055786,-0.8857629895210266
1758614215234448400,9.018448486328126,-9.741750717163086,-0.7416781783103943,-0.8856435418128967
1758614215244490500,9.028490478515625,-9.741915702819824,-0.7399669885635376,-0.8852235078811646
1758614215254531300,9.03853125,-9.742105484008789,-0.7379114627838135,-0.8849003314971924
1758614215264573400,9.048573486328126,-9.7422513961792,-0.7357833981513977,-0.8850365877151489
1758614215274614300,9.0586142578125,-9.742389678955078,-0.7341017127037048,-0.8848910331726074
1758614215284657000,9.068656982421874,-9.742480278015137,-0.7326713800430298,-0.8851004242897034
1758614215294699300,9.07869921875,-9.742548942565918,-0.7312664985656738,-0.8855169415473938
1758614215304740600,9.08874072265625,-9.742605209350586,-0.7299320101737976,-0.8859843611717224
1758614215314782500,9.098782470703124,-9.742692947387695,-0.7283445000648499,-0.8863498568534851
1758614215324824000,9.108823974609376,-9.742783546447754,-0.7267487049102783,-0.8866543769836426
1758614215334864000,9.11886376953125,-9.742894172668457,-0.7249840497970581,-0.8868626356124878
1758614215344905700,9.12890576171875,-9.743029594421387,-0.7230740189552307,-0.8869490027427673
1758614215354947300,9.138947265625,-9.743141174316406,-0.7213524580001831,-0.8870952129364014
1758614215364989200,9.1489892578125,-9.743236541748047,-0.7196640968322754,-0.887424647808075
1758614215375030300,9.1590302734375,-9.743308067321777,-0.7180958390235901,-0.8879334926605225
1758614215385073000,9.169072998046875,-9.743330955505371,-0.7167370319366455,-0.8887804746627808
1758614215395114800,9.17911474609375,-9.743350982666016,-0.7155612111091614,-0.8894809484481812
1758614215405155300,9.1891552734375,-9.74339771270752,-0.7143567800521851,-0.8899664282798767
1758614215415197700,9.19919775390625,-9.743474006652832,-0.7131454348564148,-0.8900958895683289
1758614215425240000,9.209239990234375,-9.743562698364258,-0.7119559645652771,-0.8901114463806152
1758614215435280100,9.219280029296876,-9.743629455566406,-0.7110329866409302,-0.8900769948959351
1758614215445322200,9.229322265625,-9.743653297424316,-0.7102333903312683,-0.8904985189437866
1758614215455362300,9.2393623046875,-9.74365234375,-0.7094147801399231,-0.8910928964614868
1758614215465403600,9.249403564453125,-9.743672370910645,-0.7084153294563293,-0.8916846513748169
1758614215475446800,9.25944677734375,-9.743729591369629,-0.7071854472160339,-0.8920404314994812
1758614215485489000,9.269489013671874,-9.74383544921875,-0.7057674527168274,-0.8919892311096191
1758614215495530000,9.279530029296875,-9.744041442871094,-0.7041810154914856,-0.8910399675369263
1758614215505570800,9.28957080078125,-9.744301795959473,-0.7023120522499084,-0.8896474838256836
1758614215515612700,9.29961279296875,-9.744540214538574,-0.7003374695777893,-0.8886028528213501
1758614215525655000,9.309655029296875,-9.744734764099121,-0.698153018951416,-0.8881792426109314
1758614215535696600,9.319696533203125,-9.744880676269531,-0.6955724954605103,-0.8885711431503296
1758614215545737000,9.329737060546876,-9.74500560760498,-0.6924341320991516,-0.8896954655647278
1758614215555777800,9.33977783203125,-9.745147705078125,-0.6887344717979431,-0.8909898400306702
1758614215565821400,9.349821533203125,-9.745386123657227,-0.6843931078910828,-0.8917415142059326
1758614215575861200,9.359861328125,-9.745747566223145,-0.6795727610588074,-0.8914514780044556
1758614215585904000,9.369904052734375,-9.746232032775879,-0.674498438835144,-0.8900244832038879
1758614215595945200,9.3799453125,-9.746784210205078,-0.6697525382041931,-0.8875464797019958
1758614215605986800,9.38998681640625,-9.747352600097656,-0.6659044623374939,-0.8842084407806396
1758614215616028400,9.4000283203125,-9.748029708862305,-0.6619935035705566,-0.879661500453949
1758614215626069200,9.4100693359375,-9.748767852783203,-0.6571374535560608,-0.8751034140586853
1758614215636111600,9.420111572265625,-9.74948787689209,-0.6508275866508484,-0.8718023300170898
1758614215646153000,9.430153076171875,-9.750198364257812,-0.6426388621330261,-0.8699150085449219
1758614215656194600,9.440194580078124,-9.750938415527344,-0.633324146270752,-0.8685099482536316
1758614215666236200,9.450236083984375,-9.751809120178223,-0.6235294342041016,-0.8657854199409485
1758614215676278500,9.460278564453125,-9.752872467041016,-0.6133704781532288,-0.8610159754753113
1758614215686319000,9.470319091796876,-9.754093170166016,-0.6025981307029724,-0.8547882437705994
1758614215696359700,9.480359619140625,-9.755498886108398,-0.5905357599258423,-0.8471227884292603
1758614215706402300,9.49040234375,-9.756915092468262,-0.5787392854690552,-0.8389713764190674
1758614215716442000,9.500442138671875,-9.758305549621582,-0.5677321553230286,-0.8302381634712219
1758614215726485500,9.510485595703125,-9.759584426879883,-0.5570996999740601,-0.8223960995674133
1758614215736526300,9.5205263671875,-9.760794639587402,-0.5463781952857971,-0.8151763677597046
1758614215746570800,9.53057080078125,-9.76210880279541,-0.5349051356315613,-0.8069928288459778
1758614215756611000,9.540611083984375,-9.763683319091797,-0.5219973921775818,-0.7963252663612366
1758614215766648800,9.55064892578125,-9.765413284301758,-0.5083357095718384,-0.783903181552887
1758614215786735400,9.5707353515625,-9.769052505493164,-0.4855445921421051,-0.7523132562637329
1758614215796777200,9.580777099609374,-9.771000862121582,-0.4760268032550812,-0.7328296899795532
1758614215806818800,9.59081884765625,-9.772879600524902,-0.4664282500743866,-0.713725209236145
1758614215816859600,9.600859619140625,-9.774700164794922,-0.4563508629798889,-0.6950253248214722
1758614215826901200,9.6109013671875,-9.776437759399414,-0.4464506506919861,-0.6768473982810974
1758614215836943400,9.620943359375,-9.778260231018066,-0.43516969680786133,-0.6575486660003662
1758614215846983400,9.6309833984375,-9.780072212219238,-0.42349618673324585,-0.6379745006561279
1758614215857026800,9.64102685546875,-9.78213119506836,-0.4095696210861206,-0.6150778532028198
1758614215867068700,9.651068603515625,-9.784614562988281,-0.3911747336387634,-0.5868617296218872
1758614215877108700,9.661108642578125,-9.787219047546387,-0.36856982111930847,-0.5573565363883972
1758614215887151600,9.671151611328124,-9.789880752563477,-0.3438979685306549,-0.5254213809967041
1758614215897148000,9.68114794921875,-9.791975021362305,-0.32331112027168274,-0.49885237216949463
1758614215907234300,9.691234375,-9.793006896972656,-0.30901727080345154,-0.4875573217868805
1758614215917276000,9.70127587890625,-9.793922424316406,-0.30004599690437317,-0.4745420515537262
1758614215927317800,9.71131787109375,-9.794694900512695,-0.30414870381355286,-0.45559054613113403
1758614215937357300,9.721357421875,-9.7951021194458,-0.3201010525226593,-0.43548473715782166
1758614215947399000,9.73139892578125,-9.795304298400879,-0.3462766110897064,-0.41024935245513916
1758614215957441800,9.74144189453125,-9.795042991638184,-0.38316792249679565,-0.38266947865486145
1758614215967458000,9.7514580078125,-9.794139862060547,-0.4315948188304901,-0.35306841135025024
1758614215977500200,9.761500244140626,-9.792112350463867,-0.49660754203796387,-0.32254084944725037
1758614215987541000,9.771541015625,-9.788595199584961,-0.5765848159790039,-0.295137882232666
1758614215997582800,9.781582763671874,-9.783459663391113,-0.6693748831748962,-0.2684173882007599
1758614216007649500,9.7916494140625,-9.776805877685547,-0.7693579792976379,-0.24138590693473816
1758614216017689000,9.801689208984374,-9.768841743469238,-0.8717668056488037,-0.21433159708976746
1758614216027732000,9.81173193359375,-9.758187294006348,-0.9885013699531555,-0.19178283214569092
1758614216037772300,9.821772216796875,-9.744762420654297,-1.1161988973617554,-0.1728094220161438
1758614216047816700,9.831816650390625,-9.728453636169434,-1.2526426315307617,-0.15567290782928467
1758614216057857800,9.84185791015625,-9.70917797088623,-1.3959240913391113,-0.13917671144008636
1758614216067898000,9.851898193359375,-9.686798095703125,-1.5450602769851685,-0.12194252014160156
1758614216077939200,9.861939208984374,-9.661162376403809,-1.6992015838623047,-0.10376235097646713
1758614216087982800,9.87198291015625,-9.632111549377441,-1.8578197956085205,-0.08417666703462601
1758614216098023200,9.882023193359375,-9.599503517150879,-2.0202689170837402,-0.0648452565073967
1758614216108064800,9.892064697265624,-9.563348770141602,-2.185486316680908,-0.0457032285630703
1758614216118106000,9.902106201171875,-9.523611068725586,-2.3529324531555176,-0.026049932464957237
1758614216128147700,9.912147705078125,-9.479836463928223,-2.523651361465454,-0.006804917007684708
1758614216138188800,9.922188720703126,-9.431892395019531,-2.697307586669922,0.009660770185291767
1758614216148230400,9.93223046875,-9.379724502563477,-2.8733317852020264,0.029239295050501823
1758614216158273500,9.9422734375,-9.323929786682129,-3.0493242740631104,0.045749641954898834
1758614216168314400,9.952314453125,-9.265223503112793,-3.2231388092041016,0.05559474229812622
1758614216178354200,9.962354248046875,-9.20307731628418,-3.3965232372283936,0.056462615728378296
1758614216188396800,9.972396728515625,-9.137746810913086,-3.568653106689453,0.04893827438354492
1758614216198439400,9.982439453125,-9.069635391235352,-3.738588809967041,0.02822217158973217
1758614216208480300,9.992480224609375,-8.997574806213379,-3.908930540084839,-0.004908006638288498
1758614216218521600,10.002521484375,-8.921387672424316,-4.079601287841797,-0.04286520928144455
1758614216228564700,10.012564697265624,-8.842287063598633,-4.24783992767334,-0.07716438919305801
1758614216238604000,10.02260400390625,-8.757454872131348,-4.419256687164307,-0.11513080447912216
1758614216248646000,10.03264599609375,-8.658662796020508,-4.607694625854492,-0.1812116503715515
1758614216258687700,10.042687744140625,-8.567638397216797,-4.773561954498291,-0.2117510735988617
1758614216268729000,10.05272900390625,-8.481911659240723,-4.9239702224731445,-0.21871350705623627
1758614216278771500,10.062771484375,-8.3966646194458,-5.068002700805664,-0.2180919498205185
1758614216288812500,10.0728125,-8.311469078063965,-5.206785678863525,-0.21206974983215332
1758614216298854700,10.082854736328125,-8.225632667541504,-5.341788291931152,-0.20094658434391022
1758614216308896500,10.092896484375,-8.137514114379883,-5.475693225860596,-0.18373267352581024
1758614216318936300,10.102936279296875,-8.045967102050781,-5.60995626449585,-0.16408398747444153
1758614216328940000,10.11293994140625,-7.9508891105651855,-5.7444658279418945,-0.14362165331840515
1758614216339020500,10.1230205078125,-7.852256774902344,-5.879044532775879,-0.12250999361276627
1758614216349063000,10.13306298828125,-7.75178861618042,-6.011227607727051,-0.10517854988574982
1758614216359104800,10.143104736328125,-7.6512370109558105,-6.138895034790039,-0.09332098066806793
1758614216369145000,10.15314501953125,-7.549612522125244,-6.263585567474365,-0.0832909569144249
1758614216379185000,10.163184814453125,-7.447779655456543,-6.384457588195801,-0.07342845946550369
1758614216389226800,10.173226806640624,-7.346574306488037,-6.500759601593018,-0.06403841823339462
1758614216399269000,10.18326904296875,-7.245518684387207,-6.61328125,-0.055703796446323395
1758614216409311500,10.1933115234375,-7.142687797546387,-6.724278450012207,-0.047284387052059174
1758614216419354400,10.203354248046875,-7.038325309753418,-6.833500385284424,-0.03729354217648506
1758614216429393200,10.21339306640625,-6.933546543121338,-6.9398298263549805,-0.02877122536301613
1758614216439434500,10.2234345703125,-6.83018684387207,-7.04161262512207,-0.018778041005134583
1758614216449478000,10.233477783203124,-6.729739665985107,-7.137698650360107,-0.004799102433025837
1758614216459520500,10.2435205078125,-6.630948543548584,-7.22955846786499,0.012955675832927227
1758614216469560300,10.253560302734375,-6.532215118408203,-7.318832874298096,0.03134400025010109
1758614216479605000,10.26360498046875,-6.432948112487793,-7.406142234802246,0.04896429181098938
1758614216489642200,10.273642333984375,-6.33336877822876,-7.491359233856201,0.06384282559156418
1758614216499684000,10.28368408203125,-6.233384132385254,-7.574638843536377,0.07658069580793381
1758614216509725200,10.29372509765625,-6.133171558380127,-7.655851364135742,0.09089584648609161
1758614216519766800,10.303766845703125,-6.032958030700684,-7.7348198890686035,0.10987327992916107
1758614216529811200,10.313811279296875,-5.9323554039001465,-7.811919212341309,0.13113580644130707
1758614216539850000,10.32385009765625,-5.831327438354492,-7.887187957763672,0.15486322343349457
1758614216549891800,10.333891845703125,-5.729955673217773,-7.96061372756958,0.17990422248840332
1758614216559933700,10.34393359375,-5.628411769866943,-8.03205394744873,0.20795564353466034
1758614216569976000,10.35397607421875,-5.528940677642822,-8.099924087524414,0.2412002831697464
1758614216580017400,10.364017333984375,-5.430268287658691,-8.165263175964355,0.27712997794151306
1758614216590056700,10.374056640625,-5.331106662750244,-8.22907543182373,0.3126111626625061
1758614216600101000,10.38410107421875,-5.230805397033691,-8.291873931884766,0.34587362408638
1758614216610143000,10.39414306640625,-5.130069255828857,-8.353263854980469,0.37613824009895325
1758614216620184600,10.4041845703125,-5.030379295349121,-8.412236213684082,0.40706416964530945
1758614216630224000,10.414223876953125,-4.930327892303467,-8.46955394744873,0.4411703944206238
1758614216640267000,10.42426708984375,-4.830341339111328,-8.525199890136719,0.4742092192173004
1758614216650306800,10.434306884765626,-4.7289652824401855,-8.580162048339844,0.5038092732429504
1758614216660348400,10.444348388671875,-4.6253342628479,-8.634912490844727,0.5297776460647583
1758614216670389800,10.4543896484375,-4.520519256591797,-8.688821792602539,0.5526221394538879
1758614216680433200,10.46443310546875,-4.415238380432129,-8.741477012634277,0.5730180740356445
1758614216690474500,10.474474609375,-4.310574054718018,-8.792288780212402,0.5922104120254517
1758614216700515300,10.484515380859374,-4.206602096557617,-8.841256141662598,0.6105861663818359
1758614216710555600,10.4945556640625,-4.102467060089111,-8.888888359069824,0.6273600459098816
1758614216720600800,10.504600830078125,-3.9956908226013184,-8.93629264831543,0.6428672075271606
1758614216730640000,10.514639892578124,-3.887603998184204,-8.982613563537598,0.6597896218299866
1758614216740680700,10.5246806640625,-3.7796859741210938,-9.027164459228516,0.678501307964325
1758614216750723600,10.5347236328125,-3.6719727516174316,-9.06989860534668,0.6997684836387634
1758614216760764400,10.544764404296876,-3.56587553024292,-9.110334396362305,0.7228184938430786
1758614216770806800,10.554806884765625,-3.4621803760528564,-9.148284912109375,0.7472262382507324
1758614216780846300,10.564846435546874,-3.3610470294952393,-9.183828353881836,0.7725291848182678
1758614216790889500,10.574889404296876,-3.261411666870117,-9.217494010925293,0.798194944858551
1758614216800931800,10.584931884765625,-3.163181781768799,-9.24941635131836,0.8238192200660706
1758614216810973700,10.5949736328125,-3.06630277633667,-9.279769897460938,0.8484131693840027
1758614216821013800,10.605013671875,-2.9694039821624756,-9.3090181350708,0.8723271489143372
1758614216831055000,10.61505517578125,-2.873051166534424,-9.336956024169922,0.8960756063461304
1758614216841097500,10.625097412109374,-2.77777361869812,-9.363513946533203,0.9190689325332642
1758614216851139300,10.635139404296876,-2.682239532470703,-9.389126777648926,0.9412906765937805
1758614216861178000,10.64517822265625,-2.58486008644104,-9.414244651794434,0.9626218676567078
1758614216871221200,10.65522119140625,-2.486482858657837,-9.438587188720703,0.9831587672233582
1758614216881261800,10.66526171875,-2.3884661197662354,-9.461716651916504,1.0036474466323853
1758614216891304400,10.675304443359375,-2.2907772064208984,-9.483672142028809,1.0239285230636597
1758614216901345000,10.685344970703126,-2.1946589946746826,-9.504410743713379,1.0420128107070923
1758614216911386400,10.695386474609375,-2.100832223892212,-9.52383804321289,1.05789053440094
1758614216921427200,10.70542724609375,-2.009331464767456,-9.542068481445312,1.07126784324646
1758614216931471600,10.7154716796875,-1.920048475265503,-9.559215545654297,1.0821120738983154
1758614216941512000,10.725511962890625,-1.831787109375,-9.575590133666992,1.0902905464172363
1758614216951553500,10.735553466796874,-1.7446677684783936,-9.591292381286621,1.0951615571975708
1758614216961594600,10.7455947265625,-1.6587334871292114,-9.606231689453125,1.0977317094802856
1758614216971637200,10.75563720703125,-1.573824405670166,-9.620386123657227,1.0988210439682007
1758614216981676800,10.7656767578125,-1.4902477264404297,-9.633578300476074,1.0997604131698608
1758614216991718400,10.775718505859375,-1.410571813583374,-9.64537525177002,1.1014360189437866
1758614217001761500,10.785761474609375,-1.3339440822601318,-9.655904769897461,1.1046305894851685
1758614217011801600,10.795801513671876,-1.2583518028259277,-9.665510177612305,1.1093065738677979
1758614217021846000,10.805845947265626,-1.1847944259643555,-9.67430591583252,1.1136507987976074
1758614217031885000,10.815885009765625,-1.1151102781295776,-9.682024002075195,1.118515133857727
1758614217041927700,10.825927734375,-1.0501558780670166,-9.688713073730469,1.1234498023986816
1758614217051968500,10.835968505859375,-0.9871825575828552,-9.694866180419922,1.1274341344833374
1758614217062009000,10.846009033203124,-0.9245314002037048,-9.70073127746582,1.1301113367080688
1758614217072051200,10.85605126953125,-0.8647283911705017,-9.706398963928223,1.1288042068481445
1758614217082092500,10.866092529296875,-0.8186277747154236,-9.713501930236816,1.101762294769287
1758614217092134000,10.8761337890625,-0.7728931903839111,-9.722981452941895,1.0499463081359863
1758614217102175700,10.88617578125,-0.7253880500793457,-9.730395317077637,1.0145750045776367
1758614217112217600,10.896217529296875,-0.6831249594688416,-9.733983039855957,1.0094707012176514
1758614217122259000,10.906259033203124,-0.6476926207542419,-9.736827850341797,1.0053925514221191
1758614217132301300,10.91630126953125,-0.6157001256942749,-9.739278793334961,1.0017359256744385
1758614217142340900,10.9263408203125,-0.5911353826522827,-9.741300582885742,0.9968637824058533
1758614217152384000,10.936384033203124,-0.572990894317627,-9.740910530090332,1.0111792087554932
1758614217162427000,10.946427001953126,-0.5623039603233337,-9.739948272705078,1.0263214111328125
1758614217172467200,10.95646728515625,-0.5485472083091736,-9.740057945251465,1.0327229499816895
1758614217182509800,10.966509765625,-0.5360914468765259,-9.740549087524414,1.034623622894287
1758614217192550700,10.976550537109375,-0.5303512811660767,-9.74097728729248,1.0335427522659302
1758614217202591700,10.986591796875,-0.5367861390113831,-9.741064071655273,1.0294032096862793
1758614217212634000,10.996634033203126,-0.5568519830703735,-9.740775108337402,1.0214455127716064
1758614217222672400,11.00667236328125,-0.5883053541183472,-9.739808082580566,1.0129833221435547
1758614217232717000,11.016717041015625,-0.6256579756736755,-9.73801040649414,1.0078977346420288
1758614217242758400,11.02675830078125,-0.6677684187889099,-9.735150337219238,1.00849449634552
1758614217252800800,11.03680078125,-0.62776118516922,-9.733270645141602,1.0514179468154907
1758614217262839000,11.046839111328126,-0.47372448444366455,-9.73316764831543,1.1301103830337524
1758614217272882400,11.05688232421875,-0.44985732436180115,-9.730317115783691,1.1638962030410767
1758614217282923800,11.066923828125,-0.4532264769077301,-9.728885650634766,1.1745235919952393
1758614217292966000,11.0769658203125,-0.44715064764022827,-9.7274751663208,1.1884331703186035
1758614217303005700,11.087005615234375,-0.43306002020835876,-9.726224899291992,1.2037911415100098
1758614217313049000,11.097049072265625,-0.4130397439002991,-9.72547435760498,1.2168381214141846
1758614217323089400,11.10708935546875,-0.38749265670776367,-9.725399017333984,1.2257884740829468
1758614217333130000,11.1171298828125,-0.35657140612602234,-9.725801467895508,1.2319800853729248
1758614217343171600,11.127171630859374,-0.3210665285587311,-9.726466178894043,1.2364896535873413
1758614217353214200,11.137214111328126,-0.2850921154022217,-9.72746467590332,1.2374588251113892
1758614217363257000,11.147257080078125,-0.2514577805995941,-9.729130744934082,1.2316242456436157
1758614217373298200,11.157298095703124,-0.20123836398124695,-9.730952262878418,1.226452112197876
1758614217383338200,11.167338134765625,-0.14323222637176514,-9.732794761657715,1.2199689149856567
1758614217393380900,11.177380859375,-0.08067871630191803,-9.734294891357422,1.2137084007263184
1758614217403424000,11.187424072265625,-0.017036449164152145,-9.735238075256348,1.2087092399597168
1758614217413464000,11.197464111328125,0.044880304485559464,-9.735527038574219,1.2056561708450317
1758614217423504400,11.20750439453125,0.10216723382472992,-9.735119819641113,1.205460548400879
1758614217433521400,11.217521484375,0.15130431950092316,-9.734359741210938,1.2064204216003418
1758614217443590000,11.22758984375,0.18148823082447052,-9.734359741210938,1.2022559642791748
1758614217453630500,11.23763037109375,0.20561617612838745,-9.73416519165039,1.1999393701553345
1758614217463670000,11.247669921875,0.24143797159194946,-9.732956886291504,1.2030658721923828
1758614217473711900,11.2577119140625,0.28316664695739746,-9.731270790100098,1.2076009511947632
1758614217483754200,11.267754150390624,0.3259945511817932,-9.729508399963379,1.2109925746917725
1758614217493796600,11.277796630859376,0.36958029866218567,-9.727601051330566,1.2138018608093262
1758614217503837700,11.287837646484375,0.41332098841667175,-9.725576400756836,1.2159180641174316
1758614217513877500,11.29787744140625,0.45547065138816833,-9.723496437072754,1.2174941301345825
1758614217523920600,11.307920654296876,0.49541881680488586,-9.721306800842285,1.219377875328064
1758614217533963500,11.317963623046875,0.5350939035415649,-9.718997955322266,1.2210139036178589
1758614217544005400,11.32800537109375,0.5761168003082275,-9.716507911682129,1.2221567630767822
1758614217554048300,11.33804833984375,0.6187968254089355,-9.713788032531738,1.222925066947937
1758614217564088800,11.3480888671875,0.6630117297172546,-9.710750579833984,1.2238717079162598
1758614217574126300,11.358126220703125,0.7069769501686096,-9.707550048828125,1.22464120388031
1758614217584169000,11.3681689453125,0.7479413747787476,-9.704339981079102,1.225767970085144
1758614217594214400,11.37821435546875,0.7854956984519958,-9.700719833374023,1.230905294418335
1758614217604257800,11.3882578125,0.8203293085098267,-9.696927070617676,1.2380532026290894
1758614217614293500,11.39829345703125,0.8502863645553589,-9.693644523620605,1.2435338497161865
1758614217624335600,11.408335693359374,0.8765239715576172,-9.690486907958984,1.2499122619628906
1758614217634377700,11.418377685546876,0.8982002139091492,-9.687710762023926,1.2560241222381592
1758614217644418000,11.42841796875,0.9156190752983093,-9.68545913696289,1.260807991027832
1758614217654460700,11.438460693359374,0.9290693998336792,-9.6837797164917,1.263875961303711
1758614217664500200,11.448500244140625,0.938596248626709,-9.682640075683594,1.2655678987503052
1758614217674542000,11.4585419921875,0.9453784227371216,-9.681879997253418,1.2663180828094482
1758614217684583200,11.468583251953126,0.9512695074081421,-9.681349754333496,1.265968680381775
1758614217694625800,11.478625732421875,0.9575120210647583,-9.680967330932617,1.2641921043395996
1758614217704667000,11.4886669921875,0.9632422924041748,-9.680696487426758,1.261908769607544
1758614217714709200,11.498709228515626,0.967556357383728,-9.680520057678223,1.2599575519561768
1758614217724750300,11.508750244140625,0.9695063829421997,-9.680563926696777,1.2581275701522827
1758614217734793000,11.51879296875,0.9700560569763184,-9.680957794189453,1.2546496391296387
1758614217744833000,11.5288330078125,0.9709874987602234,-9.681333541870117,1.2510334253311157
1758614217754876700,11.538876708984375,0.9725995659828186,-9.681525230407715,1.248295545578003
1758614217764917800,11.548917724609375,0.9755664467811584,-9.681463241577148,1.246461272239685
1758614217774958000,11.5589580078125,0.9787613749504089,-9.681279182434082,1.2453906536102295
1758614217785000700,11.569000732421875,0.9803588390350342,-9.681169509887695,1.244966983795166
1758614217795041500,11.57904150390625,0.9810914993286133,-9.68097972869873,1.245871901512146
1758614217805081600,11.58908154296875,0.9813446998596191,-9.68079662322998,1.2471023797988892
1758614217815124200,11.599124267578125,0.981112539768219,-9.680708885192871,1.2479586601257324
1758614217825166800,11.609166748046874,0.9808511734008789,-9.680643081665039,1.2486872673034668
1758614217835206400,11.619206298828125,0.9804190397262573,-9.68064022064209,1.2490389347076416
1758614217845249500,11.62924951171875,0.9792665839195251,-9.68077564239502,1.2488927841186523
1758614217855289900,11.639289794921876,0.9768557548522949,-9.68111801147461,1.2481268644332886
1758614217865331200,11.649331298828125,0.9731112122535706,-9.681639671325684,1.2470067739486694
1758614217875371800,11.659371826171874,0.969188928604126,-9.682204246520996,1.2456721067428589
1758614217885414000,11.669413818359375,0.9658226370811462,-9.682703971862793,1.2444044351577759
1758614217895456300,11.679456298828125,0.9627662897109985,-9.683110237121582,1.2436115741729736
1758614217905496800,11.689496826171874,0.9598883390426636,-9.683403968811035,1.2435557842254639
1758614217915540000,11.6995400390625,0.9563496112823486,-9.683658599853516,1.244303584098816
1758614217925580500,11.70958056640625,0.9518536329269409,-9.683984756469727,1.2452075481414795
1758614217935623200,11.719623046875,0.9469192028045654,-9.684408187866211,1.2456706762313843
1758614217945664500,11.72966455078125,0.941470742225647,-9.684957504272461,1.2455309629440308
1758614217955705000,11.739705078125,0.9354937076568604,-9.685643196105957,1.2447117567062378
1758614217965747200,11.749747314453124,0.9291301965713501,-9.686434745788574,1.2433104515075684
1758614217975788500,11.75978857421875,0.9230561256408691,-9.687213897705078,1.2417662143707275
1758614217985829600,11.76982958984375,0.9177106022834778,-9.687875747680664,1.24056077003479
1758614217995871700,11.779871826171876,0.9130778312683105,-9.688362121582031,1.2401775121688843
1758614218005912800,11.789912841796875,0.9084573984146118,-9.688690185546875,1.2410061359405518
1758614218015956000,11.7999560546875,0.9042970538139343,-9.688920974731445,1.2422430515289307
1758614218025996500,11.80999658203125,0.9006010293960571,-9.689160346984863,1.2430742979049683
1758614218036037000,11.820037109375,0.8973102569580078,-9.68944263458252,1.2432488203048706
1758614218046078500,11.830078369140624,0.894487202167511,-9.689773559570312,1.242693543434143
1758614218056120300,11.840120361328125,0.8915688395500183,-9.690170288085938,1.241707444190979
1758614218066162200,11.850162109375,0.887490451335907,-9.690640449523926,1.2409592866897583
1758614218076203000,11.860203125,0.8823091983795166,-9.691176414489746,1.2404611110687256
1758614218086246400,11.870246337890626,0.8767192959785461,-9.691723823547363,1.2401541471481323
1758614218096285400,11.880285400390624,0.8707001209259033,-9.692338943481445,1.239579677581787
1758614218106326300,11.890326171875,0.8644927740097046,-9.693015098571777,1.2386417388916016
1758614218116370400,11.900370361328125,0.8581730723381042,-9.693771362304688,1.23711359500885
1758614218126410000,11.910409912109374,0.8517440557479858,-9.694579124450684,1.2352310419082642
1758614218136451000,11.920451171875,0.8454992175102234,-9.695347785949707,1.2334766387939453
1758614218146492000,11.930491943359375,0.8390450477600098,-9.696099281311035,1.231982946395874
1758614218156536300,11.940536376953125,0.8324880003929138,-9.696778297424316,1.2310892343521118
1758614218166578400,11.950578369140626,0.8260303139686584,-9.697422981262207,1.2303463220596313
1758614218176618200,11.9606181640625,0.8200311064720154,-9.698044776916504,1.2294751405715942
1758614218186661000,11.9706611328125,0.8143733143806458,-9.698688507080078,1.2281582355499268
1758614218196701200,11.980701171875,0.808971107006073,-9.699399948120117,1.2260910272598267
1758614218206742500,11.990742431640625,0.8041383624076843,-9.700105667114258,1.223692536354065
1758614218216784000,12.000783935546876,0.799405038356781,-9.700837135314941,1.2209922075271606
1758614218226825500,12.010825439453125,0.795107901096344,-9.701519966125488,1.218380331993103
1758614218236865800,12.02086572265625,0.7903664112091064,-9.702208518981934,1.2159805297851562
1758614218246907000,12.030906982421875,0.7844800353050232,-9.702938079833984,1.213965892791748
1758614218256950300,12.0409501953125,0.77869713306427,-9.703633308410645,1.2121351957321167
1758614218266990000,12.050989990234376,0.7730230093002319,-9.70428466796875,1.2105414867401123
1758614218277032200,12.0610322265625,0.7667752504348755,-9.704903602600098,1.2095483541488647
1758614218287073800,12.07107373046875,0.7607894539833069,-9.705439567565918,1.2090320587158203
1758614218297117200,12.0811171875,0.7558164000511169,-9.705876350402832,1.2086397409439087
1758614218307134700,12.091134765625,0.7515894174575806,-9.706339836120605,1.2075504064559937
1758614218317201200,12.101201171875,0.7477127313613892,-9.706866264343262,1.2057280540466309
1758614218327239700,12.11123974609375,0.7438319325447083,-9.707435607910156,1.203548789024353
1758614218337281300,12.12128125,0.7400143146514893,-9.707991600036621,1.2014057636260986
1758614218347324400,12.131324462890625,0.736327052116394,-9.708521842956543,1.1993885040283203
1758614218357365500,12.141365478515626,0.7330327033996582,-9.708956718444824,1.197877049446106
1758614218367407600,12.15140771484375,0.7299781441688538,-9.709307670593262,1.1969175338745117
1758614218377447700,12.16144775390625,0.7267376184463501,-9.709610939025879,1.1964248418807983
1758614218387489800,12.17148974609375,0.7235502600669861,-9.70989990234375,1.1960170269012451
1758614218397531400,12.181531494140625,0.7205629348754883,-9.71022891998291,1.1951426267623901
1758614218407573200,12.1915732421875,0.7177463173866272,-9.710575103759766,1.194014072418213
1758614218417614300,12.2016142578125,0.7148940563201904,-9.710939407348633,1.1927651166915894
1758614218427655400,12.211655517578125,0.7118295431137085,-9.711346626281738,1.1912860870361328
1758614218437697800,12.22169775390625,0.7083522081375122,-9.711771011352539,1.189892053604126
1758614218447739000,12.23173876953125,0.7042234539985657,-9.712227821350098,1.188618540763855
1758614218457779700,12.24177978515625,0.6998912692070007,-9.712675094604492,1.1875348091125488
1758614218467822800,12.25182275390625,0.6955052614212036,-9.713128089904785,1.1864032745361328
1758614218477863200,12.26186328125,0.6911959052085876,-9.7135648727417,1.1853303909301758
1758614218487905000,12.271905029296875,0.6868654489517212,-9.713980674743652,1.1844377517700195
1758614218497945300,12.2819453125,0.6827630400657654,-9.714357376098633,1.183740496635437
1758614218507987500,12.291987548828125,0.6790003180503845,-9.714694023132324,1.1831291913986206
1758614218518030600,12.302030517578125,0.6750838756561279,-9.715005874633789,1.182809591293335
1758614218528044500,12.31204443359375,0.6707966923713684,-9.715299606323242,1.1828268766403198
1758614218538111700,12.32211181640625,0.6652570366859436,-9.715638160705566,1.1831849813461304
1758614218548153000,12.332153076171876,0.658000648021698,-9.716102600097656,1.1834262609481812
1758614218558194700,12.342194580078125,0.6499566435813904,-9.716657638549805,1.1833215951919556
1758614218568235000,12.352235107421874,0.6422809958457947,-9.717232704162598,1.1827751398086548
1758614218578278000,12.36227783203125,0.6355414986610413,-9.717777252197266,1.1819617748260498
1758614218588325400,12.372325439453125,0.6293656826019287,-9.718301773071289,1.180938482284546
1758614218598362000,12.382362060546875,0.6233880519866943,-9.718856811523438,1.17954683303833
1758614218608404200,12.392404296875,0.6181588768959045,-9.719395637512207,1.1778550148010254
1758614218618443300,12.402443359375,0.6141740083694458,-9.719889640808105,1.1758675575256348
1758614218628486000,12.41248583984375,0.6111942529678345,-9.720314979553223,1.1738988161087036
1758614218638525700,12.422525634765625,0.6087285280227661,-9.720682144165039,1.1721436977386475
1758614218648570400,12.4325703125,0.6059429049491882,-9.7210054397583,1.1708950996398926
1758614218658609400,12.442609375,0.6026058793067932,-9.721305847167969,1.1701290607452393
1758614218668652000,12.452652099609375,0.599364161491394,-9.72156810760498,1.169606328010559
1758614218678693600,12.462693603515625,0.5964598655700684,-9.721811294555664,1.1690797805786133
1758614218688735000,12.47273486328125,0.5938414931297302,-9.722026824951172,1.1686099767684937
1758614218698776000,12.482776123046875,0.5916493535041809,-9.722220420837402,1.168114423751831
1758614218708819000,12.49281884765625,0.5897437930107117,-9.72238826751709,1.1676849126815796
1758614218718859500,12.502859619140626,0.5880328416824341,-9.72257137298584,1.1670283079147339
1758614218728885000,12.512885009765625,0.5867213606834412,-9.722740173339844,1.166277527809143
1758614218738943000,12.52294287109375,0.5858079791069031,-9.722855567932129,1.1657699346542358
1758614218748983000,12.532983154296875,0.5852841138839722,-9.722926139831543,1.1654402017593384
1758614218759025400,12.543025390625,0.5850782990455627,-9.722959518432617,1.1652737855911255
1758614218769066800,12.553066650390624,0.5850209593772888,-9.722969055175781,1.1652133464813232
1758614218779107800,12.56310791015625,0.5852606892585754,-9.722973823547363,1.165064811706543
1758614218789150000,12.57314990234375,0.5854770541191101,-9.722987174987793,1.1648480892181396
1758614218799189800,12.583189697265626,0.5857419371604919,-9.722997665405273,1.1646215915679932
1758614218809232600,12.593232666015625,0.5860956907272339,-9.72298526763916,1.1645400524139404
1758614218819272700,12.603272705078124,0.586807906627655,-9.722915649414062,1.1647735834121704
1758614218829314600,12.613314453125,0.587578535079956,-9.722807884216309,1.1652814149856567
1758614218839357400,12.623357421875,0.5883311033248901,-9.722678184509277,1.1659810543060303
1758614218849400000,12.633400146484375,0.5894274115562439,-9.722515106201172,1.1667897701263428
1758614218859439600,12.643439697265626,0.5908582210540771,-9.722357749938965,1.1673777103424072
1758614218869482200,12.653482177734375,0.5924451947212219,-9.722204208374023,1.1678574085235596
1758614218879523300,12.6635234375,0.594261884689331,-9.722037315368652,1.1683260202407837
1758614218889562000,12.67356201171875,0.596176266670227,-9.721855163574219,1.1688525676727295
1758614218899604700,12.683604736328125,0.5977146625518799,-9.721670150756836,1.169609546661377
1758614218909647400,12.6936474609375,0.5990923047065735,-9.72145938873291,1.1706517934799194
1758614218919687700,12.703687744140625,0.6005955934524536,-9.721212387084961,1.1719305515289307
1758614218929729500,12.7137294921875,0.601617693901062,-9.721003532409668,1.1731464862823486
1758614218939771400,12.723771484375,0.6021919250488281,-9.720860481262207,1.1740262508392334
1758614218949813000,12.73381298828125,0.6025128960609436,-9.720746040344238,1.1748106479644775
1758614218959855400,12.74385546875,0.6024918556213379,-9.720651626586914,1.175602674484253
1758614218969896400,12.753896484375,0.6022351980209351,-9.720573425292969,1.176390290260315
1758614218979937300,12.763937255859375,0.6017200350761414,-9.720501899719238,1.1772398948669434
1758614218989979100,12.773979248046874,0.6011469960212708,-9.720434188842773,1.1780873537063599
1758614219000020700,12.784020751953125,0.6006032228469849,-9.720379829406738,1.1788060665130615
1758614219010062000,12.79406201171875,0.6001307368278503,-9.720361709594727,1.1792153120040894
1758614219020103200,12.804103271484376,0.6003172993659973,-9.72032642364502,1.1794071197509766
1758614219030144500,12.81414453125,0.6008546352386475,-9.720301628112793,1.1793354749679565
1758614219040185000,12.82418505859375,0.6013966798782349,-9.720284461975098,1.1792030334472656
1758614219050228700,12.834228759765624,0.6017141938209534,-9.720285415649414,1.179023265838623
1758614219060268800,12.844268798828125,0.6018539071083069,-9.720291137695312,1.1789103746414185
1758614219070312200,12.854312255859375,0.6021895408630371,-9.7202730178833,1.1788910627365112
1758614219080351700,12.864351806640625,0.602603554725647,-9.720219612121582,1.1791174411773682
1758614219090393300,12.874393310546875,0.6029456257820129,-9.720138549804688,1.1796199083328247
1758614219100436200,12.884436279296875,0.6031712889671326,-9.720040321350098,1.1803029775619507
1758614219110477000,12.89447705078125,0.6033157110214233,-9.719961166381836,1.1808871030807495
1758614219120520200,12.904520263671875,0.6037490367889404,-9.719917297363281,1.1810238361358643
1758614219130561500,12.9145615234375,0.6043460369110107,-9.719894409179688,1.1808923482894897
1758614219140600800,12.924600830078125,0.6048862934112549,-9.719873428344727,1.1807973384857178
1758614219150643200,12.934643310546875,0.6053558588027954,-9.719856262207031,1.1807061433792114
1758614219160686000,12.94468603515625,0.6056897044181824,-9.719829559326172,1.1807490587234497
1758614219170725400,12.954725341796875,0.6058961153030396,-9.71978759765625,1.1810004711151123
1758614219180769000,12.96476904296875,0.6060475707054138,-9.71972370147705,1.1814340353012085
1758614219190783700,12.97478369140625,0.6062878966331482,-9.719649314880371,1.1819369792938232
1758614219200825300,12.984825439453125,0.6066720485687256,-9.719586372375488,1.1822445392608643
1758614219210867500,12.994867431640625,0.6070877909660339,-9.719537734985352,1.1824287176132202
1758614219220908500,13.004908447265626,0.6074286699295044,-9.71951675415039,1.1824307441711426
1758614219230961000,13.0149609375,0.6076929569244385,-9.719511985778809,1.1823313236236572
