time,seconds_elapsed,z,y,x
1757491971895634200,0.05363427734375,9.562917709350586,2.0692927837371826,-0.7104523181915283
1757491971905672400,0.06367236328125,9.564779281616211,2.0567562580108643,-0.7216991782188416
1757491971925758000,0.083758056640625,9.567340850830078,2.0369927883148193,-0.7434746623039246
1757491971935799600,0.093799560546875,9.567645072937012,2.032588005065918,-0.7515721321105957
1757491971945841000,0.1038408203125,9.567421913146973,2.031994581222534,-0.7560064792633057
1757491971955876000,0.1138759765625,9.566462516784668,2.035447359085083,-0.7588594555854797
1757491971965931800,0.123931884765625,9.564335823059082,2.0429046154022217,-0.7655887603759766
1757491971975968800,0.13396875,9.561485290527344,2.051663398742676,-0.7776727676391602
1757491971985999400,0.143999267578125,9.559131622314453,2.057945728302002,-0.7899209856987
1757491971996085500,0.15408544921875,9.557496070861816,2.0613512992858887,-0.8007591366767883
1757491972006114600,0.164114501953125,9.556139945983887,2.062603712081909,-0.813609778881073
1757491972016155400,0.1741552734375,9.554694175720215,2.0628790855407715,-0.8297324180603027
1757491972026199300,0.18419921875,9.552572250366211,2.065650463104248,-0.8470847010612488
1757491972036235300,0.1942353515625,9.549866676330566,2.0718305110931396,-0.8623650670051575
1757491972046280700,0.20428076171875,9.546712875366211,2.082249879837036,-0.8721296191215515
1757491972056322000,0.214322021484375,9.543415069580078,2.0967118740081787,-0.8735771775245667
1757491972066364200,0.2243642578125,9.538461685180664,2.1247429847717285,-0.8598344326019287
1757491972076409600,0.23440966796875,9.530076026916504,2.1742312908172607,-0.8285369873046875
1757491972086442500,0.2444423828125,9.520275115966797,2.230023145675659,-0.7921242117881775
1757491972096484400,0.254484375,9.510712623596191,2.2830405235290527,-0.7550963163375854
1757491972106506200,0.26450634765625,9.503083229064941,2.3238940238952637,-0.7259747385978699
1757491972116573700,0.27457373046875,9.499271392822266,2.3454596996307373,-0.7062346339225769
1757491972126617600,0.28461767578125,9.499157905578613,2.35025954246521,-0.6916554570198059
1757491972136651300,0.2946513671875,9.501546859741211,2.345411777496338,-0.6750990748405457
1757491972146649000,0.304649169921875,9.50587272644043,2.334247589111328,-0.6525177359580994
1757491972156736300,0.314736328125,9.51330280303955,2.3132712841033936,-0.618019163608551
1757491972166777600,0.324777587890625,9.52579116821289,2.274663209915161,-0.5668512582778931
1757491972176780800,0.33478076171875,9.54430866241455,2.2132363319396973,-0.4938357472419739
1757491972186860500,0.344860595703125,9.570037841796875,2.1221444606781006,-0.38338616490364075
1757491972196876300,0.354876220703125,9.591891288757324,2.0367214679718018,-0.2889506220817566
1757491972206944000,0.364944091796875,9.605884552001953,1.9773533344268799,-0.23058129847049713
1757491972216984800,0.37498486328125,9.614095687866211,1.9391764402389526,-0.21181298792362213
1757491972227012400,0.385012451171875,9.618517875671387,1.9160168170928955,-0.22157856822013855
1757491972237029600,0.395029541015625,9.619711875915527,1.908708095550537,-0.23257417976856232
1757491972247084000,0.405083984375,9.61670207977295,1.9223707914352417,-0.24420583248138428
1757491972257125000,0.415125,9.609380722045898,1.955880880355835,-0.2653990685939789
1757491972267172600,0.425172607421875,9.59964370727539,1.9999642372131348,-0.28827497363090515
1757491972277218000,0.435218017578125,9.589391708374023,2.0470635890960693,-0.29867681860923767
1757491972287273700,0.445273681640625,9.580327033996582,2.0887181758880615,-0.3011680245399475
1757491972297292000,0.4552919921875,9.573607444763184,2.119230031967163,-0.30168241262435913
1757491972307353900,0.465353759765625,9.56927490234375,2.1381027698516846,-0.3059629499912262
1757491972317395200,0.475395263671875,9.567106246948242,2.147228717803955,-0.3098424971103668
1757491972327394600,0.48539453125,9.566725730895996,2.149042844772339,-0.30899685621261597
1757491972337478000,0.495477783203125,9.567537307739258,2.1465775966644287,-0.30090853571891785
1757491972347499500,0.50549951171875,9.569045066833496,2.142329454421997,-0.28269097208976746
1757491972357561600,0.5155615234375,9.570728302001953,2.1381256580352783,-0.2562876343727112
1757491972367582500,0.52558251953125,9.572331428527832,2.134572744369507,-0.22402599453926086
1757491972377647600,0.535647705078125,9.573681831359863,2.1317644119262695,-0.19055382907390594
1757491972387689000,0.54568896484375,9.574748992919922,2.1294937133789062,-0.15983423590660095
1757491972397723400,0.555723388671875,9.57540225982666,2.128269672393799,-0.13508537411689758
1757491972407767800,0.565767822265625,9.575404167175293,2.129352569580078,-0.11658675968647003
1757491972417813500,0.5758134765625,9.574597358703613,2.1336677074432373,-0.103231281042099
1757491972427829000,0.5858291015625,9.572870254516602,2.1418659687042236,-0.09311866760253906
1757491972437896200,0.595896240234375,9.570125579833984,2.154371500015259,-0.08650941401720047
1757491972447913200,0.605913330078125,9.566336631774902,2.171191692352295,-0.08502531796693802
1757491972457979400,0.6159794921875,9.561813354492188,2.1908695697784424,-0.08907897025346756
1757491972468020000,0.62602001953125,9.557150840759277,2.2107772827148438,-0.09719965606927872
1757491972478039300,0.636039306640625,9.553130149841309,2.2277767658233643,-0.10407868772745132
1757491972488098000,0.64609814453125,9.55031967163086,2.2396316528320312,-0.10748768597841263
1757491972498144300,0.656144287109375,9.548908233642578,2.2455976009368896,-0.10845240950584412
1757491972508185900,0.666185791015625,9.548958778381348,2.245476722717285,-0.10647889971733093
1757491972518223600,0.6762236328125,9.550094604492188,2.2407429218292236,-0.10424336045980453
1757491972528244700,0.68624462890625,9.55153751373291,2.2346324920654297,-0.10330356657505035
1757491972538310100,0.69631005859375,9.552762985229492,2.229379415512085,-0.1034729927778244
1757491972548334000,0.706333984375,9.552953720092773,2.2285959720611572,-0.10274823009967804
1757491972558396000,0.71639599609375,9.551995277404785,2.232909917831421,-0.09799349308013916
1757491972568409300,0.726409423828125,9.549768447875977,2.242724895477295,-0.09065596759319305
1757491972578450200,0.7364501953125,9.546361923217773,2.257535219192505,-0.0813494622707367
1757491972588514000,0.74651416015625,9.541825294494629,2.2769083976745605,-0.07326510548591614
1757491972598557400,0.756557373046875,9.536980628967285,2.2972888946533203,-0.06755617260932922
1757491972608575500,0.766575439453125,9.532049179077148,2.3177273273468018,-0.06542983651161194
1757491972618619400,0.776619384765625,9.527277946472168,2.3371241092681885,-0.0703168660402298
1757491972628683800,0.786683837890625,9.523063659667969,2.3538169860839844,-0.08307300508022308
1757491972638722300,0.796722412109375,9.519454956054688,2.3676044940948486,-0.10265291482210159
1757491972648740400,0.806740234375,9.516271591186523,2.379150867462158,-0.12777848541736603
1757491972658802400,0.816802490234375,9.512998580932617,2.390199661254883,-0.16096259653568268
1757491972668836400,0.82683642578125,9.50918960571289,2.4024927616119385,-0.19860127568244934
1757491972678886000,0.836885986328125,9.504525184631348,2.4173810482025146,-0.2374332845211029
1757491972688928800,0.8469287109375,9.498821258544922,2.4355673789978027,-0.27660584449768066
1757491972698964500,0.856964599609375,9.4921875,2.4569644927978516,-0.31276488304138184
1757491972709014800,0.867014892578125,9.48523998260498,2.4790055751800537,-0.3476497232913971
1757491972719043000,0.87704296875,9.479026794433594,2.4971728324890137,-0.38507935404777527
1757491972729094400,0.887094482421875,9.474081993103027,2.5096499919891357,-0.4237298369407654
1757491972739225300,0.897225341796875,9.470765113830566,2.5158278942108154,-0.4597092866897583
1757491972749208000,0.9072080078125,9.469249725341797,2.5161678791046143,-0.48818647861480713
1757491972759222300,0.91722216796875,9.469600677490234,2.5114967823028564,-0.5051263570785522
1757491972769237200,0.9272373046875,9.471811294555664,2.5025527477264404,-0.508059024810791
1757491972779278600,0.937278564453125,9.4756441116333,2.489959239959717,-0.49837779998779297
1757491972789345300,0.94734521484375,9.480533599853516,2.4739761352539062,-0.4848032593727112
1757491972799378700,0.957378662109375,9.48581600189209,2.455886125564575,-0.4733097553253174
1757491972809405000,0.967405029296875,9.49090576171875,2.437748670578003,-0.4649718403816223
1757491972819435800,0.977435791015625,9.49561595916748,2.4207851886749268,-0.45738011598587036
1757491972829491200,0.9874912109375,9.499677658081055,2.4062745571136475,-0.4495333731174469
1757491972839551000,0.997551025390625,9.502840995788574,2.3948371410369873,-0.4437057375907898
1757491972849568500,1.007568603515625,9.5049467086792,2.386950969696045,-0.44108012318611145
1757491972859640000,1.01764013671875,9.506019592285156,2.382725477218628,-0.44082796573638916
1757491972869667600,1.02766748046875,9.506303787231445,2.381246566772461,-0.4426592290401459
1757491972879719200,1.03771923828125,9.506155967712402,2.3813748359680176,-0.4451582729816437
1757491972889734000,1.04773388671875,9.505810737609863,2.382533073425293,-0.4463239014148712
1757491972899801600,1.057801513671875,9.505332946777344,2.3847339153289795,-0.44474267959594727
1757491972909842700,1.0678427734375,9.504927635192871,2.3864030838012695,-0.44445690512657166
1757491972919864000,1.077864013671875,9.504617691040039,2.387708902359009,-0.4440653622150421
1757491972929925000,1.087925048828125,9.504509925842285,2.38820219039917,-0.4437147378921509
1757491972939944400,1.0979443359375,9.504705429077148,2.3877170085906982,-0.4421602487564087
1757491972950004500,1.10800439453125,9.505301475524902,2.385690927505493,-0.44025376439094543
1757491972960049400,1.11804931640625,9.506224632263184,2.3821465969085693,-0.4395136535167694
1757491972970090800,1.1280908203125,9.507132530212402,2.378075361251831,-0.4419200122356415
1757491972990174000,1.148174072265625,9.507747650146484,2.3727426528930664,-0.457083523273468
1757491973000189700,1.158189697265625,9.507232666015625,2.3730576038360596,-0.4660792350769043
1757491973010284000,1.168283935546875,9.506239891052246,2.3754935264587402,-0.473855584859848
1757491973020298000,1.178298095703125,9.504883766174316,2.3799543380737305,-0.4786645770072937
1757491973030339300,1.18833935546875,9.503098487854004,2.386885643005371,-0.4795912206172943
1757491973040355000,1.19835498046875,9.50076675415039,2.3967392444610596,-0.47662675380706787
1757491973050420200,1.208420166015625,9.49789810180664,2.4093384742736816,-0.47023528814315796
1757491973060459500,1.21845947265625,9.494718551635742,2.423164129257202,-0.46336299180984497
1757491973070502100,1.228502197265625,9.491440773010254,2.43668794631958,-0.4595789611339569
1757491973080542200,1.238542236328125,9.488195419311523,2.448737382888794,-0.46254459023475647
1757491973090545700,1.248545654296875,9.485176086425781,2.4584007263183594,-0.4730810523033142
1757491973100629800,1.258629638671875,9.482490539550781,2.465790033340454,-0.4882137179374695
1757491973110632400,1.268632568359375,9.480239868164062,2.47100830078125,-0.5052548050880432
1757491973120701400,1.278701416015625,9.478388786315918,2.474621295928955,-0.5220284461975098
1757491973130749400,1.28874951171875,9.476866722106934,2.478113889694214,-0.5329822897911072
1757491973140817000,1.29881689453125,9.475464820861816,2.48323917388916,-0.5340456962585449
1757491973150814500,1.308814453125,9.473851203918457,2.491171360015869,-0.5256535410881042
1757491973160855600,1.31885546875,9.471830368041992,2.501464605331421,-0.5130351781845093
1757491973170893300,1.328893310546875,9.469144821166992,2.51375412940979,-0.5024345517158508
1757491973180960300,1.338960205078125,9.465660095214844,2.5269947052001953,-0.5016819834709167
1757491973190997800,1.348997802734375,9.461257934570312,2.5409514904022217,-0.5140811800956726
1757491973201019600,1.35901953125,9.456178665161133,2.555546283721924,-0.5347571969032288
1757491973211084300,1.369084228515625,9.450701713562012,2.5706474781036377,-0.5586739778518677
1757491973221122000,1.3791220703125,9.445101737976074,2.5856878757476807,-0.5834130048751831
1757491973231167200,1.389167236328125,9.439446449279785,2.600999593734741,-0.6064345836639404
1757491973241208600,1.39920849609375,9.434013366699219,2.616407871246338,-0.6244267225265503
1757491973251241200,1.4092412109375,9.428605079650879,2.632880926132202,-0.636749804019928
1757491973261270000,1.41927001953125,9.417067527770996,2.663073778152466,-0.680431067943573
1757491973271334100,1.429334228515625,9.402756690979004,2.703749179840088,-0.7169508934020996
1757491973281350700,1.4393505859375,9.389382362365723,2.7472760677337646,-0.7266895771026611
1757491973291389000,1.449388916015625,9.382707595825195,2.773332357406616,-0.7138188481330872
1757491973301453600,1.45945361328125,9.384013175964355,2.7752671241760254,-0.6886881589889526
1757491973311473400,1.469473388671875,9.389883995056152,2.7608656883239746,-0.6661944389343262
1757491973321514800,1.4795146484375,9.397933006286621,2.736259937286377,-0.6541037559509277
1757491973331582700,1.489582763671875,9.454605102539062,2.5641891956329346,-0.5210382342338562
1757491973341623000,1.499623046875,9.469286918640137,2.513786554336548,-0.49960365891456604
1757491973351664400,1.509664306640625,9.476411819458008,2.490410327911377,-0.48122990131378174
1757491973361705200,1.519705322265625,9.48172378540039,2.4760823249816895,-0.44948819279670715
1757491973371747000,1.5297470703125,9.484661102294922,2.471681594848633,-0.4100130796432495
1757491973381763600,1.539763671875,9.484857559204102,2.477802276611328,-0.36619117856025696
1757491973391826000,1.549825927734375,9.48222827911377,2.4943814277648926,-0.3186279535293579
1757491973401870000,1.5598701171875,9.477171897888184,2.5202085971832275,-0.2605130672454834
1757491973411912700,1.56991259765625,9.470459938049316,2.5520143508911133,-0.18361499905586243
1757491973421954300,1.579954345703125,9.462241172790527,2.58744215965271,-0.08516908437013626
1757491973431983000,1.589983154296875,9.452885627746582,2.6226367950439453,0.029111972078680992
1757491973442037000,1.600037109375,9.441471099853516,2.6592352390289307,0.15229761600494385
1757491973452057300,1.610057373046875,9.427630424499512,2.6951184272766113,0.30370205640792847
1757491973462102300,1.620102294921875,9.409335136413574,2.740447521209717,0.4364355504512787
1757491973472139800,1.630139892578125,9.390464782714844,2.7816545963287354,0.5636201500892639
1757491973482177500,1.640177490234375,9.373127937316895,2.8148415088653564,0.6761965155601501
1757491973492232200,1.650232177734375,9.358709335327148,2.8345353603363037,0.7849081754684448
1757491973502266400,1.660266357421875,9.3482666015625,2.834517478942871,0.9008533358573914
1757491973512322800,1.67032275390625,9.343728065490723,2.8109078407287598,1.0147171020507812
1757491973522365400,1.680365478515625,9.345682144165039,2.7635834217071533,1.121138334274292
1757491973532384800,1.690384765625,9.35342788696289,2.696138381958008,1.2166939973831177
1757491973542432800,1.700432861328125,9.365962028503418,2.614548921585083,1.2957651615142822
1757491973552512500,1.710512451171875,9.382585525512695,2.525022029876709,1.351834774017334
1757491973562508800,1.7205087890625,9.385092735290527,2.456101655960083,1.457295536994934
1757491973572576300,1.730576171875,9.361565589904785,2.4387590885162354,1.6277791261672974
1757491973582612700,1.74061279296875,9.317233085632324,2.47475266456604,1.8168288469314575
1757491973592632800,1.7506328125,9.264275550842285,2.5268149375915527,2.006117343902588
1757491973602699500,1.760699462890625,9.217350959777832,2.578192949295044,2.1516213417053223
1757491973612732000,1.77073193359375,9.177901268005371,2.6144306659698486,2.2731003761291504
1757491973622783000,1.780782958984375,9.149438858032227,2.630190849304199,2.3676912784576416
1757491973632798500,1.790798583984375,9.13805103302002,2.6261653900146484,2.415656328201294
1757491973642879200,1.800879150390625,9.136849403381348,2.6085214614868164,2.4392011165618896
1757491973652906800,1.81090673828125,9.145394325256348,2.5758650302886963,2.4418833255767822
1757491973662901800,1.82090185546875,9.165556907653809,2.523719549179077,2.4206442832946777
1757491973672990000,1.830989990234375,9.19569206237793,2.4463002681732178,2.3855741024017334
1757491973683031000,1.841031005859375,9.23216438293457,2.337357521057129,2.3537240028381348
1757491973693043200,1.851043212890625,9.266611099243164,2.1953988075256348,2.355048179626465
1757491973703113700,1.86111376953125,9.304034233093262,2.0358355045318604,2.350837469100952
1757491973713154600,1.871154541015625,9.346756935119629,1.8744910955429077,2.3152811527252197
1757491973723197400,1.881197509765625,9.382304191589355,1.6890509128570557,2.31421160697937
1757491973733238000,1.891238037109375,9.425284385681152,1.4884512424468994,2.2769813537597656
1757491973743267000,1.90126708984375,9.480900764465332,1.330907940864563,2.13946533203125
1757491973753320700,1.91132080078125,9.526517868041992,1.180506944656372,2.021874189376831
1757491973763321000,1.921321044921875,9.555572509765625,1.048692226409912,1.9563699960708618
1757491973773401000,1.931401123046875,9.566844940185547,0.9409139752388,1.9560844898223877
1757491973783441400,1.94144140625,9.561814308166504,0.8653980493545532,2.014669179916382
1757491973793481500,1.9514814453125,9.55107307434082,0.8280475735664368,2.0802531242370605
1757491973803527000,1.96152685546875,9.543723106384277,0.8592459559440613,2.1012237071990967
1757491973813574100,1.97157421875,9.533592224121094,0.9808266162872314,2.0939695835113525
1757491973823607300,1.981607177734375,9.515384674072266,1.1797064542770386,2.0740931034088135
1757491973833648000,1.991648193359375,9.485928535461426,1.4219160079956055,2.057042121887207
1757491973843656700,2.00165673828125,9.438289642333984,1.6631356477737427,2.094943046569824
1757491973853711000,2.011711181640625,9.369796752929688,1.8546851873397827,2.236774444580078
1757491973863751400,2.02175146484375,9.298866271972656,1.9621896743774414,2.4324870109558105
1757491973873818000,2.031818115234375,9.23536491394043,2.0051448345184326,2.6312625408172607
1757491973883859500,2.041859375,9.173907279968262,2.0249578952789307,2.8240208625793457
1757491973893875500,2.05187548828125,9.081725120544434,2.01149845123291,3.1164462566375732
1757491973903938300,2.061938232421875,9.032835006713867,2.0428202152252197,3.2358756065368652
1757491973913986800,2.07198681640625,8.986811637878418,2.091317653656006,3.331624984741211
1757491973924025300,2.082025390625,8.945740699768066,2.1482622623443604,3.4051144123077393
1757491973934067000,2.09206689453125,8.915546417236328,1.9577053785324097,3.5939574241638184
1757491973944084000,2.102083984375,8.889742851257324,1.9752731323242188,3.6478586196899414
1757491973954150000,2.11214990234375,8.868955612182617,1.9632220268249512,3.7045228481292725
1757491973964165600,2.12216552734375,8.858506202697754,1.9201158285140991,3.751817464828491
1757491973974222300,2.132222412109375,8.891905784606934,1.7701947689056396,3.746534585952759
1757491973984273700,2.142273681640625,8.973289489746094,1.5256868600845337,3.659024477005005
1757491973994290000,2.1522900390625,9.035630226135254,1.3311407566070557,3.5807204246520996
1757491974004331000,2.1623310546875,9.11860466003418,1.1258864402770996,3.4379570484161377
1757491974014393900,2.172393798828125,9.169482231140137,0.986992359161377,3.3440334796905518
1757491974024435700,2.182435791015625,9.187410354614258,0.8953142762184143,3.3205437660217285
1757491974034477300,2.192477294921875,9.15954303741455,0.8667307496070862,3.4040637016296387
1757491974044519000,2.202518798828125,9.132253646850586,0.8427155017852783,3.482510566711426
1757491974054559700,2.212559814453125,9.110857009887695,0.8157481551170349,3.5444252490997314
1757491974064605700,2.222605712890625,9.100349426269531,0.7831937670707703,3.5785973072052
1757491974074646800,2.232646728515625,9.09853744506836,0.7417324781417847,3.592012882232666
1757491974084696000,2.242696044921875,9.104792594909668,0.6884973645210266,3.586759328842163
1757491974094727400,2.2527275390625,9.110804557800293,0.6257919669151306,3.5829789638519287
1757491974104771300,2.262771240234375,9.099783897399902,0.5482378602027893,3.6234638690948486
1757491974114787000,2.272787109375,9.167728424072266,0.47478851675987244,3.4588193893432617
1757491974124850200,2.28285009765625,9.12253475189209,0.3951042592525482,3.585994005203247
1757491974134870000,2.2928701171875,9.068729400634766,0.33626505732536316,3.7257471084594727
1757491974144936700,2.302936767578125,9.010543823242188,0.29816576838493347,3.8674683570861816
1757491974154974700,2.312974609375,8.955865859985352,0.27184057235717773,3.9943313598632812
1757491974165032700,2.32303271484375,8.911808013916016,0.23060046136379242,4.094217777252197
1757491974175041000,2.333041015625,8.87808609008789,0.15881535410881042,4.17018985748291
1757491974185076700,2.34307666015625,8.855939865112305,0.0704551488161087,4.219416618347168
1757491974195137300,2.35313720703125,8.84431266784668,-0.019872348755598068,4.2442731857299805
1757491974205185300,2.363185302734375,8.840417861938477,-0.11433733999729156,4.250889301300049
1757491974215203600,2.37320361328125,8.841780662536621,-0.21236547827720642,4.24428129196167
1757491974225243100,2.3832431640625,8.847271919250488,-0.3032331168651581,4.227284908294678
1757491974235309600,2.3933095703125,8.856292724609375,-0.3773301839828491,4.202357769012451
1757491974245334800,2.403334716796875,8.865845680236816,-0.4299897849559784,4.177080154418945
1757491974255395300,2.413395263671875,8.875284194946289,-0.46134811639785767,4.153624057769775
1757491974265430300,2.42343017578125,8.883983612060547,-0.4790189862251282,4.132976531982422
1757491974275450000,2.4334501953125,8.890697479248047,-0.4880054295063019,4.117457866668701
1757491974285514200,2.44351416015625,8.892306327819824,-0.4927065968513489,4.1134209632873535
1757491974295538700,2.45353857421875,8.89172649383545,-0.4907834231853485,4.114904880523682
1757491974305599000,2.463598876953125,8.891629219055176,-0.4789203107357025,4.116512298583984
1757491974315641000,2.47364111328125,8.891674995422363,-0.455638587474823,4.119054317474365
1757491974325657600,2.48365771484375,8.891305923461914,-0.4261198043823242,4.123009204864502
1757491974335720000,2.493719970703125,8.890671730041504,-0.3995155692100525,4.127039909362793
1757491974345720800,2.503720947265625,8.89298152923584,-0.3833653926849365,4.123591899871826
1757491974355807500,2.513807373046875,8.909984588623047,-0.3834966719150543,4.0867109298706055
1757491974365848800,2.523848876953125,8.930120468139648,-0.41195186972618103,4.0397210121154785
1757491974375846000,2.533845947265625,8.927801132202148,-0.47371160984039307,4.0380778312683105
1757491974385931500,2.543931640625,8.91463851928711,-0.552084743976593,4.05715799331665
1757491974395950300,2.553950439453125,8.896982192993164,-0.637660801410675,4.083284378051758
1757491974406014700,2.5640146484375,8.862805366516113,-0.7307169437408447,4.141598701477051
1757491974416055800,2.574055908203125,8.805229187011719,-0.8233349919319153,4.245721817016602
1757491974426064600,2.584064697265625,8.726400375366211,-0.9094436764717102,4.388502597808838
1757491974436138800,2.594138671875,8.62965202331543,-0.9927855134010315,4.558464050292969
1757491974446165800,2.604165771484375,8.511474609375,-1.0812005996704102,4.75624942779541
1757491974456222000,2.614221923828125,8.37027645111084,-1.182876467704773,4.977487564086914
1757491974466263300,2.62426318359375,8.205925941467285,-1.3036903142929077,5.215293884277344
1757491974476288000,2.6342880859375,8.016956329345703,-1.4828757047653198,5.455785751342773
1757491974486346000,2.644345947265625,7.764742374420166,-1.650736689567566,5.763675212860107
1757491974496410400,2.654410400390625,7.425156116485596,-1.8170784711837769,6.148284435272217
1757491974506426000,2.664426025390625,6.965646743774414,-1.9958596229553223,6.613049030303955
1757491974516466700,2.674466796875,6.359106540679932,-2.204341173171997,7.137139320373535
1757491974536576800,2.69457666015625,4.786585807800293,-2.6635942459106445,8.138179779052734
1757491974546580000,2.704580078125,3.895573616027832,-2.884369134902954,8.528836250305176
1757491974556636400,2.714636474609375,3.010502338409424,-3.1088526248931885,8.803864479064941
1757491974566674700,2.7246748046875,2.2445108890533447,-3.3338449001312256,8.948952674865723
1757491974576719400,2.73471923828125,1.670755386352539,-3.5621964931488037,8.986404418945312
1757491974586761000,2.744760986328125,1.2620970010757446,-3.80425763130188,8.953818321228027
1757491974596776400,2.7547763671875,0.9132006168365479,-4.046708583831787,8.88967514038086
1757491974606843600,2.76484375,0.5886117219924927,-4.249568939208984,8.82217788696289
1757491974616885200,2.77488525390625,0.40147480368614197,-4.395631313323975,8.760900497436523
1757491974626926800,2.7849267578125,0.3727298974990845,-4.4773688316345215,8.720685958862305
1757491974636964600,2.794964599609375,0.43791964650154114,-4.486011028289795,8.713211059570312
1757491974646993700,2.80499365234375,0.5516442060470581,-4.419032096862793,8.740936279296875
1757491974657025800,2.81502587890625,0.7067673206329346,-4.2847137451171875,8.796467781066895
1757491974667088600,2.825088623046875,0.9222389459609985,-4.1160173416137695,8.856861114501953
1757491974677133800,2.8351337890625,1.1691687107086182,-3.960505962371826,8.898513793945312
1757491974687200300,2.8452001953125,1.3935166597366333,-3.845264196395874,8.916735649108887
1757491974697221600,2.8552216796875,1.6082167625427246,-3.795588970184326,8.901869773864746
1757491974707254800,2.8652548828125,1.8151556253433228,-3.837848424911499,8.843769073486328
1757491974717255400,2.87525537109375,1.929216980934143,-3.933506727218628,8.777342796325684
1757491974727337200,2.885337158203125,1.973394751548767,-4.0094075202941895,8.733067512512207
1757491974737396000,2.89539599609375,2.024660587310791,-3.9854419231414795,8.73230266571045
1757491974747398400,2.9053984375,2.0614049434661865,-3.866666555404663,8.776992797851562
1757491974757462800,2.915462890625,1.9965821504592896,-3.6076836585998535,8.90137004852295
1757491974767504000,2.92550390625,1.88821542263031,-3.3162896633148193,9.037310600280762
1757491974777574000,2.935573974609375,1.7837227582931519,-3.1787567138671875,9.107686996459961
1757491974787570000,2.94556982421875,1.6064605712890625,-3.0653092861175537,9.179285049438477
1757491974797628000,2.9556279296875,1.4625670909881592,-2.964958906173706,9.236126899719238
1757491974807673900,2.965673828125,1.3537167310714722,-2.897021770477295,9.274203300476074
1757491974817715000,2.97571484375,1.640579104423523,-2.89249849319458,9.229195594787598
1757491974827756300,2.98575634765625,1.5895931720733643,-2.8700194358825684,9.245123863220215
1757491974837797400,2.99579736328125,1.5128600597381592,-2.8748080730438232,9.256503105163574
1757491974847817700,3.005817626953125,1.406895399093628,-2.910438060760498,9.262079238891602
1757491974857871400,3.015871337890625,1.3187612295150757,-2.9753315448760986,9.254425048828125
1757491974867896000,3.02589599609375,1.279342770576477,-3.0628926753997803,9.231364250183105
1757491974877938200,3.035938232421875,1.265146017074585,-3.1686229705810547,9.1975736618042
1757491974888005400,3.04600537109375,1.2216649055480957,-3.290966510772705,9.16041374206543
1757491974898021400,3.056021484375,1.0622516870498657,-3.396416664123535,9.141777038574219
1757491974908080400,3.066080322265625,0.8958452343940735,-3.5166709423065186,9.114087104797363
1757491974918133200,3.07613330078125,0.7368889451026917,-3.671013116836548,9.067347526550293
1757491974928171300,3.086171142578125,0.5763831734657288,-3.8558349609375,9.00202465057373
1757491974938209500,3.09620947265625,0.43826842308044434,-4.068874835968018,8.915621757507324
1757491974968312000,3.12631201171875,0.26437631249427795,-5.006600856781006,8.43209171295166
1757491974978379000,3.13637890625,0.30362749099731445,-5.42310905456543,8.16907787322998
1757491974988416500,3.14641650390625,0.3314061760902405,-5.836471080780029,7.877938270568848
1757491974998458000,3.1564580078125,0.36311253905296326,-6.203619003295898,7.590744495391846
1757491975018543000,3.176543212890625,0.44589611887931824,-6.729317665100098,7.124154090881348
1757491975028584400,3.18658447265625,0.45426493883132935,-6.831263065338135,7.0259246826171875
1757491975038627600,3.196627685546875,0.41062599420547485,-6.915066242218018,6.946176528930664
1757491975048650200,3.206650146484375,0.2922985255718231,-7.0446319580078125,6.82083797454834
1757491975068750000,3.22675,0.032739877700805664,-7.331505298614502,6.51798152923584
1757491975078811400,3.236811279296875,-0.01365514937788248,-7.435102939605713,6.399623394012451
1757491975088831200,3.246831298828125,-0.003729061922058463,-7.503396987915039,6.319425582885742
1757491975098873900,3.256873779296875,0.06783632934093475,-7.535493850708008,6.280752658843994
1757491975108916200,3.266916259765625,0.16905879974365234,-7.516243934631348,6.301875591278076
1757491975118939100,3.276939208984375,0.3741917014122009,-7.45298957824707,6.367814540863037
1757491975129002200,3.287002197265625,0.5893747806549072,-7.359899044036865,6.4591522216796875
1757491975139041500,3.29704150390625,0.9179649353027344,-6.740185260772705,7.068479061126709
1757491975149084000,3.307083984375,0.8951362371444702,-6.873577117919922,6.94181489944458
1757491975159084500,3.31708447265625,0.7441245913505554,-7.197015285491943,6.624604225158691
1757491975169208600,3.32720849609375,0.5433867573738098,-7.548274517059326,6.242146968841553
1757491975179206000,3.337205810546875,0.5018522143363953,-7.876544952392578,5.826175689697266
1757491975189251800,3.347251953125,0.4391443431377411,-8.151546478271484,5.440181255340576
1757491975199283700,3.35728369140625,0.5818346738815308,-8.474464416503906,4.9072442054748535
1757491975209308700,3.36730859375,0.649229884147644,-8.7689208984375,4.349786281585693
1757491975219376600,3.377376708984375,0.6416547894477844,-9.018394470214844,3.8069615364074707
1757491975229393000,3.387392822265625,0.5857095718383789,-9.226911544799805,3.2798166275024414
1757491975239433500,3.39743359375,0.5237712264060974,-9.382583618164062,2.8158352375030518
1757491975249497600,3.40749755859375,0.4848049581050873,-9.488245964050293,2.44423508644104
1757491975259540700,3.417540771484375,0.4846910834312439,-9.556260108947754,2.163118839263916
1757491975269585200,3.427585205078125,0.5082733631134033,-9.602055549621582,1.943787693977356
1757491975279600000,3.43760009765625,0.5382816195487976,-9.63855266571045,1.7449010610580444
1757491975309746000,3.467745849609375,0.5335930585861206,-9.70205307006836,1.3496506214141846
1757491975339848400,3.497848388671875,0.16036435961723328,-9.723843574523926,1.2873529195785522
1757491975359931600,3.517931640625,0.24880221486091614,-9.720934867858887,1.2952431440353394
1757491975369974300,3.527974365234375,0.3056328296661377,-9.739582061767578,1.1327998638153076
1757491975380014300,3.538014404296875,0.36299827694892883,-9.757475852966309,0.9465833902359009
1757491975390081800,3.548081787109375,0.40636780858039856,-9.770041465759277,0.7856863141059875
1757491975400124200,3.558124267578125,0.43074679374694824,-9.776765823364258,0.6822233200073242
1757491975410165500,3.56816552734375,0.4481216371059418,-9.778764724731445,0.6411222219467163
1757491975420207000,3.57820703125,0.35992324352264404,-9.775321006774902,0.7414012551307678
1757491975430245000,3.5882451171875,0.4193938970565796,-9.75782585144043,0.9192820191383362
1757491975440289500,3.59828955078125,0.48625171184539795,-9.764361381530762,0.8105199933052063
1757491975450328000,3.608328125,0.547995388507843,-9.769339561462402,0.7041556239128113
1757491975460374000,3.6183740234375,0.5995686054229736,-9.770452499389648,0.6441256403923035
1757491975470413600,3.62841357421875,1.50090491771698,-9.628008842468262,1.1335049867630005
1757491975480452900,3.638452880859375,1.5503681898117065,-9.608885765075684,1.2254753112792969
1757491975490493700,3.64849365234375,1.5856971740722656,-9.588944435119629,1.3318469524383545
1757491975500535300,3.658535400390625,1.587337851524353,-9.5730619430542,1.4397774934768677
1757491975510581500,3.66858154296875,1.4267518520355225,-9.5842924118042,1.5303065776824951
1757491975520622000,3.6786220703125,1.4220497608184814,-9.572378158569336,1.6073217391967773
1757491975530664400,3.68866455078125,1.4387059211730957,-9.56424331665039,1.6405792236328125
1757491975540701200,3.698701171875,1.4734447002410889,-9.56026840209961,1.6328926086425781
1757491975550721000,3.708720947265625,1.497847080230713,-9.561209678649902,1.604943871498108
1757491975560785000,3.718784912109375,1.485731601715088,-9.566596984863281,1.5839625597000122
1757491975570830800,3.728830810546875,1.4473230838775635,-9.571479797363281,1.5900135040283203
1757491975580872000,3.738871826171875,1.4033756256103516,-9.57900619506836,1.5840743780136108
1757491975590913500,3.74891357421875,1.3671246767044067,-9.583476066589355,1.588732123374939
1757491975600955100,3.758955078125,1.3222941160202026,-9.585620880126953,1.6135438680648804
1757491975610993000,3.768992919921875,1.2565444707870483,-9.593055725097656,1.621885895729065
1757491975621013000,3.779012939453125,1.171074390411377,-9.599592208862305,1.6469831466674805
1757491975631076000,3.789076171875,1.0896873474121094,-9.611230850219727,1.6349143981933594
1757491975641121000,3.79912109375,1.0005747079849243,-9.626482963562012,1.6018130779266357
1757491975651162600,3.80916259765625,0.9134368896484375,-9.636686325073242,1.5924932956695557
1757491975661204500,3.81920458984375,0.8517150282859802,-9.636353492736816,1.6283105611801147
1757491975671246600,3.82924658203125,0.8204174041748047,-9.627044677734375,1.6979529857635498
1757491975681283800,3.839283935546875,0.8118459582328796,-9.613935470581055,1.7746177911758423
1757491975691325000,3.849324951171875,0.815933346748352,-9.601689338684082,1.837918996810913
1757491975701372200,3.8593720703125,0.8168621063232422,-9.591276168823242,1.8911076784133911
1757491975711411700,3.86941162109375,0.7992088198661804,-9.581880569458008,1.9454988241195679
1757491975721450000,3.879449951171875,0.758742094039917,-9.573390007019043,2.00266170501709
1757491975731492000,3.8894921875,0.6456822752952576,-9.60632038116455,1.8809157609939575
1757491975741535200,3.89953515625,0.6043128371238708,-9.600519180297852,1.9237884283065796
1757491975751553000,3.909552978515625,0.566972017288208,-9.595724105834961,1.9587565660476685
1757491975761594600,3.9195947265625,0.5290462970733643,-9.591839790344238,1.9881738424301147
1757491975771636200,3.92963623046875,0.490262508392334,-9.588546752929688,2.013838768005371
1757491975781703000,3.939702880859375,0.45309147238731384,-9.585256576538086,2.0380618572235107
1757491975791744300,3.949744140625,0.42071983218193054,-9.580777168273926,2.0658740997314453
1757491975801785900,3.959785888671875,0.3884222209453583,-9.574092864990234,2.102850914001465
1757491975811828200,3.969828125,-0.0010128839639946818,-9.531206130981445,2.322112798690796
1757491975821865500,3.979865478515625,-0.002905262401327491,-9.5133056640625,2.3943965435028076
1757491975831911700,3.98991162109375,0.038579344749450684,-9.492532730102539,2.475167751312256
1757491975841952300,3.9999521484375,0.1284804344177246,-9.466925621032715,2.5684475898742676
1757491975851995000,4.009994873046875,0.19835948944091797,-9.4541015625,2.6108908653259277
1757491975862036200,4.0200361328125,0.2265116423368454,-9.462987899780273,2.576169967651367
1757491975872052700,4.030052734375,0.25713613629341125,-9.476594924926758,2.5227251052856445
1757491975882115300,4.040115234375,0.3033659756183624,-9.488733291625977,2.471442222595215
1757491975892160300,4.05016015625,0.34034472703933716,-9.49885368347168,2.4273574352264404
1757491975902202400,4.060202392578125,0.33004865050315857,-9.505047798156738,2.404421329498291
1757491975912244000,4.070243896484375,0.11576705425977707,-9.48514175415039,2.5009605884552
1757491975922284500,4.080284423828125,0.10447841882705688,-9.478918075561523,2.5249388217926025
1757491975932326400,4.090326416015625,0.11692458391189575,-9.466981887817383,2.568793296813965
1757491975942369000,4.100369140625,0.15996886789798737,-9.451887130737305,2.62151837348938
1757491975952406300,4.11040625,0.17098158597946167,-9.444546699523926,2.6471550464630127
1757491975962446800,4.12044677734375,0.1063099130988121,-9.447162628173828,2.641200542449951
1757491975972490200,4.130490234375,0.061839934438467026,-9.452325820922852,2.624087333679199
1757491975982530800,4.14053076171875,0.04162077605724335,-9.45567798614502,2.6123852729797363
1757491975992576300,4.150576171875,0.029576022177934647,-9.457876205444336,2.6045751571655273
1757491976002618400,4.160618408203125,-0.01651911623775959,-9.457304954528809,2.6067705154418945
1757491976012655600,4.170655517578125,-0.027651995420455933,-9.460403442382812,2.5954031944274902
1757491976022701000,4.180701171875,-0.03872106596827507,-9.463823318481445,2.5827629566192627
1757491976032743400,4.190743408203125,-0.05447609722614288,-9.467850685119629,2.567675828933716
1757491976042784500,4.200784423828125,-0.07874050736427307,-9.47224235534668,2.550795078277588
1757491976052822300,4.210822265625,-0.10675971210002899,-9.476993560791016,2.5320591926574707
1757491976062868000,4.220867919921875,-0.14115522801876068,-9.482505798339844,2.5096304416656494
1757491976072905700,4.23090576171875,-0.36713236570358276,-9.488475799560547,2.463763952255249
1757491976082951400,4.240951416015625,-0.43670734763145447,-9.489778518676758,2.4473483562469482
1757491976092992000,4.250991943359375,-0.4417562186717987,-9.492265701293945,2.4367730617523193
1757491976103034400,4.261034423828125,-0.44030997157096863,-9.494449615478516,2.428511381149292
1757491976113076200,4.271076171875,-0.4388570785522461,-9.496078491210938,2.4223992824554443
1757491976123113500,4.281113525390625,-0.437226802110672,-9.497764587402344,2.4160749912261963
1757491976133159400,4.291159423828125,-0.44157904386520386,-9.500885963439941,2.40297794342041
1757491976143196000,4.30119580078125,-0.4621872007846832,-9.507115364074707,2.3742892742156982
1757491976153243100,4.3112431640625,-0.46290332078933716,-9.511155128479004,2.357919692993164
1757491976163284000,4.321283935546875,-0.4386145770549774,-9.515381813049316,2.3454744815826416
1757491976173326000,4.331326171875,-0.40673089027404785,-9.52652359008789,2.3056464195251465
1757491976183367700,4.34136767578125,-0.4546258747577667,-9.607014656066895,1.9325345754623413
1757491976193404000,4.35140380859375,-0.4362308979034424,-9.623739242553711,1.8518837690353394
1757491976203446500,4.361446533203125,-0.41772517561912537,-9.628478050231934,1.831405520439148
1757491976213488000,4.371488037109375,-0.404316782951355,-9.631780624389648,1.8169888257980347
1757491976223530000,4.381530029296875,-0.3913325369358063,-9.638362884521484,1.7846416234970093
1757491976233576400,4.391576416015625,-0.3636572062969208,-9.641911506652832,1.7712745666503906
1757491976243616300,4.4016162109375,-0.3591250479221344,-9.649003028869629,1.7331751585006714
1757491976253658600,4.41165869140625,-0.5289232730865479,-9.661272048950195,1.6174687147140503
1757491976263699700,4.42169970703125,-0.5184870958328247,-9.661003112792969,1.6224400997161865
1757491976273737700,4.43173779296875,-0.5189276337623596,-9.657739639282227,1.6416082382202148
1757491976283783000,4.441782958984375,-0.5289971232414246,-9.654942512512207,1.6548091173171997
1757491976293824000,4.451823974609375,-0.5406176447868347,-9.652799606323242,1.6635260581970215
1757491976303866400,4.461866455078125,-0.5378358960151672,-9.678715705871582,1.5064291954040527
1757491976313908500,4.471908447265625,-0.5468370914459229,-9.67496109008789,1.527152419090271
1757491976323949000,4.481948974609375,-0.5569097995758057,-9.670001983642578,1.554689645767212
1757491976333987000,4.491987060546875,-0.5717419385910034,-9.663078308105469,1.5919088125228882
1757491976344031700,4.50203173828125,-0.5878132581710815,-9.655324935913086,1.632575511932373
1757491976354070800,4.51207080078125,-0.6097293496131897,-9.64422607421875,1.6891545057296753
1757491976364115500,4.522115478515625,-0.6298862099647522,-9.627968788146973,1.7724529504776
1757491976374157800,4.53215771484375,-0.628205418586731,-9.607215881347656,1.8822585344314575
1757491976384198700,4.54219873046875,-0.5879512429237366,-9.585262298583984,2.0032942295074463
1757491976394240500,4.552240478515625,-0.5133373141288757,-9.56149673461914,2.133169412612915
1757491976404282000,4.5622822265625,-0.49178725481033325,-9.533309936523438,2.260591983795166
1757491976414323700,4.57232373046875,-0.5319207310676575,-9.50454330444336,2.3699848651885986
1757491976424360200,4.582360107421875,-0.6009393334388733,-9.475082397460938,2.469369888305664
1757491976434409700,4.59240966796875,-0.6478921175003052,-9.446188926696777,2.566293716430664
1757491976444444200,4.602444091796875,-0.6525956988334656,-9.423759460449219,2.6463184356689453
1757491976454486800,4.61248681640625,-0.6023449301719666,-9.411933898925781,2.6997733116149902
1757491976464528100,4.622528076171875,-0.5422463417053223,-9.405622482299805,2.7342896461486816
1757491976474575400,4.632575439453125,-0.5170061588287354,-9.397900581359863,2.765550374984741
1757491976484615000,4.642614990234375,-0.5071237683296204,-9.382807731628418,2.8181309700012207
1757491976494652000,4.65265185546875,-0.5326024293899536,-9.365391731262207,2.870872974395752
1757491976504698000,4.662697998046875,-0.5159428119659424,-9.350789070129395,2.9210762977600098
1757491976514739500,4.672739501953125,-0.5049083828926086,-9.337440490722656,2.965369462966919
1757491976524776400,4.6827763671875,-0.5052036643028259,-9.329556465148926,2.9900264739990234
1757491976534823000,4.692822998046875,-0.5220707654953003,-9.324930191040039,3.001534938812256
1757491976544864500,4.702864501953125,-0.8446233868598938,-9.329830169677734,2.9115264415740967
1757491976554906400,4.71290625,-0.9608051180839539,-9.33780288696289,2.8492796421051025
1757491976564943600,4.722943603515625,-0.9763243198394775,-9.337382316589355,2.8453850746154785
1757491976574989000,4.732989013671875,-1.0221006870269775,-9.33183765411377,2.847501277923584
1757491976585030700,4.74303076171875,-0.952226996421814,-9.291358947753906,3.0000035762786865
1757491976595068700,4.753068603515625,-0.9169430732727051,-9.279928207397461,3.0460238456726074
1757491976605113900,4.76311376953125,-0.8761327266693115,-9.279792785644531,3.0584230422973633
1757491976615156000,4.773156005859375,-0.8633797764778137,-9.28664779663086,3.04119610786438
1757491976625197600,4.783197509765625,-0.8589826226234436,-9.294391632080078,3.0186986923217773
1757491976635239000,4.793239013671875,-0.8549045324325562,-9.299328804016113,3.0046210289001465
1757491976645280300,4.8032802734375,-0.8530614972114563,-9.30089282989502,3.0003011226654053
1757491976655322600,4.813322509765625,-0.923285722732544,-9.32165813446045,2.9138197898864746
1757491976665364500,4.823364501953125,-0.9378407597541809,-9.31832218170166,2.919840097427368
1757491976675410400,4.833410400390625,-0.9512665867805481,-9.314946174621582,2.926257848739624
1757491976685443000,4.843443115234375,-0.9578173756599426,-9.314245223999023,2.9263556003570557
1757491976695484700,4.853484619140625,-0.9595407843589783,-9.317472457885742,2.9154934883117676
1757491976705529300,4.863529296875,-0.9794428944587708,-9.321691513061523,2.8953170776367188
1757491976715575000,4.873574951171875,-0.9767289757728577,-9.323266983032227,2.89115571975708
1757491976725609500,4.883609375,-0.9900166392326355,-9.319356918334961,2.89923357963562
1757491976735655200,4.8936552734375,-0.9996166229248047,-9.308917999267578,2.929321050643921
1757491976745696500,4.903696533203125,-1.00180184841156,-9.301383018493652,2.9524242877960205
1757491976755738400,4.91373828125,-1.0017914772033691,-9.296653747558594,2.9672815799713135
1757491976765779700,4.92377978515625,-0.9935190677642822,-9.294402122497559,2.9770984649658203
1757491976775821800,4.93382177734375,-0.9758325815200806,-9.293437004089355,2.985947370529175
1757491976785863000,4.94386279296875,-0.954147458076477,-9.291653633117676,2.998479127883911
1757491976795901000,4.95390087890625,-0.9293828010559082,-9.288983345031738,3.014490842819214
1757491976805946400,4.9639462890625,-0.9038873314857483,-9.287659645080566,3.0263023376464844
1757491976815987700,4.97398779296875,-0.880623459815979,-9.286351203918457,3.037152051925659
1757491976826029800,4.98402978515625,-0.8659564256668091,-9.281668663024902,3.0556304454803467
1757491976836071200,4.9940712890625,-0.8583527207374573,-9.27374267578125,3.081728935241699
1757491976846108400,5.0041083984375,-0.8504408597946167,-9.267024040222168,3.104050874710083
1757491976856153900,5.01415380859375,-0.8417962193489075,-9.263757705688477,3.1161341667175293
1757491976866192400,5.0241923828125,-0.8339723944664001,-9.262335777282715,3.122457981109619
1757491976876237800,5.03423779296875,-0.8938847780227661,-9.288541793823242,3.026561737060547
1757491976886279000,5.04427880859375,-0.8842522501945496,-9.287928581237793,3.0312721729278564
1757491976896320800,5.05432080078125,-0.8705316781997681,-9.286563873291016,3.0394091606140137
1757491976906363100,5.064363037109375,-0.8543912172317505,-9.28525161743164,3.0479867458343506
1757491976916401700,5.074401611328125,-0.8330960273742676,-9.286881446838379,3.0489208698272705
1757491976926442200,5.084442138671875,-0.80931156873703,-9.296222686767578,3.0267748832702637
1757491976936483300,5.0944833984375,-0.7907822132110596,-9.315142631530762,2.9730327129364014
1757491976946528300,5.1045283203125,-0.783858597278595,-9.343503952026367,2.884550094604492
1757491976956574000,5.114573974609375,-0.7860155701637268,-9.379542350769043,2.7645046710968018
1757491976966612200,5.1246123046875,-0.7913826107978821,-9.415106773376465,2.639242172241211
1757491976976654000,5.134654052734375,-0.7903622984886169,-9.444435119628906,2.532606363296509
1757491976986695700,5.14469580078125,-0.7756726145744324,-9.456713676452637,2.490989923477173
1757491976996737000,5.154737060546875,-0.7559114098548889,-9.465540885925293,2.4633867740631104
1757491977006778400,5.1647783203125,-0.7561455368995667,-9.480902671813965,2.4035086631774902
1757491977016820200,5.1748203125,-0.7760417461395264,-9.499824523925781,2.321038007736206
1757491977026862000,5.184862060546875,-0.78730309009552,-9.516801834106445,2.2464921474456787
1757491977036904000,5.194904052734375,-0.7912905812263489,-9.524288177490234,2.2131223678588867
1757491977046945000,5.204945068359375,-0.8003166317939758,-9.52564525604248,2.2040092945098877
1757491977056987000,5.21498681640625,-0.8076902627944946,-9.528400421142578,2.189368486404419
1757491977067028200,5.2250283203125,-0.8183825016021729,-9.52936840057373,2.1811740398406982
1757491977077070000,5.235070068359375,-0.8357019424438477,-9.525861740112305,2.1899032592773438
1757491977087111200,5.245111083984375,-0.8623713254928589,-9.518265724182129,2.21247935295105
1757491977097149400,5.2551494140625,-0.8966401815414429,-9.509856224060059,2.2349064350128174
1757491977107196200,5.265196044921875,-0.937494695186615,-9.500726699829102,2.2568633556365967
1757491977117234200,5.275234130859375,-0.9781017899513245,-9.492278099060059,2.275104522705078
1757491977127276000,5.285276123046875,-1.013195514678955,-9.48342227935791,2.296576499938965
1757491977137315600,5.295315673828125,-1.0417405366897583,-9.47526741027832,2.3173656463623047
1757491977147357400,5.305357421875,-1.0673197507858276,-9.467703819274902,2.3365659713745117
1757491977157398800,5.315398681640625,-1.090441107749939,-9.461487770080566,2.3510258197784424
1757491977167440600,5.325440673828125,-1.1140114068984985,-9.455368995666504,2.3645474910736084
1757491977177482200,5.335482177734375,-1.1544404029846191,-9.44865894317627,2.3719663619995117
1757491977187524900,5.34552490234375,-1.1624528169631958,-9.46093463897705,2.318512201309204
1757491977197567500,5.3555673828125,-1.1873056888580322,-9.452973365783691,2.3383119106292725
1757491977207595500,5.365595458984375,-1.2116788625717163,-9.444303512573242,2.360734701156616
1757491977217652700,5.37565283203125,-1.233500599861145,-9.433865547180176,2.3909809589385986
1757491977227689700,5.385689697265625,-1.2510712146759033,-9.422698020935059,2.4256350994110107
1757491977237731800,5.39573193359375,-1.2642639875411987,-9.424680709838867,2.4110541343688965
1757491977247777300,5.40577734375,-1.2654956579208374,-9.435796737670898,2.366511344909668
1757491977257819100,5.415819091796875,-1.2657533884048462,-9.447762489318848,2.318138599395752
1757491977267860700,5.42586083984375,-1.2733403444290161,-9.45340633392334,2.2908124923706055
1757491977277902600,5.435902587890625,-1.2910075187683105,-9.454670906066895,2.275658369064331
1757491977287939800,5.44593994140625,-1.3166189193725586,-9.456677436828613,2.252530574798584
1757491977297985500,5.455985595703125,-1.348095417022705,-9.454837799072266,2.241602897644043
1757491977308023300,5.466023193359375,-1.382097840309143,-9.439764976501465,2.2840216159820557
1757491977318069200,5.4760693359375,-1.3897539377212524,-9.389403343200684,2.4786651134490967
1757491977328110300,5.4861103515625,-1.444790005683899,-9.375852584838867,2.4984192848205566
1757491977338152000,5.49615185546875,-1.5012106895446777,-9.361618041992188,2.5184555053710938
1757491977348189700,5.506189697265625,-1.5493766069412231,-9.34737777709961,2.5420615673065186
1757491977358236000,5.51623583984375,-1.591187834739685,-9.332321166992188,2.5713860988616943
1757491977368277000,5.526277099609375,-1.6296255588531494,-9.315970420837402,2.606365442276001
1757491977378318800,5.53631884765625,-1.6563045978546143,-9.2982816696167,2.652303457260132
1757491977388360400,5.5463603515625,-1.666780948638916,-9.279653549194336,2.7103452682495117
1757491977398406700,5.55640673828125,-1.6765635013580322,-9.257158279418945,2.7803382873535156
1757491977408440000,5.566440185546875,-1.721766710281372,-9.228490829467773,2.8472049236297607
1757491977418481400,5.5764814453125,-1.8720799684524536,-9.174134254455566,2.926893472671509
1757491977428524500,5.586524658203125,-1.861567735671997,-9.16302490234375,2.9681098461151123
1757491977438565600,5.596565673828125,-1.8662021160125732,-9.14908218383789,3.0079355239868164
1757491977448584400,5.60658447265625,-1.9749332666397095,-9.056927680969238,3.210575819015503
1757491977458651100,5.616651123046875,-2.0284457206726074,-8.997505187988281,3.3416213989257812
1757491977468691000,5.62669091796875,-2.038363218307495,-8.99874210357666,3.332242012023926
1757491977478732800,5.63673291015625,-2.053668260574341,-8.999617576599121,3.3204538822174072
1757491977488772900,5.64677294921875,-2.0719099044799805,-9.000200271606445,3.3075246810913086
1757491977498813400,5.6568134765625,-2.094482898712158,-9.001177787780762,3.290600061416626
1757491977508855000,5.66685498046875,-2.123732566833496,-9.00208568572998,3.2693049907684326
1757491977518896600,5.676896728515625,-2.157865524291992,-9.002595901489258,3.2454562187194824
1757491977528941800,5.68694189453125,-2.1918580532073975,-9.003959655761719,3.218780755996704
1757491977538982100,5.696982177734375,-2.2197561264038086,-9.007616996765137,3.1892948150634766
1757491977549024800,5.707024658203125,-2.2386984825134277,-9.01408576965332,3.15762996673584
1757491977559066400,5.71706640625,-2.246964931488037,-9.023580551147461,3.124462366104126
1757491977569111600,5.727111572265625,-2.2481582164764404,-9.036561012268066,3.0858473777770996
1757491977579206400,5.737206298828125,-2.247026205062866,-9.051358222961426,3.0430150032043457
1757491977589210000,5.747210205078125,-2.243851661682129,-9.068069458007812,2.995220184326172
1757491977599232300,5.757232177734375,-2.237722158432007,-9.086556434631348,2.943329095840454
1757491977609272300,5.767272216796875,-2.225431203842163,-9.106710433959961,2.8898837566375732
1757491977619318000,5.777318115234375,-2.205259323120117,-9.128752708435059,2.835286855697632
1757491977629359400,5.787359375,-2.1800642013549805,-9.152124404907227,2.7788639068603516
1757491977639406300,5.79740625,-2.155268669128418,-9.175518989562988,2.7204384803771973
1757491977649438700,5.807438720703125,-2.1342928409576416,-9.197799682617188,2.6610898971557617
1757491977659480600,5.81748046875,-2.117664337158203,-9.218323707580566,2.6027121543884277
1757491977669523000,5.82752294921875,-2.1041557788848877,-9.23702335357666,2.5467684268951416
1757491977679564000,5.83756396484375,-2.0920114517211914,-9.25416374206543,2.494004487991333
1757491977689609500,5.847609375,-2.0807905197143555,-9.269684791564941,2.4452764987945557
1757491977699650800,5.85765087890625,-2.0698113441467285,-9.283418655395508,2.402109146118164
1757491977709692200,5.867692138671875,-2.0594687461853027,-9.295514106750488,2.363922357559204
1757491977719734300,5.877734375,-2.048978805541992,-9.306528091430664,2.3294551372528076
1757491977729775900,5.88777587890625,-2.044358491897583,-9.317015647888184,2.29128098487854
1757491977739813000,5.897813232421875,-2.0455727577209473,-9.326112747192383,2.2528579235076904
1757491977749859000,5.907859130859375,-2.0613574981689453,-9.333081245422363,2.2091846466064453
1757491977759900700,5.917900634765625,-2.0822107791900635,-9.338615417480469,2.16581654548645
1757491977769942800,5.92794287109375,-2.0936970710754395,-9.344447135925293,2.129289388656616
1757491977779984000,5.93798388671875,-2.1006157398223877,-9.348902702331543,2.1027486324310303
1757491977790025500,5.948025390625,-2.0472655296325684,-9.361618041992188,2.0987861156463623
1757491977800063200,5.958063232421875,-2.0648372173309326,-9.364745140075684,2.0674006938934326
1757491977810108700,5.968108642578125,-2.091029167175293,-9.369783401489258,2.0176467895507812
1757491977820150500,5.978150634765625,-2.12968373298645,-9.37213134765625,1.9656320810317993
1757491977830192400,5.9881923828125,-2.1727004051208496,-9.374519348144531,1.9062719345092773
1757491977840230000,5.99822998046875,-2.2050821781158447,-9.382683753967285,1.8272850513458252
1757491977850275300,6.008275390625,-2.2148869037628174,-9.399616241455078,1.7255765199661255
1757491977860317400,6.0183173828125,-2.186755657196045,-9.42725658416748,1.606569766998291
1757491977870354700,6.028354736328125,-2.107617139816284,-9.46662425994873,1.4754899740219116
1757491977880405200,6.0384052734375,-1.99642813205719,-9.51264762878418,1.3266326189041138
1757491977890438000,6.04843798828125,-1.856613278388977,-9.56259822845459,1.1601086854934692
1757491977900480500,6.05848046875,-1.6826047897338867,-9.615036964416504,0.9777635335922241
1757491977910521600,6.068521484375,-1.4781551361083984,-9.666440963745117,0.781724214553833
1757491977920574500,6.078574462890625,-1.2484601736068726,-9.713090896606445,0.5773545503616333
1757491977930604500,6.0886044921875,-1.006219506263733,-9.751204490661621,0.3710210621356964
1757491977940650500,6.098650390625,-0.768010675907135,-9.7783784866333,0.17202582955360413
1757491977950691800,6.10869189453125,-0.5457071661949158,-9.794804573059082,-0.011861808598041534
1757491977960733700,6.118733642578125,-0.3484499156475067,-9.8018159866333,-0.1977393925189972
1757491977970775000,6.128775146484375,-0.185310959815979,-9.800152778625488,-0.3984946310520172
1757491977980812800,6.138812744140625,-0.054354988038539886,-9.791241645812988,-0.6039462089538574
1757491977990854400,6.1488544921875,0.05653923377394676,-9.776700973510742,-0.8056302666664124
1757491978000900000,6.158900146484375,0.1525518149137497,-9.757126808166504,-1.005653738975525
1757491978010941700,6.168941650390625,0.24165932834148407,-9.734575271606445,-1.1898653507232666
1757491978020957200,6.178957275390625,0.3367593288421631,-9.711292266845703,-1.3466672897338867
1757491978031025200,6.189025146484375,0.47043460607528687,-9.72524642944336,-1.1976451873779297
1757491978041066500,6.19906640625,0.7553330659866333,-9.777888298034668,-0.2418234497308731
1757491978051104500,6.2091044921875,0.808351457118988,-9.773785591125488,-0.23624740540981293
1757491978061146000,6.21914599609375,0.8461088538169861,-9.771291732788086,-0.20514532923698425
1757491978071191600,6.229191650390625,0.8624660968780518,-9.771570205688477,-0.09316997975111008
1757491978081234000,6.23923388671875,0.8301054239273071,-9.774290084838867,0.10152009129524231
1757491978091274800,6.249274658203125,0.785265326499939,-9.772459030151367,0.34426653385162354
1757491978101316600,6.259316650390625,0.6845462918281555,-9.764307022094727,0.6525561809539795
1757491978111358500,6.2693583984375,0.5305860042572021,-9.745003700256348,0.994744598865509
1757491978121417000,6.2794169921875,0.34081965684890747,-9.713188171386719,1.331885814666748
1757491978131437600,6.2894375,0.13797317445278168,-9.667644500732422,1.6594383716583252
1757491978141479200,6.299479248046875,-0.06372793018817902,-9.60357666015625,2.0008385181427
1757491978151522000,6.30952197265625,-0.2736711800098419,-9.516219139099121,2.3670313358306885
1757491978161576000,6.319575927734375,-0.5048646926879883,-9.398931503295898,2.764291524887085
1757491978171608300,6.3296083984375,-0.7452232837677002,-9.243033409118652,3.201110601425171
1757491978181650000,6.33964990234375,-0.9378840923309326,-9.035271644592285,3.704099655151367
1757491978191687400,6.3496875,-1.0570523738861084,-8.766520500183105,4.273975372314453
1757491978201732900,6.35973291015625,-1.1411311626434326,-8.430493354797363,4.8847455978393555
1757491978211770000,6.36977001953125,-1.2468491792678833,-8.046040534973145,5.471994400024414
1757491978221815800,6.37981591796875,-1.4098014831542969,-7.664750576019287,5.95820426940918
1757491978231857700,6.389857666015625,-1.6450916528701782,-7.341772079467773,6.295090198516846
1757491978241899500,6.3998994140625,-1.9058386087417603,-7.063253402709961,6.5356245040893555
1757491978251937000,6.40993701171875,-2.1742103099823,-6.798330307006836,6.729908466339111
1757491978261983000,6.41998291015625,-2.463859796524048,-6.555481910705566,6.869581699371338
1757491978272024000,6.430024169921875,-2.756272077560425,-6.351768493652344,6.949398994445801
1757491978282062300,6.440062255859375,-3.029451847076416,-6.18991231918335,6.981655120849609
1757491978292107500,6.450107421875,-3.2593212127685547,-6.085825443267822,6.969625949859619
1757491978302149400,6.4601494140625,-3.4181525707244873,-6.0486979484558105,6.925722122192383
1757491978312187400,6.4701875,-3.4963831901550293,-6.095368385314941,6.8452863693237305
1757491978322232600,6.480232666015625,-3.5315961837768555,-6.205515384674072,6.727222442626953
1757491978332275200,6.490275146484375,-3.550633668899536,-6.363309860229492,6.567906856536865
1757491978342316000,6.50031591796875,-3.5556633472442627,-6.558117389678955,6.370595932006836
1757491978352353500,6.510353515625,-3.525362014770508,-6.7813544273376465,6.1498918533325195
1757491978362404600,6.520404541015625,-3.4447124004364014,-7.017585754394531,5.926514148712158
1757491978372436700,6.530436767578125,-3.301065683364868,-7.252145290374756,5.722367286682129
1757491978382478600,6.540478515625,-3.098736047744751,-7.47470235824585,5.5464186668396
1757491978392521000,6.55052099609375,-2.8601691722869873,-7.684152603149414,5.386030673980713
1757491978402575600,6.56057568359375,-2.6124074459075928,-7.879678249359131,5.227053642272949
1757491978412607500,6.570607421875,-2.373354196548462,-8.061773300170898,5.060744285583496
1757491978422644700,6.580644775390625,-2.2426300048828125,-8.309054374694824,4.708110332489014
1757491978432691000,6.59069091796875,-2.082615852355957,-8.448643684387207,4.529818058013916
1757491978442728400,6.600728515625,-1.9813460111618042,-8.547112464904785,4.388314247131348
1757491978452774000,6.61077392578125,-1.9104456901550293,-8.597787857055664,4.3202290534973145
1757491978462815500,6.6208154296875,-1.812102198600769,-8.614279747009277,4.329732894897461
1757491978472857600,6.630857666015625,-1.6846363544464111,-8.616387367248535,4.376755237579346
1757491978482898700,6.640898681640625,-1.549943447113037,-8.62153434753418,4.416217803955078
1757491978492941000,6.650941162109375,0.2805849313735962,-8.392719268798828,5.071456432342529
1757491978502982100,6.660982177734375,0.4204699397087097,-8.403830528259277,5.043306827545166
1757491978513020000,6.67102001953125,0.4482232928276062,-8.434288024902344,4.9897894859313965
1757491978523065600,6.681065673828125,0.27487266063690186,-8.489741325378418,4.907633304595947
1757491978533107500,6.691107421875,0.2638426125049591,-8.55328369140625,4.7966508865356445
1757491978543149000,6.701149169921875,0.4226186275482178,-8.650081634521484,4.607994079589844
1757491978553190000,6.71118994140625,0.6087499856948853,-8.785611152648926,4.321873188018799
1757491978563233000,6.72123291015625,0.7971822023391724,-8.914335250854492,4.016870021820068
1757491978573269200,6.731269287109375,0.999302089214325,-9.016923904418945,3.7326416969299316
1757491978583310800,6.741310791015625,1.2082993984222412,-9.109130859375,3.4350926876068115
1757491978593357600,6.751357666015625,1.4411530494689941,-9.200652122497559,3.0833730697631836
1757491978603402800,6.76140283203125,1.7895985841751099,-9.276369094848633,2.642432928085327
1757491978613436700,6.771436767578125,2.1618573665618896,-9.328348159790039,2.1317617893218994
1757491978623477800,6.781477783203125,2.411832094192505,-9.360822677612305,1.6715766191482544
1757491978633520600,6.791520751953125,2.5609169006347656,-9.37625789642334,1.3280116319656372
1757491978643573200,6.8015732421875,2.659334659576416,-9.382352828979492,1.0656003952026367
1757491978653602000,6.81160205078125,2.7386558055877686,-9.383459091186523,0.8285977244377136
1757491978663648800,6.821648681640625,2.7992935180664062,-9.382063865661621,0.6139528751373291
1757491978673690600,6.831690673828125,2.8539042472839355,-9.376103401184082,0.4243074655532837
1757491978683733800,6.841733642578125,2.9107131958007812,-9.36440372467041,0.26799604296684265
1757491978693773000,6.85177294921875,2.9687485694885254,-9.348763465881348,0.15254157781600952
1757491978703810800,6.861810791015625,3.0184061527252197,-9.333633422851562,0.0929458811879158
1757491978713856800,6.871856689453125,3.076033353805542,-9.314868927001953,0.08569255471229553
1757491978723894500,6.88189453125,3.1485304832458496,-9.290014266967773,0.13611339032649994
1757491978733940200,6.891940185546875,3.2165071964263916,-9.264423370361328,0.2462978959083557
1757491978743981300,6.901981201171875,3.277390480041504,-9.238109588623047,0.3900711238384247
1757491978754022700,6.912022705078125,3.3077621459960938,-9.218572616577148,0.5592331290245056
1757491978764060400,6.922060302734375,3.2735865116119385,-9.216922760009766,0.753695011138916
1757491978774106400,6.9321064453125,3.1706502437591553,-9.232488632202148,0.9717201590538025
1757491978784148500,6.9421484375,3.015568971633911,-9.255687713623047,1.214377522468567
1757491978794189600,6.952189453125,2.8580193519592285,-9.265645980834961,1.488502860069275
1757491978804231400,6.9622314453125,2.7244112491607666,-9.251643180847168,1.7946573495864868
1757491978814273000,6.97227294921875,2.570830821990967,-9.22249984741211,2.1383275985717773
1757491978824314600,6.982314697265625,2.349546194076538,-9.181800842285156,2.5318515300750732
1757491978834356500,6.9923564453125,2.0687577724456787,-9.105459213256836,3.007817029953003
1757491978844402700,7.002402587890625,1.779414176940918,-8.986291885375977,3.5094659328460693
1757491978854435000,7.01243505859375,1.5075864791870117,-8.822084426879883,4.016733169555664
1757491978864477400,7.0224775390625,1.3238409757614136,-8.604982376098633,4.520820140838623
1757491978874520000,7.03252001953125,1.2002637386322021,-8.332293510437012,5.036701679229736
1757491978884561000,7.042560791015625,1.0709917545318604,-7.999128341674805,5.577010631561279
1757491978894602200,7.052602294921875,1.0212197303771973,-7.617273330688477,6.0967512130737305
1757491978904647400,7.0626474609375,1.0053629875183105,-7.236191272735596,6.546977996826172
1757491978914689500,7.072689453125,0.8951268792152405,-6.893952369689941,6.921580791473389
1757491978924730600,7.082730712890625,0.7631064057350159,-6.566247940063477,7.248322486877441
1757491978934772700,7.092772705078125,0.6582087874412537,-6.242833137512207,7.538563251495361
1757491978944789000,7.1027890625,0.4917830228805542,-5.964000701904297,7.773349761962891
1757491978954830300,7.112830322265625,0.24545705318450928,-5.75416374206543,7.941376209259033
1757491978964872400,7.12287255859375,-0.029022948816418648,-5.616310119628906,8.043153762817383
1757491978974913500,7.13291357421875,-0.2929423153400421,-5.548852920532227,8.084586143493652
1757491978984981000,7.14298095703125,-0.5137401819229126,-5.569607734680176,8.059259414672852
1757491978995022800,7.15302294921875,-0.6509328484535217,-5.674201011657715,7.975953102111816
1757491979005064400,7.163064453125,-0.7114781141281128,-5.837299823760986,7.852123737335205
1757491979015106000,7.17310595703125,-0.7082455158233643,-6.016022682189941,7.716344356536865
1757491979025143800,7.183143798828125,-0.6255643963813782,-6.203986644744873,7.573330402374268
1757491979035189200,7.193189208984375,-0.4554218053817749,-6.411872386932373,7.410573959350586
1757491979045231000,7.203231201171875,-0.20453882217407227,-6.641228675842285,7.217228412628174
1757491979055272400,7.2132724609375,0.09384021162986755,-7.187952518463135,6.675374507904053
1757491979065314300,7.223314208984375,0.40044277906417847,-7.419020652770996,6.405771255493164
1757491979075356200,7.233356201171875,0.6821715831756592,-7.642988204956055,6.111913681030273
1757491979085401900,7.24340185546875,0.8919217586517334,-7.85541296005249,5.808018684387207
1757491979095435300,7.253435302734375,1.0017106533050537,-8.058528900146484,5.503890037536621
1757491979105476900,7.263476806640625,1.0278584957122803,-8.244853019714355,5.2155561447143555
1757491979115519200,7.273519287109375,1.011326551437378,-8.396363258361816,4.971360206604004
1757491979125575400,7.283575439453125,1.0126721858978271,-8.487290382385254,4.814200401306152
1757491979135606000,7.29360595703125,1.0614509582519531,-8.507821083068848,4.7672224044799805
1757491979145647600,7.303647705078125,1.1096928119659424,-8.487347602844238,4.792664527893066
1757491979155688200,7.313688232421875,1.11576509475708,-8.437506675720215,4.878490447998047
1757491979165726700,7.323726806640625,1.1263322830200195,-8.358104705810547,5.010947227478027
1757491979175772000,7.33377197265625,1.1970325708389282,-8.259617805480957,5.155767440795898
1757491979185813500,7.3438134765625,1.3859177827835083,-8.131425857543945,5.309924125671387
1757491979195855000,7.353855224609375,1.3205373287200928,-8.067468643188477,5.422935962677002
1757491979205897000,7.36389697265625,1.2457319498062134,-8.082704544067383,5.417947769165039
1757491979215934200,7.373934326171875,1.4285367727279663,-8.132913589477539,5.296331405639648
1757491979225980200,7.383980224609375,1.7851494550704956,-8.184615135192871,5.105038642883301
1757491979236022000,7.39402197265625,2.0645058155059814,-8.196051597595215,4.979825973510742
1757491979246063900,7.40406396484375,2.0149941444396973,-8.236520767211914,4.933115005493164
1757491979256104700,7.414104736328125,1.717471718788147,-8.393207550048828,4.779172897338867
1757491979266146800,7.424146728515625,1.5235306024551392,-8.629253387451172,4.410325050354004
1757491979276188400,7.4341884765625,1.530121922492981,-8.892655372619629,3.8490962982177734
1757491979286229200,7.444229248046875,1.771916389465332,-9.116788864135742,3.159207820892334
1757491979296271600,7.454271728515625,2.240419387817383,-9.234537124633789,2.4372060298919678
1757491979306314000,7.46431396484375,2.7232580184936523,-9.25095272064209,1.7999587059020996
1757491979316354800,7.474354736328125,2.9245922565460205,-9.245131492614746,1.486745834350586
1757491979326393600,7.4843935546875,2.9007601737976074,-9.262460708618164,1.42425537109375
1757491979336434200,7.49443408203125,2.9459898471832275,-9.288330078125,1.1332155466079712
1757491979346476000,7.50447607421875,3.0051417350769043,-9.30827522277832,0.7491567134857178
1757491979356519000,7.514518798828125,3.023135185241699,-9.323432922363281,0.4127713441848755
1757491979366573800,7.52457373046875,3.0202338695526123,-9.33247184753418,0.13890178501605988
1757491979376605200,7.534605224609375,3.0214734077453613,-9.332985877990723,-0.046620145440101624
1757491979396684500,7.5546845703125,3.049248218536377,-9.323714256286621,-0.08098730444908142
1757491979406729500,7.5647294921875,3.079524517059326,-9.314053535461426,0.03212416544556618
1757491979416747800,7.574747802734375,3.1135480403900146,-9.301310539245605,0.16600552201271057
1757491979426812700,7.584812744140625,3.1362202167510986,-9.291234016418457,0.2705289125442505
1757491979436854500,7.5948544921875,3.1397781372070312,-9.287107467651367,0.3571402132511139
1757491979446896600,7.604896728515625,3.139096260070801,-9.282074928283691,0.4746206998825073
1757491979456938000,7.61493798828125,3.1075279712677,-9.281564712524414,0.6572220325469971
1757491979466975700,7.624975830078125,3.0368709564208984,-9.283679962158203,0.9093035459518433
1757491979477021700,7.635021728515625,2.9190664291381836,-9.286372184753418,1.2159253358840942
1757491979487063300,7.645063232421875,2.77297306060791,-9.279232025146484,1.562877893447876
1757491979497104400,7.6551044921875,2.6259655952453613,-8.942011833190918,3.0628137588500977
1757491979507146200,7.665146240234375,2.4135217666625977,-8.842302322387695,3.496389627456665
1757491979517188900,7.67518896484375,2.1882317066192627,-8.687250137329102,3.9974262714385986
1757491979527228400,7.685228515625,1.9555087089538574,-8.473418235778809,4.540185928344727
1757491979537267700,7.695267822265625,1.7189509868621826,-8.199397087097168,5.104037284851074
1757491979547308800,7.705308837890625,1.5265027284622192,-7.850409030914307,5.6812849044799805
1757491979557350100,7.71535009765625,1.364737868309021,-7.404235363006592,6.288952827453613
1757491979567392800,7.725392822265625,1.301933765411377,-6.825953483581543,6.92440938949585
1757491979577433600,7.73543359375,1.3905553817749023,-6.144646167755127,7.51969575881958
1757491979587475200,7.74547509765625,1.5178916454315186,-5.481358051300049,7.992924213409424
1757491979597518600,7.7555185546875,1.5790070295333862,-4.9890899658203125,8.297700881958008
1757491979607558700,7.76555859375,1.6073943376541138,-4.620192050933838,8.503308296203613
1757491979617604600,7.7756044921875,1.6509857177734375,-4.256664752960205,8.682808876037598
1757491979627641900,7.785641845703125,1.6575191020965576,-3.8986129760742188,8.848138809204102
1757491979637687600,7.7956875,1.5840092897415161,-3.583127975463867,8.99378776550293
1757491979647729200,7.805729248046875,1.4136749505996704,-3.3768622875213623,9.101343154907227
1757491979657767200,7.81576708984375,1.1201882362365723,-3.2348792552948,9.193304061889648
1757491979667812600,7.8258125,0.7930257320404053,-3.194927453994751,9.241193771362305
1757491979677853700,7.835853759765625,0.4954240918159485,-3.241396427154541,9.245756149291992
1757491979687895600,7.8458955078125,0.27608564496040344,-3.3467698097229004,9.21732234954834
1757491979697932800,7.855932861328125,0.1769086867570877,-3.502228021621704,9.161836624145508
1757491979707953700,7.86595361328125,0.20082497596740723,-3.683955669403076,9.089789390563965
1757491979718016300,7.876016357421875,0.2996809184551239,-3.882437229156494,9.00405502319336
1757491979728038000,7.886037841796875,0.45745402574539185,-4.099925518035889,8.900418281555176
1757491979738103600,7.896103515625,0.6598504185676575,-4.342986106872559,8.771499633789062
1757491979748145200,7.906145263671875,0.8887203931808472,-4.61311674118042,8.611936569213867
1757491979758187000,7.91618701171875,1.1294759511947632,-4.896029472351074,8.425515174865723
1757491979768224300,7.926224365234375,1.3602410554885864,-5.178427219390869,8.220083236694336
1757491979778270000,7.93627001953125,1.5509675741195679,-5.4589643478393555,8.001895904541016
1757491979788308200,7.94630810546875,1.6903436183929443,-5.731376647949219,7.780113697052002
1757491979798353700,7.956353759765625,1.7476105690002441,-5.979794979095459,7.5778632164001465
1757491979808398300,7.9663984375,1.7258425951004028,-6.175301551818848,7.424503326416016
1757491979818432800,7.976432861328125,1.7224284410476685,-6.272095680236816,7.343714714050293
1757491979828474400,7.986474365234375,1.8477015495300293,-6.254276275634766,7.328447341918945
1757491979838534700,7.99653466796875,2.100597381591797,-6.142029762268066,7.355208396911621
1757491979848558300,8.006558349609374,2.3779211044311523,-5.96166467666626,7.4189066886901855
1757491979858612500,8.016612548828125,2.5342938899993896,-5.781142234802246,7.509450912475586
1757491979868644000,8.02664404296875,2.640756845474243,-5.643730640411377,7.576992511749268
1757491979878687700,8.036687744140625,2.9250943660736084,-5.530375003814697,7.556115627288818
1757491979888724700,8.046724853515625,2.8310956954956055,-5.599841117858887,7.540742874145508
1757491979898766800,8.056766845703125,2.6701743602752686,-5.794919490814209,7.451522350311279
1757491979908806700,8.066806640625,2.6609995365142822,-6.032759666442871,7.263676643371582
1757491979918826500,8.076826416015624,2.8577699661254883,-6.297532081604004,6.957756519317627
1757491979928889900,8.086889892578125,3.23226261138916,-6.5347900390625,6.563924312591553
1757491979938935600,8.096935546875,3.6052634716033936,-6.681352615356445,6.212705135345459
1757491979948977000,8.106976806640626,3.790809154510498,-6.798938751220703,5.969951152801514
1757491979959021600,8.117021484375,3.7177796363830566,-6.982938289642334,5.801103591918945
1757491979969059300,8.127059326171874,3.4515275955200195,-7.259222030639648,5.623767852783203
1757491979979101200,8.13710107421875,3.3029160499572754,-7.556171894073486,5.313297271728516
1757491979989208600,8.14720849609375,3.4249908924102783,-7.806291103363037,4.8546247482299805
1757491979999204900,8.157204833984375,3.571402072906494,-8.009660720825195,4.396196365356445
1757491980009238300,8.16723828125,3.667776346206665,-8.145831108093262,4.053266525268555
1757491980019249200,8.177249267578125,3.623871326446533,-8.265342712402344,3.8454904556274414
1757491980029310700,8.187310791015625,3.5732786655426025,-8.388334274291992,3.6198947429656982
1757491980039348000,8.197347900390625,3.5975983142852783,-8.506916999816895,3.3054141998291016
1757491980049396700,8.207396728515626,3.626167058944702,-8.602663040161133,3.013507843017578
1757491980059431200,8.21743115234375,3.667672872543335,-8.660161972045898,2.7903177738189697
1757491980069473000,8.22747314453125,3.704911708831787,-8.685922622680664,2.6579060554504395
1757491980079514600,8.2375146484375,3.706610918045044,-8.70235538482666,2.6011834144592285
1757491980089558500,8.24755859375,3.6865391731262207,-8.719049453735352,2.5736594200134277
1757491980099602200,8.257602294921876,3.6792845726013184,-8.730870246887207,2.543795108795166
1757491980109639400,8.267639404296874,3.7047877311706543,-8.726641654968262,2.521186590194702
1757491980119684900,8.277684814453124,3.7314951419830322,-8.713830947875977,2.5261051654815674
1757491980129727000,8.28772705078125,3.7103145122528076,-8.710027694702148,2.570039749145508
1757491980139764500,8.297764404296874,3.6769633293151855,-8.699021339416504,2.653883457183838
1757491980149810200,8.30781005859375,3.6588921546936035,-8.664628028869629,2.7879819869995117
1757491980159851800,8.317851806640626,3.6308767795562744,-8.609285354614258,2.9888195991516113
1757491980169889000,8.327888916015626,3.56135892868042,-8.523089408874512,3.3029980659484863
1757491980179935000,8.33793505859375,3.466123104095459,-8.448172569274902,3.5847578048706055
1757491980189976800,8.347976806640625,3.349655866622925,-8.364680290222168,3.8791816234588623
1757491980200018400,8.358018310546875,3.212895393371582,-8.259318351745605,4.206790447235107
1757491980210055700,8.3680556640625,3.0360639095306396,-8.10702133178711,4.614611625671387
1757491980220101400,8.378101318359375,2.8452558517456055,-7.927109718322754,5.030067443847656
1757491980230139000,8.388138916015626,2.6326820850372314,-7.703441619873047,5.4737629890441895
1757491980240185300,8.398185302734374,2.4125282764434814,-7.427298069000244,5.937258720397949
1757491980250226000,8.408225830078125,2.2216503620147705,-7.082820415496826,6.413581371307373
1757491980260267800,8.418267822265625,2.039625883102417,-6.6762495040893555,6.89229679107666
1757491980270310000,8.428309814453126,1.8619424104690552,-6.220510482788086,7.353538990020752
1757491980280348000,8.438347900390625,1.7572029829025269,-5.72533655166626,7.769742012023926
1757491980290395000,8.448394775390625,1.8218857049942017,-5.2155375480651855,8.106480598449707
1757491980300430000,8.45843017578125,1.9316136837005615,-4.7384033203125,8.369739532470703
1757491980310472400,8.468472412109374,2.0385754108428955,-4.343437194824219,8.556568145751953
1757491980320514300,8.478514404296876,2.157550096511841,-3.9802491664886475,8.702798843383789
1757491980330557400,8.488557373046875,2.252021551132202,-3.610677719116211,8.838977813720703
1757491980340601000,8.49860107421875,2.240879535675049,-3.2589619159698486,8.977402687072754
1757491980350642700,8.508642578125,2.112349033355713,-2.98028564453125,9.104504585266113
1757491980360679400,8.518679443359375,1.8926210403442383,-2.7520761489868164,9.22389030456543
1757491980370721800,8.5287216796875,1.641803503036499,-2.6126561164855957,9.312068939208984
1757491980380767000,8.53876708984375,1.3708338737487793,-2.559830665588379,9.370389938354492
1757491980390808800,8.548808837890626,1.1447314023971558,-2.6127238273620605,9.386127471923828
1757491980400850400,8.558850341796875,0.9934209585189819,-2.750396728515625,9.36400318145752
1757491980410892300,8.568892333984374,0.9350724220275879,-2.932793378829956,9.314532279968262
1757491980420930600,8.5789306640625,0.9580265879631042,-3.137537956237793,9.245223999023438
1757491980430971600,8.5889716796875,1.086559534072876,-3.3736090660095215,9.147363662719727
1757491980441013200,8.59901318359375,1.3087340593338013,-3.6398766040802,9.015244483947754
1757491980451058400,8.609058349609375,1.5966135263442993,-3.926485538482666,8.847014427185059
1757491980461100500,8.6191005859375,1.9849426746368408,-4.33042573928833,8.575752258300781
1757491980471142100,8.62914208984375,2.2179665565490723,-4.597012519836426,8.377601623535156
1757491980481182700,8.6391826171875,2.3937270641326904,-4.864152908325195,8.175952911376953
1757491980491221500,8.649221435546876,2.504800319671631,-5.126441955566406,7.9800801277160645
1757491980501266400,8.659266357421876,2.5159101486206055,-5.3707122802734375,7.814202308654785
1757491980511305000,8.669304931640625,2.4171011447906494,-5.5707831382751465,7.7045512199401855
1757491980521323500,8.679323486328125,2.3343749046325684,-5.676567077636719,7.6526713371276855
1757491980531392800,8.689392822265624,2.4395697116851807,-5.6804118156433105,7.616924285888672
1757491980541429000,8.699428955078124,2.6995372772216797,-5.619808197021484,7.57405948638916
1757491980551471400,8.709471435546876,2.888352632522583,-5.512401580810547,7.583333969116211
1757491980561514200,8.71951416015625,2.940086841583252,-5.402451515197754,7.642350196838379
1757491980571556400,8.729556396484375,3.08195161819458,-5.307303428649902,7.65311861038208
1757491980581595400,8.739595458984375,3.442377805709839,-5.23260498046875,7.550230503082275
1757491980591641600,8.7496416015625,3.296677350997925,-5.369459629058838,7.519104480743408
1757491980601683000,8.759682861328125,3.089827299118042,-5.541686534881592,7.481897354125977
1757491980611724500,8.769724609375,3.0270285606384277,-5.754090785980225,7.345996379852295
1757491980621768000,8.779767822265624,3.263624668121338,-5.985386848449707,7.054079055786133
1757491980631807700,8.789807861328125,3.732462167739868,-6.178798675537109,6.642837047576904
1757491980641849000,8.79984912109375,4.116018772125244,-6.328691005706787,6.264355659484863
1757491980651887600,8.8098876953125,4.230812072753906,-6.505738258361816,6.0009765625
1757491980661932300,8.819932373046875,4.0558061599731445,-6.770092010498047,5.826869487762451
1757491980671974000,8.829973876953124,3.6758666038513184,-7.126153469085693,5.651730537414551
1757491980682011400,8.840011474609375,3.555509567260742,-7.464305400848389,5.280019760131836
1757491980692057300,8.850057373046875,3.7545199394226074,-7.7432637214660645,4.709731101989746
1757491980702099000,8.860098876953124,3.86911678314209,-7.979273319244385,4.194906711578369
1757491980712140500,8.870140625,3.8889288902282715,-8.133426666259766,3.8677802085876465
1757491980722170000,8.880170166015626,3.792829990386963,-8.259016990661621,3.693127393722534
1757491980732223500,8.890223388671876,3.769606351852417,-8.383898735046387,3.425847053527832
1757491980742265300,8.900265380859375,3.7860820293426514,-8.506020545959473,3.0901968479156494
1757491980752302600,8.910302490234375,3.8083176612854004,-8.593504905700684,2.807936668395996
1757491980762348500,8.9203486328125,3.8439457416534424,-8.63776683807373,2.617095470428467
1757491980772391700,8.9303916015625,3.866379737854004,-8.653287887573242,2.5313708782196045
1757491980782428400,8.940428466796876,3.8597962856292725,-8.658119201660156,2.5248894691467285
1757491980792469800,8.9504697265625,3.8425259590148926,-8.658377647399902,2.550217866897583
1757491980802512400,8.960512451171875,3.8402795791625977,-8.652682304382324,2.572831630706787
1757491980812552700,8.970552734375,3.8460311889648438,-8.642040252685547,2.599865436553955
1757491980822597600,8.98059765625,3.8436203002929688,-8.627144813537598,2.652369737625122
1757491980832639700,8.9906396484375,3.833921432495117,-8.599847793579102,2.7531352043151855
1757491980842681600,9.000681640625,3.8182168006896973,-8.551627159118652,2.920105218887329
1757491980852722200,9.01072216796875,3.7761642932891846,-8.48442268371582,3.1608946323394775
1757491980862764500,9.0207646484375,3.687506675720215,-8.408289909362793,3.4552953243255615
1757491980872802000,9.030802001953125,3.564704418182373,-8.324250221252441,3.7730419635772705
1757491980882843600,9.04084375,3.4359731674194336,-8.220498085021973,4.105316162109375
1757491980892889600,9.0508896484375,3.2210850715637207,-8.027281761169434,4.628551006317139
1757491980902931000,9.060930908203124,3.039632797241211,-7.849318027496338,5.03834867477417
1757491980912972500,9.07097265625,2.843675374984741,-7.62650728225708,5.475949287414551
1757491980923013600,9.081013671875,2.6339097023010254,-7.360659122467041,5.926156997680664
1757491980933055700,9.0910556640625,2.3992018699645996,-7.051429748535156,6.384144306182861
1757491980943093000,9.101093017578124,2.194240093231201,-6.686964988708496,6.834172248840332
1757491980953135000,9.111135009765626,2.0530107021331787,-6.24812126159668,7.278889179229736
1757491980963180000,9.121179931640626,1.9280539751052856,-5.755134105682373,7.7069549560546875
1757491980973222100,9.13122216796875,1.9520728588104248,-5.240701198577881,8.059812545776367
1757491980983263700,9.141263671875,2.1399567127227783,-4.737112522125244,8.319643020629883
1757491980993305600,9.1513056640625,2.2756779193878174,-4.285202980041504,8.526103019714355
1757491981003342800,9.1613427734375,2.3232548236846924,-3.869961977005005,8.709878921508789
1757491981013391000,9.17139111328125,2.3284659385681152,-3.4642605781555176,8.877683639526367
1757491981023427000,9.181427001953125,2.2754697799682617,-3.091111183166504,9.027922630310059
1757491981033467600,9.191467529296874,2.1445071697235107,-2.78524112701416,9.15858268737793
1757491981043509200,9.20150927734375,1.9123951196670532,-2.5651888847351074,9.27354621887207
1757491981053553200,9.21155322265625,1.6112500429153442,-2.4325380325317383,9.366042137145996
1757491981063596800,9.2215966796875,1.3328903913497925,-2.3965060710906982,9.418932914733887
1757491981073634600,9.231634521484375,1.1458944082260132,-2.4572641849517822,9.427879333496094
1757491981083679500,9.241679443359375,1.0651426315307617,-2.5856339931488037,9.402982711791992
1757491981093720800,9.251720947265625,1.0607303380966187,-2.759416341781616,9.353961944580078
1757491981103762700,9.2617626953125,1.100967288017273,-2.9820666313171387,9.280692100524902
1757491981113800700,9.27180078125,1.148709774017334,-3.234976291656494,9.189749717712402
1757491981123844900,9.281844970703125,1.1963105201721191,-3.498088836669922,9.086711883544922
1757491981133883400,9.29188330078125,1.2564234733581543,-3.766867160797119,8.970409393310547
1757491981143929000,9.30192919921875,1.3508609533309937,-4.048572063446045,8.832914352416992
1757491981153970400,9.311970458984375,1.5233306884765625,-4.3509016036987305,8.659401893615723
1757491981164012300,9.32201220703125,1.8249222040176392,-4.684837341308594,8.423661231994629
1757491981174054100,9.33205419921875,2.2609379291534424,-5.04880428314209,8.101472854614258
1757491981184091600,9.342091552734376,2.7390949726104736,-5.432826042175293,7.695313930511475
1757491981194134500,9.352134521484375,2.9231204986572266,-5.73537015914917,7.402499675750732
1757491981204178400,9.362178466796875,2.7938270568847656,-5.971111297607422,7.264742374420166
1757491981214220500,9.372220458984375,2.588648796081543,-6.0529632568359375,7.273008823394775
1757491981224260900,9.3822607421875,2.7010271549224854,-5.963176250457764,7.306236743927002
1757491981234303200,9.39230322265625,3.0868992805480957,-5.797903537750244,7.2863898277282715
1757491981244344800,9.4023447265625,3.282877206802368,-5.6546950340271,7.313222885131836
1757491981254382000,9.412382080078125,3.2170164585113525,-5.53558874130249,7.432643890380859
1757491981264425200,9.42242529296875,3.284632682800293,-5.429436206817627,7.481211185455322
1757491981274466000,9.432466064453125,3.7146787643432617,-5.348895072937012,7.3366594314575195
1757491981284500200,9.442500244140625,3.682809591293335,-5.432982921600342,7.290797710418701
1757491981294551000,9.452551025390624,3.373061180114746,-5.5949482917785645,7.318136692047119
1757491981304594700,9.4625947265625,3.1824018955230713,-5.804786205291748,7.239673137664795
1757491981314636300,9.47263623046875,3.2409372329711914,-6.055562496185303,7.004471302032471
1757491981324673300,9.48267333984375,3.598438024520874,-6.260466575622559,6.640324115753174
1757491981334718700,9.49271875,4.024683952331543,-6.407078742980957,6.243986129760742
1757491981344760600,9.502760498046875,4.223354816436768,-6.575754642486572,5.9294891357421875
1757491981354781400,9.512781494140626,4.139200210571289,-6.830076217651367,5.696770668029785
1757491981364843800,9.52284375,3.831125497817993,-7.17203426361084,5.488216876983643
1757491981374885600,9.5328857421875,3.607130289077759,-7.512438774108887,5.175714015960693
1757491981384926700,9.5429267578125,3.8644955158233643,-7.748852252960205,4.610541820526123
1757491981394964700,9.55296484375,4.019590377807617,-7.986649990081787,4.036385536193848
1757491981405009700,9.563009765625,4.019427299499512,-8.163501739501953,3.665726900100708
1757491981415051300,9.57305126953125,3.961919069290161,-8.295843124389648,3.4231982231140137
1757491981425092900,9.5830927734375,3.942178726196289,-8.432646751403809,3.096095561981201
1757491981435134700,9.593134765625,3.916499137878418,-8.554092407226562,2.7793264389038086
1757491981445176800,9.6031767578125,3.883051872253418,-8.635746955871582,2.565524101257324
1757491981455218400,9.613218505859376,3.8489677906036377,-8.683095932006836,2.454667091369629
1757491981465259300,9.62325927734375,3.8263721466064453,-8.703415870666504,2.4177584648132324
1757491981475300900,9.63330078125,3.826293468475342,-8.70358657836914,2.4172677993774414
1757491981485342700,9.6433427734375,3.8403444290161133,-8.687073707580566,2.454101085662842
1757491981495384600,9.653384521484375,3.8552656173706055,-8.659013748168945,2.5287389755249023
1757491981505423400,9.66342333984375,3.8747713565826416,-8.627103805541992,2.6067869663238525
1757491981515463400,9.67346337890625,3.8921656608581543,-8.598549842834473,2.6743412017822266
1757491981525506300,9.68350634765625,3.887118339538574,-8.576217651367188,2.752256155014038
1757491981535548000,9.6935478515625,3.8600857257843018,-8.552642822265625,2.8614914417266846
1757491981545592300,9.70359228515625,3.835463047027588,-8.510289192199707,3.016671657562256
1757491981555629600,9.713629638671875,3.7933220863342285,-8.45373249053955,3.2219910621643066
1757491981565675300,9.72367529296875,3.7045350074768066,-8.39521312713623,3.468853712081909
1757491981575716900,9.733716796875,3.6021902561187744,-8.32664680480957,3.7319271564483643
1757491981585754000,9.743754150390625,3.4808552265167236,-8.226410865783691,4.055358409881592
1757491981595800000,9.753800048828126,3.2890846729278564,-8.09301471710205,4.463309288024902
1757491981605841700,9.763841552734375,3.058486223220825,-7.908325672149658,4.933573246002197
1757491981615883000,9.773883056640624,2.8281617164611816,-7.676721096038818,5.413461685180664
1757491981625921000,9.783921142578125,2.570570707321167,-7.413601875305176,5.8878493309021
1757491981635966000,9.793966064453125,2.3153131008148193,-7.098657608032227,6.362741947174072
1757491981646008000,9.804008056640624,2.0888099670410156,-6.711437702178955,6.843215465545654
1757491981656049200,9.814049072265625,1.9263746738433838,-6.267397403717041,7.296911239624023
1757491981666091500,9.824091552734375,1.9170637130737305,-5.821023464202881,7.660068988800049
1757491981676132600,9.834132568359376,2.057224750518799,-5.37885856628418,7.94177770614624
1757491981686174000,9.844174072265625,2.2013285160064697,-4.937349319458008,8.186138153076172
1757491981696212500,9.85421240234375,2.3033714294433594,-4.534048080444336,8.388862609863281
1757491981706257400,9.86425732421875,2.3867101669311523,-4.144492149353027,8.565216064453125
1757491981716299300,9.87429931640625,2.4510204792022705,-3.762037515640259,8.722138404846191
1757491981726340600,9.884340576171875,2.4319374561309814,-3.4287147521972656,8.863729476928711
1757491981736382200,9.89438232421875,2.273297071456909,-3.1552257537841797,9.006264686584473
1757491981746421800,9.904421875,2.057143211364746,-2.969104051589966,9.120784759521484
1757491981756461300,9.91446142578125,1.7855087518692017,-2.855769634246826,9.213722229003906
1757491981766503200,9.924503173828125,1.5672821998596191,-2.8506383895874023,9.254923820495605
1757491981776547600,9.934547607421875,1.413612961769104,-2.9431354999542236,9.250717163085938
1757491981786590000,9.94458984375,1.3066308498382568,-3.091306686401367,9.218062400817871
1757491981796630500,9.954630615234375,1.2201268672943115,-3.2623696327209473,9.170842170715332
1757491981806673200,9.964673095703125,1.1670531034469604,-3.443659543991089,9.111273765563965
1757491981816714200,9.97471435546875,1.1953727006912231,-3.6292216777801514,9.035263061523438
1757491981826755800,9.984755859375,1.325599193572998,-3.8258132934570312,8.93543815612793
1757491981836798000,9.9947978515625,1.5782328844070435,-4.059891223907471,8.78991413116455
1757491981846838500,10.004838623046876,1.9059414863586426,-4.327295780181885,8.595232963562012
1757491981856876800,10.014876708984374,2.2312066555023193,-4.6060333251953125,8.36912727355957
1757491981866922000,10.024921875,2.4828641414642334,-4.897183418273926,8.12951946258545
1757491981876963800,10.0349638671875,2.638214111328125,-5.189389705657959,7.895961284637451
1757491981887005200,10.045005126953125,2.1290552616119385,-6.058117389678955,7.41636323928833
1757491981897047000,10.055047119140625,1.986782193183899,-6.292900562286377,7.258664131164551
1757491981907088600,10.065088623046876,1.6727997064590454,-6.466686725616455,7.184693813323975
1757491981917130000,10.0751298828125,1.5106613636016846,-6.514171123504639,7.177715301513672
1757491981927167200,10.085167236328125,1.7274415493011475,-6.467054843902588,7.171421051025391
1757491981937215700,10.0952158203125,2.070991277694702,-6.400080680847168,7.140452861785889
1757491981947251500,10.10525146484375,2.2622506618499756,-6.314468860626221,7.158620357513428
1757491981957291500,10.11529150390625,2.4128007888793945,-6.212679862976074,7.198410511016846
1757491981967334000,10.125333984375,2.60140061378479,-6.096166610717773,7.232259750366211
1757491981977375200,10.135375244140626,2.9396822452545166,-5.982074737548828,7.197856903076172
1757491981987399000,10.14539892578125,2.835512161254883,-5.994624137878418,7.2291412353515625
1757491981997459000,10.155458984375,2.645359992980957,-6.032887935638428,7.269280910491943
1757491982007500000,10.1655,2.6778805255889893,-6.119629859924316,7.184372425079346
1757491982017543000,10.17554296875,3.0778920650482178,-6.223516464233398,6.93040657043457
1757491982027583000,10.1855830078125,3.421769618988037,-6.3513875007629395,6.647366523742676
1757491982037628700,10.195628662109375,3.2242913246154785,-6.640304088592529,6.461146831512451
1757491982047670300,10.205670166015626,3.009591579437256,-6.99860954284668,6.180448532104492
1757491982057711000,10.215711181640625,2.730675220489502,-7.393823146820068,5.8404541015625
1757491982067749400,10.225749267578125,2.499051809310913,-7.766164779663086,5.447708606719971
1757491982077794800,10.235794921875,2.56868314743042,-8.065078735351562,4.959082126617432
1757491982087831600,10.24583154296875,2.9510819911956787,-8.295689582824707,4.32536506652832
1757491982097878500,10.25587841796875,3.096158742904663,-8.524507522583008,3.7393431663513184
1757491982107919400,10.26591943359375,3.00667142868042,-8.694991111755371,3.4048755168914795
1757491982117961200,10.275961181640625,2.936781644821167,-8.81347370147705,3.151845932006836
1757491982128002800,10.2860029296875,2.960456132888794,-8.924822807312012,2.7963123321533203
1757491982138018600,10.2960185546875,2.9969353675842285,-9.019990921020508,2.427809000015259
1757491982148061400,10.3060615234375,3.051819086074829,-9.078882217407227,2.1204776763916016
1757491982158102300,10.316102294921874,3.108771562576294,-9.1085844039917,1.8987774848937988
1757491982168143400,10.326143310546875,3.1479249000549316,-9.116604804992676,1.7928187847137451
1757491982178210300,10.336210205078125,3.167743444442749,-9.10780143737793,1.802632451057434
1757491982188252000,10.346251953125,3.1703014373779297,-9.090276718139648,1.8847218751907349
1757491982198293800,10.356293701171875,3.159151077270508,-9.074504852294922,1.9771755933761597
1757491982208334800,10.3663349609375,2.444683074951172,-9.127067565917969,2.6374762058258057
1757491982218372600,10.37637255859375,2.4014482498168945,-9.115431785583496,2.716259241104126
1757491982228416300,10.386416259765625,2.356759548187256,-9.098481178283691,2.8105928897857666
1757491982238456000,10.3964560546875,2.300048828125,-9.073511123657227,2.9355216026306152
1757491982248497400,10.406497314453125,2.2328951358795166,-9.034663200378418,3.102445363998413
1757491982258540000,10.4165400390625,2.1482107639312744,-8.981075286865234,3.3108303546905518
1757491982268582100,10.42658203125,2.0799005031585693,-8.8572998046875,3.6685636043548584
1757491982278621700,10.43662158203125,1.9179567098617554,-8.768034934997559,3.9596872329711914
1757491982288667600,10.446667724609375,1.7154145240783691,-8.648438453674316,4.300929069519043
1757491982298706000,10.456705810546875,1.486327886581421,-8.482077598571777,4.699075698852539
1757491982308748500,10.46674853515625,1.2518784999847412,-8.252872467041016,5.153542995452881
1757491982318787600,10.47678759765625,1.0099490880966187,-7.957483768463135,5.647527694702148
1757491982328829400,10.486829345703125,0.7900943756103516,-7.593527793884277,6.160374164581299
1757491982338871300,10.496871337890624,0.619981050491333,-7.150362014770508,6.687604904174805
1757491982348914000,10.506913818359376,0.4594576954841614,-6.654021263122559,7.193678855895996
1757491982358955800,10.516955810546875,0.3642578721046448,-6.150692462921143,7.633637428283691
1757491982368999400,10.52699951171875,0.44669365882873535,-5.674173831939697,7.990014553070068
1757491982379039500,10.53703955078125,0.6393857598304749,-5.220966815948486,8.280628204345703
1757491982389081000,10.5470810546875,0.7925330996513367,-4.791024684906006,8.523736953735352
1757491982399123500,10.55712353515625,0.8842057585716248,-4.36793851852417,8.739303588867188
1757491982409199000,10.56719921875,0.9526070952415466,-3.938577890396118,8.93399429321289
1757491982419223000,10.57722314453125,1.0141750574111938,-3.537810802459717,9.093484878540039
1757491982429249000,10.5872490234375,0.9858487844467163,-3.2043135166168213,9.219359397888184
1757491982439286500,10.59728662109375,0.8214224576950073,-2.9518520832061768,9.319226264953613
1757491982449332500,10.60733251953125,0.5494190454483032,-2.777493715286255,9.392538070678711
1757491982459373800,10.617373779296875,0.23079663515090942,-2.7005863189697266,9.428133010864258
1757491982469411600,10.62741162109375,-0.09384430944919586,-2.7272472381591797,9.42281436920166
1757491982479453200,10.637453125,-0.37206360697746277,-2.852281332015991,9.378813743591309
1757491982489494300,10.647494384765626,-0.5458510518074036,-3.0485312938690186,9.308309555053711
1757491982499538000,10.657537841796875,-0.6182910203933716,-3.2832133769989014,9.223576545715332
1757491982509577500,10.667577392578124,-0.6105189323425293,-3.535538673400879,9.130352973937988
1757491982519623200,10.677623046875,-0.525053083896637,-3.7919669151306152,9.032242774963379
1757491982529664500,10.68766455078125,-0.3585682213306427,-4.046346664428711,8.929425239562988
1757491982539701800,10.69770166015625,-0.10243649780750275,-4.303825855255127,8.814913749694824
1757491982549747500,10.70774755859375,0.21972930431365967,-4.5764312744140625,8.674336433410645
1757491982559789300,10.717789306640626,0.5307406783103943,-4.870315074920654,8.499086380004883
1757491982569830400,10.727830322265625,0.6563663482666016,-5.439706325531006,8.137253761291504
1757491982579872000,10.7378720703125,0.65554279088974,-5.669122695922852,7.97918701171875
1757491982589913300,10.747913330078125,0.5296922922134399,-5.858844757080078,7.85044527053833
1757491982599951000,10.757951171875,0.32611092925071716,-6.00275182723999,7.752207279205322
1757491982609996500,10.76799658203125,0.2548295557498932,-6.077997207641602,7.696047306060791
1757491982620038000,10.778037841796875,0.48511046171188354,-6.092604637145996,7.673393726348877
1757491982630079000,10.788078857421874,0.8530988693237305,-6.081507205963135,7.650071620941162
1757491982640121000,10.79812109375,1.1734702587127686,-6.040750026702881,7.639923095703125
1757491982650162400,10.808162353515625,1.3592666387557983,-5.977525234222412,7.658832550048828
1757491982660203500,10.81820361328125,1.4473857879638672,-5.918497562408447,7.688468933105469
1757491982670242300,10.8282421875,1.6160169839859009,-5.852173328399658,7.705626964569092
1757491982680287500,10.83828759765625,1.412753701210022,-5.85942268371582,7.739988803863525
1757491982690328600,10.84832861328125,1.1606688499450684,-5.8697357177734375,7.7740044593811035
1757491982700372000,10.8583720703125,1.1160056591033936,-5.9104790687561035,7.749637603759766
1757491982710409700,10.86840966796875,1.4719537496566772,-6.008129596710205,7.613926410675049
1757491982720449000,10.878448974609375,2.146484613418579,-6.15346622467041,7.332363605499268
1757491982730491400,10.888491455078125,2.332977533340454,-6.370065212249756,7.086296081542969
1757491982740532700,10.89853271484375,2.0268666744232178,-6.711350440979004,6.861902713775635
1757491982750578400,10.908578369140624,1.728825569152832,-7.094638824462891,6.550832271575928
1757491982760619800,10.918619873046875,1.43681001663208,-7.487644195556641,6.17307710647583
1757491982770661400,10.928661376953125,1.2984691858291626,-7.855783462524414,5.730337619781494
1757491982780702500,10.938702392578126,1.4954017400741577,-8.17789077758789,5.207880020141602
1757491982790739700,10.94873974609375,1.840037226676941,-8.438394546508789,4.652297019958496
1757491982800785700,10.95878564453125,1.9164600372314453,-8.64798355102539,4.216122627258301
1757491982810823400,10.968823486328125,1.8349971771240234,-8.81995964050293,3.882941484451294
1757491982820860400,10.9788603515625,1.8094216585159302,-8.96746826171875,3.5421218872070312
1757491982830910200,10.98891015625,1.8470954895019531,-9.102703094482422,3.1567647457122803
1757491982840951300,10.998951416015625,1.8829076290130615,-9.208024978637695,2.8112363815307617
1757491982850993200,11.0089931640625,1.917314052581787,-9.280001640319824,2.5380284786224365
1757491982861031000,11.019031005859375,1.9254132509231567,-9.323722839355469,2.3658201694488525
1757491982871076600,11.02907666015625,1.917870283126831,-9.340293884277344,2.305821418762207
1757491982881113900,11.03911376953125,1.9299885034561157,-9.332014083862305,2.3291168212890625
1757491982891159300,11.0491591796875,1.9483014345169067,-9.30799388885498,2.408628463745117
1757491982901201400,11.059201416015625,1.9670028686523438,-9.274239540100098,2.521014928817749
1757491982911242500,11.069242431640625,1.987974762916565,-9.232462882995605,2.654365301132202
1757491982921257500,11.079257568359376,1.9992616176605225,-9.18238639831543,2.8147544860839844
1757491982931325700,11.08932568359375,1.9935249090194702,-9.119275093078613,3.016751766204834
1757491982941367300,11.0993671875,1.9722917079925537,-9.036703109741211,3.2686638832092285
1757491982951410400,11.109410400390624,1.929930567741394,-8.936630249023438,3.5564181804656982
1757491982961446400,11.1194462890625,1.8439946174621582,-8.822678565979004,3.872487783432007
1757491982971488300,11.12948828125,1.7134573459625244,-8.691401481628418,4.214227199554443
1757491982981531000,11.13953076171875,1.5520834922790527,-8.530006408691406,4.589786052703857
1757491982991570000,11.14956982421875,1.3585190773010254,-8.323951721191406,5.010224342346191
1757491983001616400,11.159616455078124,1.1563142538070679,-8.053853034973145,5.48037576675415
1757491983011657700,11.16965771484375,0.9566381573677063,-7.718172550201416,5.979195594787598
1757491983021698600,11.179698486328125,0.7573637366294861,-7.327236175537109,6.478745460510254
1757491983031740400,11.189740478515626,0.5857287645339966,-6.8784074783325195,6.969974994659424
1757491983041755600,11.199755615234375,0.3898613750934601,-6.381541728973389,7.44043493270874
1757491983051819500,11.209819580078126,0.27263814210891724,-5.87761926651001,7.849546909332275
1757491983061865200,11.219865234375,0.2905089855194092,-5.405241012573242,8.181386947631836
1757491983071906600,11.229906494140625,0.3724568486213684,-4.9228515625,8.477200508117676
1757491983081948400,11.239948486328124,0.42242860794067383,-4.444693088531494,8.735121726989746
1757491983091990000,11.249989990234376,0.46503815054893494,-3.989375591278076,8.950126647949219
1757491983102031400,11.26003125,0.5047460198402405,-3.548060894012451,9.13195514678955
1757491983112068400,11.270068359375,0.47606921195983887,-3.127706289291382,9.285846710205078
1757491983122114000,11.280114013671875,0.3333258032798767,-2.7643964290618896,9.406545639038086
1757491983132156200,11.29015625,0.1113368347287178,-2.5219805240631104,9.479626655578613
1757491983142197200,11.300197265625,-0.19366797804832458,-2.3093597888946533,9.53233814239502
1757491983162280200,11.3202802734375,-0.7909190058708191,-2.2046451568603516,9.526285171508789
1757491983172322000,11.330322021484376,-0.9998505115509033,-2.307326316833496,9.482230186462402
1757491983182359800,11.34035986328125,-1.123456597328186,-2.4712343215942383,9.426926612854004
1757491983192410000,11.35041015625,-1.1590251922607422,-2.6787900924682617,9.365727424621582
1757491983202442800,11.36044287109375,-1.1015803813934326,-2.9076976776123047,9.304187774658203
1757491983212483600,11.370483642578124,-0.9435856938362122,-3.148949384689331,9.242830276489258
1757491983222528300,11.3805283203125,-0.7051438093185425,-3.4001271724700928,9.174858093261719
1757491983232574500,11.390574462890624,-0.4330991804599762,-3.6791529655456543,9.083633422851562
1757491983242608400,11.4006083984375,-0.12795287370681763,-4.00007438659668,8.956515312194824
1757491983252649700,11.410649658203125,0.3406067490577698,-5.143225193023682,8.346694946289062
1757491983262695200,11.420695068359375,0.6130458116531372,-5.48644495010376,8.10920524597168
1757491983272736500,11.430736572265625,0.803164541721344,-5.820634365081787,7.855650424957275
1757491983282777900,11.44077783203125,0.8503442406654358,-6.131864070892334,7.610075950622559
1757491983292819700,11.45081982421875,0.6873217821121216,-6.4048051834106445,7.398795127868652
1757491983302861600,11.460861572265625,0.3980705738067627,-6.614465236663818,7.233706474304199
1757491983312898300,11.470898193359375,0.2937600314617157,-6.732958793640137,7.128609657287598
1757491983322899000,11.48089892578125,0.4971811771392822,-6.774923324584961,7.077381610870361
1757491983332985900,11.49098583984375,0.7772728800773621,-6.756196022033691,7.070061206817627
1757491983343023400,11.5010234375,0.9273507595062256,-6.6793413162231445,7.124783515930176
1757491983353069000,11.511069091796875,1.0459928512573242,-6.5804443359375,7.199982643127441
1757491983363110400,11.5211103515625,1.2582603693008423,-6.481692790985107,7.255379676818848
1757491983373147100,11.531147216796874,1.5316756963729858,-6.45573616027832,7.225895881652832
1757491983383193900,11.54119384765625,1.4330264329910278,-6.458491325378418,7.243648052215576
1757491983393234400,11.551234375,1.3338327407836914,-6.466233730316162,7.255676746368408
1757491983403275300,11.561275146484375,1.5551576614379883,-6.5404791831970215,7.144211292266846
1757491983413313800,11.571313720703126,2.1318328380584717,-6.6955718994140625,6.845489025115967
1757491983423358200,11.581358154296876,2.245516061782837,-6.937211990356445,6.562687873840332
1757491983433397800,11.591397705078125,1.8599739074707031,-7.277426242828369,6.309967994689941
1757491983443437600,11.6014375,1.5623254776000977,-7.620247840881348,5.97721529006958
1757491983453441500,11.611441650390624,1.2897260189056396,-7.959841728210449,5.58691930770874
1757491983463522300,11.621522216796874,1.1322325468063354,-8.290058135986328,5.12143611907959
1757491983473574400,11.631574462890624,1.2626742124557495,-8.601384162902832,4.545103549957275
1757491983483604500,11.6416044921875,1.6519250869750977,-8.86707592010498,3.8577492237091064
1757491983493649000,11.65164892578125,1.8045965433120728,-9.072566032409668,3.266202688217163
1757491983503687400,11.6616875,1.7537699937820435,-9.211668968200684,2.8819401264190674
1757491983513732600,11.671732666015625,1.7447584867477417,-9.296529769897461,2.601240396499634
1757491983523773700,11.681773681640625,1.8127648830413818,-9.370189666748047,2.2692596912384033
1757491983533816300,11.69181640625,1.8675469160079956,-9.435656547546387,1.9278885126113892
1757491983543857200,11.701857177734375,1.911706805229187,-9.478592872619629,1.6546227931976318
1757491983553895700,11.711895751953126,1.9363675117492676,-9.507495880126953,1.4471017122268677
1757491983563935500,11.721935546875,1.9350132942199707,-9.52713394165039,1.313593864440918
1757491983573981700,11.731981689453125,1.9502619504928589,-9.532085418701172,1.253768801689148
1757491983584023300,11.742023193359374,2.018040657043457,-9.516894340515137,1.2618805170059204
1757491983594064600,11.752064697265626,2.11877703666687,-9.486013412475586,1.327573299407959
1757491983604106200,11.762106201171875,2.2118020057678223,-9.447954177856445,1.4422905445098877
1757491983614146800,11.772146728515626,1.7807326316833496,-9.315834999084473,2.506051540374756
1757491983624188700,11.782188720703125,1.812599539756775,-9.259777069091797,2.6846070289611816
1757491983634230800,11.792230712890625,1.8297771215438843,-9.18881893157959,2.9075160026550293
1757491983644271900,11.80227197265625,1.8285918235778809,-9.09816837310791,3.1805152893066406
1757491983654313700,11.812313720703125,1.7883743047714233,-8.992956161499023,3.4877712726593018
1757491983664354800,11.822354736328125,1.698333978652954,-8.879655838012695,3.8083443641662598
1757491983674400800,11.83240087890625,1.6028655767440796,-8.751556396484375,4.132456302642822
1757491983684434200,11.84243408203125,1.479932427406311,-8.591534614562988,4.497941017150879
1757491983694476300,11.852476318359376,1.3002175092697144,-8.386990547180176,4.919751167297363
1757491983704520200,11.862520263671875,1.1144437789916992,-8.130695343017578,5.374563217163086
1757491983714558200,11.87255810546875,0.9383535981178284,-7.821042537689209,5.8469557762146
1757491983724604000,11.88260400390625,0.7538124322891235,-7.452284336090088,6.334930896759033
1757491983734645500,11.8926455078125,0.5119640827178955,-7.021219253540039,6.832019329071045
1757491983744686800,11.902686767578125,0.2834063768386841,-6.555106163024902,7.292897701263428
1757491983754728400,11.912728515625,0.1884598582983017,-6.097023963928223,7.682896614074707
1757491983764769800,11.922769775390625,0.2599876821041107,-5.625540256500244,8.032546043395996
1757491983774811100,11.93281103515625,0.34870749711990356,-5.095231056213379,8.375746726989746
1757491983784848600,11.9428486328125,0.3635825216770172,-4.567942142486572,8.673974990844727
1757491983794894600,11.95289453125,0.3624487519264221,-4.0656962394714355,8.920475006103516
1757491983804935700,11.962935791015624,0.3701647222042084,-3.5876567363739014,9.12292766571045
1757491983814977300,11.972977294921876,0.30531179904937744,-3.1507039070129395,9.285253524780273
1757491983825019000,11.983018798828125,0.11876104772090912,-2.7794721126556396,9.40726089477539
1757491983835060200,11.993060302734374,-0.1765672117471695,-2.4749019145965576,9.491037368774414
1757491983845102300,12.003102294921876,-0.5224270820617676,-2.256392002105713,9.532673835754395
1757491983855139300,12.013139404296876,-0.8705469369888306,-2.1541996002197266,9.530881881713867
1757491983865184500,12.0231845703125,-1.175553560256958,-2.165158748626709,9.49559211730957
1757491983875226000,12.03322607421875,-1.4006292819976807,-2.258502960205078,9.443174362182617
1757491983885263600,12.043263671875,-1.5394929647445679,-2.4111576080322266,9.383625030517578
1757491983895309000,12.05330908203125,-1.5666223764419556,-2.5971477031707764,9.32934284210205
1757491983905351000,12.063350830078125,-1.4411101341247559,-2.805049419403076,9.28929615020752
1757491983925429500,12.083429443359375,-0.9066920876502991,-3.3255414962768555,9.184488296508789
1757491983935470800,12.093470947265626,-0.5907903909683228,-3.6565146446228027,9.08388614654541
1757491983945513500,12.103513427734375,-0.2775287330150604,-3.994905710220337,8.955436706542969
1757491983955553800,12.1135537109375,-0.01461628545075655,-4.336609363555908,8.799416542053223
1757491983965599500,12.123599609375,0.18410690128803253,-4.690522193908691,8.614013671875
1757491983975641000,12.13364111328125,-0.0001985129783861339,-5.495431423187256,8.126275062561035
1757491983985682700,12.1436826171875,-0.22859925031661987,-5.810248851776123,7.900939464569092
1757491983995720000,12.153719970703126,-0.6415112018585205,-6.067124843597412,7.682094573974609
1757491984005765400,12.163765380859376,-0.8646278381347656,-6.245206832885742,7.515713214874268
1757491984015807000,12.173806884765625,-0.6818590760231018,-6.353353023529053,7.443528175354004
1757491984025847600,12.18384765625,-0.3288488984107971,-6.371776580810547,7.4517412185668945
1757491984035889700,12.1938896484375,-0.03864249587059021,-6.2810187339782715,7.5354766845703125
1757491984045931000,12.203930908203125,0.12223371118307114,-6.1263747215271,7.6608567237854
1757491984055971800,12.213971923828124,0.31173935532569885,-5.956297874450684,7.788546085357666
1757491984066014200,12.22401416015625,0.6453151106834412,-5.759527683258057,7.915019512176514
1757491984076055800,12.234055908203125,0.3452026844024658,-5.676273345947266,7.9935526847839355
1757491984086067700,12.244067626953125,0.06971489638090134,-5.700997352600098,7.983099937438965
1757491984096138500,12.254138427734375,0.10498003661632538,-5.787698268890381,7.920079231262207
1757491984106180600,12.2641806640625,0.5929071307182312,-5.922128200531006,7.7982683181762695
1757491984116221200,12.27422119140625,1.395592451095581,-6.036261081695557,7.606049060821533
1757491984126262300,12.28426220703125,1.404163122177124,-6.188369274139404,7.481211185455322
1757491984136304000,12.29430419921875,1.0836479663848877,-6.434938430786133,7.324847221374512
1757491984146346200,12.30434619140625,0.9089701771736145,-6.732560634613037,7.076901912689209
1757491984156382500,12.314382568359376,0.7617529034614563,-7.091187477111816,6.7357940673828125
1757491984166426400,12.32442626953125,0.6073038578033447,-7.474166393280029,6.324882984161377
1757491984176466700,12.334466796875,0.47933605313301086,-7.8506317138671875,5.8629302978515625
1757491984186508800,12.3445087890625,0.6601141095161438,-8.230770111083984,5.29667854309082
1757491984196552000,12.354552001953126,1.3071928024291992,-8.555384635925293,4.618741035461426
1757491984206590500,12.364590576171874,1.5884376764297485,-8.804625511169434,4.0238728523254395
1757491984216636400,12.374636474609375,1.4401088953018188,-8.978043556213379,3.681974411010742
1757491984226673200,12.384673095703125,1.3984816074371338,-9.084733009338379,3.4275333881378174
1757491984236719000,12.394718994140625,1.4627436399459839,-9.204090118408203,3.0628767013549805
1757491984246760400,12.404760498046874,1.514912724494934,-9.301178932189941,2.725663661956787
1757491984256801300,12.41480126953125,1.5668138265609741,-9.351773262023926,2.5150609016418457
1757491984266843400,12.424843505859375,1.5952988862991333,-9.376630783081055,2.402071237564087
1757491984276885000,12.434885009765624,1.6068311929702759,-9.384963035583496,2.361502170562744
1757491984286926600,12.444926513671875,1.6214447021484375,-9.376089096069336,2.3866260051727295
1757491984296968200,12.45496826171875,1.6381748914718628,-9.355026245117188,2.4568276405334473
1757491984307009300,12.46500927734375,1.6089956760406494,-9.329075813293457,2.5720765590667725
1757491984317051000,12.47505078125,1.5852059125900269,-9.30359172821045,2.677016258239746
1757491984327092500,12.485092529296875,1.574632167816162,-9.265841484069824,2.810842752456665
1757491984337133800,12.4951337890625,1.5554430484771729,-9.209172248840332,3.001307725906372
1757491984347175700,12.50517578125,1.5212643146514893,-9.129018783569336,3.2531332969665527
1757491984357221400,12.515221435546875,1.298754096031189,-8.927380561828613,3.8537328243255615
1757491984367255800,12.525255859375,1.2032957077026367,-8.791353225708008,4.183333873748779
1757491984377296000,12.5352958984375,1.091234803199768,-8.628628730773926,4.537853717803955
1757491984387336700,12.545336669921875,0.9245076775550842,-8.441967964172363,4.9106621742248535
1757491984397378600,12.555378662109375,0.5890716314315796,-8.082533836364746,5.5282697677612305
1757491984407420200,12.565420166015626,0.3449186384677887,-7.7840256690979,5.960375785827637
1757491984417461200,12.575461181640625,0.10994374006986618,-7.424319267272949,6.4112019538879395
1757491984427503000,12.585503173828124,-0.11829560995101929,-7.012385845184326,6.85919713973999
1757491984437544000,12.5955439453125,-0.34832772612571716,-6.548357963562012,7.296148777008057
1757491984447585800,12.605585693359375,-0.5620607137680054,-6.027082920074463,7.719747066497803
1757491984457620200,12.6156201171875,-0.8178094625473022,-5.452871322631836,8.113784790039062
1757491984467648000,12.62564794921875,-0.9462970495223999,-4.857082366943359,8.470499992370605
1757491984477687800,12.635687744140625,-0.7783936858177185,-4.270167827606201,8.797493934631348
1757491984487729700,12.645729736328125,-0.5030678510665894,-3.6875388622283936,9.076624870300293
1757491984497798400,12.65579833984375,-0.3485881984233856,-3.1516168117523193,9.28342342376709
1757491984507838000,12.665837890625,-0.27507585287094116,-2.644230365753174,9.442907333374023
1757491984517875500,12.67587548828125,-0.26647284626960754,-2.1736881732940674,9.5624361038208
1757491984527916800,12.685916748046875,-0.3528023064136505,-1.793121576309204,9.638277053833008
1757491984537962200,12.695962158203125,-0.5193491578102112,-1.5136717557907104,9.678595542907715
1757491984548003600,12.706003662109374,-0.7970802187919617,-1.3182439804077148,9.688294410705566
1757491984558045000,12.716044921875,-1.1619107723236084,-1.22743821144104,9.663305282592773
1757491984568086300,12.726086181640625,-1.5008598566055298,-1.249422550201416,9.613661766052246
1757491984578128000,12.7361279296875,-1.730096459388733,-1.341808557510376,9.562553405761719
1757491984588164900,12.746164794921874,-1.844090223312378,-1.4926395416259766,9.518795013427734
1757491984598207200,12.756207275390626,-1.8626446723937988,-1.6997148990631104,9.48038387298584
1757491984608252200,12.766252197265626,-1.8276946544647217,-1.9477388858795166,9.439385414123535
1757491984618293800,12.776293701171875,-1.771908164024353,-2.2136847972869873,9.391275405883789
1757491984628335400,12.78633544921875,-1.675294041633606,-2.4924631118774414,9.339012145996094
1757491984638376700,12.796376708984376,-1.4887930154800415,-2.795828342437744,9.284554481506348
1757491984648414000,12.8064140625,-1.203738808631897,-3.134828567504883,9.217375755310059
1757491984658455600,12.81645556640625,-0.7866019606590271,-3.9718310832977295,8.935430526733398
1757491984668498400,12.82649853515625,-0.41574904322624207,-4.32799768447876,8.793845176696777
1757491984678539800,12.836539794921874,-0.08994801342487335,-4.68055534362793,8.620927810668945
1757491984688580900,12.846580810546875,0.10648306459188461,-5.01088809967041,8.433016777038574
1757491984698624500,12.85662451171875,0.10467422753572464,-5.298375606536865,8.25544548034668
1757491984708663000,12.8666630859375,-0.1081758365035057,-5.529250621795654,8.102580070495605
1757491984718708000,12.8767080078125,-0.38516050577163696,-5.694669246673584,7.978627681732178
1757491984728748300,12.886748291015625,-0.46698614954948425,-5.798858165740967,7.898815155029297
1757491984738786800,12.896786865234375,-0.3252891004085541,-5.8645124435424805,7.8573408126831055
1757491984748828000,12.906827880859375,-0.16210675239562988,-5.8802971839904785,7.850600719451904
1757491984758869200,12.916869140625,-0.10527210682630539,-5.841534614562988,7.880451679229736
1757491984768912600,12.92691259765625,-0.1188177689909935,-5.790487766265869,7.917844295501709
1757491984778954800,12.936954833984375,0.05881538987159729,-5.750617980957031,7.9475178718566895
1757491984788998700,12.94699853515625,0.17017152905464172,-5.771448135375977,7.9307966232299805
1757491984799038200,12.9570380859375,0.132729172706604,-5.749017238616943,7.947786331176758
1757491984809078500,12.96707861328125,0.20097407698631287,-5.715967178344727,7.970160961151123
1757491984819096800,12.977096923828125,0.6639417409896851,-5.725386142730713,7.9382147789001465
1757491984829201000,12.987200927734374,1.4106040000915527,-5.8144211769104,7.774242401123047
1757491984839201500,12.997201416015624,1.1187173128128052,-6.0514631271362305,7.6396589279174805
1757491984849252400,13.00725244140625,0.5566700100898743,-6.342340469360352,7.463306903839111
1757491984859288000,13.0172880859375,0.24798963963985443,-6.643087387084961,7.214153289794922
1757491984869329700,13.02732958984375,0.038306135684251785,-6.965324401855469,6.9078874588012695
1757491984879372000,13.0373720703125,-0.1077263280749321,-7.311727046966553,6.539355754852295
1757491984889411300,13.047411376953125,-0.020891517400741577,-7.707660675048828,6.068579196929932
1757491984899450000,13.0574501953125,0.2339283972978592,-8.112573623657227,5.51067590713501
1757491984909492000,13.067491943359375,0.3182739019393921,-8.449149131774902,4.974606513977051
1757491984919534800,13.077534912109375,0.30344507098197937,-8.70361328125,4.515658855438232
