time,seconds_elapsed,z,y,x
1757491551245112000,0.036112060546875,0.6817779541015625,-0.5258684158325195,0.8966314792633057
1757491551255146200,0.046146240234375,1.6011886596679688,-1.8828212022781372,3.711533546447754
1757491551265171200,0.056171142578125,1.7708625793457031,-2.834866523742676,3.6637468338012695
1757491551275227600,0.0662275390625,0.410369873046875,-1.987630844116211,2.713611125946045
1757491551285267500,0.076267333984375,-0.3971519470214844,-1.7866922616958618,1.7732188701629639
1757491551295308800,0.086308837890625,-1.1574811935424805,-0.6317169666290283,0.14330700039863586
1757491551305337000,0.096337158203125,-3.5676684379577637,5.910056114196777,-8.421061515808105
1757491551315397400,0.1063974609375,-4.158117294311523,9.250846862792969,-10.18252182006836
1757491551325438000,0.11643798828125,-0.6895170211791992,-0.7150866985321045,0.27334079146385193
1757491551335476000,0.12647607421875,-0.3217029571533203,-0.8687641620635986,0.9596593379974365
1757491551345533700,0.13653369140625,0.7730894088745117,1.2410075664520264,0.5067552924156189
1757491551355578600,0.14657861328125,0.7429819107055664,0.01225733757019043,0.7368655204772949
1757491551365617000,0.156616943359375,0.9420289993286133,0.1603562831878662,0.3244060277938843
1757491551375657500,0.166657470703125,0.6049814224243164,-0.037496089935302734,-0.13806858658790588
1757491551385698300,0.1766982421875,0.3231229782104492,-0.14339828491210938,-0.8384706974029541
1757491551395734800,0.18673486328125,-0.18382835388183594,-0.0472409725189209,-0.5242829322814941
1757491551405774800,0.19677490234375,-0.41014766693115234,0.07120609283447266,-0.40244925022125244
1757491551415794200,0.206794189453125,-0.21640777587890625,0.1686549186706543,-0.18597009778022766
1757491551425859800,0.21685986328125,-0.16569137573242188,0.33695316314697266,-0.06965121626853943
1757491551435864800,0.22686474609375,0.037474632263183594,0.3312690258026123,-0.009999245405197144
1757491551445941000,0.23694091796875,0.02338123321533203,0.278942346572876,-0.06773710250854492
1757491551455977500,0.2469775390625,-0.030523300170898438,0.39531493186950684,-0.19375339150428772
1757491551465997300,0.256997314453125,-0.07917308807373047,0.2482743263244629,-0.20031306147575378
1757491551476058600,0.26705859375,0.18138408660888672,0.27408409118652344,-0.5980679988861084
1757491551486128400,0.27712841796875,-0.008373260498046875,0.2449779510498047,-0.6601498126983643
1757491551496142600,0.287142578125,-0.22247886657714844,0.1545417308807373,-0.5712748169898987
1757491551506184200,0.29718408203125,-0.29977989196777344,0.20255661010742188,-0.5998359322547913
1757491551516220400,0.307220458984375,-0.4414796829223633,0.3616819381713867,-0.549781322479248
1757491551526265300,0.317265380859375,-0.5359783172607422,0.08470535278320312,-0.49903857707977295
1757491551536309800,0.327309814453125,-0.5501632690429688,0.22724390029907227,-0.5037983059883118
1757491551546346200,0.33734619140625,-0.3821296691894531,0.15401697158813477,-0.5177081823348999
1757491551556361500,0.347361572265625,-0.2942037582397461,0.17462897300720215,-0.497811496257782
1757491551566424000,0.357424072265625,-0.23663902282714844,0.24371981620788574,-0.5457862615585327
1757491551576463600,0.367463623046875,-0.20801639556884766,0.3118414878845215,-0.468253493309021
1757491551586482400,0.377482421875,-0.030088424682617188,0.5205769538879395,-0.35782110691070557
1757491551596547000,0.387547119140625,-0.07482528686523438,0.578406810760498,-0.25357353687286377
1757491551606567400,0.3975673828125,-0.25450897216796875,0.6303815841674805,-0.3486958146095276
1757491551616629800,0.407629638671875,-0.540583610534668,0.7955617904663086,-0.3703075349330902
1757491551626670000,0.417670166015625,-0.9250583648681641,0.8055851459503174,-0.1954914629459381
1757491551636686600,0.4276865234375,-1.3287887573242188,0.8225367069244385,-0.25390198826789856
1757491551646747100,0.4377470703125,-0.9800443649291992,0.7669198513031006,-0.5220048427581787
1757491551656770600,0.4477705078125,-1.000314712524414,0.24062061309814453,-0.3432203531265259
1757491551666832100,0.45783203125,-0.44846534729003906,0.16241002082824707,-0.23452937602996826
1757491551676872400,0.46787255859375,-0.48821449279785156,0.22333478927612305,0.13052265346050262
1757491551686887700,0.4778876953125,0.14801025390625,-0.06650614738464355,-0.3674125671386719
1757491551696953300,0.487953369140625,1.1912651062011719,0.11937642097473145,-0.026213601231575012
1757491551706990300,0.497990234375,0.69793701171875,0.07527780532836914,1.01395583152771
1757491551717030700,0.50803076171875,0.07838249206542969,-0.14319372177124023,1.0755257606506348
1757491551727074800,0.51807470703125,-0.3077068328857422,-0.07943081855773926,1.1627542972564697
1757491551737078300,0.528078369140625,-0.9183340072631836,0.21094465255737305,0.7602435350418091
1757491551747156200,0.53815625,-1.1892709732055664,-0.10272574424743652,0.6944569945335388
1757491551757171700,0.548171630859375,-1.2406044006347656,-0.1911628246307373,0.4045853912830353
1757491551767201500,0.558201416015625,-1.2187442779541016,-0.1835613250732422,0.31365129351615906
1757491551777273600,0.568273681640625,-1.0280609130859375,-0.20001649856567383,0.3302151560783386
1757491551787287300,0.578287353515625,-0.6703386306762695,-0.257094144821167,0.3864571750164032
1757491551797351700,0.5883515625,-0.3313932418823242,-0.19525837898254395,0.3651067316532135
1757491551807374000,0.5983740234375,-0.4108257293701172,-0.11071324348449707,0.3207026422023773
1757491551817436000,0.608435791015625,-0.37377262115478516,-0.004013776779174805,0.24303463101387024
1757491551827476000,0.61847607421875,-0.1674060821533203,0.16745853424072266,0.08205771446228027
1757491551837517300,0.628517333984375,-0.05080604553222656,0.2784092426300049,-0.039302706718444824
1757491551847559700,0.6385595703125,0.17995738983154297,0.24767541885375977,0.011815369129180908
1757491551857601500,0.6486015625,0.13712596893310547,0.15265345573425293,0.5281535983085632
1757491551867616300,0.6586162109375,0.0063228607177734375,0.8864285945892334,-0.5448867678642273
1757491551877682200,0.66868212890625,0.05037879943847656,0.6424145698547363,-0.3294713497161865
1757491551887722800,0.67872265625,0.3242149353027344,0.1202237606048584,-0.11516344547271729
1757491551897735200,0.688735107421875,-0.12714099884033203,0.5819504261016846,0.2071576714515686
1757491551907799800,0.6987998046875,-0.1337118148803711,1.0487217903137207,-0.22517737746238708
1757491551917812500,0.7088125,0.07286548614501953,0.511878252029419,-0.018771588802337646
1757491551927885000,0.718885009765625,0.3063497543334961,0.201920747756958,0.17674881219863892
1757491551937925000,0.728925048828125,0.23545455932617188,0.5007576942443848,0.2489343285560608
1757491551947942000,0.73894189453125,0.4973134994506836,0.4964182376861572,0.38133662939071655
1757491551958006500,0.749006591796875,0.7455482482910156,0.3235820531845093,0.3731490969657898
1757491551968022000,0.75902197265625,0.6484766006469727,0.3091766834259033,0.21918165683746338
1757491551978086100,0.769086181640625,0.37767696380615234,0.4152050018310547,-0.07378530502319336
1757491551988127700,0.779127685546875,0.000072479248046875,0.4826469421386719,-0.2939906418323517
1757491552008208600,0.799208740234375,-0.34862804412841797,0.3575422763824463,-0.3831767737865448
1757491552018223600,0.8092236328125,-0.37822628021240234,0.32032132148742676,-0.29257839918136597
1757491552028289500,0.81928955078125,-0.3703746795654297,0.2894766330718994,-0.37564224004745483
1757491552038326500,0.829326416015625,-0.05222892761230469,0.19882559776306152,-0.641619086265564
1757491552048358100,0.839358154296875,0.09332656860351562,0.019896268844604492,-0.8370385766029358
1757491552058409200,0.8494091796875,-0.019608497619628906,-0.10971355438232422,-0.9173630475997925
1757491552068426200,0.85942626953125,0.042626380920410156,-0.12673556804656982,-0.944112241268158
1757491552078487800,0.86948779296875,0.033621788024902344,-0.1493842601776123,-0.9090146422386169
1757491552088529400,0.879529296875,-0.041747093200683594,-0.17442941665649414,-0.853898286819458
1757491552098547500,0.88954736328125,0.011607170104980469,-0.11500918865203857,-0.872101902961731
1757491552108613400,0.89961328125,0.13986682891845703,-0.16001176834106445,-0.9686830043792725
1757491552118629000,0.909629150390625,0.12477684020996094,-0.19279205799102783,-1.0235868692398071
1757491552128693800,0.91969384765625,0.1250629425048828,-0.29519176483154297,-0.8018143177032471
1757491552138735400,0.9297353515625,0.026693344116210938,-0.34480857849121094,-0.6637314558029175
1757491552148771800,0.939771728515625,0.07853317260742188,-0.2767437696456909,-0.6411011815071106
1757491552158812400,0.9498125,-0.03935527801513672,-0.25765371322631836,-0.565797746181488
1757491552168822000,0.959822021484375,-0.015383720397949219,-0.25726890563964844,-0.6329150795936584
1757491552178897000,0.96989697265625,-0.01506805419921875,-0.3078465461730957,-0.7474827766418457
1757491552188941600,0.979941650390625,-0.044823646545410156,-0.3079122304916382,-0.797467052936554
1757491552198978300,0.989978271484375,-0.07546138763427734,-0.3571159839630127,-0.6904500722885132
1757491552209018400,1.000018310546875,-0.19266605377197266,-0.3338536024093628,-0.6420019865036011
1757491552219044900,1.010044921875,-0.23663616180419922,-0.28521275520324707,-0.6553226113319397
1757491552229095700,1.020095703125,-0.3051729202270508,-0.2161860466003418,-0.6709439158439636
1757491552239139000,1.03013916015625,-0.1891498565673828,-0.10215282440185547,-0.7646937966346741
1757491552249180700,1.0401806640625,-0.2095184326171875,-0.10182106494903564,-0.7594335675239563
1757491552259220700,1.050220703125,-0.27611827850341797,-0.05883133411407471,-0.7327397465705872
1757491552269237200,1.0602373046875,-0.3520221710205078,0.015682578086853027,-0.7441443204879761
1757491552279302000,1.070302001953125,-0.4148216247558594,0.049807190895080566,-0.676561713218689
1757491552289338400,1.08033837890625,-0.5457019805908203,0.07701504230499268,-0.5234197378158569
1757491552299383000,1.090383056640625,-0.5013656616210938,0.019585013389587402,-0.49761825799942017
1757491552309421000,1.100421142578125,-0.24811553955078125,0.14743876457214355,-0.5797149538993835
1757491552319438300,1.110438232421875,-0.032352447509765625,0.17420756816864014,-0.6325517296791077
1757491552329501000,1.1205009765625,0.019555091857910156,0.08135008811950684,-0.6732121706008911
1757491552339543000,1.13054296875,0.21590137481689453,0.11581826210021973,-0.6474757194519043
1757491552349584600,1.140584716796875,0.2199716567993164,0.18099069595336914,-0.6864169836044312
1757491552359622000,1.150621826171875,0.12546920776367188,0.31705987453460693,-0.6485024094581604
1757491552369645600,1.1606455078125,-0.1833057403564453,0.26668405532836914,-0.5186712741851807
1757491552379702800,1.170702880859375,-0.21694087982177734,0.39661502838134766,-0.5006043910980225
1757491552389721900,1.180721923828125,-0.20879650115966797,0.2830692529678345,-0.272468626499176
1757491552399787800,1.190787841796875,-0.15393447875976562,0.1327899694442749,0.04746222496032715
1757491552409828000,1.200828125,-0.1833944320678711,0.1554548740386963,0.1418316662311554
1757491552419844000,1.210843994140625,-0.26448726654052734,0.059886932373046875,0.2744424343109131
1757491552429909500,1.220909423828125,-0.2770071029663086,-0.01137089729309082,0.36385178565979004
1757491552439926800,1.2309267578125,-0.15998172760009766,-0.0057173967361450195,0.4255943298339844
1757491552449965300,1.24096533203125,0.03706932067871094,-0.030464768409729004,0.5445070266723633
1757491552460030500,1.251030517578125,0.22745132446289062,-0.09989607334136963,0.6326619982719421
1757491552470046000,1.2610458984375,0.43937015533447266,-0.34566473960876465,0.9237799048423767
1757491552480102000,1.271101806640625,0.4255237579345703,-0.49969446659088135,1.074000358581543
1757491552490128600,1.281128662109375,0.4508485794067383,-0.4818015694618225,1.136933445930481
1757491552500190700,1.291190673828125,0.3349342346191406,-0.4284456968307495,1.406245470046997
1757491552510233000,1.301233154296875,-0.5170469284057617,-0.639096736907959,1.5675115585327148
1757491552520248000,1.311248046875,-1.3449697494506836,-0.7280605435371399,1.5442923307418823
1757491552530293500,1.32129345703125,-1.926137924194336,-0.7817060947418213,1.646087646484375
1757491552540329500,1.33132958984375,-2.503561019897461,-1.3321694135665894,2.0576610565185547
1757491552550392800,1.341392822265625,-2.6314477920532227,-1.1936192512512207,2.219278335571289
1757491552560436200,1.351436279296875,-2.263568878173828,-1.2595462799072266,2.479816436767578
1757491552570472200,1.36147216796875,-3.425826072692871,-1.323589563369751,2.778618335723877
1757491552580514600,1.3715146484375,-4.226093769073486,-0.936358630657196,1.987523078918457
1757491552590531000,1.381531005859375,-3.470158576965332,-1.6631033420562744,3.5420761108398438
1757491552600580900,1.391580810546875,-1.337193489074707,-1.3094136714935303,2.3995048999786377
1757491552610655700,1.40165576171875,-0.044567108154296875,-1.5854965448379517,1.2058281898498535
1757491552620702500,1.411702392578125,1.0210685729980469,-1.453683853149414,0.21735644340515137
1757491552640757000,1.431757080078125,1.1643171310424805,-2.096338987350464,-1.3478105068206787
1757491552650795500,1.44179541015625,1.317779541015625,-2.1642184257507324,-1.5094196796417236
1757491552660814800,1.45181494140625,0.7314271926879883,-1.6542515754699707,-1.5414419174194336
1757491552670877200,1.461877197265625,0.08423042297363281,-1.7541472911834717,-1.4754350185394287
1757491552680918000,1.47191796875,-1.272089958190918,-1.7911086082458496,-1.1030659675598145
1757491552690961400,1.48196142578125,-2.282161235809326,-2.1989850997924805,-0.6761636734008789
1757491552701000000,1.492,-2.4504199028015137,-2.1108436584472656,-0.4710578918457031
1757491552711040800,1.502040771484375,-2.1548357009887695,-2.3089098930358887,-0.26119232177734375
1757491552721081300,1.512081298828125,-0.5677027702331543,-2.680755138397217,-0.7208571434020996
1757491552731124700,1.522124755859375,-0.4216470718383789,-1.7596263885498047,-1.185229778289795
1757491552741205200,1.532205322265625,-1.2842144966125488,-0.7841368317604065,-2.266124963760376
1757491552761245400,1.552245361328125,-2.2648959159851074,-1.8372997045516968,-1.8702726364135742
1757491552771286000,1.5622861328125,-1.618342399597168,-1.3571903705596924,-2.691344738006592
1757491552781301200,1.57230126953125,0.5282721519470215,-0.454174280166626,-3.1883115768432617
1757491552791367400,1.582367431640625,0.5302257537841797,-0.5055370330810547,-2.5019569396972656
1757491552801390800,1.592390869140625,1.1692109107971191,-0.630866289138794,-2.0271081924438477
1757491552811443700,1.602443603515625,1.804689884185791,-0.6100423336029053,-1.288642406463623
1757491552821484500,1.612484619140625,1.9049043655395508,-0.9714016914367676,0.0660700798034668
1757491552831502800,1.6225029296875,2.5667901039123535,-1.6172149181365967,0.8962936401367188
1757491552841580500,1.63258056640625,3.829362392425537,-2.2540881633758545,0.4580259323120117
1757491552851626800,1.642626708984375,4.599042892456055,-2.338216781616211,-0.5282793045043945
1757491552861650700,1.652650634765625,4.88362979888916,-1.904919147491455,-1.9445910453796387
1757491552871687000,1.66268701171875,5.211287021636963,-1.4509215354919434,-3.4899497032165527
1757491552881706000,1.6727060546875,5.373671054840088,-1.125321388244629,-4.478368759155273
1757491552891752000,1.682751953125,5.1133270263671875,-0.7994222640991211,-4.616109848022461
1757491552901838300,1.69283837890625,4.190016746520996,-0.6338448524475098,-2.781528949737549
1757491552911852500,1.7028525390625,3.041144847869873,-1.2461333274841309,-0.24576044082641602
1757491552921893400,1.712893310546875,3.2247180938720703,-1.7315435409545898,1.668696403503418
1757491552931930600,1.7229306640625,3.9466464519500732,-1.4379215240478516,2.4633469581604004
1757491552941961200,1.732961181640625,3.4124560356140137,-0.5496125221252441,2.826408863067627
1757491552952016100,1.74301611328125,3.7150821685791016,-0.1729750633239746,2.6244425773620605
1757491552962051600,1.753051513671875,4.69650936126709,-0.4262228012084961,2.941713809967041
1757491552972096300,1.76309619140625,5.289055824279785,-0.5345754623413086,3.494292736053467
1757491552982115300,1.773115234375,5.047939300537109,-0.11353349685668945,4.104824542999268
1757491552992152800,1.78315283203125,3.7356135845184326,0.5048484802246094,5.360631465911865
1757491553002217200,1.79321728515625,2.2175581455230713,0.6030893325805664,6.845355987548828
1757491553012232700,1.803232666015625,0.8586623072624207,0.8563938140869141,7.967207431793213
1757491553022298000,1.813298095703125,-0.05686002969741821,1.588343620300293,8.691134452819824
1757491553032316200,1.823316162109375,-1.2538882493972778,2.996786594390869,8.632777214050293
1757491553042379000,1.83337890625,-1.7250922918319702,3.673741579055786,8.124469757080078
1757491553052417800,1.843417724609375,-1.892850399017334,3.729990005493164,7.643749237060547
1757491553062456000,1.8534560546875,-2.0063607692718506,3.7929186820983887,6.9635820388793945
1757491553072496400,1.863496337890625,-2.6115622520446777,3.910175085067749,6.266147136688232
1757491553082538800,1.873538818359375,-3.0446600914001465,3.9906299114227295,5.6952290534973145
1757491553092581600,1.88358154296875,-3.652212619781494,4.1085662841796875,5.133240222930908
1757491553102622500,1.89362255859375,-4.154184341430664,4.412296295166016,4.890552043914795
1757491553112642600,1.903642578125,-4.390003681182861,4.35844612121582,4.50147819519043
1757491553122677500,1.913677490234375,-4.987679958343506,4.049962043762207,4.219061851501465
1757491553132744000,1.923743896484375,-6.15169095993042,4.415193557739258,3.898808002471924
1757491553142784300,1.9337841796875,-7.196167945861816,4.729465484619141,2.8343639373779297
1757491553152824600,1.943824462890625,-7.245197772979736,4.487049102783203,1.1260409355163574
1757491553162865200,1.953865234375,-7.41302490234375,4.010341644287109,-0.7872824668884277
1757491553172880400,1.96388037109375,-6.3736443519592285,3.084670305252075,-1.971571445465088
1757491553182946600,1.973946533203125,-4.965361595153809,1.3167223930358887,-2.8654799461364746
1757491553192992000,1.983991943359375,-4.132352828979492,0.7998104095458984,-2.8888721466064453
1757491553203027700,1.99402783203125,-4.309067249298096,0.023828506469726562,-2.5510449409484863
1757491553213067800,2.00406787109375,-3.879340887069702,0.010960578918457031,-2.123845100402832
1757491553223097900,2.014097900390625,-2.352874755859375,0.4129824638366699,-1.2499055862426758
1757491553233148400,2.0241484375,-1.5390011072158813,-0.20856952667236328,-0.3206901550292969
1757491553253230000,2.04422998046875,-0.49997782707214355,-0.7438111305236816,0.16550493240356445
1757491553263245600,2.05424560546875,-0.2696352005004883,-0.9226846694946289,0.20198678970336914
1757491553283342800,2.0743427734375,0.5384448766708374,-0.5464997291564941,-0.15135812759399414
1757491553293377000,2.084376953125,0.6260384321212769,-0.2670302391052246,-0.12709569931030273
1757491553303406000,2.094406005859375,0.8588966131210327,-0.08731508255004883,0.16811418533325195
1757491553313465600,2.104465576171875,0.9401622414588928,0.025295734405517578,0.5307250022888184
1757491553323479000,2.11447900390625,1.0624310970306396,-0.009073734283447266,0.8180532455444336
1757491553333534500,2.124534423828125,0.9393775463104248,0.08379077911376953,0.8896212577819824
1757491553353609500,2.144609375,0.43198537826538086,0.715578556060791,1.2460079193115234
1757491553363651000,2.154651123046875,0.2936728596687317,0.8593487739562988,1.0920829772949219
1757491553403800000,2.194800048828125,0.5873728394508362,0.2061934471130371,-0.03834819793701172
1757491553413840400,2.20484033203125,0.6446095705032349,0.1324162483215332,-0.1454305648803711
1757491553423902000,2.21490185546875,0.5592307448387146,0.13219785690307617,-0.026601791381835938
1757491553433942300,2.2249423828125,0.24300020933151245,0.4964284896850586,0.20111370086669922
1757491553443998700,2.234998779296875,-0.19665682315826416,0.969475269317627,0.2521204948425293
1757491553454039800,2.245039794921875,-1.0060099363327026,1.6747288703918457,0.41462278366088867
1757491553464080100,2.255080078125,-0.4908953905105591,2.1278631687164307,0.5188837051391602
1757491553474121200,2.265121337890625,0.44193118810653687,1.6600284576416016,0.6860380172729492
1757491553484161500,2.27516162109375,0.8833178281784058,1.1043777465820312,1.0421142578125
1757491553494201300,2.285201416015625,0.5373690128326416,-0.5779027938842773,1.1649017333984375
1757491553504242700,2.29524267578125,0.421223521232605,-0.3075900077819824,0.4000720977783203
1757491553514260200,2.30526025390625,0.26094937324523926,0.5263900756835938,-0.18306827545166016
1757491553524303600,2.3153037109375,-0.6871280074119568,0.7654480934143066,0.1666278839111328
1757491553534364200,2.3253642578125,-0.5872442722320557,0.9322323799133301,0.4591999053955078
1757491553544409600,2.33540966796875,-0.4032893478870392,0.7167520523071289,0.6910648345947266
1757491553554440400,2.3454404296875,-0.08989414572715759,0.4723033905029297,0.7152175903320312
1757491553564481000,2.35548095703125,0.205311119556427,0.32656192779541016,0.5807065963745117
1757491553574524700,2.365524658203125,0.30455607175827026,0.13680267333984375,0.37947559356689453
1757491553584574000,2.375573974609375,-0.2009236216545105,0.5266833305358887,0.0021648406982421875
1757491553594607000,2.385607177734375,0.06231766939163208,0.48156309127807617,0.03870391845703125
1757491553604647700,2.395647705078125,-0.0067746639251708984,0.04668092727661133,0.5670604705810547
1757491553614687200,2.405687255859375,-0.05612903833389282,-0.13441133499145508,0.5494852066040039
1757491553624729300,2.415729248046875,0.10018712282180786,0.07427644729614258,0.4055337905883789
1757491553644808700,2.43580859375,-0.4948611259460449,0.814842700958252,0.14327049255371094
1757491553654850600,2.4458505859375,-0.26563382148742676,1.0560202598571777,0.1220560073852539
1757491553664889900,2.455889892578125,0.1491861343383789,1.1978158950805664,0.1355142593383789
1757491553674931500,2.465931396484375,-0.04401189088821411,1.2654047012329102,-0.027521133422851562
1757491553684971300,2.47597119140625,-0.3423083424568176,1.543074131011963,-0.11529731750488281
1757491553695012400,2.486012451171875,-0.3926713764667511,1.811875343322754,-0.024054527282714844
1757491553705049300,2.49604931640625,-0.440441370010376,1.981156826019287,0.15800189971923828
1757491553715088400,2.50608837890625,-0.32680511474609375,2.0592010021209717,0.41918373107910156
1757491553725129700,2.516129638671875,0.2567993998527527,2.168550729751587,0.5521345138549805
1757491553735169500,2.52616943359375,1.0923235416412354,1.8393638134002686,0.2512626647949219
1757491553745210400,2.53621044921875,0.9497979879379272,0.7967038154602051,0.22498226165771484
1757491553755251200,2.546251220703125,0.6861279606819153,0.24561214447021484,0.26605224609375
1757491553765292800,2.556292724609375,0.9734629392623901,0.6444311141967773,0.27849292755126953
1757491553775336400,2.56633642578125,1.6188037395477295,2.1621017456054688,0.3264017105102539
1757491553785376500,2.57637646484375,2.8980319499969482,2.725661277770996,-0.05166053771972656
1757491553795415300,2.586415283203125,0.6762940883636475,1.0316414833068848,-0.2204294204711914
1757491553805453600,2.59645361328125,-0.2975904941558838,-0.27694272994995117,-0.2671175003051758
1757491553815493600,2.60649365234375,0.1175260841846466,-0.8504877090454102,-0.5242581367492676
1757491553825534700,2.61653466796875,0.056668154895305634,-1.4832000732421875,-0.5703334808349609
1757491553835579100,2.6265791015625,-0.11277785152196884,-2.2693605422973633,-0.536257266998291
1757491553845619000,2.636618896484375,-0.9192287921905518,-2.839081287384033,-0.585075855255127
1757491553855660000,2.646659912109375,-2.121377468109131,-2.8435845375061035,-0.30243349075317383
1757491553865695700,2.65669580078125,-1.839676022529602,-2.2635135650634766,-0.09473705291748047
1757491553875714800,2.66671484375,-1.11229407787323,-1.5300159454345703,-0.2853550910949707
1757491553885777000,2.67677685546875,-0.6811797618865967,-0.6356148719787598,-0.7721338272094727
1757491553895822300,2.686822265625,-0.3429678678512573,0.4167923927307129,-0.9078035354614258
1757491553905862700,2.696862548828125,-0.18362927436828613,1.521357774734497,-0.5714244842529297
1757491553915902200,2.706902099609375,-0.020907938480377197,2.798328161239624,0.03972816467285156
1757491553925943300,2.716943359375,0.6438930630683899,4.3008575439453125,0.23343658447265625
1757491553935979500,2.7269794921875,0.8736191987991333,5.033621311187744,0.12558460235595703
1757491553946024000,2.73702392578125,0.8398270606994629,4.975796699523926,0.2969198226928711
1757491553956061000,2.74706103515625,-0.8631917238235474,3.0277903079986572,0.6219735145568848
1757491553966104000,2.75710400390625,-0.9514874219894409,0.15491390228271484,0.2619495391845703
1757491553976146200,2.767146240234375,-0.9765338897705078,-2.507113456726074,-0.1065683364868164
1757491553986186500,2.7771865234375,-0.7550359964370728,-4.0817952156066895,-0.303072452545166
1757491553996226800,2.787226806640625,-0.8272446990013123,-4.988895416259766,-0.004847526550292969
1757491554006263600,2.797263671875,-0.6947188973426819,-4.752954006195068,0.2683067321777344
1757491554016303000,2.80730322265625,-0.319399893283844,-3.976095676422119,0.5671439170837402
1757491554026348500,2.8173486328125,-0.1268613338470459,-2.582524299621582,0.8244552612304688
1757491554036390400,2.827390380859375,-0.31038564443588257,-1.2543988227844238,0.6092653274536133
1757491554046426000,2.837426025390625,-0.2253856658935547,0.19501209259033203,0.39717864990234375
1757491554056466000,2.8474658203125,0.004910290241241455,1.440622329711914,0.22367000579833984
1757491554066507000,2.857507080078125,0.3003472089767456,2.442410945892334,0.07632684707641602
1757491554076546000,2.867546142578125,0.32433050870895386,2.4870240688323975,-0.08237504959106445
1757491554086591500,2.877591552734375,0.11780345439910889,2.5386104583740234,-0.2463693618774414
1757491554096631800,2.8876318359375,0.3254777789115906,1.905268669128418,-0.19974660873413086
1757491554106672400,2.89767236328125,-0.11664426326751709,1.3945236206054688,-0.19856500625610352
1757491554116712200,2.907712158203125,-0.2009565830230713,0.669954776763916,-0.17487812042236328
1757491554126753500,2.91775341796875,-0.18083122372627258,0.06736040115356445,-0.2560453414916992
1757491554136793900,2.9277939453125,0.20724013447761536,-0.48862695693969727,-0.22825860977172852
1757491554146830600,2.93783056640625,-0.06310564279556274,-1.2338776588439941,0.02409076690673828
1757491554156875300,2.947875244140625,-0.5794107913970947,-1.8176045417785645,0.25583744049072266
1757491554166914600,2.95791455078125,-0.5771099328994751,-2.2483139038085938,0.3054924011230469
1757491554176955600,2.96795556640625,-0.28595948219299316,-2.34043025970459,0.22354459762573242
1757491554186996200,2.977996337890625,-0.28916528820991516,-2.0698070526123047,0.0007724761962890625
1757491554197037000,2.988037109375,-0.18890786170959473,-1.453345775604248,-0.17972421646118164
1757491554207073500,2.998073486328125,-0.2085646092891693,-0.9755458831787109,-0.16579771041870117
1757491554217117400,3.008117431640625,-0.2310454249382019,-0.38294172286987305,-0.1298532485961914
1757491554227158500,3.018158447265625,-0.2202974557876587,0.5368566513061523,-0.08651113510131836
1757491554237198600,3.028198486328125,-0.2161751389503479,1.019336223602295,0.02775859832763672
1757491554247239400,3.038239501953125,-0.2194356620311737,1.4446587562561035,-0.21567583084106445
1757491554257280000,3.048280029296875,-0.09668532013893127,1.5687928199768066,-0.10009574890136719
1757491554267319800,3.05831982421875,-0.10046479105949402,1.6406097412109375,-0.0549626350402832
1757491554277357000,3.068357177734375,-0.08957076072692871,1.512742042541504,-0.14342737197875977
1757491554287406800,3.07840673828125,-0.07979905605316162,1.0619139671325684,-0.21820306777954102
1757491554297438000,3.08843798828125,-0.32209882140159607,0.5841064453125,-0.17944812774658203
1757491554307478500,3.098478515625,-0.3931962847709656,0.20099973678588867,-0.0207672119140625
1757491554317519000,3.10851904296875,-0.5105077028274536,-0.17590570449829102,0.13715696334838867
1757491554327573500,3.118573486328125,-0.4168236255645752,-0.4278874397277832,0.19770526885986328
1757491554337600000,3.12860009765625,-0.19394069910049438,-0.600593090057373,0.3009800910949707
1757491554347644200,3.13864404296875,-0.2626619338989258,-0.6258077621459961,0.3567848205566406
1757491554357685500,3.148685546875,-0.5586340427398682,-0.5377898216247559,0.36878442764282227
1757491554367724500,3.158724609375,-0.2165537327528,-0.28493165969848633,0.45694494247436523
1757491554377762000,3.168761962890625,-0.48581165075302124,-0.056357383728027344,0.5970816612243652
1757491554387806200,3.17880615234375,0.13809746503829956,-0.0922403335571289,0.535062313079834
1757491554397843000,3.188843017578125,-0.32882362604141235,-0.059621334075927734,0.4799504280090332
1757491554407887400,3.198887451171875,-0.18686288595199585,0.17119312286376953,0.17617082595825195
1757491554417927200,3.20892724609375,-0.15785054862499237,0.4327831268310547,0.007341861724853516
1757491554427968800,3.21896875,-0.395435094833374,0.6296935081481934,-0.02180004119873047
1757491554438008800,3.2290087890625,-0.4589860141277313,0.7969164848327637,0.05898714065551758
1757491554448045300,3.23904541015625,-0.32736527919769287,0.943878173828125,0.19550323486328125
1757491554458090200,3.24909033203125,0.018109194934368134,0.963620662689209,0.3392000198364258
1757491554468125700,3.259125732421875,0.16495399177074432,0.8062710762023926,0.4155087471008301
1757491554478144800,3.269144775390625,0.04723744094371796,0.5478830337524414,0.3427925109863281
1757491554488185600,3.279185546875,-0.23225891590118408,0.32016420364379883,0.16800451278686523
1757491554498226200,3.28922607421875,-0.457511305809021,0.14368724822998047,0.14411115646362305
1757491554508266200,3.299266357421875,-0.5599443912506104,0.0898895263671875,0.24013090133666992
1757491554518332400,3.30933251953125,-0.493503600358963,0.128204345703125,0.4094429016113281
1757491554528369400,3.319369384765625,-0.29811257123947144,0.1218862533569336,0.5341668128967285
1757491554538412800,3.329412841796875,0.09167289733886719,0.06516504287719727,0.6439423561096191
1757491554548450800,3.339450927734375,-0.20394635200500488,0.15906667709350586,0.7997121810913086
1757491554558491600,3.34949169921875,-0.47000187635421753,0.49318885803222656,0.8514161109924316
1757491554568533000,3.359532958984375,-0.3190753757953644,0.8350415229797363,0.7605981826782227
1757491554578576000,3.369575927734375,-0.1334071010351181,1.029634952545166,0.6581912040710449
1757491554588616700,3.37961669921875,-0.3728386461734772,1.095865249633789,0.5663962364196777
1757491554598653200,3.389653076171875,-0.4675191044807434,0.6497230529785156,0.3761463165283203
1757491554608693200,3.399693359375,-0.633751630783081,0.3090023994445801,0.23485231399536133
1757491554618737400,3.4097373046875,-0.26399925351142883,-0.18677854537963867,0.028372764587402344
1757491554628778200,3.4197783203125,-0.13876116275787354,-0.2623786926269531,-0.017323970794677734
1757491554638818800,3.42981884765625,0.5665265321731567,-0.8020129203796387,-0.15368270874023438
1757491554648859400,3.439859375,0.04722052067518234,-1.2474250793457031,-0.13841676712036133
1757491554658896000,3.449895751953125,0.12836740911006927,-1.6433873176574707,-0.12140893936157227
1757491554668939800,3.459939697265625,0.044007182121276855,-1.8239259719848633,-0.2469778060913086
1757491554678977000,3.46997705078125,0.18532158434391022,-1.8819751739501953,-0.16710805892944336
1757491554689021400,3.480021484375,0.49619024991989136,-2.3322606086730957,0.15934419631958008
1757491554699062300,3.490062255859375,0.055574074387550354,-1.328071117401123,-0.2544846534729004
1757491554709102800,3.500102783203125,-0.1310214400291443,-0.31101417541503906,-0.8552708625793457
1757491554719138300,3.51013818359375,0.30439549684524536,-0.4259648323059082,-1.2169222831726074
1757491554729183500,3.52018359375,0.42488840222358704,-0.6928868293762207,-1.4731392860412598
1757491554739224000,3.53022412109375,0.1957416534423828,-0.5353565216064453,-1.707021713256836
1757491554749260000,3.540260009765625,0.35928452014923096,-0.0026216506958007812,-2.036621570587158
1757491554759305000,3.550304931640625,-0.19573619961738586,0.15276336669921875,-1.9502508640289307
1757491554769344800,3.5603447265625,-0.18723241984844208,0.26988649368286133,-1.625579833984375
1757491554779387100,3.57038720703125,-0.3378835916519165,0.36472272872924805,-1.143688678741455
1757491554789422300,3.58042236328125,-0.36898335814476013,0.33438873291015625,-0.6778979301452637
1757491554799463200,3.590463134765625,-0.2744024395942688,0.24385690689086914,-0.45198583602905273
1757491554809503200,3.600503173828125,-0.6116845607757568,-0.023614883422851562,-0.236297607421875
1757491554819543300,3.610543212890625,-0.8704874515533447,-0.12230491638183594,-0.05408143997192383
1757491554829588200,3.620588134765625,-0.8270667791366577,0.00077056884765625,0.41329383850097656
1757491554839628800,3.63062890625,-0.6057868599891663,0.19325733184814453,0.802889347076416
1757491554849665300,3.640665283203125,-0.07293923199176788,0.020208358764648438,0.658501148223877
1757491554859709700,3.650709716796875,-0.11761872470378876,-0.07863044738769531,0.13271093368530273
1757491554869750000,3.66075,-0.5541974902153015,-0.005713462829589844,-0.7237510681152344
1757491554879791400,3.670791259765625,-0.8916743993759155,0.2902183532714844,-0.9702897071838379
1757491554889827800,3.680827880859375,-0.2802327871322632,0.35849475860595703,-1.3347587585449219
1757491554899872000,3.6908720703125,0.08271795511245728,0.5405497550964355,-1.0814208984375
1757491554909912600,3.70091259765625,0.6004961133003235,0.712791919708252,-0.9781303405761719
1757491554919948300,3.7109482421875,0.2045619934797287,0.8375372886657715,-1.0008602142333984
1757491554929993500,3.720993408203125,-1.8810864686965942,0.8997993469238281,-1.1533684730529785
1757491554940034000,3.731033935546875,0.43177172541618347,0.703404426574707,-1.018282413482666
1757491554950075000,3.741074951171875,0.3113940358161926,0.08083486557006836,-0.8482742309570312
1757491554960115000,3.751114990234375,0.852263867855072,-0.499265193939209,-0.3842506408691406
1757491554970155000,3.761155029296875,0.9348887205123901,-0.9213290214538574,-0.1359100341796875
1757491554980192000,3.77119189453125,-0.49993473291397095,-1.251906394958496,-0.30086469650268555
1757491554990236700,3.781236572265625,-1.3749357461929321,-0.8398823738098145,0.312258243560791
1757491555000276700,3.79127685546875,1.9325053691864014,-0.3202986717224121,1.679478645324707
1757491555010317800,3.80131787109375,2.4219472408294678,-0.4399728775024414,2.893540382385254
1757491555020357400,3.811357421875,-0.5997319221496582,-0.5075783729553223,3.633876323699951
1757491555030373400,3.821373291015625,-2.606269359588623,0.3350996971130371,2.4668169021606445
1757491555040435000,3.83143505859375,-1.1735707521438599,0.9328489303588867,0.7439279556274414
1757491555050476500,3.8414765625,0.324076384305954,0.5047893524169922,0.07914018630981445
1757491555060517600,3.851517578125,0.054012179374694824,-0.02438831329345703,-0.2621579170227051
1757491555070558200,3.86155810546875,-0.08723139762878418,-0.3881063461303711,-0.5670566558837891
1757491555080613400,3.87161328125,0.17228460311889648,-0.5317063331604004,-0.6914329528808594
1757491555090641000,3.881640869140625,0.4084588885307312,-0.1322941780090332,-1.0819110870361328
1757491555100683000,3.89168310546875,0.629827618598938,0.13585615158081055,-0.6379780769348145
1757491555110720500,3.901720458984375,0.34396490454673767,0.31523561477661133,-0.1193704605102539
1757491555120760000,3.911760009765625,-0.19767269492149353,0.4357123374938965,0.10497617721557617
1757491555130777300,3.92177734375,-0.653070330619812,0.2576107978820801,0.14990901947021484
1757491555140839700,3.931839599609375,-0.9356233477592468,-0.07592248916625977,0.0011434555053710938
1757491555150880500,3.941880615234375,-0.5522633790969849,-0.3648667335510254,-0.40015745162963867
1757491555160924700,3.951924560546875,0.7242422103881836,-0.6725630760192871,-0.6624722480773926
1757491555170965000,3.961965087890625,1.2866929769515991,-1.0145998001098633,-0.8617734909057617
1757491555181004000,3.972004150390625,0.6975662708282471,-1.231684684753418,-1.4382977485656738
1757491555191044400,3.98204443359375,0.5009170770645142,-0.7698707580566406,-1.907397747039795
1757491555201084400,3.99208447265625,1.8362298011779785,4.11671257019043,-2.812837839126587
1757491555211201300,4.002201171875,-0.442055344581604,3.479063034057617,-1.8375906944274902
1757491555221202400,4.012202392578125,-0.4135611653327942,3.7279767990112305,-1.9879035949707031
1757491555231217700,4.0222177734375,-0.1970093548297882,3.9769232273101807,-1.9283571243286133
1757491555241245400,4.032245361328125,0.14191731810569763,3.63261079788208,-1.4226579666137695
1757491555251290400,4.042290283203125,-0.20944279432296753,1.9965100288391113,-0.882655143737793
1757491555261326300,4.052326416015625,-0.4301009774208069,-0.17152023315429688,-0.32835817337036133
1757491555271371500,4.06237158203125,-0.12645256519317627,-1.8614020347595215,0.17293071746826172
1757491555281410000,4.07241015625,0.16883328557014465,-2.537942409515381,0.5455451011657715
1757491555291448000,4.082447998046875,0.03915180265903473,-2.5375866889953613,0.8634881973266602
1757491555301488400,4.09248828125,-0.20970387756824493,-1.6896696090698242,0.9760494232177734
1757491555311531800,4.10253173828125,-0.48539799451828003,-0.42073488235473633,0.875920295715332
1757491555321581800,4.112581787109375,-1.0863244533538818,1.2436156272888184,1.0548148155212402
1757491555331614000,4.122614013671875,-0.5849244594573975,1.5668177604675293,0.4483156204223633
1757491555341654500,4.132654541015625,-0.050277918577194214,1.3762211799621582,-0.4112057685852051
1757491555351691000,4.14269091796875,0.2814737558364868,0.49373626708984375,-0.9140524864196777
1757491555361731600,4.152731689453125,0.5725641846656799,-0.5721235275268555,-0.9793696403503418
1757491555371775500,4.162775390625,0.3760204315185547,-0.49085330963134766,-1.2931098937988281
1757491555381816600,4.172816650390625,0.19974926114082336,-0.3308544158935547,-1.5161209106445312
1757491555391857200,4.182857177734375,0.026640838012099266,-0.4293079376220703,-1.1561551094055176
1757491555401897500,4.1928974609375,-0.12383795529603958,-0.4843282699584961,-0.6129822731018066
1757491555411938300,4.202938232421875,-0.08991438150405884,-0.38823509216308594,-0.14826655387878418
1757491555421974500,4.212974609375,0.06939321756362915,-0.1258687973022461,0.1551189422607422
1757491555431993600,4.22299365234375,0.3275109827518463,-0.25548362731933594,0.2822396755218506
1757491555442059300,4.233059326171875,0.13523918390274048,-0.1848316192626953,0.37915611267089844
1757491555452099600,4.243099609375,-0.011597767472267151,-0.1115121841430664,0.2451033592224121
1757491555462140400,4.253140380859375,0.11307927966117859,-0.11244678497314453,0.011513233184814453
1757491555472180700,4.2631806640625,-0.023261740803718567,0.5569925308227539,-0.09605741500854492
1757491555482222000,4.27322216796875,-0.02942332625389099,0.8927249908447266,-0.1900472640991211
1757491555492258800,4.2832587890625,-0.19128751754760742,0.6440200805664062,-0.13800597190856934
1757491555502303000,4.293302978515625,-0.10224337875843048,0.18786144256591797,0.019188880920410156
1757491555512344000,4.303343994140625,-0.0367317795753479,-0.23166942596435547,0.14494109153747559
1757491555522383000,4.313383056640625,-0.21150517463684082,-0.3506946563720703,0.5863401889801025
1757491555532422000,4.323421875,-0.05814570188522339,-0.3795299530029297,0.7719097137451172
1757491555542461200,4.333461181640625,-0.029898375272750854,-0.6269235610961914,0.9011135101318359
1757491555552502000,4.343501953125,-0.03862866759300232,-0.5326623916625977,0.904491662979126
1757491555562542000,4.3535419921875,0.11220645904541016,-0.11249923706054688,0.7606936693191528
1757491555572586000,4.3635859375,0.2791995406150818,0.22038555145263672,0.5530210733413696
1757491555582626300,4.373626220703125,0.33966484665870667,0.10984230041503906,0.2951549291610718
1757491555592667400,4.38366748046875,0.17048269510269165,0.31156253814697266,-0.0024214982986450195
1757491555602707700,4.393707763671875,0.011795192956924438,-0.00102996826171875,0.17039048671722412
1757491555612748500,4.40374853515625,-0.02186688780784607,-0.559391975402832,0.39213991165161133
1757491555622788900,4.413788818359375,-0.003844738006591797,-0.9375076293945312,0.5255749821662903
1757491555632825900,4.423825927734375,0.06255102157592773,-1.261575698852539,0.5747270584106445
1757491555642870300,4.433870361328125,0.026462852954864502,-1.4060173034667969,0.6053504943847656
1757491555652910600,4.44391064453125,0.11454272270202637,-1.1378002166748047,0.5894107818603516
1757491555662951200,4.453951171875,-0.05199986696243286,-1.122696876525879,0.5863053798675537
1757491555672991200,4.4639912109375,0.01606079936027527,-0.9274702072143555,0.5095590949058533
1757491555683028000,4.474028076171875,0.17973187565803528,-0.7823715209960938,0.4411771297454834
1757491555693072600,4.48407275390625,0.17810916900634766,-0.6464157104492188,0.4057900309562683
1757491555703113500,4.494113525390625,0.13501816987991333,-0.718693733215332,0.3485434055328369
1757491555713153500,4.504153564453125,0.23256656527519226,-0.8263311386108398,0.32719433307647705
1757491555723193900,4.51419384765625,0.09823596477508545,-0.9972257614135742,0.3351988196372986
1757491555733234400,4.524234375,0.0018464922904968262,-1.1926031112670898,0.45665764808654785
1757491555743275500,4.534275634765625,0.023372232913970947,-1.5162372589111328,0.6624587178230286
1757491555753312000,4.54431201171875,-0.14893901348114014,-2.155040740966797,0.9413235187530518
1757491555763357200,4.554357177734375,-0.26940011978149414,-1.6831035614013672,0.6998796463012695
1757491555773401600,4.564401611328125,-0.12807774543762207,-0.7121849060058594,0.43783849477767944
1757491555783433700,4.574433837890625,-0.08244925737380981,-0.42710208892822266,0.3093147873878479
1757491555793474300,4.584474365234375,-0.07686719298362732,-0.20058250427246094,0.20842993259429932
1757491555803516400,4.594516357421875,-0.03681710362434387,1.078744888305664,0.15692642331123352
1757491555813556500,4.604556396484375,0.04914948344230652,0.7951431274414062,0.5568790435791016
1757491555823599000,4.61459912109375,0.010353565216064453,-0.037975311279296875,0.792133092880249
1757491555833640000,4.624639892578125,0.008416593074798584,-0.2105083465576172,0.6930676698684692
1757491555843680800,4.6346806640625,-0.017780005931854248,0.03458404541015625,0.6487670540809631
1757491555853721000,4.64472119140625,0.1632688045501709,-0.007151603698730469,0.5718496441841125
1757491555863757800,4.6547578125,0.007019311189651489,0.03970050811767578,0.23509760200977325
1757491555873801700,4.6648017578125,-0.1362093985080719,0.020873069763183594,-0.19424957036972046
1757491555883843000,4.674843017578125,0.02413994073867798,0.14278030395507812,-0.6951261162757874
1757491555893883100,4.684883056640625,-0.002159714698791504,0.29102420806884766,-0.8611277341842651
1757491555903923700,4.694923828125,-0.0970521867275238,0.2296295166015625,-0.5628212690353394
1757491555913964500,4.704964599609375,0.21013706922531128,0.1070089340209961,-0.025769680738449097
1757491555924004400,4.71500439453125,0.3393386900424957,0.3643674850463867,0.28476932644844055
1757491555934041000,4.725041015625,0.13887402415275574,0.2682981491088867,0.43953222036361694
1757491555944086500,4.73508642578125,-0.06928250193595886,-0.17110252380371094,0.4458214044570923
1757491555954126300,4.745126220703125,-0.20891457796096802,-0.1023092269897461,0.21758781373500824
1757491555964167000,4.7551669921875,-0.21388757228851318,-0.11800289154052734,0.07948380708694458
1757491555974206700,4.765206787109375,-0.11048656702041626,-0.241546630859375,-0.03221127390861511
1757491555984248600,4.77524853515625,-0.3828470706939697,-0.48378753662109375,-0.15905514359474182
1757491555994289200,4.7852890625,-0.6268244981765747,-0.713444709777832,-0.13607072830200195
1757491556004325400,4.795325439453125,-0.05315154790878296,-0.16075897216796875,0.17606528103351593
1757491556014370300,4.805370361328125,-0.1099557876586914,0.14682960510253906,0.304082989692688
1757491556024407600,4.815407470703125,-0.02284833788871765,0.17010879516601562,0.17894521355628967
1757491556034446600,4.825446533203125,0.006173461675643921,0.1692218780517578,0.12614530324935913
1757491556044487400,4.8354873046875,-0.04293423891067505,0.2241649627685547,0.15413780510425568
1757491556054529800,4.84552978515625,0.01306837797164917,0.1499166488647461,-0.028587251901626587
1757491556064575000,4.855574951171875,-0.20293879508972168,0.3508110046386719,0.26268160343170166
1757491556074612500,4.865612548828125,-0.2029893696308136,0.08923625946044922,0.5578354597091675
1757491556084653800,4.87565380859375,-0.02051389217376709,-0.036380767822265625,0.35638412833213806
1757491556094689800,4.885689697265625,0.11374896764755249,-0.14361858367919922,0.07062283158302307
1757491556104734700,4.895734619140625,-0.012103170156478882,0.06298160552978516,0.13209322094917297
1757491556114775300,4.905775390625,-0.031299322843551636,0.10219573974609375,0.4317721426486969
1757491556124814800,4.91581494140625,0.29899531602859497,0.2532949447631836,0.6919629573822021
1757491556134856000,4.92585595703125,0.01976415514945984,0.3778524398803711,0.6784502267837524
1757491556144896800,4.935896728515625,0.6119912266731262,0.9175252914428711,0.4491114616394043
1757491556154937600,4.9459375,0.22500652074813843,0.5113697052001953,0.23998750746250153
1757491556164974000,4.95597412109375,0.08046197891235352,0.8897953033447266,0.17493385076522827
1757491556175018200,4.966018310546875,0.23919934034347534,1.2576684951782227,0.2374400943517685
1757491556185064400,4.976064453125,0.42376434803009033,2.068549633026123,-0.005262613296508789
1757491556195094800,4.9860947265625,0.05296570062637329,2.078406810760498,-0.5159653425216675
1757491556205136000,4.996135986328125,-0.09809088706970215,1.6433115005493164,-0.15776827931404114
1757491556215176400,5.006176513671875,-0.2643740475177765,1.4384756088256836,0.07156863808631897
1757491556235257600,5.026257568359375,-0.37959182262420654,0.9565553665161133,1.1792030334472656
1757491556245300200,5.03630029296875,0.08579766750335693,1.1592636108398438,0.6676069498062134
1757491556255339000,5.046339111328125,0.09054863452911377,0.8182601928710938,0.24065101146697998
1757491556265383700,5.0563837890625,0.06273216009140015,0.3312664031982422,-0.03591036796569824
1757491556275421000,5.0664208984375,-0.03508561849594116,-0.0056362152099609375,-0.1294306516647339
1757491556285460500,5.07646044921875,-0.08517390489578247,-0.27210521697998047,-0.12279927730560303
1757491556295501000,5.0865009765625,0.026473939418792725,-0.3835897445678711,0.03608512878417969
1757491556305541400,5.096541259765625,0.05736809968948364,-0.4570026397705078,0.13850677013397217
1757491556315581700,5.106581787109375,-0.06445181369781494,-0.7586460113525391,0.19759583473205566
1757491556325625600,5.11662548828125,-0.25780901312828064,-1.0400238037109375,0.2813148498535156
1757491556335666700,5.126666748046875,-0.2094377875328064,-0.9253454208374023,0.3073834180831909
1757491556345707000,5.13670703125,-0.026208341121673584,-0.8432197570800781,0.30017542839050293
1757491556355748600,5.14674853515625,0.0758013129234314,-0.8870620727539062,0.3305124044418335
1757491556365787100,5.156787109375,0.1076461672782898,-1.0369873046875,0.27360498905181885
1757491556375824400,5.166824462890625,-0.030713975429534912,-1.244450569152832,0.1943894624710083
1757491556385865700,5.17686572265625,0.2843274474143982,-1.8057861328125,0.6485987305641174
1757491556395909600,5.18690966796875,0.6538248062133789,-6.300108909606934,-0.5487794876098633
1757491556405950500,5.196950439453125,-0.9299565553665161,-0.5621242523193359,-1.4528716802597046
1757491556415991000,5.206990966796875,-0.2255367636680603,1.4904470443725586,-0.2140902280807495
1757491556426030800,5.21703076171875,-0.2859541177749634,0.37444591522216797,1.1777209043502808
1757491556436072200,5.227072265625,-0.11563560366630554,0.053600311279296875,1.4544413089752197
1757491556446109000,5.23710888671875,-0.06180304288864136,0.5781345367431641,0.7807784080505371
1757491556456153300,5.2471533203125,0.17971563339233398,0.13465023040771484,0.01987290382385254
1757491556466193700,5.257193603515625,0.046775102615356445,-0.7776832580566406,-0.2244729995727539
1757491556476233700,5.267233642578125,-0.09711569547653198,-0.6828947067260742,-0.3865652084350586
1757491556486274800,5.27727490234375,-0.113200843334198,0.06327629089355469,-0.20431935787200928
1757491556496315600,5.287315673828125,0.0332258939743042,-0.039305686950683594,0.16246187686920166
1757491556506356000,5.29735595703125,-0.009603917598724365,0.1591625213623047,0.4037054777145386
1757491556516393000,5.30739306640625,0.00433582067489624,0.11301422119140625,-0.021850943565368652
1757491556526432300,5.317432373046875,-0.011892855167388916,-0.04590129852294922,-0.06475174427032471
1757491556536473900,5.327473876953125,-0.18906253576278687,-0.2945137023925781,0.07388114929199219
1757491556546515500,5.337515380859375,-0.12457901239395142,-0.15434932708740234,0.07438147068023682
1757491556556556300,5.347556396484375,0.07447254657745361,-0.021302223205566406,0.07893288135528564
1757491556566598100,5.35759814453125,0.032071709632873535,0.003985404968261719,-0.0466235876083374
1757491556576635100,5.36763525390625,-0.04895824193954468,0.011926651000976562,-0.0396578311920166
1757491556586680300,5.377680419921875,-0.09932267665863037,0.032741546630859375,0.011733055114746094
1757491556596720400,5.387720458984375,-0.021490752696990967,0.3931694030761719,-0.07407796382904053
1757491556606757000,5.397757080078125,0.08981657028198242,0.12100696563720703,-0.12122035026550293
1757491556616801800,5.4078017578125,-0.06115537881851196,0.34932804107666016,0.06627357006072998
1757491556626841600,5.417841552734375,-0.15544694662094116,0.21257400512695312,0.23409205675125122
1757491556636878800,5.42787890625,-0.11535531282424927,0.13908004760742188,0.1916186809539795
1757491556646923300,5.43792333984375,-0.09992754459381104,0.02708148956298828,0.03512084484100342
1757491556656964000,5.447964111328125,0.10590475797653198,-0.42356109619140625,-0.038941144943237305
1757491556667004400,5.45800439453125,-0.10335665941238403,-0.6349411010742188,-0.05737471580505371
1757491556677040000,5.4680400390625,-0.07371187210083008,-0.6005535125732422,-0.1394897699356079
1757491556687085600,5.47808544921875,-0.10451924800872803,-0.5316410064697266,-0.2822234630584717
1757491556697126000,5.4881259765625,0.0731346607208252,-0.18089771270751953,-0.07275569438934326
1757491556707163000,5.498162841796875,-0.010233521461486816,0.0038585662841796875,-0.019535541534423828
1757491556717207000,5.50820703125,-0.0033718347549438477,0.028057098388671875,-0.07950139045715332
1757491556727247000,5.5182470703125,-0.06853753328323364,-0.04796600341796875,-0.1311483383178711
1757491556737288200,5.5282880859375,0.025786101818084717,-0.0626678466796875,-0.0713728666305542
1757491556747328800,5.538328857421875,-0.10937410593032837,-0.07267093658447266,0.07889819145202637
1757491556757370000,5.5483701171875,-0.24424168467521667,-0.36040687561035156,-0.07031333446502686
1757491556767405600,5.558405517578125,-0.05910700559616089,-0.24648189544677734,0.06695735454559326
1757491556777445600,5.568445556640625,-0.07723593711853027,-0.10061931610107422,0.07932567596435547
1757491556787487000,5.578487060546875,-0.004155874252319336,0.03116893768310547,0.05394697189331055
1757491556797529000,5.588529052734375,0.01943528652191162,0.1451730728149414,0.0005158185958862305
1757491556807573500,5.598573486328125,0.005384206771850586,0.20439910888671875,-0.033016324043273926
1757491556817612300,5.6086123046875,0.013387441635131836,0.18204021453857422,-0.0071070194244384766
1757491556827652400,5.61865234375,-0.04282331466674805,0.06287002563476562,0.040274620056152344
1757491556837689600,5.628689697265625,-0.04910486936569214,-0.0049839019775390625,0.06892502307891846
1757491556847734300,5.638734375,-0.08244210481643677,-0.022472381591796875,0.06001448631286621
1757491556857774600,5.648774658203125,-0.0605621337890625,-0.056616783142089844,0.021210312843322754
1757491556867815200,5.658815185546875,-0.024838268756866455,-0.0682363510131836,0.006904244422912598
1757491556877855200,5.668855224609375,0.034543395042419434,-0.028487205505371094,-0.0033080577850341797
1757491556887896000,5.67889599609375,0.056986987590789795,0.008716583251953125,0.002174854278564453
1757491556897932800,5.688932861328125,0.03889220952987671,0.005290985107421875,0.03242802619934082
1757491556907973400,5.698973388671875,-0.0041043758392333984,-0.008828163146972656,0.06151080131530762
1757491556918017800,5.709017822265625,0.008432149887084961,-0.0037593841552734375,0.07679176330566406
1757491556928057600,5.7190576171875,0.022185027599334717,-0.02237987518310547,0.06625640392303467
1757491556938099000,5.729098876953125,0.03817683458328247,-0.046759605407714844,0.025185227394104004
1757491556948139300,5.73913916015625,0.050298333168029785,-0.04248046875,-0.014739632606506348
1757491556958176300,5.74917626953125,0.006190478801727295,-0.03614616394042969,-0.014995574951171875
1757491556968220700,5.759220703125,-0.032569169998168945,-0.014156341552734375,-0.00815439224243164
1757491556978256600,5.769256591796875,-0.053430378437042236,-0.03652000427246094,0.027093887329101562
1757491556988301800,5.7793017578125,-0.03932851552963257,-0.015840530395507812,0.03877544403076172
1757491556998342700,5.7893427734375,0.015554189682006836,-0.025035858154296875,0.052243590354919434
1757491557008383200,5.79938330078125,0.03948086500167847,-0.029273033142089844,0.04293179512023926
1757491557018421500,5.80942138671875,0.03972625732421875,-0.025198936462402344,0.05854034423828125
1757491557028459300,5.819459228515625,0.0028920769691467285,-0.060364723205566406,0.05367732048034668
1757491557038501000,5.829501220703125,-0.030764758586883545,-0.054617881774902344,0.052266061305999756
1757491557048541000,5.839541015625,-0.023923814296722412,-0.05037975311279297,0.05964505672454834
1757491557058585300,5.84958544921875,-0.04895520210266113,-0.035307884216308594,0.0646703839302063
1757491557068626000,5.8596259765625,-0.025166094303131104,-0.023866653442382812,0.06692498922348022
1757491557078665700,5.869665771484375,-0.0314866304397583,-0.017090797424316406,0.05364835262298584
1757491557088703000,5.879702880859375,0.015516996383666992,-0.008050918579101562,0.05286937952041626
1757491557098747600,5.88974755859375,0.012916922569274902,-0.02746295928955078,0.02429807186126709
1757491557108788200,5.899788330078125,0.08013290166854858,-0.06363201141357422,-0.006718933582305908
1757491557118824400,5.909824462890625,0.05228811502456665,-0.015859603881835938,-0.05040556192398071
1757491557128861700,5.91986181640625,-0.08044183254241943,0.13512802124023438,0.06924325227737427
1757491557138909700,5.92990966796875,-0.1060534119606018,-0.0642099380493164,0.19718706607818604
1757491557148950500,5.939950439453125,-0.07249277830123901,-0.04930686950683594,0.19086432456970215
1757491557158986800,5.94998681640625,0.03884309530258179,0.023070335388183594,0.13190072774887085
1757491557169031700,5.96003173828125,0.06393635272979736,0.0440216064453125,0.0953742265701294
1757491557179076600,5.97007666015625,0.09833651781082153,0.014646530151367188,0.07596629858016968
1757491557189112600,5.980112548828125,-0.00448077917098999,0.19446849822998047,0.06276524066925049
1757491557199153000,5.99015283203125,0.004860103130340576,0.13441848754882812,0.19148576259613037
1757491557209193000,6.00019287109375,-0.00649338960647583,0.08205890655517578,0.1903725266456604
1757491557219230700,6.010230712890625,0.012065589427947998,0.034811973571777344,0.12300395965576172
1757491557229291500,6.02029150390625,0.06180691719055176,-0.06471824645996094,0.016019046306610107
1757491557239315500,6.0303154296875,0.001060187816619873,-0.28324127197265625,-0.10693973302841187
1757491557249355800,6.040355712890625,0.029698431491851807,-0.19433116912841797,-0.06295692920684814
1757491557259401200,6.050401123046875,-0.01542598009109497,-0.18528175354003906,-0.010189294815063477
1757491557269433000,6.06043310546875,-0.061421751976013184,-0.17026233673095703,0.04719829559326172
1757491557279497700,6.070497802734375,-0.01951509714126587,-0.05510425567626953,0.082183837890625
1757491557289516000,6.08051611328125,0.08030349016189575,0.0962076187133789,0.0844997763633728
1757491557299556000,6.09055615234375,-0.12088322639465332,-0.023038864135742188,0.06495094299316406
1757491557309599000,6.100598876953125,-0.016268908977508545,0.03198814392089844,0.014669597148895264
1757491557319639600,6.1106396484375,0.08903473615646362,0.10052776336669922,-0.05889767408370972
1757491557329653500,6.120653564453125,0.05244332551956177,0.543004035949707,0.09064853191375732
1757491557339720700,6.130720703125,-0.16798365116119385,0.3595399856567383,0.44982069730758667
1757491557349757200,6.140757080078125,-0.11079278588294983,-0.03123950958251953,0.5551902055740356
1757491557359801900,6.1508017578125,0.031157612800598145,-0.02875041961669922,0.29153019189834595
1757491557369842400,6.160842529296875,0.09699481725692749,0.015463829040527344,0.06803804636001587
1757491557379858000,6.17085791015625,0.04526996612548828,0.04264354705810547,-0.06395792961120605
1757491557389923300,6.18092333984375,0.007747769355773926,0.06908893585205078,-0.05352133512496948
1757491557399964000,6.1909638671875,-0.03550177812576294,0.10379505157470703,-0.019895076751708984
1757491557410000100,6.201000244140625,-0.006811261177062988,0.09898567199707031,0.032657623291015625
1757491557420041000,6.211041015625,-0.037226200103759766,0.011888504028320312,0.10101300477981567
1757491557430059300,6.221059326171875,-0.004987061023712158,-0.024690628051757812,0.08106637001037598
1757491557440126000,6.2311259765625,-0.05407065153121948,0.029631614685058594,0.06757611036300659
1757491557450166500,6.24116650390625,-0.04393965005874634,-0.05469512939453125,0.054788827896118164
1757491557460207000,6.25120703125,-0.031989991664886475,-0.22353649139404297,-0.04570120573043823
1757491557470247700,6.26124755859375,-0.0987236499786377,-0.4064798355102539,0.004596889019012451
1757491557480269300,6.271269287109375,-0.1027979850769043,-0.007526397705078125,-0.014539897441864014
1757491557490329000,6.2813291015625,0.034838467836380005,0.20574378967285156,-0.10991775989532471
1757491557500369400,6.291369384765625,0.07410368323326111,0.24094867706298828,-0.12500983476638794
1757491557510409200,6.3014091796875,-0.03987014293670654,0.10729503631591797,-0.022860229015350342
1757491557520446700,6.31144677734375,-0.046096861362457275,-0.0026884078979492188,0.06754368543624878
1757491557530505200,6.321505126953125,-0.06396907567977905,-0.02043628692626953,0.08562469482421875
1757491557540529400,6.331529296875,-0.08785432577133179,0.0059986114501953125,0.09275531768798828
1757491557550569000,6.34156884765625,-0.10689985752105713,0.00012874603271484375,0.10499799251556396
1757491557560610000,6.351610107421875,-0.062403738498687744,0.02901172637939453,0.07875645160675049
1757491557570652700,6.361652587890625,-0.015610337257385254,0.04125785827636719,0.04346984624862671
1757491557580691500,6.37169140625,0.04523724317550659,0.039295196533203125,-0.015131175518035889
1757491557590731500,6.3817314453125,0.055435389280319214,0.016996383666992188,-0.05021369457244873
1757491557600771300,6.391771240234375,0.04080352187156677,-0.013510704040527344,-0.047331035137176514
1757491557610810600,6.401810546875,-0.017399132251739502,-0.02144145965576172,-0.05923914909362793
1757491557620851000,6.411850830078125,-0.09338140487670898,-0.036757469177246094,-0.014212250709533691
1757491557630891500,6.4218916015625,-0.09794533252716064,-0.046176910400390625,0.024446606636047363
1757491557640935400,6.431935302734375,-0.07593432068824768,0.020676612854003906,0.08607256412506104
1757491557650975700,6.441975830078125,-0.08306309580802917,0.009221076965332031,0.04741191864013672
1757491557661016300,6.452016357421875,-0.07189375162124634,0.0029478073120117188,0.14513623714447021
1757491557671032300,6.4620322265625,-0.12415379285812378,-0.010944366455078125,0.10830974578857422
1757491557681073700,6.47207373046875,0.05938085913658142,0.017871856689453125,0.02669370174407959
1757491557691113500,6.482113525390625,-0.015424996614456177,0.029062271118164062,-0.0006299614906311035
1757491557701153800,6.49215380859375,-0.020184755325317383,0.000385284423828125,0.031951844692230225
1757491557711219000,6.502218994140625,-0.0023733675479888916,-0.010282516479492188,0.03814762830734253
1757491557721257700,6.5122578125,-0.037151068449020386,-0.009064674377441406,0.06413072347640991
1757491557731297000,6.522297119140625,-0.06480857729911804,-0.0064258575439453125,0.04343336820602417
1757491557741342500,6.532342529296875,-0.0648399293422699,0.016417503356933594,0.03468453884124756
1757491557751382800,6.5423828125,-0.040993839502334595,0.03072643280029297,0.05556619167327881
1757491557761421000,6.552421142578125,-0.009160250425338745,0.037860870361328125,0.06719714403152466
1757491557771459600,6.56245947265625,-0.021369963884353638,0.04013538360595703,0.11227500438690186
1757491557781500700,6.572500732421875,0.01756119728088379,0.0006456375122070312,0.13544481992721558
1757491557791541000,6.582541015625,0.04694589972496033,-0.034102439880371094,0.15932685136795044
1757491557801581000,6.5925810546875,0.03713443875312805,-0.016098976135253906,0.1470332145690918
1757491557811626000,6.6026259765625,-0.015211552381515503,0.05660438537597656,0.19164645671844482
1757491557821666300,6.612666259765625,-0.015166223049163818,0.23415851593017578,0.298204630613327
1757491557831706600,6.62270654296875,0.04539474844932556,0.11483955383300781,0.07817131280899048
1757491557841747700,6.632747802734375,0.08552324771881104,-0.013577461242675781,-0.0042119622230529785
1757491557851788300,6.642788330078125,0.0904921293258667,-0.04691505432128906,0.012082159519195557
1757491557861825000,6.652824951171875,-0.025497645139694214,-0.09449291229248047,0.0264165997505188
1757491557871869000,6.662868896484375,-0.05343019962310791,-0.07554054260253906,0.06336933374404907
1757491557881909800,6.67290966796875,-0.08270263671875,-0.08245468139648438,0.013457834720611572
1757491557891950300,6.682950439453125,-0.03768157958984375,-0.1150960922241211,0.06433427333831787
1757491557901991000,6.692990966796875,-0.04876500368118286,-0.08330917358398438,0.12524724006652832
1757491557912031200,6.70303125,-0.08741658926010132,-0.02730560302734375,0.12433934211730957
1757491557922068500,6.713068359375,0.02750229835510254,0.14207744598388672,0.14756637811660767
1757491557932108000,6.72310791015625,0.08539670705795288,0.19144725799560547,0.05542922019958496
1757491557942153000,6.733153076171875,-0.054516106843948364,-0.039198875427246094,0.09854006767272949
1757491557952193800,6.74319384765625,-0.10499706864356995,-0.022159576416015625,0.02194446325302124
1757491557962234400,6.753234375,-0.05546671152114868,-0.14974117279052734,-0.052392661571502686
1757491557972275200,6.763275146484375,-0.0045014917850494385,-0.1515979766845703,-0.19021612405776978
1757491557982315500,6.7733154296875,0.03714793920516968,-0.02158641815185547,-0.1725103259086609
1757491557992355800,6.78335595703125,0.02915722131729126,0.18477439880371094,0.11139702796936035
1757491558002400800,6.79340087890625,-0.12505707144737244,0.10898590087890625,0.22945910692214966
1757491558012432600,6.8034326171875,-0.10199001431465149,0.1450634002685547,0.13397949934005737
1757491558022473500,6.813473388671875,-0.11016306281089783,-0.07516288757324219,-0.2576560974121094
1757491558032514300,6.823514404296875,0.054732292890548706,0.101470947265625,-0.25212347507476807
1757491558042556400,6.833556396484375,-0.06277334690093994,-0.050972938537597656,-0.061219096183776855
1757491558052594700,6.8435947265625,-0.06387725472450256,-0.04348945617675781,0.09139114618301392
1757491558062639400,6.853639404296875,-0.003222942352294922,0.020745277404785156,0.10254192352294922
1757491558072680200,6.86368017578125,0.049844056367874146,0.0267333984375,0.06304758787155151
1757491558082720500,6.873720458984375,-0.016520053148269653,-0.025951385498046875,0.11250722408294678
1757491558092757000,6.883757080078125,-0.061973243951797485,0.029763221740722656,0.17206943035125732
1757491558102801400,6.893801513671875,-0.06355565786361694,-0.015729904174804688,0.16602373123168945
1757491558112842000,6.903842041015625,-0.013084709644317627,-0.007946014404296875,0.01910412311553955
1757491558122878700,6.913878662109375,0.03836947679519653,0.03209114074707031,-0.11274456977844238
1757491558132923000,6.9239228515625,-0.005172133445739746,-0.01867389678955078,-0.1926155686378479
1757491558142964000,6.9339638671875,0.12592726945877075,-0.008264541625976562,-0.13558709621429443
1757491558153004000,6.944004150390625,-0.03694427013397217,0.027700424194335938,-0.09174132347106934
1757491558163041000,6.954041015625,-0.032779812812805176,0.008968353271484375,0.07080239057540894
1757491558173085700,6.964085693359375,-0.08971720933914185,0.06365776062011719,0.16833704710006714
1757491558183126300,6.974126220703125,-0.12086746096611023,0.010926246643066406,0.23950910568237305
1757491558193166300,6.984166259765625,-0.055530667304992676,-0.021086692810058594,0.18574565649032593
1757491558203207200,6.994207275390625,0.03244692087173462,-0.04820728302001953,0.09310716390609741
1757491558213247700,7.004247802734375,0.04310065507888794,-0.0718841552734375,0.043380916118621826
1757491558223288000,7.0142880859375,0.04696083068847656,-0.021819114685058594,0.051713645458221436
1757491558233328000,7.024328125,0.09868830442428589,0.053081512451171875,0.09466290473937988
1757491558243370000,7.034369873046875,-0.003817439079284668,-0.1696147918701172,-0.026893913745880127
1757491558253408300,7.044408203125,-0.024212002754211426,0.03466987609863281,-0.03394758701324463
1757491558263446300,7.0544462890625,0.13620144128799438,0.2646770477294922,0.07146698236465454
1757491558273487600,7.064487548828125,-0.0531345009803772,-0.07922077178955078,0.19861283898353577
1757491558283528400,7.074528564453125,-0.060524046421051025,-0.32994747161865234,0.3611924946308136
1757491558293573400,7.084573486328125,0.04513084888458252,-0.11293697357177734,-0.12350082397460938
1757491558303612400,7.0946123046875,-0.03711158037185669,-0.16577434539794922,-0.32168442010879517
1757491558313653000,7.104653076171875,-0.04016619920730591,0.34364891052246094,-0.0035874247550964355
1757491558323689500,7.114689453125,-0.035409510135650635,0.3165311813354492,0.13861751556396484
1757491558333734000,7.12473388671875,-0.02011740207672119,0.0897207260131836,0.12005144357681274
1757491558343774700,7.134774658203125,0.02293705940246582,-0.028914451599121094,-0.0418887734413147
1757491558353815000,7.14481494140625,0.010009825229644775,-0.05969524383544922,-0.07081305980682373
1757491558363855600,7.154855712890625,0.030860960483551025,-0.12154388427734375,-0.08451199531555176
1757491558373892000,7.16489208984375,0.010717630386352539,-0.10105323791503906,-0.0666513442993164
1757491558383936500,7.1749365234375,0.029252290725708008,0.09152030944824219,-0.07065755128860474
1757491558393973200,7.18497314453125,0.06577950716018677,0.15892887115478516,0.11500144004821777
1757491558404017700,7.195017578125,-0.11186483502388,0.016584396362304688,0.28539565205574036
1757491558414058000,7.20505810546875,-0.08300936222076416,-0.1074819564819336,0.27407723665237427
1757491558424098800,7.215098876953125,-0.022172152996063232,-0.15358829498291016,0.15061897039413452
1757491558434139100,7.22513916015625,0.0043103694915771484,-0.052964210510253906,0.05282175540924072
1757491558444176000,7.23517578125,-0.012141287326812744,0.07220745086669922,0.07800126075744629
1757491558454220500,7.245220458984375,-0.03162497282028198,0.11724376678466797,0.12767571210861206
1757491558464257300,7.25525732421875,-0.019239306449890137,0.09914588928222656,0.14065033197402954
1757491558474301700,7.2653017578125,-0.005495429039001465,0.02772045135498047,0.08232128620147705
1757491558484342000,7.275342041015625,-0.0018576979637145996,-0.028055191040039062,0.022802770137786865
1757491558494382800,7.2853828125,-0.02499377727508545,-0.0242767333984375,-0.00535815954208374
1757491558504421400,7.29542138671875,-0.06695055961608887,-0.006573677062988281,0.05288660526275635
1757491558514460000,7.3054599609375,-0.0327494740486145,-0.01723194122314453,0.027099251747131348
1757491558524501000,7.3155009765625,-0.025823473930358887,0.011332511901855469,0.04477667808532715
1757491558534540800,7.325540771484375,-0.02479243278503418,0.013548851013183594,0.08146107196807861
1757491558544585500,7.33558544921875,-0.003920376300811768,-0.038750648498535156,0.024781882762908936
1757491558554625800,7.345625732421875,-0.02731180191040039,0.010397911071777344,-0.01225578784942627
1757491558564662800,7.355662841796875,-0.12165439128875732,0.07163810729980469,0.18868592381477356
1757491558574706700,7.365706787109375,-0.07599544525146484,0.0000782012939453125,0.18192756175994873
1757491558584747800,7.375747802734375,-0.012144863605499268,-0.03322315216064453,0.149999737739563
1757491558594788000,7.3857880859375,0.046621084213256836,-0.03996753692626953,0.05735248327255249
1757491558604824600,7.395824462890625,0.10570365190505981,-0.10394477844238281,-0.07391959428787231
1757491558614869200,7.405869140625,-0.05874568223953247,0.06940746307373047,-0.10203635692596436
1757491558624909800,7.415909912109375,-0.07671761512756348,0.29209041595458984,0.048439085483551025
1757491558634950400,7.425950439453125,0.02369546890258789,-0.0051116943359375,0.02474004030227661
1757491558644991000,7.435990966796875,-0.020252704620361328,-0.18311786651611328,-0.006787300109863281
1757491558655031800,7.44603173828125,-0.004367232322692871,-0.14880847930908203,0.025732457637786865
1757491558665068500,7.456068603515625,-0.034520745277404785,-0.09276008605957031,0.02521592378616333
1757491558675110100,7.466110107421875,-0.00789564847946167,-0.048430442810058594,-0.04458409547805786
1757491558685149200,7.476149169921875,0.03857654333114624,0.06455135345458984,-0.01762908697128296
1757491558695189500,7.486189453125,0.08969539403915405,0.16712284088134766,-0.04241365194320679
1757491558705229800,7.496229736328125,0.11182308197021484,0.1109476089477539,-0.05816209316253662
1757491558715273500,7.5062734375,0.06891071796417236,0.027090072631835938,-0.020975172519683838
1757491558725318400,7.516318359375,-0.00683826208114624,-0.033844947814941406,0.00610727071762085
1757491558735355400,7.52635546875,-0.05564028024673462,-0.06763458251953125,0.05260205268859863
1757491558745401000,7.536401123046875,-0.08656716346740723,-0.09422492980957031,0.07710117101669312
1757491558755432400,7.546432373046875,-0.07541048526763916,-0.0660390853881836,0.11315286159515381
1757491558765473500,7.5564736328125,-0.025828301906585693,-0.07590484619140625,0.10281038284301758
1757491558775515100,7.56651513671875,0.026372194290161133,-0.10350322723388672,0.04783886671066284
1757491558785556500,7.576556396484375,0.06292456388473511,-0.12890911102294922,0.01257014274597168
1757491558795599000,7.58659912109375,0.06368511915206909,-0.07326984405517578,-0.01062244176864624
1757491558805638700,7.596638671875,0.059504032135009766,-0.09817028045654297,0.034684717655181885
1757491558815676000,7.606676025390625,-0.022924482822418213,-0.14937591552734375,0.07471060752868652
1757491558825720000,7.616719970703125,-0.08920574188232422,-0.18505859375,0.062449514865875244
1757491558835756800,7.6267568359375,-0.0692930817604065,-0.16933059692382812,-0.008359432220458984
1757491558845801500,7.636801513671875,-0.009353876113891602,-0.12821292877197266,-0.16995137929916382
1757491558855841800,7.646841796875,-0.026541829109191895,-0.1995401382446289,-0.06195724010467529
1757491558865882600,7.656882568359375,-0.08368414640426636,-0.1558055877685547,-0.06121879816055298
1757491558875918800,7.6669189453125,-0.012261450290679932,-0.04039287567138672,-0.10602331161499023
1757491558885963800,7.6769638671875,0.03798949718475342,-0.020366668701171875,0.058071911334991455
1757491558896003800,7.68700390625,0.058141887187957764,0.06132984161376953,0.0738261342048645
1757491558906040600,7.69704052734375,0.09627342224121094,0.10390567779541016,0.02596515417098999
1757491558916085200,7.707085205078125,0.02722787857055664,0.0780019760131836,0.10317003726959229
1757491558926125300,7.717125244140625,-0.01772904396057129,0.062468528747558594,0.03793632984161377
1757491558936166000,7.727165771484375,-0.06469541788101196,0.05771350860595703,0.02331620454788208
1757491558946203000,7.737202880859375,0.016743183135986328,0.10057735443115234,0.03880578279495239
1757491558956247300,7.747247314453125,-0.04991614818572998,0.055118560791015625,-0.14979499578475952
1757491558966288000,7.757287841796875,0.12074220180511475,-0.047921180725097656,0.12644028663635254
1757491558976328700,7.76732861328125,-0.0560031533241272,-0.1322927474975586,0.12513113021850586
1757491558986369800,7.777369873046875,-0.09096294641494751,-0.06822490692138672,0.08112204074859619
1757491558996408600,7.78740869140625,-0.0505596399307251,0.08928966522216797,0.004705846309661865
1757491559006445600,7.797445556640625,0.006465792655944824,0.009306907653808594,-0.08173280954360962
1757491559016486700,7.807486572265625,-0.03241443634033203,0.1488018035888672,-0.07428121566772461
1757491559026527500,7.817527587890625,-0.0400775671005249,-0.014204025268554688,-0.006215393543243408
1757491559036574200,7.82757421875,-0.047512710094451904,-0.13165760040283203,0.0377156138420105
1757491559046612000,7.837612060546875,0.033964574337005615,-0.011134147644042969,0.016478240489959717
1757491559056652500,7.847652587890625,0.08168035745620728,0.0914926528930664,0.002213418483734131
1757491559066688800,7.857688720703125,0.14208370447158813,0.14290809631347656,-0.06966549158096313
1757491559076729600,7.8677294921875,0.051409900188446045,0.2532777786254883,0.008712947368621826
1757491559086773500,7.8777734375,-0.05089479684829712,-0.0911417007446289,0.06310039758682251
1757491559096814600,7.887814697265625,0.04034388065338135,-0.023401260375976562,0.0708472728729248
1757491559106855000,7.89785498046875,0.07134354114532471,0.020483970642089844,0.11231505870819092
1757491559116895500,7.9078955078125,0.08015888929367065,-0.00998687744140625,0.01023644208908081
1757491559126935300,7.917935302734375,0.062935471534729,-0.06721782684326172,-0.011148273944854736
1757491559136972800,7.927972900390625,0.10596334934234619,0.041245460510253906,-0.020139873027801514
1757491559147017500,7.938017578125,-0.07943165302276611,-0.10556411743164062,0.20546609163284302
1757491559157057300,7.948057373046875,-0.17992669343948364,0.2047271728515625,0.5149565935134888
1757491559167098600,7.9580986328125,-0.05228692293167114,-0.2135334014892578,-0.08622819185256958
1757491559177138700,7.968138671875,0.08440470695495605,-0.23653411865234375,-0.04218244552612305
1757491559187179300,7.97817919921875,0.1529729962348938,0.2474222183227539,0.3862713575363159
1757491559197215700,7.9882158203125,-0.2531433701515198,0.6089239120483398,0.28757232427597046
1757491559207256300,7.99825634765625,0.041831374168395996,-0.5243654251098633,-0.451632022857666
1757491559217301200,8.00830126953125,0.17890453338623047,-0.605280876159668,-0.20422416925430298
1757491559227341800,8.018341796875,0.21785014867782593,-0.2670726776123047,-0.16499555110931396
1757491559237382400,8.02838232421875,-0.13399076461791992,-0.0718841552734375,-0.02691417932510376
1757491559247420700,8.038420654296875,-0.1839909553527832,0.9044523239135742,0.8073805570602417
1757491559257459200,8.048459228515625,-0.07157063484191895,0.3911705017089844,-0.09728842973709106
1757491559267499800,8.058499755859375,0.12695014476776123,-0.40823936462402344,-0.13314223289489746
1757491559277540400,8.068540283203125,0.13952350616455078,-0.3769235610961914,0.06854051351547241
1757491559287584500,8.07858447265625,-0.10071265697479248,0.610076904296875,0.584762454032898
1757491559297624800,8.088624755859374,-0.10109782218933105,0.09666252136230469,-0.4064902663230896
1757491559307665400,8.09866552734375,0.13607776165008545,-0.5044927597045898,-0.3209955096244812
1757491559317705700,8.108705810546875,0.19067412614822388,-0.20077037811279297,0.029178261756896973
1757491559327742700,8.11874267578125,-0.24055424332618713,0.5263967514038086,0.261688232421875
1757491559337787000,8.128786865234375,-0.09391272068023682,0.6436014175415039,0.18403661251068115
1757491559347823900,8.138823974609375,0.01640385389328003,-0.3705310821533203,-0.32279354333877563
1757491559357868000,8.148867919921875,0.08609586954116821,-0.5127391815185547,-0.06347924470901489
1757491559367908600,8.15890869140625,-0.011652171611785889,0.1065664291381836,0.18277519941329956
1757491559377949200,8.16894921875,-0.056557536125183105,0.5291986465454102,0.1648440957069397
1757491559387989800,8.17898974609375,-0.009608566761016846,0.10391712188720703,-0.1520058512687683
1757491559398026500,8.189026611328124,0.11856603622436523,-0.3598642349243164,-0.1020018458366394
1757491559408070700,8.199070556640624,0.05869495868682861,-0.2828178405761719,-0.03599458932876587
1757491559418111500,8.209111572265625,-0.06926041841506958,-0.09072303771972656,0.015485644340515137
1757491559428151800,8.21915185546875,0.018928587436676025,0.4810066223144531,0.3557139039039612
1757491559438192000,8.229192138671875,0.06200677156448364,0.7458381652832031,0.3224905729293823
1757491559448233000,8.23923291015625,0.033520519733428955,0.256378173828125,-0.02755075693130493
1757491559458269700,8.249269775390625,0.09148472547531128,-0.6766977310180664,-0.15131759643554688
1757491559468314000,8.259314208984375,0.05485326051712036,-0.6053094863891602,-0.10550296306610107
1757491559478355000,8.26935498046875,-0.05078190565109253,0.000244140625,0.21288591623306274
1757491559488398600,8.279398681640625,-0.12423580884933472,0.3989381790161133,0.16685599088668823
1757491559498431700,8.289431640625,-0.06617122888565063,0.3209362030029297,0.3261350989341736
1757491559508472000,8.29947216796875,0.06422686576843262,-0.1925497055053711,-0.10932010412216187
1757491559518514700,8.3095146484375,0.09736990928649902,-0.4239377975463867,-0.17174077033996582
1757491559528555000,8.319554931640624,0.034672319889068604,-0.23256301879882812,-0.002133667469024658
1757491559538597600,8.32959765625,-0.024684906005859375,-0.19319629669189453,-0.000133514404296875
1757491559548638000,8.339637939453125,-0.08743405342102051,0.26554107666015625,0.46462610363960266
1757491559558678800,8.3496787109375,-0.08993452787399292,0.8108510971069336,0.4392784535884857
1757491559568719000,8.359718994140625,0.06038057804107666,-0.0032949447631835938,-0.23446398973464966
1757491559578756000,8.369756103515625,0.18534570932388306,-0.7129373550415039,-0.20666807889938354
1757491559588796200,8.379796142578124,0.06722724437713623,-0.4099111557006836,-0.15422934293746948
1757491559598840300,8.38984033203125,-0.07146543264389038,-0.30846691131591797,-0.10818326473236084
1757491559608881400,8.39988134765625,-0.05093103647232056,0.41518306732177734,0.39920520782470703
1757491559618922200,8.409922119140624,-0.15626183152198792,1.0189809799194336,0.44966578483581543
1757491559628962600,8.419962646484375,-0.0023193359375,0.029644012451171875,-0.2574007511138916
1757491559639003000,8.4300029296875,0.1692175269126892,-0.8042764663696289,-0.18681854009628296
1757491559649039400,8.440039306640625,0.1970059871673584,-0.1425485610961914,0.010737597942352295
1757491559659084300,8.450084228515625,-0.26168447732925415,-0.18232059478759766,0.26288527250289917
1757491559669124600,8.46012451171875,-0.20155391097068787,0.8877906799316406,0.4135753810405731
1757491559679165400,8.47016552734375,0.0015316605567932129,-0.5310773849487305,-0.5448444485664368
1757491559689205200,8.480205322265626,0.18319740891456604,-1.0535554885864258,-0.20643264055252075
1757491559699246000,8.49024609375,0.16722255945205688,-0.3454475402832031,0.08265948295593262
1757491559709286700,8.50028662109375,-0.2547057569026947,1.257394790649414,1.0391184091567993
1757491559719323000,8.510322998046876,-0.23282164335250854,0.17551231384277344,-0.3758881092071533
1757491559729368600,8.52036865234375,0.14527374505996704,-0.9653539657592773,-0.06584405899047852
1757491559739409200,8.5304091796875,0.16123098134994507,0.7865161895751953,0.7713887095451355
1757491559749445400,8.5404453125,-0.1410703957080841,-0.2997903823852539,-0.6110950112342834
1757491559759486000,8.55048583984375,0.4683572053909302,-0.6030607223510742,-0.008982717990875244
1757491559769529300,8.560529296875,-0.10819622874259949,0.05602455139160156,0.4091334939002991
1757491559779565800,8.57056591796875,-0.25222355127334595,0.6585836410522461,0.017564475536346436
1757491559789610800,8.58061083984375,0.027585208415985107,-0.883845329284668,-0.4354594945907593
1757491559799651300,8.5906513671875,0.40905529260635376,-0.0870819091796875,0.4526793956756592
1757491559809687600,8.6006875,-0.2733334004878998,0.9736051559448242,0.08866947889328003
1757491559819732200,8.610732177734375,-0.16203540563583374,-1.009328842163086,-0.33767247200012207
1757491559829772800,8.620772705078124,0.3075011670589447,0.5651836395263672,0.9448728561401367
1757491559839809500,8.6308095703125,-0.3972656726837158,0.3142118453979492,-0.4837406277656555
1757491559849854000,8.64085400390625,0.27131062746047974,-0.5339031219482422,0.5094194412231445
1757491559859894300,8.650894287109375,-0.1507052481174469,0.6013422012329102,-0.09396618604660034
1757491559869934800,8.660934814453125,0.1724594235420227,-0.8012228012084961,0.3205915093421936
1757491559879971800,8.670971923828125,-0.13391578197479248,0.642364501953125,0.09318965673446655
1757491559890015700,8.681015625,0.2658807039260864,-0.9852027893066406,-0.1385156512260437
1757491559900056600,8.691056640625,-0.21835759282112122,0.6988420486450195,0.5040923357009888
1757491559910092800,8.7010927734375,-0.16935595870018005,-1.0584039688110352,-0.39174944162368774
1757491559920138000,8.711137939453126,0.2651445269584656,0.8540830612182617,1.1744263172149658
1757491559930177800,8.721177734375,-0.46043747663497925,-0.25067615509033203,-0.7536591291427612
1757491559940218600,8.731218505859376,0.35294297337532043,-0.6207828521728516,0.5961960554122925
1757491559950255000,8.741255126953124,-0.35719507932662964,0.7776079177856445,-0.20126503705978394
1757491559960299500,8.751299560546874,0.16570106148719788,-0.34842395782470703,0.5821046829223633
1757491559970336000,8.7613359375,-0.30533164739608765,0.8274736404418945,-0.2057388424873352
1757491559980381000,8.771380859375,0.2678997218608856,0.1336650848388672,0.9391857385635376
1757491559990418700,8.781418701171875,-0.3690315783023834,-0.5976276397705078,-0.7395080327987671
1757491560000457700,8.791457763671875,0.20500770211219788,0.7365293502807617,0.9059466123580933
1757491560010498300,8.801498291015625,-0.0987510085105896,-1.0501060485839844,-0.6470152139663696
1757491560020540200,8.8115400390625,0.1522464156150818,0.8673715591430664,0.46395474672317505
1757491560030545000,8.821544921875,0.460309773683548,-0.156707763671875,0.24370260536670685
1757491560040619000,8.831618896484375,-0.32521748542785645,-0.24850940704345703,-0.8610085248947144
1757491560050663700,8.84166357421875,0.6340026259422302,0.37530517578125,0.8551920652389526
1757491560060702000,8.851701904296876,-0.2164529263973236,0.0174102783203125,-1.0982317924499512
1757491560070743000,8.861742919921875,0.6360635757446289,0.8702793121337891,0.8768977522850037
1757491560080781300,8.87178125,-0.1992626190185547,-0.2216644287109375,-1.1218061447143555
1757491560090822700,8.88182275390625,0.4561288356781006,0.6137714385986328,0.7753252983093262
1757491560100862200,8.8918623046875,-0.4165853261947632,0.06502628326416016,-0.7336502075195312
1757491560110905000,8.901905029296875,0.277866393327713,-0.9794855117797852,-0.0017512738704681396
1757491560120946000,8.91194580078125,-0.1651136875152588,1.6831855773925781,0.6809630393981934
1757491560130987800,8.92198779296875,-0.19361943006515503,-0.8712701797485352,-0.14827588200569153
1757491560141027600,8.932027587890625,0.14675016701221466,-0.35358238220214844,0.0940687358379364
1757491560151067100,8.942067138671876,0.053026676177978516,0.23058223724365234,0.3293854594230652
1757491560161183500,8.95218359375,-0.17904122173786163,1.0074119567871094,0.5657599568367004
1757491560171202800,8.962202880859374,-0.1034623384475708,-0.39966583251953125,0.20992469787597656
1757491560191230200,8.982230224609374,-0.180860698223114,0.1700305938720703,0.576207160949707
1757491560201272300,8.992272216796875,-0.25564873218536377,0.3403329849243164,0.797968864440918
1757491560211312600,9.002312744140625,-0.3457675576210022,0.4704475402832031,0.9975738525390625
1757491560221352700,9.012352783203125,-0.4937310814857483,0.5171136856079102,1.1511213779449463
1757491560231391000,9.022390869140626,-0.407417893409729,0.4965696334838867,1.3225746154785156
1757491560241430300,9.03243017578125,-0.5194637179374695,0.49839115142822266,1.2619545459747314
1757491560251471000,9.04247119140625,-0.37671712040901184,-0.11431217193603516,1.2108677625656128
1757491560261511400,9.052511474609375,-0.36989015340805054,-0.3170452117919922,1.0673412084579468
1757491560271554300,9.06255419921875,-0.141607865691185,-0.7006731033325195,1.1555685997009277
1757491560281596400,9.072596435546876,-0.3138706088066101,-0.7308292388916016,0.9890447854995728
1757491560291632600,9.082632568359376,-0.08815835416316986,-0.8028993606567383,1.0740840435028076
1757491560301677600,9.092677490234376,-0.20431479811668396,-0.7696952819824219,1.0222936868667603
1757491560311717600,9.102717529296875,-0.18438783288002014,-0.6663856506347656,0.9977996945381165
1757491560321754000,9.112754150390625,-0.3318478465080261,-0.7992925643920898,0.9195827841758728
1757491560331799000,9.122799072265625,-0.5157684087753296,-0.9546947479248047,0.7369057536125183
1757491560341839000,9.132839111328124,-0.3591495752334595,-1.1675701141357422,0.8132851719856262
1757491560351879700,9.142879638671875,-0.35271239280700684,-1.2213516235351562,0.725114643573761
1757491560361916400,9.15291650390625,-0.2192993462085724,-1.0838899612426758,0.3970857858657837
1757491560371961000,9.162961181640625,-0.02969205379486084,-1.0365591049194336,0.0808645486831665
1757491560382001200,9.173001220703124,0.17868883907794952,-0.8571901321411133,0.12258672714233398
1757491560392037600,9.18303759765625,0.11307030916213989,-0.6464166641235352,0.4590930938720703
1757491560402082800,9.193082763671875,-0.3387126922607422,-0.4331693649291992,0.3715670108795166
1757491560412122600,9.20312255859375,-0.7198686003684998,-0.2158365249633789,-0.31918346881866455
1757491560422159000,9.2131591796875,-0.28210827708244324,0.17859840393066406,-0.7164161205291748
1757491560432203800,9.223203857421876,-0.12653577327728271,0.4686107635498047,-1.4116592407226562
1757491560442244600,9.23324462890625,-0.06303977966308594,0.712000846862793,-2.058993101119995
1757491560452285000,9.243284912109376,1.246597170829773,1.1697673797607422,-1.7475175857543945
1757491560462321400,9.2533212890625,1.5071406364440918,0.983494758605957,-1.6201539039611816
1757491560472367000,9.2633671875,1.7691372632980347,0.8424692153930664,-1.5093828439712524
1757491560482402600,9.273402587890626,1.3792492151260376,0.6718072891235352,-1.4398703575134277
1757491560492443400,9.283443359375,1.5464704036712646,0.7669286727905273,-0.8094013929367065
1757491560502484200,9.293484130859374,0.9710883498191833,0.9758768081665039,-0.6400483846664429
1757491560512526800,9.30352685546875,0.7649496793746948,0.9784755706787109,-0.5543185472488403
1757491560522575000,9.3135751953125,0.47894996404647827,0.9747190475463867,-0.519112229347229
1757491560532608800,9.32360888671875,0.1707211285829544,1.0873727798461914,-0.6180006265640259
1757491560542649300,9.3336494140625,-0.08791327476501465,1.0673818588256836,-0.6554077863693237
1757491560552685800,9.343685791015625,-0.29870209097862244,0.8594331741333008,-0.5805073976516724
1757491560562730500,9.35373046875,-0.4674842357635498,0.7011880874633789,-0.4643285274505615
1757491560572771000,9.36377099609375,-0.6766529083251953,0.6693639755249023,-0.4183109998703003
1757491560582811600,9.373811767578125,-0.8979593515396118,0.5227680206298828,-0.39328038692474365
1757491560592852200,9.383852294921875,-1.0315101146697998,0.5068511962890625,-0.3527170419692993
1757491560602892300,9.393892333984375,-1.007952332496643,0.5252809524536133,-0.2073819637298584
1757491560612933400,9.403933349609375,-0.9038566946983337,0.5255603790283203,0.03753542900085449
1757491560622970000,9.41397021484375,-0.6702571511268616,0.6546878814697266,0.26901137828826904
1757491560633014000,9.424013916015625,-0.4551832675933838,0.9159011840820312,0.2943319082260132
1757491560643054300,9.434054443359376,-0.24664774537086487,0.9283390045166016,0.18086183071136475
1757491560653095700,9.444095703125,0.11907976865768433,1.1902084350585938,0.34373724460601807
1757491560663135700,9.4541357421875,-0.10603939741849899,1.2662782669067383,0.26141560077667236
1757491560673176600,9.464176513671875,-0.4682719111442566,1.2295866012573242,0.3400369882583618
1757491560683216600,9.474216552734376,-0.7919236421585083,1.0775728225708008,0.5193233489990234
1757491560693253400,9.48425341796875,-0.8370166420936584,0.7696237564086914,0.8803949356079102
1757491560703298300,9.49429833984375,-0.6800251007080078,0.17170143127441406,1.0441005229949951
1757491560713338000,9.504338134765625,-0.42641681432724,-0.5306129455566406,1.4783774614334106
1757491560723379000,9.51437890625,0.13347387313842773,-1.172541618347168,1.3337665796279907
1757491560733416700,9.524416748046875,0.9711615443229675,-1.3864774703979492,0.5325016975402832
1757491560743455700,9.534455810546875,1.8196780681610107,-1.2950248718261719,-0.42704951763153076
1757491560753496600,9.54449658203125,2.1913199424743652,-1.3821001052856445,-1.3562486171722412
1757491560763537000,9.554536865234375,1.4665619134902954,-1.9053916931152344,-2.034210681915283
1757491560773581300,9.564581298828125,0.06617471575737,-2.746140480041504,-2.3097777366638184
1757491560783622000,9.574621826171875,-0.6695548295974731,-3.063715934753418,-2.0963573455810547
1757491560793662500,9.584662353515625,-0.48858264088630676,-2.9434280395507812,-1.2628710269927979
1757491560803703000,9.594703125,-0.5378756523132324,-1.7685670852661133,-0.47496557235717773
1757491560813743600,9.60474365234375,-0.8560647368431091,-0.35705089569091797,0.21592438220977783
1757491560823784200,9.6147841796875,-0.7544980049133301,0.88409423828125,0.4873417615890503
1757491560833820700,9.624820556640625,-0.1199708804488182,1.588897705078125,-0.13667750358581543
1757491560843864800,9.63486474609375,1.1828521490097046,2.394901752471924,-1.0751698017120361
1757491560853905400,9.644905517578126,1.4365253448486328,2.2643775939941406,-1.874056339263916
1757491560863920000,9.654920166015625,1.3645023107528687,1.627732276916504,-1.9714707136154175
1757491560873960400,9.66496044921875,1.0607858896255493,0.6968193054199219,-1.5237207412719727
1757491560884001300,9.675001220703125,0.7696701884269714,-0.05383491516113281,-0.7665182948112488
1757491560894042400,9.68504248046875,0.3963751196861267,-0.7123079299926758,-0.01161050796508789
1757491560904104200,9.695104248046874,0.314953088760376,-1.0910606384277344,0.6080268621444702
1757491560914148000,9.705148193359374,0.616153359413147,-1.3499021530151367,1.0559803247451782
1757491560924189000,9.71518896484375,0.1388406753540039,-1.511260986328125,1.0829342603683472
1757491560934229200,9.725229248046874,0.14443469047546387,-1.1841907501220703,0.7467771768569946
1757491560944269600,9.73526953125,0.27576982975006104,-0.3321409225463867,-0.0634545087814331
1757491560954311000,9.745310791015624,0.39914587140083313,0.3103771209716797,-0.7993929386138916
1757491560964351200,9.755351318359375,0.44679924845695496,0.5439548492431641,-1.3221180438995361
1757491560974394400,9.765394287109375,0.3927045166492462,0.4883308410644531,-1.5100892782211304
1757491560984428800,9.7754287109375,0.270114004611969,0.34264373779296875,-1.3850271701812744
1757491560994468900,9.78546875,0.13094940781593323,0.18425846099853516,-1.1107943058013916
1757491561004509700,9.795509765625,0.06756529211997986,0.022096633911132812,-0.8194867372512817
1757491561014551800,9.8055517578125,0.07828018069267273,-0.09585285186767578,-0.6266306638717651
1757491561024594400,9.815594482421876,0.09955912828445435,-0.12264823913574219,-0.5437157154083252
1757491561034634800,9.825634765625,0.15789538621902466,-0.052555084228515625,-0.5197070837020874
1757491561044675600,9.835675537109376,0.13332170248031616,0.0677480697631836,-0.519431471824646
1757491561054716200,9.845716064453125,-0.021543681621551514,0.06187248229980469,-0.563671350479126
1757491561064752400,9.85575244140625,0.17831933498382568,0.18722057342529297,-0.4646076560020447
1757491561074797000,9.865797119140625,0.2562488913536072,0.2858591079711914,-0.5202626585960388
1757491561084837000,9.875837158203124,0.18939918279647827,0.12018108367919922,-0.4923132061958313
1757491561094877700,9.885877685546875,0.2395174503326416,-0.018408775329589844,-0.4461977183818817
1757491561104918500,9.89591845703125,0.42134255170822144,-0.056850433349609375,-0.4481014013290405
1757491561114959000,9.905958984375,0.44109582901000977,-0.10081863403320312,-0.5025527477264404
1757491561124999700,9.915999755859374,0.35027265548706055,-0.11224174499511719,-0.5771825313568115
1757491561135035600,9.92603564453125,0.031194567680358887,-0.19675922393798828,-0.7177002429962158
1757491561145078000,9.936078125,0.33034515380859375,-0.1535797119140625,-0.5708379149436951
1757491561155116500,9.946116455078124,0.3745344877243042,-0.08737754821777344,-0.446591854095459
1757491561165157400,9.956157470703126,0.14590466022491455,-0.12133979797363281,-0.354867547750473
1757491561175198200,9.9661982421875,0.2740486264228821,-0.17256832122802734,-0.2936346232891083
1757491561185240000,9.976239990234374,0.5056664943695068,-0.14375591278076172,-0.3105287253856659
1757491561195281400,9.986281494140625,0.6843647956848145,0.016344070434570312,-0.3479943573474884
1757491561205320000,9.99631982421875,0.7548428177833557,0.045645713806152344,-0.2539106011390686
1757491561215364400,10.0063642578125,0.6852390766143799,-0.05123329162597656,-0.17791679501533508
1757491561225410600,10.01641064453125,0.3336549997329712,-0.12621307373046875,-0.24544519186019897
1757491561235441000,10.02644091796875,0.539252758026123,-0.23635578155517578,-0.3535352647304535
1757491561245481500,10.0364814453125,0.49043411016464233,-0.27802181243896484,-0.46139010787010193
1757491561255523000,10.046523193359375,0.5280869007110596,-0.141204833984375,-0.47041869163513184
1757491561265563400,10.0565634765625,0.5638154149055481,0.0906057357788086,-0.3933084309101105
1757491561275607000,10.06660693359375,0.6645240783691406,0.1885519027709961,-0.29557710886001587
1757491561285647600,10.076647705078125,0.849166214466095,0.23148536682128906,-0.2194327712059021
1757491561295684000,10.08668408203125,0.9333904385566711,0.1338367462158203,-0.12172472476959229
1757491561305728800,10.096728759765625,0.9322880506515503,0.09755611419677734,-0.11924311518669128
1757491561315764700,10.1067646484375,0.9114851951599121,0.0842294692993164,-0.150941401720047
1757491561325809700,10.1168095703125,0.8473066091537476,0.09136295318603516,-0.157823383808136
1757491561335850000,10.12685009765625,0.7686061859130859,0.10564041137695312,-0.1083814799785614
1757491561345890300,10.136890380859375,0.6878746747970581,0.12007617950439453,-0.03163138031959534
1757491561355931100,10.14693115234375,0.6724542379379272,0.1354694366455078,0.07790493965148926
1757491561365967400,10.15696728515625,0.4995990991592407,0.14090919494628906,0.1068992018699646
1757491561376008400,10.167008544921876,0.6236470937728882,-0.11948108673095703,0.16327616572380066
1757491561386052600,10.177052490234376,0.37444424629211426,-0.39998435974121094,0.12671014666557312
1757491561396093200,10.18709326171875,0.22463536262512207,-0.5192136764526367,0.04436817765235901
1757491561406133500,10.197133544921876,0.03251075744628906,-0.49205875396728516,0.058768123388290405
1757491561416174000,10.207174072265625,-0.09228885173797607,-0.2536916732788086,0.07912805676460266
1757491561426214400,10.21721435546875,0.006247162818908691,-0.2239542007446289,0.21466100215911865
1757491561436251100,10.227251220703126,0.0649491548538208,-0.0972137451171875,0.28471076488494873
1757491561446295600,10.237295654296876,-0.026226282119750977,0.027544021606445312,0.273926705121994
1757491561456336100,10.247336181640625,0.3127332925796509,-0.08182430267333984,0.34536293148994446
1757491561466376700,10.257376708984374,0.24073219299316406,-0.15561294555664062,0.34377044439315796
1757491561476415000,10.2674150390625,0.00328218936920166,-0.09222126007080078,0.1596207618713379
1757491561496494000,10.287494140625,0.5077633857727051,0.10377979278564453,0.12339308857917786
1757491561506534400,10.297534423828125,0.2613018751144409,0.1695089340209961,0.1682109534740448
1757491561516579000,10.3075791015625,-0.09159982204437256,0.20363712310791016,0.12707453966140747
1757491561526619600,10.31761962890625,0.5967313051223755,0.2823619842529297,0.1022028923034668
1757491561536660000,10.327659912109375,0.5955213308334351,-0.059683799743652344,0.12603211402893066
1757491561546700300,10.3377001953125,0.46747303009033203,-0.04537677764892578,0.0667257308959961
1757491561556741000,10.3477412109375,-0.038271188735961914,0.11252117156982422,-0.204725980758667
1757491561566777300,10.35777734375,0.6212151050567627,0.2674999237060547,-0.03865361213684082
1757491561576818400,10.367818359375,0.49004030227661133,0.10670757293701172,0.2727415859699249
1757491561586862300,10.3778623046875,-0.11441123485565186,0.1685323715209961,0.41940009593963623
1757491561596903200,10.387903076171876,-0.5119180679321289,0.18645477294921875,0.24765026569366455
1757491561606943200,10.397943115234375,0.2097609043121338,-0.06253242492675781,0.30323752760887146
1757491561616983800,10.40798388671875,0.08901667594909668,-0.6244487762451172,0.4348772466182709
1757491561627025000,10.41802490234375,-0.3852933645248413,-0.8483257293701172,0.21662351489067078
1757491561637060600,10.428060546875,-0.23502779006958008,-1.0395231246948242,0.025137364864349365
1757491561647101400,10.438101318359376,-0.7072580456733704,-0.7970161437988281,-0.5296158194541931
1757491561657146400,10.448146484375,0.4611443281173706,-0.8810739517211914,-0.1345798373222351
1757491561667186400,10.4581865234375,0.01842796802520752,-0.8148870468139648,0.14160007238388062
1757491561677226800,10.468226806640626,-0.1718069314956665,-0.5046005249023438,0.27253085374832153
1757491561687266800,10.478266845703125,0.03412425518035889,-0.3492450714111328,0.24731877446174622
1757491561697303800,10.4883037109375,-0.20714330673217773,-0.1651449203491211,-0.14063119888305664
1757491561707349000,10.498348876953125,0.6229438781738281,-0.4003877639770508,-0.081318199634552
1757491561717391400,10.508391357421875,0.11438572406768799,-0.6883525848388672,-0.010082066059112549
1757491561727427000,10.518427001953125,0.06234729290008545,-0.622654914855957,0.16826549172401428
1757491561737466400,10.52846630859375,0.0993725061416626,-0.40108299255371094,0.20063459873199463
1757491561747508200,10.53850830078125,0.204085111618042,-0.22679519653320312,0.33873867988586426
1757491561757546800,10.548546630859375,0.1760876178741455,-0.08442497253417969,0.42648664116859436
1757491561767591700,10.558591796875,-0.3009355068206787,-0.12328338623046875,0.10384005308151245
1757491561777632000,10.568632080078125,0.3267548084259033,-0.08079051971435547,0.1757296323776245
1757491561787672600,10.578672607421876,0.017038464546203613,-0.2636699676513672,-0.03985294699668884
1757491561797712600,10.588712646484375,-0.31121504306793213,-0.17789173126220703,-0.2077856957912445
1757491561807749400,10.598749267578125,-0.3125436305999756,0.026599884033203125,-0.2708672881126404
1757491561817794000,10.6087939453125,-0.2502802610397339,0.24971580505371094,-0.21317435801029205
1757491561827830800,10.618830810546875,-0.1423656940460205,0.38436222076416016,-0.1255728006362915
1757491561837875000,10.628875,-0.1345510482788086,0.3831472396850586,-0.07873101532459259
1757491561847915500,10.63891552734375,-0.10528755187988281,0.23147106170654297,-0.05804304778575897
1757491561857956400,10.648956298828125,-0.04473769664764404,0.17287540435791016,-0.07779869437217712
1757491561867996400,10.658996337890626,-0.08940136432647705,0.1973857879638672,-0.033127203583717346
1757491561878033400,10.669033447265624,-0.06593620777130127,0.27747344970703125,0.05233776569366455
1757491561888074000,10.679073974609375,-0.30762815475463867,0.20688915252685547,-0.015460774302482605
1757491561898118100,10.6891181640625,0.10665023326873779,0.30777549743652344,0.06308954954147339
1757491561908158200,10.699158203125,-0.12356030941009521,0.17264556884765625,-0.05439739674329758
1757491561918199300,10.70919921875,-0.07831382751464844,-0.012709617614746094,-0.21694286167621613
1757491561928239600,10.719239501953124,-0.049829840660095215,-0.04976844787597656,-0.3910257816314697
1757491561938280200,10.7292802734375,0.0016934871673583984,-0.013138771057128906,-0.4432973563671112
1757491561948316700,10.739316650390625,0.010941505432128906,0.14348125457763672,-0.39168429374694824
1757491561958357200,10.749357177734375,-0.11044037342071533,0.38696765899658203,-0.2582574188709259
1757491561968406800,10.75940673828125,0.06857788562774658,0.3965616226196289,-0.07129782438278198
1757491561978438000,10.76943798828125,0.17032134532928467,0.2736063003540039,0.13621886074543
1757491561988479000,10.77947900390625,0.527888298034668,0.11550331115722656,0.3401545286178589
1757491561998521000,10.78952099609375,0.7311896085739136,0.0005807876586914062,0.4604041576385498
1757491562008574700,10.79957470703125,0.8228983879089355,-0.0995779037475586,0.46017155051231384
1757491562018600000,10.809599853515625,0.7120670080184937,-0.22577667236328125,0.44100573658943176
1757491562028644600,10.81964453125,0.7290858030319214,-0.38771724700927734,0.5546870231628418
1757491562038685000,10.829684814453126,0.8481024503707886,-0.6038093566894531,0.6557215452194214
1757491562048725200,10.839725341796875,0.9304062128067017,-0.8264446258544922,0.5714799761772156
1757491562058765000,10.84976513671875,0.7009539604187012,-1.148813247680664,0.40881675481796265
1757491562068806400,10.859806396484375,0.21907317638397217,-1.5761938095092773,0.2528831362724304
1757491562078843100,10.869843017578125,-0.5125945806503296,-1.8727922439575195,0.30155956745147705
1757491562088887300,10.87988720703125,-1.0113637447357178,-1.9248332977294922,0.5335922837257385
1757491562098928400,10.889928466796874,0.09553408622741699,-1.8892669677734375,0.9452097415924072
1757491562108964600,10.899964599609374,0.7392646074295044,-2.4407052993774414,1.6768488883972168
1757491562119009300,10.91000927734375,0.983715295791626,-3.1191272735595703,2.543928623199463
1757491562129049900,10.9200498046875,-0.07948338985443115,-3.7499008178710938,2.822845458984375
1757491562139090400,10.93009033203125,-0.7836885452270508,-4.301247596740723,2.73893666267395
1757491562149126700,10.940126708984375,-1.5006828308105469,-4.479011535644531,2.1695351600646973
1757491562159170600,10.950170654296874,-2.0917840003967285,-4.033442497253418,1.2870659828186035
1757491562169211600,10.960211669921875,-2.3159141540527344,-3.437307357788086,0.4623767137527466
1757491562179248400,10.970248291015626,-2.5424561500549316,-2.9622907638549805,-0.14177727699279785
1757491562189292800,10.980292724609376,-2.143282413482666,-2.443251609802246,-0.47822508215904236
1757491562199333000,10.9903330078125,-1.4587726593017578,-1.7772159576416016,-0.4606926441192627
1757491562209369600,11.00036962890625,-0.9157646894454956,-1.2502994537353516,0.04512675106525421
1757491562219412500,11.01041259765625,-0.32024431228637695,-0.8936567306518555,0.9152383804321289
1757491562229451000,11.020450927734375,0.26688891649246216,-0.5493555068969727,1.721197485923767
1757491562239492000,11.0304921875,0.8257594704627991,-0.07520008087158203,2.2206239700317383
1757491562249531100,11.04053125,1.2753223180770874,0.35485267639160156,2.317819595336914
1757491562259575800,11.050575927734375,1.3986581563949585,0.6451425552368164,1.9185878038406372
1757491562269616400,11.060616455078126,1.3974967002868652,0.6082229614257812,1.4696882963180542
1757491562279652900,11.07065283203125,1.1883200407028198,0.30776214599609375,0.9042074680328369
1757491562289697300,11.080697265625,0.7544797658920288,-0.18358707427978516,0.10217142105102539
1757491562299738000,11.090738037109375,0.0628962516784668,-0.8969478607177734,-0.8681837320327759
1757491562309779000,11.100779052734374,-0.9012487530708313,-1.6783990859985352,-1.8418444395065308
1757491562319815000,11.11081494140625,-1.9420406818389893,-2.3180017471313477,-2.5345208644866943
1757491562329858800,11.12085888671875,-3.0939221382141113,-3.095247268676758,-2.648146152496338
1757491562339896000,11.13089599609375,-2.9160573482513428,-3.3183040618896484,-2.2214508056640625
1757491562349940700,11.140940673828124,-2.7382006645202637,-3.454981803894043,-1.5253640413284302
1757491562359981000,11.15098095703125,-2.1390604972839355,-3.162796974182129,-0.8646376132965088
1757491562370021600,11.161021728515625,-1.5130736827850342,-2.735443115234375,-0.30377697944641113
1757491562380061700,11.171061767578125,-0.7604700326919556,-2.1489133834838867,-0.3286454677581787
1757491562390102800,11.181102783203125,0.20749056339263916,-1.8234491348266602,-0.6836793422698975
1757491562400139000,11.191138916015625,0.7936931848526001,-1.7587766647338867,-1.1368193626403809
1757491562410183700,11.20118359375,0.640668511390686,-1.700418472290039,-1.5039663314819336
1757491562420224000,11.21122412109375,0.06651759147644043,-1.708587646484375,-1.7669191360473633
1757491562430264300,11.221264404296875,-0.4943193793296814,-1.9255561828613281,-1.9889755249023438
1757491562440305000,11.231304931640626,-0.6442654132843018,-2.1138954162597656,-1.8317203521728516
1757491562450345500,11.241345458984375,-1.314081072807312,-2.3201656341552734,-1.8269939422607422
1757491562460387000,11.251386962890624,-1.2097337245941162,-2.353461265563965,-1.9489312171936035
1757491562470422300,11.26142236328125,-0.7618622183799744,-2.1927623748779297,-2.23361873626709
1757491562480463000,11.271463134765625,-0.17329373955726624,-1.7226552963256836,-2.0789098739624023
1757491562490503400,11.28150341796875,-0.40638935565948486,-1.4049091339111328,-2.3296713829040527
1757491562500546800,11.291546875,-0.34347769618034363,-0.9716758728027344,-2.3326034545898438
1757491562510586400,11.30158642578125,-0.36190012097358704,-0.6908836364746094,-2.393580436706543
1757491562520628000,11.3116279296875,-0.4078402519226074,-0.33494138717651367,-2.415454387664795
1757491562530663400,11.321663330078126,-0.5540646314620972,-0.2816309928894043,-2.613175630569458
1757491562540708400,11.331708251953126,-0.30585533380508423,0.13463211059570312,-2.587930917739868
1757491562550747400,11.341747314453125,-0.36212003231048584,0.32967376708984375,-2.6970298290252686
1757491562560786200,11.3517861328125,-0.46840882301330566,0.34652280807495117,-3.287485361099243
1757491562570826800,11.36182666015625,-0.2518024444580078,0.1643815040588379,-3.636354923248291
1757491562580867600,11.37186767578125,0.06987988948822021,0.26602840423583984,-3.9927022457122803
1757491562590909200,11.3819091796875,-0.04950326681137085,0.034612178802490234,-4.1003313064575195
1757491562600951000,11.391950927734374,0.3326760530471802,0.49378299713134766,-4.00449275970459
1757491562610993000,11.401992919921875,0.34642016887664795,0.8418512344360352,-3.5957796573638916
1757491562621032200,11.4120322265625,0.22566461563110352,0.6512250900268555,-3.3767411708831787
1757491562631072500,11.422072509765625,0.721146285533905,1.1522607803344727,-3.430696487426758
1757491562641112000,11.432112060546874,0.5711649060249329,1.0477705001831055,-3.706674814224243
1757491562651204900,11.442204833984375,0.46275126934051514,0.7379565238952637,-3.8599350452423096
1757491562671234300,11.462234375,0.6958933472633362,1.1439671516418457,-4.340114593505859
1757491562681277000,11.47227685546875,0.5748319625854492,0.870903491973877,-4.423518180847168
1757491562691313700,11.482313720703125,0.5614558458328247,0.7521324157714844,-4.303239822387695
1757491562701357800,11.49235791015625,0.24623525142669678,0.4289989471435547,-4.091338634490967
1757491562711403000,11.502403076171875,0.4086695909500122,1.1401615142822266,-3.852813482284546
1757491562721435000,11.512434814453124,0.07567441463470459,0.992607593536377,-3.3448586463928223
1757491562731475000,11.522474853515625,0.22611594200134277,0.6283421516418457,-2.9011759757995605
1757491562741517600,11.532517578125,-0.04821205139160156,0.6276817321777344,-2.6551809310913086
1757491562751558400,11.542558349609376,-0.19730627536773682,0.6256523132324219,-2.3989620208740234
1757491562761601000,11.55260107421875,-0.32431507110595703,0.4175448417663574,-2.2734222412109375
1757491562771641000,11.56264111328125,0.17164409160614014,0.7039237022399902,-2.340874195098877
1757491562781681400,11.572681396484375,0.16434812545776367,0.6539206504821777,-2.0889453887939453
1757491562791718000,11.5827177734375,0.08536577224731445,0.36774396896362305,-2.0679492950439453
1757491562801762300,11.59276220703125,-0.16943871974945068,0.22513246536254883,-2.0039944648742676
1757491562811803100,11.60280322265625,-0.4723489284515381,0.020904541015625,-1.7743654251098633
1757491562821843500,11.612843505859376,-0.7382519245147705,-0.16067028045654297,-1.3368916511535645
1757491562831883800,11.6228837890625,-0.8170238733291626,-0.18238401412963867,-0.9027876853942871
1757491562841924900,11.6329248046875,-0.7768164873123169,-0.18491029739379883,-0.7136945724487305
1757491562851961300,11.64296142578125,-0.8056796789169312,-0.17893552780151367,-0.7289457321166992
1757491562862005200,11.653005126953126,-0.8434529304504395,-0.1660780906677246,-0.8720026016235352
1757491562872046000,11.663046142578125,-0.8294020891189575,-0.21053695678710938,-1.108931064605713
1757491562882086700,11.673086669921876,-0.9550814628601074,-0.17836999893188477,-1.3348979949951172
1757491562892127000,11.683126953125,-1.1755036115646362,-0.0983271598815918,-1.5156702995300293
1757491562902167800,11.693167724609374,-1.3817274570465088,-0.02353811264038086,-1.6135926246643066
1757491562912208400,11.70320849609375,-1.477059245109558,-0.19411706924438477,-1.7460532188415527
1757491562922244400,11.713244384765625,-1.3784360885620117,-0.3359808921813965,-1.5805292129516602
1757491562932289300,11.723289306640625,-1.0970946550369263,-0.44552183151245117,-1.252197265625
1757491562942329900,11.733329833984374,-0.7611567974090576,-0.4828505516052246,-0.6620821952819824
1757491562952371700,11.743371826171876,-0.8149263858795166,-0.6314516067504883,-0.33315610885620117
1757491562962409000,11.753408935546876,-0.9492824077606201,-0.8149199485778809,-0.30796289443969727
1757491562972447000,11.763447021484374,-0.9397988319396973,-0.9283032417297363,-0.5195283889770508
1757491562982487600,11.773487548828125,-0.950516939163208,-0.768531322479248,-0.7427291870117188
1757491562992528000,11.78352783203125,-0.8576452732086182,-0.3711543083190918,-0.919151782989502
1757491563002573600,11.793573486328125,-0.9922425746917725,-0.20496511459350586,-1.1320877075195312
1757491563012612600,11.803612548828125,-1.0560059547424316,0.05555009841918945,-1.3053336143493652
1757491563022653400,11.8136533203125,-0.9828686714172363,0.23354673385620117,-1.2981457710266113
1757491563032693200,11.823693359375,-0.7911396026611328,0.37517261505126953,-1.0775623321533203
1757491563042730200,11.833730224609376,-0.6375880241394043,0.28443336486816406,-0.8589215278625488
1757491563052775000,11.84377490234375,-0.6874589920043945,0.08196449279785156,-0.7924799919128418
1757491563062811400,11.853811279296876,-0.9713730812072754,-0.15533971786499023,-0.5965867042541504
1757491563072855800,11.863855712890626,-1.2109432220458984,-0.43143510818481445,-0.1115565299987793
1757491563082896400,11.873896484375,-1.1879444122314453,-0.6787753105163574,0.490753173828125
1757491563092936700,11.883936767578126,-0.779447078704834,-0.9454846382141113,1.0321030616760254
1757491563102977300,11.893977294921875,-0.13405585289001465,-1.4096627235412598,1.3187317848205566
1757491563113013800,11.904013671875,0.04889512062072754,-1.818955421447754,1.2791767120361328
1757491563123058000,11.914057861328125,-0.15194988250732422,-1.8699021339416504,0.8894152641296387
1757491563133094100,11.92409423828125,-0.2082653045654297,-1.6320323944091797,0.3825521469116211
1757491563143139000,11.93413916015625,0.27827417850494385,-1.2226181030273438,-0.09421682357788086
1757491563153180000,11.944179931640624,0.7278984785079956,-0.5894565582275391,-0.7900795936584473
1757491563163220500,11.954220458984375,0.6537520885467529,-0.06334972381591797,-1.1626806259155273
1757491563173261000,11.964260986328124,0.6230112314224243,-0.127349853515625,-0.9543972015380859
1757491563183301600,11.974301513671875,0.9250645637512207,-0.5615930557250977,-0.4314723014831543
1757491563193342200,11.98434228515625,1.3036394119262695,-1.281303882598877,0.27382421493530273
1757491563203383000,11.994383056640626,1.070827841758728,-1.5550570487976074,-0.11226177215576172
1757491563213421000,12.004421142578124,0.14464092254638672,-1.8558759689331055,-0.36476802825927734
1757491563223459000,12.014458984375,-0.2796750068664551,-1.7417497634887695,-0.5904006958007812
1757491563233500200,12.024500244140626,0.04823756217956543,-1.3792543411254883,-0.47911691665649414
1757491563243542800,12.034542724609375,0.036488890647888184,-1.0312976837158203,-0.37552356719970703
1757491563253584400,12.04458447265625,0.25675392150878906,-0.5365762710571289,-0.426053524017334
1757491563263625000,12.054625,0.09132027626037598,-0.22812652587890625,-0.6676831245422363
1757491563273665800,12.064665771484375,0.3082829713821411,-0.04957389831542969,-0.8167104721069336
1757491563283705900,12.074705810546876,0.277959942817688,0.05892658233642578,-1.0259246826171875
1757491563293742800,12.084742919921876,0.2474501132965088,0.02517986297607422,-1.2078094482421875
1757491563303787000,12.094787109375,0.4151384234428406,-0.08507537841796875,-1.3755838871002197
1757491563313827600,12.10482763671875,0.5727538466453552,-0.2774839401245117,-1.564955234527588
1757491563323868000,12.114867919921876,0.3840222954750061,-0.49468135833740234,-1.5330891609191895
1757491563333908500,12.124908447265625,0.4130699038505554,-0.6185073852539062,-1.3287808895111084
1757491563343949300,12.13494921875,0.6734970211982727,-0.6028022766113281,-1.0812475681304932
1757491563353989400,12.1449892578125,0.3337443470954895,-0.6617832183837891,-0.9376552104949951
1757491563364026400,12.1550263671875,0.3783411383628845,-0.7064285278320312,-0.7241404056549072
1757491563374070300,12.1650703125,0.26631176471710205,-0.6885499954223633,-0.5290441513061523
1757491563384111400,12.175111328125,0.13973169028759003,-0.6301193237304688,-0.4107692241668701
1757491563394151700,12.185151611328125,-0.06608110666275024,-0.5492181777954102,-0.40525174140930176
1757491563404192000,12.19519189453125,-0.3178200125694275,-0.4921541213989258,-0.41176342964172363
1757491563414232600,12.205232666015625,-0.1927882730960846,-0.27620983123779297,-0.46591806411743164
1757491563424273200,12.215273193359375,0.19996243715286255,0.016744613647460938,-0.5621247291564941
1757491563434310000,12.225309814453125,0.23601484298706055,0.19168853759765625,-0.5167562961578369
1757491563444354300,12.235354248046875,0.38384053111076355,0.2134389877319336,-0.4163491725921631
1757491563454398200,12.245398193359375,0.8343874216079712,0.3500547409057617,-0.42354369163513184
1757491563464431400,12.255431396484376,0.7644683122634888,0.426788330078125,-0.2494964599609375
1757491563474471200,12.26547119140625,0.6897077560424805,0.6837682723999023,-0.26140546798706055
1757491563484513500,12.275513427734374,0.2790718078613281,0.13401031494140625,0.13985228538513184
1757491563494554400,12.285554443359375,0.5434508919715881,0.10986328125,0.24210810661315918
1757491563504599800,12.295599853515625,0.17279738187789917,0.0926961898803711,0.34787988662719727
1757491563514637600,12.305637451171876,-0.4177277088165283,0.10453224182128906,0.3329002857208252
1757491563524678100,12.31567822265625,-0.28724223375320435,0.2607688903808594,0.1811375617980957
1757491563534718500,12.325718505859374,-0.07813066244125366,0.46093177795410156,-0.019220829010009766
1757491563544758800,12.3357587890625,-0.3734106421470642,0.6080503463745117,-0.26629066467285156
1757491563554799400,12.34579931640625,-0.5780084133148193,0.23937225341796875,-0.3042488098144531
1757491563564840200,12.355840087890625,-0.3621132969856262,0.19223308563232422,-0.45459842681884766
1757491563574880300,12.36588037109375,-0.4054540991783142,0.16170215606689453,-0.5913687944412231
1757491563584920000,12.375920166015625,-0.6270846128463745,0.14892292022705078,-0.6373882293701172
1757491563594957000,12.38595703125,-0.7402573823928833,0.26759910583496094,-0.5423989295959473
1757491563605001500,12.39600146484375,-0.6178457736968994,0.4961071014404297,-0.3981562852859497
1757491563615045000,12.406045166015625,-0.6677377223968506,0.6686849594116211,-0.16217827796936035
1757491563625080600,12.41608056640625,-0.31911516189575195,0.8475408554077148,0.1899557113647461
1757491563635119000,12.426119140625,-0.045128464698791504,0.8652858734130859,0.5230027437210083
1757491563645159700,12.43615966796875,-0.13153469562530518,0.7330446243286133,0.8206586837768555
1757491563655199700,12.44619970703125,-0.1647353172302246,0.8766212463378906,0.8623943328857422
1757491563665241900,12.456241943359375,-0.12084174156188965,0.3233633041381836,0.9939858913421631
1757491563675281700,12.46628173828125,-0.09698617458343506,-0.08013343811035156,1.0026720762252808
1757491563685326000,12.476326171875,-0.11035776138305664,-0.1548614501953125,0.8276686668395996
1757491563695367400,12.486367431640625,-0.30197441577911377,-0.1713237762451172,0.6231235265731812
1757491563705409500,12.496409423828124,-0.5263383984565735,0.07086944580078125,0.4022563695907593
1757491563715442400,12.5064423828125,-0.1888364553451538,-0.011844635009765625,0.3464374542236328
1757491563725484300,12.516484375,0.010225057601928711,0.2047891616821289,0.24904143810272217
1757491563735523800,12.52652392578125,0.5083813667297363,0.3109426498413086,0.45998919010162354
1757491563745564400,12.536564453125,0.6419018507003784,0.11609458923339844,0.8110922574996948
1757491563755609000,12.546609130859375,0.6213715076446533,0.1676931381225586,1.0467047691345215
1757491563765649000,12.55664892578125,0.4278525114059448,0.11843299865722656,1.2381919622421265
