time,seconds_elapsed,z,y,x
1757491551265171200,0.056171142578125,11.0602388381958,0.358830988407135,2.6167876720428467
1757491551275227600,0.0662275390625,9.826552391052246,0.9538649320602417,2.1575498580932617
1757491551285267500,0.076267333984375,9.02135181427002,1.1620856523513794,1.2999018430709839
1757491551295308800,0.086308837890625,8.259846687316895,2.3312790393829346,-0.2602946162223816
1757491551305337000,0.096337158203125,5.847987174987793,8.884208679199219,-8.778863906860352
1757491551315397400,0.1063974609375,5.257292747497559,12.227188110351562,-10.529250144958496
1757491551325438000,0.11643798828125,8.72881031036377,2.2509236335754395,-0.08282441645860672
1757491551335476000,0.12647607421875,9.10769271850586,2.0632781982421875,0.6099228858947754
1757491551345533700,0.13653369140625,10.212916374206543,4.139125823974609,0.1521066278219223
1757491551355578600,0.14657861328125,10.191069602966309,2.8831424713134766,0.37648820877075195
1757491551365617000,0.156616943359375,10.394651412963867,3.0161705017089844,-0.03763385862112045
1757491551375657500,0.166657470703125,10.06006145477295,2.8110921382904053,-0.4932803809642792
1757491551385698300,0.1766982421875,9.78023910522461,2.6990134716033936,-1.190816044807434
1757491551395734800,0.18673486328125,9.274165153503418,2.792536973953247,-0.8740332722663879
1757491551405774800,0.19677490234375,9.048136711120605,2.9093291759490967,-0.7576152086257935
1757491551415794200,0.206794189453125,9.241917610168457,3.0048727989196777,-0.5550059080123901
1757491551425859800,0.21685986328125,9.291672706604004,3.1738884449005127,-0.45744216442108154
1757491551435864800,0.22686474609375,9.493309020996094,3.1698482036590576,-0.42018240690231323
1757491551445941000,0.23694091796875,9.477447509765625,3.120093822479248,-0.4992658793926239
1757491551455977500,0.2469775390625,9.421557426452637,3.240252733230591,-0.6437410116195679
1757491551465997300,0.256997314453125,9.369708061218262,3.100790500640869,-0.6682815551757812
1757491551476058600,0.26705859375,9.626636505126953,3.135805606842041,-1.0809820890426636
1757491551486128400,0.27712841796875,9.433155059814453,3.1173255443573,-1.1517606973648071
1757491551496142600,0.287142578125,9.214982986450195,3.0395138263702393,-1.0654197931289673
1757491551506184200,0.29718408203125,9.134029388427734,3.0994436740875244,-1.0932523012161255
1757491551516220400,0.307220458984375,8.989179611206055,3.2689831256866455,-1.0413280725479126
1757491551526265300,0.317265380859375,8.892888069152832,2.9978396892547607,-0.9902268648147583
1757491551536309800,0.327309814453125,8.877849578857422,3.142314910888672,-0.998681366443634
1757491551546346200,0.33734619140625,9.045742988586426,3.068169593811035,-1.0203039646148682
1757491551556361500,0.347361572265625,9.13417911529541,3.0859014987945557,-1.0086323022842407
1757491551566424000,0.357424072265625,9.192761421203613,3.1505448818206787,-1.0633248090744019
1757491551576463600,0.367463623046875,9.22291374206543,3.213467597961426,-0.9867103695869446
1757491551586482400,0.377482421875,9.402853012084961,3.41682505607605,-0.8704419732093811
1757491551596547000,0.387547119140625,9.360356330871582,3.4700212478637695,-0.7517045140266418
1757491551606567400,0.3975673828125,9.181464195251465,3.5231425762176514,-0.8257002830505371
1757491551616629800,0.407629638671875,8.89453411102295,3.6955251693725586,-0.8196399807929993
1757491551626670000,0.417670166015625,8.512060165405273,3.704578161239624,-0.6089502573013306
1757491551636686600,0.4276865234375,8.112378120422363,3.7136313915252686,-0.6309469938278198
1757491551646747100,0.4377470703125,8.467094421386719,3.6426281929016113,-0.8669254779815674
1757491551656770600,0.4477705078125,8.456095695495605,3.0911388397216797,-0.646284818649292
1757491551666832100,0.45783203125,9.017985343933105,2.9856443405151367,-0.47891515493392944
1757491551676872400,0.46787255859375,8.989179611206055,3.015796422958374,-0.03950432687997818
1757491551686887700,0.4778876953125,9.636213302612305,2.6933271884918213,-0.46829089522361755
1757491551696953300,0.487953369140625,10.687492370605469,2.8535144329071045,-0.06636428087949753
1757491551706990300,0.497990234375,10.198101997375488,2.7963528633117676,1.0345944166183472
1757491551717030700,0.50803076171875,9.579649925231934,2.5720460414886475,1.193434715270996
1757491551727074800,0.51807470703125,9.180940628051758,2.6593594551086426,1.516876459121704
1757491551737078300,0.528078369140625,8.56308650970459,2.9689598083496094,1.1543045043945312
1757491551747156200,0.53815625,8.286406517028809,2.6710312366485596,1.1153987646102905
1757491551757171700,0.548171630859375,8.234183311462402,2.582819938659668,0.8429834842681885
1757491551767201500,0.558201416015625,8.261417388916016,2.57002592086792,0.7663689851760864
1757491551777273600,0.568273681640625,8.462904930114746,2.514659881591797,0.7949497699737549
1757491551787287300,0.578287353515625,8.834903717041016,2.4063971042633057,0.8604910373687744
1757491551797351700,0.5883515625,9.189245223999023,2.411933660507202,0.8481459617614746
1757491551807374000,0.5983740234375,9.124826431274414,2.4396166801452637,0.8152256608009338
1757491551817436000,0.608435791015625,9.176152229309082,2.491241693496704,0.7472901940345764
1757491551827476000,0.61847607421875,9.395819664001465,2.6110265254974365,0.5919663906097412
1757491551837517300,0.628517333984375,9.524658203125,2.6735002994537354,0.47487494349479675
1757491551847559700,0.6385595703125,9.76669692993164,2.5964369773864746,0.5328595042228699
1757491551857601500,0.6486015625,9.733851432800293,2.4578723907470703,1.0619032382965088
1757491551867616300,0.6586162109375,9.611223220825195,3.154435634613037,0.00396539643406868
1757491551877682200,0.66868212890625,9.664419174194336,2.866682529449463,0.24158991873264313
1757491551887722800,0.67872265625,9.946860313415527,2.3003041744232178,0.4834791123867035
1757491551897735200,0.688735107421875,9.503035545349121,2.7182419300079346,0.8439561128616333
1757491551907799800,0.6987998046875,9.500192642211914,3.1595981121063232,0.4412064850330353
1757491551917812500,0.7088125,9.714548110961914,2.5790789127349854,0.6738181114196777
1757491551927885000,0.718885009765625,9.954791069030762,2.231470823287964,0.8886977434158325
1757491551937925000,0.728925048828125,9.889100074768066,2.5009682178497314,0.9743652939796448
1757491551947942000,0.73894189453125,10.154183387756348,2.479644775390625,1.1114332675933838
1757491551958006500,0.749006591796875,10.402881622314453,2.3050177097320557,1.1019313335418701
1757491551968022000,0.75902197265625,10.303522109985352,2.3035213947296143,0.9424924850463867
1757491551978086100,0.769086181640625,10.028637886047363,2.4320600032806396,0.6403741240501404
1757491551988127700,0.779127685546875,9.646687507629395,2.524461269378662,0.4064905643463135
1757491551998122200,0.789122314453125,9.386168479919434,2.500519275665283,0.2511667311191559
1757491552008208600,0.799208740234375,9.295263290405273,2.427720546722412,0.267851322889328
1757491552018223600,0.8092236328125,9.269001960754395,2.388141393661499,0.31543606519699097
1757491552028289500,0.81928955078125,9.282843589782715,2.3445968627929688,0.17784430086612701
1757491552038326500,0.829326416015625,9.60867977142334,2.2346880435943604,-0.1537526398897171
1757491552048358100,0.839358154296875,9.762507438659668,2.031554937362671,-0.4159925580024719
1757491552058409200,0.8494091796875,9.658134460449219,1.8747347593307495,-0.5680992007255554
1757491552068426200,0.85942626953125,9.728165626525879,1.8308908939361572,-0.6654384136199951
1757491552078487800,0.86948779296875,9.725546836853027,1.7844284772872925,-0.6919991374015808
1757491552088529400,0.879529296875,9.65499210357666,1.740360140800476,-0.6883329749107361
1757491552098547500,0.88954736328125,9.712228775024414,1.7836054563522339,-0.7563433051109314
1757491552108613400,0.89961328125,9.844209671020508,1.7219547033309937,-0.8934113383293152
1757491552118629000,0.909629150390625,9.833061218261719,1.6698808670043945,-0.9843909740447998
1757491552128693800,0.91969384765625,9.836652755737305,1.550694465637207,-0.7787889242172241
1757491552138735400,0.9297353515625,9.74125862121582,1.485751748085022,-0.6498761177062988
1757491552148771800,0.939771728515625,9.79520320892334,1.5429133176803589,-0.6330419182777405
1757491552158812400,0.9498125,9.678485870361328,1.5558570623397827,-0.5596446394920349
1757491552168822000,0.959822021484375,9.703325271606445,1.5513678789138794,-0.6266074776649475
1757491552178897000,0.96989697265625,9.705270767211914,1.492186188697815,-0.7380126714706421
1757491552188941600,0.979941650390625,9.67773723602295,1.4804396629333496,-0.7808838486671448
1757491552198978300,0.989978271484375,9.64915657043457,1.4202104806900024,-0.6618471145629883
1757491552209018400,1.000018310546875,9.533561706542969,1.4344260692596436,-0.6027402877807617
1757491552219044900,1.010044921875,9.49121379852295,1.4742296934127808,-0.6117933392524719
1757491552229095700,1.020095703125,9.424625396728516,1.5328876972198486,-0.6277297735214233
1757491552239139000,1.03013916015625,9.542839050292969,1.6347160339355469,-0.7254431247711182
1757491552249180700,1.0401806640625,9.524957656860352,1.6215479373931885,-0.7195324301719666
1757491552259220700,1.050220703125,9.460687637329102,1.6513258218765259,-0.6867617964744568
1757491552269237200,1.0602373046875,9.386917114257812,1.713575005531311,-0.6884077787399292
1757491552279302000,1.070302001953125,9.326313018798828,1.7347487211227417,-0.605658233165741
1757491552289338400,1.08033837890625,9.197924613952637,1.7472435235977173,-0.4331260621547699
1757491552299383000,1.090383056640625,9.245209693908691,1.6713024377822876,-0.38741177320480347
1757491552309421000,1.100421142578125,9.501988410949707,1.7775450944900513,-0.4511573910713196
1757491552319438300,1.110438232421875,9.721431732177734,1.7809867858886719,-0.48557403683662415
1757491552329501000,1.1205009765625,9.77709674835205,1.6639702320098877,-0.5057002902030945
1757491552339543000,1.13054296875,9.976489067077637,1.677811622619629,-0.45998600125312805
1757491552349584600,1.140584716796875,9.982548713684082,1.7280150651931763,-0.4787655174732208
1757491552359622000,1.150621826171875,9.888875961303711,1.8555811643600464,-0.4165911078453064
1757491552369645600,1.1606455078125,9.580023765563965,1.8003648519515991,-0.2520645558834076
1757491552379702800,1.170702880859375,9.545757293701172,1.9268085956573486,-0.19138649106025696
1757491552389721900,1.180721923828125,9.553089141845703,1.8072482347488403,0.08940847218036652
1757491552399787800,1.190787841796875,9.607033729553223,1.6476596593856812,0.46993690729141235
1757491552409828000,1.200828125,9.5763578414917,1.6601544618606567,0.6252607107162476
1757491552419844000,1.210843994140625,9.494057655334473,1.5542857646942139,0.8123077750205994
1757491552429909500,1.220909423828125,9.480889320373535,1.4700398445129395,0.947879433631897
1757491552439926800,1.2309267578125,9.597980499267578,1.4586673974990845,1.05105459690094
1757491552449965300,1.24096533203125,9.795053482055664,1.414599061012268,1.2145336866378784
1757491552460030500,1.251030517578125,9.984344482421875,1.3278840780258179,1.3550432920455933
1757491552470046000,1.2610458984375,10.192939758300781,1.0703577995300293,1.7115548849105835
1757491552480102000,1.271101806640625,10.172589302062988,0.9127894043922424,1.9444658756256104
1757491552490128600,1.281128662109375,10.187328338623047,0.9394997358322144,2.1057004928588867
1757491552500190700,1.291190673828125,10.053627014160156,1.011699914932251,2.5148844718933105
1757491552510233000,1.301233154296875,9.157896041870117,0.7824550271034241,3.0270938873291016
1757491552520248000,1.311248046875,8.296656608581543,0.7460182905197144,3.162067174911499
1757491552530293500,1.32129345703125,7.676857948303223,0.7420529127120972,3.437026262283325
1757491552540329500,1.33132958984375,7.057209014892578,0.2313397377729416,4.029516220092773
1757491552550392800,1.341392822265625,6.8867716789245605,0.3983353078365326,4.365527629852295
1757491552560436200,1.351436279296875,7.212008953094482,0.34925416111946106,4.794463634490967
1757491552570472200,1.36147216796875,6.003011703491211,0.28895020484924316,5.273453712463379
1757491552580514600,1.3715146484375,5.1595048904418945,0.6633434891700745,4.647444725036621
1757491552590531000,1.381531005859375,5.888090133666992,-0.11110592633485794,6.323760032653809
1757491552600580900,1.391580810546875,7.863007068634033,-0.0038157589733600616,5.771148204803467
1757491552610655700,1.40165576171875,9.131036758422852,-0.44105684757232666,4.7014641761779785
1757491552620702500,1.411702392578125,10.169745445251465,-0.4025251567363739,3.8114943504333496
1757491552630698800,1.42169873046875,10.372729301452637,-0.9871593117713928,3.1658079624176025
1757491552640757000,1.431757080078125,10.214337348937988,-1.1820622682571411,2.522067070007324
1757491552650795500,1.44179541015625,10.284442901611328,-1.3017723560333252,2.5602993965148926
1757491552660814800,1.45181494140625,9.694721221923828,-1.0633996725082397,2.5849149227142334
1757491552670877200,1.461877197265625,8.929998397827148,-1.242964744567871,2.9058876037597656
1757491552680918000,1.47191796875,7.411251544952393,-1.3169605731964111,3.593846321105957
1757491552690961400,1.48196142578125,6.235922813415527,-1.7904139757156372,4.318017482757568
1757491552701000000,1.492,5.914426326751709,-1.8063503503799438,4.78122091293335
1757491552711040800,1.502040771484375,6.076408863067627,-2.1453542709350586,5.203049182891846
1757491552721081300,1.512081298828125,7.551836013793945,-2.738293409347534,4.9093852043151855
1757491552731124700,1.522124755859375,7.566949367523193,-2.016890525817871,4.622979164123535
1757491552741205200,1.532205322265625,6.547692775726318,-1.2685527801513672,3.736600637435913
1757491552751200000,1.542199951171875,6.387804985046387,-1.8638112545013428,4.172494888305664
1757491552761245400,1.552245361328125,5.1967644691467285,-2.8452842235565186,4.523469924926758
1757491552771286000,1.5622861328125,5.645826816558838,-2.6565911769866943,3.8734443187713623
1757491552781301200,1.57230126953125,7.590816497802734,-2.0738275051116943,3.522244691848755
1757491552791367400,1.582367431640625,7.363217830657959,-2.4822633266448975,4.347570896148682
1757491552801390800,1.592390869140625,8.087912559509277,-3.1326632499694824,4.561777114868164
1757491552811443700,1.602443603515625,8.430882453918457,-3.5027170181274414,5.437157154083252
1757491552821484500,1.612484619140625,8.199991226196289,-4.237961292266846,6.934431076049805
1757491552831502800,1.6225029296875,8.523058891296387,-5.216142654418945,7.896526336669922
1757491552841580500,1.63258056640625,9.449689865112305,-6.134169101715088,7.58176326751709
1757491552851626800,1.642626708984375,9.879822731018066,-6.448258399963379,6.722020626068115
1757491552861650700,1.652650634765625,9.811662673950195,-6.199785232543945,5.442394733428955
1757491552871687000,1.66268701171875,9.752481460571289,-5.904026508331299,4.046125888824463
1757491552881706000,1.6727060546875,9.474529266357422,-5.730072975158691,3.213243246078491
1757491552891752000,1.682751953125,8.728212356567383,-5.568987846374512,3.2130186557769775
1757491552901838300,1.69283837890625,7.333888530731201,-5.596521377563477,5.1262102127075195
1757491552911852500,1.7028525390625,5.7579803466796875,-6.420875072479248,7.680449485778809
1757491552921893400,1.712893310546875,5.612682342529297,-7.128137111663818,9.549872398376465
1757491552931930600,1.7229306640625,6.082095146179199,-7.0546650886535645,10.260576248168945
1757491552941961200,1.732961181640625,5.32388162612915,-6.382567405700684,10.520421981811523
1757491552952016100,1.74301611328125,5.4275803565979,-6.2211833000183105,10.196455955505371
1757491552962051600,1.753051513671875,6.24355411529541,-6.687678813934326,10.373252868652344
1757491552972096300,1.76309619140625,6.689474582672119,-7.003039836883545,10.774805068969727
1757491552982115300,1.773115234375,6.307075500488281,-6.776638507843018,11.232770919799805
1757491552992152800,1.78315283203125,4.8602294921875,-6.339322566986084,12.336647987365723
1757491553002217200,1.79321728515625,3.2450411319732666,-6.3995513916015625,13.676652908325195
1757491553012232700,1.803232666015625,1.8516905307769775,-6.269815921783447,14.674436569213867
1757491553022298000,1.813298095703125,0.9683049321174622,-5.624204158782959,15.301043510437012
1757491553032316200,1.823316162109375,-0.1414075344800949,-4.267963886260986,15.172130584716797
1757491553042379000,1.83337890625,-0.4910358190536499,-3.6176388263702393,14.613683700561523
1757491553052417800,1.843417724609375,-0.5337573289871216,-3.5709519386291504,14.098705291748047
1757491553062456000,1.8534560546875,-0.5433341264724731,-3.5054852962493896,13.399897575378418
1757491553072496400,1.863496337890625,-1.0717045068740845,-3.377171039581299,12.698022842407227
1757491553082538800,1.873538818359375,-1.4436287879943848,-3.2784101963043213,12.133589744567871
1757491553092581600,1.88358154296875,-2.0014030933380127,-3.132887840270996,11.590629577636719
1757491553102622500,1.89362255859375,-2.466701030731201,-2.7899184226989746,11.382633209228516
1757491553112642600,1.903642578125,-2.6773908138275146,-2.791564464569092,11.044676780700684
1757491553122677500,1.913677490234375,-3.2561142444610596,-3.032106876373291,10.830994606018066
1757491553132744000,1.923743896484375,-4.400393009185791,-2.581622838973999,10.595913887023926
1757491553142784300,1.9337841796875,-5.425784587860107,-2.171915054321289,9.62491512298584
1757491553152824600,1.943824462890625,-5.67268705368042,-2.2515223026275635,8.123152732849121
1757491553162865200,1.953865234375,-5.8651957511901855,-2.631751298904419,6.306477069854736
1757491553172880400,1.96388037109375,-4.831424236297607,-3.4804210662841797,5.194594860076904
1757491553182946600,1.973946533203125,-3.4218380451202393,-5.194220542907715,4.34951639175415
1757491553192992000,1.983991943359375,-2.5931448936462402,-5.676652431488037,4.357970714569092
1757491553203027700,1.99402783203125,-2.8074259757995605,-6.4362874031066895,4.717774391174316
1757491553213067800,2.00406787109375,-2.4473979473114014,-6.447286128997803,5.159953594207764
1757491553223097900,2.014097900390625,-0.9969605803489685,-6.052392482757568,6.041318893432617
1757491553233148400,2.0241484375,-0.4652233123779297,-6.711919784545898,6.980669021606445
1757491553263245600,2.05424560546875,0.7457938194274902,-7.355287075042725,7.573383808135986
1757491553283342800,2.0743427734375,1.4889689683914185,-6.87869119644165,7.314211368560791
1757491553293377000,2.084376953125,1.5321394205093384,-6.543577671051025,7.390227317810059
1757491553303406000,2.094406005859375,1.717390775680542,-6.30909538269043,7.735815525054932
1757491553313465600,2.104465576171875,1.7498621940612793,-6.143970489501953,8.14604663848877
1757491553323479000,2.11447900390625,1.823409080505371,-6.128931999206543,8.477568626403809
1757491553353609500,2.144609375,1.1338040828704834,-5.337348937988281,8.963441848754883
1757491553383730200,2.174730224609375,0.7816320657730103,-5.099050998687744,8.437990188598633
1757491553403800000,2.194800048828125,1.213860273361206,-5.638943672180176,7.842881202697754
1757491553413840400,2.20484033203125,1.2636147737503052,-5.6886982917785645,7.7539963722229
1757491553423902000,2.21490185546875,1.1722609996795654,-5.670143127441406,7.88702392578125
1757491553433942300,2.2249423828125,0.8519617319107056,-5.292382717132568,8.124947547912598
1757491553443998700,2.234998779296875,0.41120412945747375,-4.808454990386963,8.183905601501465
1757491553454039800,2.245039794921875,-0.4150198996067047,-4.079794406890869,8.364518165588379
1757491553464080100,2.255080078125,0.09988310188055038,-3.61299991607666,8.478616714477539
1757491553474121200,2.265121337890625,1.0669161081314087,-3.9368157386779785,8.745195388793945
1757491553484161500,2.27516162109375,1.5061025619506836,-4.463465213775635,9.1214599609375
1757491553494201300,2.285201416015625,1.141286015510559,-6.13521671295166,9.252766609191895
1757491553504242700,2.29524267578125,1.0133458375930786,-5.844919681549072,8.502259254455566
1757491553514260200,2.30526025390625,0.8421604633331299,-4.990638732910156,7.93363618850708
1757491553524303600,2.3153037109375,-0.11896190047264099,-4.736703395843506,8.294262886047363
1757491553534364200,2.3253642578125,-0.054168812930583954,-4.512696266174316,8.627206802368164
1757491553544409600,2.33540966796875,0.13048399984836578,-4.7194952964782715,8.86475658416748
1757491553554440400,2.3454404296875,0.4422539472579956,-4.956446647644043,8.893935203552246
1757491553564481000,2.35548095703125,0.7279121279716492,-5.08880090713501,8.768838882446289
1757491553574524700,2.365524658203125,0.8092401623725891,-5.25759220123291,8.582389831542969
1757491553584574000,2.375573974609375,0.2866308391094208,-4.840477466583252,8.223709106445312
1757491553594607000,2.385607177734375,0.5479729175567627,-4.86142635345459,8.276082038879395
1757491553604647700,2.395647705078125,0.48796823620796204,-5.280636310577393,8.814104080200195
1757491553614687200,2.405687255859375,0.44674307107925415,-5.450100898742676,8.80355453491211
1757491553624729300,2.415729248046875,0.609548807144165,-5.2311811447143555,8.665887832641602
1757491553634764500,2.4257646484375,0.3494786322116852,-4.832695960998535,8.573112487792969
1757491553644808700,2.43580859375,0.04496610164642334,-4.474538326263428,8.412252426147461
1757491553654850600,2.4458505859375,0.3106476664543152,-4.233547210693359,8.388758659362793
1757491553664889900,2.455889892578125,0.7592611908912659,-4.098424434661865,8.395866394042969
1757491553674931500,2.465931396484375,0.5873275995254517,-4.042459964752197,8.224007606506348
1757491553684971300,2.47597119140625,0.30294132232666016,-3.7740848064422607,8.129287719726562
1757491553695012400,2.486012451171875,0.2646341025829315,-3.512967348098755,8.214730262756348
1757491553705049300,2.49604931640625,0.22744916379451752,-3.3489644527435303,8.39264965057373
1757491553715088400,2.50608837890625,0.3535936772823334,-3.265691041946411,8.65631103515625
1757491553725129700,2.516129638671875,0.9628431797027588,-3.131092071533203,8.80355453491211
1757491553735169500,2.52616943359375,1.826027750968933,-3.453336715698242,8.505027770996094
1757491553745210400,2.53621044921875,1.8253543376922607,-4.407052040100098,8.52260971069336
1757491553755251200,2.546251220703125,1.523909330368042,-4.9799394607543945,8.553509712219238
1757491553765292800,2.556292724609375,1.8272995948791504,-4.560205936431885,8.577601432800293
1757491553775336400,2.56633642578125,2.430638551712036,-3.023427724838257,8.64127254486084
1757491553785376500,2.57637646484375,3.6285622119903564,-2.45862078666687,8.270770072937012
1757491553795415300,2.586415283203125,1.281197190284729,-4.178555488586426,8.094646453857422
1757491553805453600,2.59645361328125,0.17148469388484955,-5.525967121124268,8.03112506866455
1757491553815493600,2.60649365234375,0.4406827390193939,-6.155343055725098,7.7439703941345215
1757491553825534700,2.61653466796875,0.22116437554359436,-6.860435485839844,7.6543378829956055
1757491553835579100,2.6265791015625,-0.10639233887195587,-7.69578742980957,7.656208038330078
1757491553845619000,2.636618896484375,-1.059509038925171,-8.29703140258789,7.5837836265563965
1757491553855660000,2.646659912109375,-2.3856723308563232,-8.310797691345215,7.855974197387695
1757491553865695700,2.65669580078125,-2.1862802505493164,-7.722273349761963,8.06546688079834
1757491553875714800,2.66671484375,-1.5039327144622803,-6.970119476318359,7.884779453277588
1757491553885777000,2.67677685546875,-1.1139771938323975,-6.0656352043151855,7.402198314666748
1757491553895822300,2.686822265625,-0.8025813102722168,-4.986149311065674,7.282712459564209
1757491553905862700,2.696862548828125,-0.6851157546043396,-3.8646156787872314,7.627327919006348
1757491553915902200,2.706902099609375,-0.5814917087554932,-2.5888803005218506,8.233285903930664
1757491553925943300,2.716943359375,0.007556699216365814,-1.1099369525909424,8.405144691467285
1757491553935979500,2.7269794921875,0.14567221701145172,-0.43118077516555786,8.252737998962402
1757491553946024000,2.73702392578125,0.010549451224505901,-0.5783493518829346,8.352621078491211
1757491553956061000,2.74706103515625,-1.7895160913467407,-2.6378116607666016,8.588150978088379
1757491553966104000,2.75710400390625,-1.9372084140777588,-5.647922039031982,8.121131896972656
1757491553976146200,2.767146240234375,-1.970876932144165,-8.447940826416016,7.647828578948975
1757491553986186500,2.7771865234375,-1.7020529508590698,-10.145953178405762,7.361945629119873
1757491553996226800,2.787226806640625,-1.693224310874939,-11.153613090515137,7.5902180671691895
1757491554006263600,2.797263671875,-1.4738556146621704,-10.991480827331543,7.8134026527404785
1757491554016303000,2.80730322265625,-1.0292823314666748,-10.262596130371094,8.079981803894043
1757491554026348500,2.8173486328125,-0.7912088632583618,-8.895730972290039,8.319551467895508
1757491554036390400,2.827390380859375,-0.9385270476341248,-7.579893112182617,8.097564697265625
1757491554046426000,2.837426025390625,-0.8157494068145752,-6.135441303253174,7.884779453277588
1757491554056466000,2.8474658203125,-0.5455787181854248,-4.892027378082275,7.712845802307129
1757491554066507000,2.857507080078125,-0.21532851457595825,-3.8995559215545654,7.5604400634765625
1757491554076546000,2.867546142578125,-0.16669629514217377,-3.871349334716797,7.389778137207031
1757491554086591500,2.877591552734375,-0.35905542969703674,-3.84157133102417,7.208342552185059
1757491554096631800,2.8876318359375,-0.14185644686222076,-4.505887508392334,7.229067802429199
1757491554106672400,2.89767236328125,-0.5746083855628967,-5.057900905609131,7.195174694061279
1757491554116712200,2.907712158203125,-0.6394014954566956,-5.830255031585693,7.178340435028076
1757491554126753500,2.91775341796875,-0.5930886268615723,-6.4817023277282715,7.055637359619141
1757491554136793900,2.9277939453125,-0.17889176309108734,-7.086388111114502,7.041272163391113
1757491554146830600,2.93783056640625,-0.4332756996154785,-7.879766941070557,7.250764846801758
1757491554156875300,2.947875244140625,-0.9362077116966248,-8.508020401000977,7.4421515464782715
1757491554166914600,2.95791455078125,-0.9139865040779114,-8.976161003112793,7.45801305770874
1757491554176955600,2.96795556640625,-0.5972784757614136,-9.096694946289062,7.350722789764404
1757491554186996200,2.977996337890625,-0.5754314064979553,-8.841262817382812,7.114893913269043
1757491554197037000,2.988037109375,-0.4531026780605316,-8.225653648376465,6.934655666351318
1757491554207073500,2.998073486328125,-0.456095427274704,-7.739780902862549,6.957026481628418
1757491554217117400,3.008117431640625,-0.46694415807724,-7.133449077606201,7.006556510925293
1757491554227158500,3.018158447265625,-0.44517189264297485,-6.196642875671387,7.06641149520874
1757491554237198600,3.028198486328125,-0.4287865459918976,-5.698200225830078,7.196147441864014
1757491554247239400,3.038239501953125,-0.41935938596725464,-5.260061264038086,6.965181827545166
1757491554257280000,3.048280029296875,-0.28378772735595703,-5.128305435180664,7.088333606719971
1757491554267319800,3.05831982421875,-0.2810194194316864,-5.052139759063721,7.137788772583008
1757491554277357000,3.068357177734375,-0.270993709564209,-5.179481506347656,7.049726963043213
1757491554287406800,3.07840673828125,-0.2644096612930298,-5.635202407836914,6.970269203186035
1757491554297438000,3.08843798828125,-0.5106383562088013,-6.122198104858398,7.000346660614014
1757491554307478500,3.098478515625,-0.5826888680458069,-6.516568183898926,7.148412704467773
1757491554317519000,3.10851904296875,-0.6946926116943359,-6.904054641723633,7.296703815460205
1757491554327573500,3.118573486328125,-0.5905448198318481,-7.16352653503418,7.350573539733887
1757491554337600000,3.12860009765625,-0.35591304302215576,-7.341071128845215,7.449708461761475
1757491554347644200,3.13864404296875,-0.41195231676101685,-7.36628532409668,7.505897045135498
1757491554357685500,3.148685546875,-0.6943933367729187,-7.271714210510254,7.524527072906494
1757491554367724500,3.158724609375,-0.336460143327713,-7.007604122161865,7.62373685836792
1757491554377762000,3.168761962890625,-0.5918167233467102,-6.7667622566223145,7.775693893432617
1757491554387806200,3.17880615234375,0.047061026096343994,-6.7923502922058105,7.7236199378967285
1757491554397843000,3.188843017578125,-0.40866029262542725,-6.752022743225098,7.6758856773376465
1757491554407887400,3.198887451171875,-0.2521393597126007,-6.5108819007873535,7.3820719718933105
1757491554417927200,3.20892724609375,-0.20852001011371613,-6.235548496246338,7.226224422454834
1757491554427968800,3.21896875,-0.4356698989868164,-6.022614479064941,7.212008953094482
1757491554438008800,3.2290087890625,-0.488491952419281,-5.837961673736572,7.308899402618408
1757491554448045300,3.23904541015625,-0.34326866269111633,-5.672911167144775,7.462128162384033
1757491554458090200,3.24909033203125,0.013916297815740108,-5.638344764709473,7.619397163391113
1757491554468125700,3.259125732421875,0.16557401418685913,-5.788356781005859,7.702371120452881
1757491554478144800,3.269144775390625,0.0463128387928009,-6.0481276512146,7.62837553024292
1757491554488185600,3.279185546875,-0.23523031175136566,-6.28208589553833,7.447912693023682
1757491554498226200,3.28922607421875,-0.4578910768032074,-6.466738700866699,7.416713237762451
1757491554508266200,3.299266357421875,-0.5509656667709351,-6.52913761138916,7.504999160766602
1757491554518332400,3.30933251953125,-0.47061026096343994,-6.500107765197754,7.6659345626831055
1757491554528369400,3.319369384765625,-0.26164135336875916,-6.518887519836426,7.779359817504883
1757491554538412800,3.329412841796875,0.1355716735124588,-6.595128059387207,7.871312141418457
1757491554548450800,3.339450927734375,-0.16101007163524628,-6.529661178588867,8.000823974609375
1757491554558491600,3.34949169921875,-0.42953476309776306,-6.2308349609375,8.01960277557373
1757491554568533000,3.359532958984375,-0.3395277261734009,-5.7713727951049805,8.03658676147461
1757491554578576000,3.369575927734375,-0.1670703887939453,-5.534870624542236,7.971718788146973
1757491554588616700,3.37961669921875,-0.4273650050163269,-5.517138481140137,7.835847854614258
1757491554598653200,3.389653076171875,-0.5336825251579285,-6.055385112762451,7.560589790344238
1757491554608693200,3.399693359375,-0.7122750282287598,-6.491055011749268,7.329399585723877
1757491554618737400,3.4097373046875,-0.3463362455368042,-7.083545207977295,7.0290021896362305
1757491554628778200,3.4197783203125,-0.21802198886871338,-7.257498741149902,6.885200500488281
1757491554638818800,3.42981884765625,0.49387893080711365,-7.896152019500732,6.647276401519775
1757491554648859400,3.439859375,-0.03321954980492592,-8.438288688659668,6.560187339782715
1757491554658896000,3.449895751953125,0.0388309583067894,-8.928726196289062,6.4742207527160645
1757491554668939800,3.459939697265625,-0.050876785069704056,-9.19972038269043,6.247295379638672
1757491554678977000,3.46997705078125,0.08813655376434326,-9.343147277832031,6.228964805603027
1757491554689021400,3.480021484375,0.3933972716331482,-9.86889934539795,6.466215133666992
1757491554699062300,3.490062255859375,-0.06239888072013855,-8.923788070678711,5.980640888214111
1757491554709102800,3.500102783203125,-0.26575639843940735,-7.9590744972229,5.315127849578857
1757491554719138300,3.51013818359375,0.1645265519618988,-8.14028549194336,4.870329856872559
1757491554729183500,3.52018359375,0.3042880594730377,-8.527697563171387,4.4589762687683105
1757491554739224000,3.53022412109375,0.0653168186545372,-8.430357933044434,4.14451265335083
1757491554749260000,3.540260009765625,0.2166004329919815,-7.935581684112549,3.76293683052063
1757491554759305000,3.550304931640625,-0.3495534360408783,-7.816769123077393,3.798550605773926
1757491554769344800,3.5603447265625,-0.3487304449081421,-7.733346462249756,4.075978755950928
1757491554779387100,3.57038720703125,-0.503829836845398,-7.669526100158691,4.513893127441406
1757491554789422300,3.58042236328125,-0.5369745492935181,-7.728632926940918,4.93848991394043
1757491554799463200,3.590463134765625,-0.4415057599544525,-7.844377517700195,5.128155708312988
1757491554809503200,3.600503173828125,-0.7774421572685242,-8.134899139404297,5.310339450836182
1757491554819543300,3.610543212890625,-1.0340707302093506,-8.253486633300781,5.463493347167969
1757491554829588200,3.620588134765625,-0.9802011251449585,-8.144625663757324,5.910236358642578
1757491554839628800,3.63062890625,-0.7425017952919006,-7.959373950958252,6.289866924285889
1757491554849665300,3.640665283203125,-0.18989011645317078,-8.13138198852539,6.147711277008057
1757491554859709700,3.650709716796875,-0.21510405838489532,-8.220865249633789,5.636549472808838
1757491554869750000,3.66075,-0.6305728554725647,-8.131457328796387,4.804938316345215
1757491554879791400,3.670791259765625,-0.9412953853607178,-7.815946102142334,4.58773946762085
1757491554889827800,3.680827880859375,-0.2950105369091034,-7.719804286956787,4.2643723487854
1757491554899872000,3.6908720703125,0.10729016363620758,-7.5044755935668945,4.565892219543457
1757491554909912600,3.70091259765625,0.6607996821403503,-7.292364120483398,4.725854873657227
1757491554919948300,3.7109482421875,0.28805238008499146,-7.11653995513916,4.774113178253174
1757491554929993500,3.720993408203125,-1.7696892023086548,-6.991443157196045,4.706925868988037
1757491554940034000,3.731033935546875,0.6070049405097961,-7.11653995513916,4.936095714569092
1757491554950075000,3.741074951171875,0.5360767245292664,-7.662118911743164,5.204844951629639
1757491554960115000,3.751114990234375,1.1249006986618042,-8.163554191589355,5.7667341232299805
1757491554970155000,3.761155029296875,1.235408067703247,-8.499714851379395,6.119579315185547
1757491554980192000,3.77119189453125,-0.18884265422821045,-8.730306625366211,6.073341369628906
1757491554990236700,3.781236572265625,-1.0562918186187744,-8.201337814331055,6.820781230926514
1757491555000276700,3.79127685546875,2.247781276702881,-7.591041088104248,8.289175033569336
1757491555010317800,3.80131787109375,2.694075345993042,-7.662193775177002,9.557503700256348
1757491555020357400,3.811357421875,-0.41359832882881165,-7.705663204193115,10.325818061828613
1757491555030373400,3.821373291015625,-2.488473415374756,-6.844872951507568,9.17892074584961
1757491555040435000,3.83143505859375,-1.342399001121521,-6.0546369552612305,7.65149450302124
1757491555050476500,3.8414765625,0.16991350054740906,-6.4858174324035645,6.984035968780518
1757491555060517600,3.851517578125,-0.09292495250701904,-7.02825403213501,6.629619121551514
1757491555070558200,3.86155810546875,-0.23096564412117004,-7.409754753112793,6.306701183319092
1757491555080613400,3.87161328125,0.03419219329953194,-7.574206829071045,6.1611785888671875
1757491555090641000,3.881640869140625,0.2721159756183624,-7.192930221557617,5.7521443367004395
1757491555100683000,3.89168310546875,0.48624739050865173,-6.950442314147949,6.169259071350098
1757491555110720500,3.901720458984375,0.18487726151943207,-6.80551815032959,6.6513166427612305
1757491555120760000,3.911760009765625,-0.3751414716243744,-6.723217487335205,6.834622859954834
1757491555130777300,3.92177734375,-0.8459762334823608,-6.939892768859863,6.837765216827393
1757491555140839700,3.931839599609375,-1.1293150186538696,-7.31346321105957,6.645630359649658
1757491555150880500,3.941880615234375,-0.7174375057220459,-7.645060062408447,6.198812484741211
1757491555160924700,3.951924560546875,0.6215946078300476,-8.011897087097168,5.872677326202393
1757491555170965000,3.961965087890625,1.2387748956680298,-8.412700653076172,5.6081929206848145
1757491555181004000,3.972004150390625,0.6778583526611328,-8.727389335632324,4.918962001800537
1757491555191044400,3.98204443359375,0.4530278444290161,-8.28895092010498,4.421716213226318
1757491555201084400,3.99208447265625,1.7295862436294556,-3.395726203918457,3.522693634033203
1757491555211201300,4.002201171875,-0.6520458459854126,-4.04889440536499,4.475660800933838
1757491555221202400,4.012202392578125,-0.6720224618911743,-3.8424692153930664,4.271854400634766
1757491555231217700,4.0222177734375,-0.46260467171669006,-3.6563949584960938,4.254271984100342
1757491555241245400,4.032245361328125,-0.09457096457481384,-4.073285102844238,4.671012878417969
1757491555251290400,4.042290283203125,-0.39796119928359985,-5.776535511016846,5.1274824142456055
1757491555261326300,4.052326416015625,-0.5539584159851074,-7.993566036224365,5.6204633712768555
1757491555271371500,4.06237158203125,-0.19191023707389832,-9.712004661560059,6.085761547088623
1757491555281410000,4.07241015625,0.12853869795799255,-10.405499458312988,6.436437129974365
1757491555291448000,4.082447998046875,-0.009352350607514381,-10.421062469482422,6.732944011688232
1757491555301488400,4.09248828125,-0.281842440366745,-9.59715747833252,6.812476634979248
1757491555311531800,4.10253173828125,-0.5820154547691345,-8.369754791259766,6.655057907104492
1757491555321581800,4.112581787109375,-1.2961609363555908,-6.682590961456299,6.860659599304199
1757491555331614000,4.122614013671875,-0.7802104949951172,-6.438681602478027,6.145167350769043
1757491555341654500,4.132654541015625,-0.21061493456363678,-6.7177557945251465,5.160926342010498
1757491555351691000,4.14269091796875,0.1586906760931015,-7.697657585144043,4.5154643058776855
1757491555361731600,4.152731689453125,0.5602431893348694,-8.958504676818848,4.147131443023682
1757491555371775500,4.162775390625,0.41195231676101685,-9.041478157043457,3.555389642715454
1757491555381816600,4.172816650390625,0.24899697303771973,-8.989105224609375,3.137601375579834
1757491555391857200,4.182857177734375,0.09083002805709839,-9.233986854553223,3.2142906188964844
1757491555401897500,4.1928974609375,-0.04481646418571472,-9.363423347473145,3.604246139526367
1757491555411938300,4.202938232421875,0.0012719196965917945,-9.336338996887207,3.9204304218292236
1757491555421974500,4.212974609375,0.17410334944725037,-9.139117240905762,4.0772504806518555
1757491555431993600,4.22299365234375,0.4528034031391144,-9.332972526550293,4.053159236907959
1757491555442059300,4.233059326171875,0.28573301434516907,-9.325265884399414,3.994351387023926
1757491555452099600,4.243099609375,0.16340427100658417,-9.312995910644531,3.7014358043670654
1757491555462140400,4.253140380859375,0.309151291847229,-9.372177124023438,3.3077392578125
1757491555472180700,4.2631806640625,0.19026421010494232,-8.757017135620117,3.0428059101104736
1757491555482222000,4.27322216796875,0.20388123393058777,-8.471658706665039,2.7940332889556885
1757491555492258800,4.2832587890625,0.06658873707056046,-8.767117500305176,2.693626642227173
1757491555502303000,4.293302978515625,0.18412907421588898,-9.26758098602295,2.696918487548828
1757491555512344000,4.303343994140625,0.27802667021751404,-9.72966194152832,2.6646716594696045
1757491555522383000,4.313383056640625,0.1289127916097641,-9.88962459564209,2.94352126121521
1757491555532422000,4.323421875,0.304063618183136,-9.956811904907227,2.964994430541992
1757491555542461200,4.333461181640625,0.35426703095436096,-10.239701271057129,2.9293806552886963
1757491555552502000,4.343501953125,0.36728549003601074,-10.178050994873047,2.767472743988037
1757491555562542000,4.3535419921875,0.5351040959358215,-9.78757095336914,2.4590694904327393
1757491555572586000,4.3635859375,0.7154921889305115,-9.481562614440918,2.086771249771118
1757491555582626300,4.373626220703125,0.7893383502960205,-9.615787506103516,1.666663646697998
1757491555592667400,4.38366748046875,0.632293701171875,-9.434127807617188,1.2140098810195923
1757491555602707700,4.393707763671875,0.48325464129447937,-9.763554573059082,1.2387748956680298
1757491555612748500,4.40374853515625,0.4610334634780884,-10.335843086242676,1.3185317516326904
1757491555622788900,4.413788818359375,0.49073654413223267,-10.725125312805176,1.31815767288208
1757491555632825900,4.423825927734375,0.5680992007255554,-11.057994842529297,1.241618037223816
1757491555642870300,4.433870361328125,0.5422866940498352,-11.209203720092773,1.1547534465789795
1757491555652910600,4.44391064453125,0.6384288668632507,-10.946065902709961,1.0295815467834473
1757491555662951200,4.453951171875,0.4795885384082794,-10.93454360961914,0.9242366552352905
1757491555672991200,4.4639912109375,0.5553799867630005,-10.741735458374023,0.7521534562110901
1757491555683028000,4.474028076171875,0.7273135781288147,-10.597933769226074,0.5959317684173584
1757491555693072600,4.48407275390625,0.7335235476493835,-10.46243667602539,0.4810849130153656
1757491555703113500,4.494113525390625,0.6972364187240601,-10.534637451171875,0.35426703095436096
1757491555713153500,4.504153564453125,0.7992892861366272,-10.641852378845215,0.2743605375289917
1757491555723193900,4.51419384765625,0.6673089265823364,-10.812214851379395,0.2356044054031372
1757491555733234400,4.524234375,0.571391224861145,-11.007118225097656,0.32187050580978394
1757491555743275500,4.534275634765625,0.5921159982681274,-11.33041000366211,0.5033808946609497
1757491555753312000,4.54431201171875,0.41861119866371155,-11.969062805175781,0.7695862054824829
1757491555763357200,4.554357177734375,0.2944868206977844,-11.4972562789917,0.5262754559516907
1757491555773401600,4.564401611328125,0.43103113770484924,-10.52670669555664,0.2696469724178314
1757491555783433700,4.574433837890625,0.47233110666275024,-10.242020606994629,0.152031809091568
1757491555793474300,4.584474365234375,0.47412675619125366,-10.015918731689453,0.06763619929552078
1757491555803516400,4.594516357421875,0.5108627676963806,-8.737040519714355,0.034341830760240555
1757491555813556500,4.604556396484375,0.5918167233467102,-9.020828247070312,0.4329764246940613
1757491555823599000,4.61459912109375,0.5464017391204834,-9.854084968566895,0.6542904376983643
1757491555833640000,4.624639892578125,0.5371242165565491,-10.026617050170898,0.5350292325019836
1757491555843680800,4.6346806640625,0.5033060908317566,-9.781511306762695,0.4688146114349365
1757491555853721000,4.64472119140625,0.6759130954742432,-9.82303524017334,0.363918662071228
1757491555863757800,4.6547578125,0.5142296552658081,-9.775674819946289,-0.0049380408599972725
1757491555873801700,4.6648017578125,0.3735702931880951,-9.793557167053223,-0.46499887108802795
1757491555883843000,4.674843017578125,0.5411643981933594,-9.670629501342773,-0.9876081943511963
1757491555893883100,4.684883056640625,0.5234323740005493,-9.521739959716797,-1.163133144378662
1757491555903923700,4.694923828125,0.4355202615261078,-9.582717895507812,-0.8672247529029846
1757491555913964500,4.704964599609375,0.7475146651268005,-9.705121040344238,-0.3312976658344269
1757491555924004400,4.71500439453125,0.877923846244812,-9.447669982910156,-0.021098902449011803
1757491555934041000,4.725041015625,0.6762871742248535,-9.543662071228027,0.12838906049728394
1757491555944086500,4.73508642578125,0.46589669585227966,-9.982698440551758,0.12165537476539612
1757491555954126300,4.745126220703125,0.32845455408096313,-9.913267135620117,-0.12187983095645905
1757491555964167000,4.7551669921875,0.33039984107017517,-9.928081512451172,-0.2759317457675934
1757491555974206700,4.765206787109375,0.4430769383907318,-10.050559043884277,-0.4025999903678894
1757491555984248600,4.77524853515625,0.1794154942035675,-10.291924476623535,-0.5413888692855835
1757491555994289200,4.7852890625,-0.0586579404771328,-10.52094554901123,-0.5263502597808838
1757491556004325400,4.795325439453125,0.5178957581520081,-9.968034744262695,-0.21622633934020996
1757491556014370300,4.805370361328125,0.4596118927001953,-9.660529136657715,-0.08858546614646912
1757491556024407600,4.815407470703125,0.5440823435783386,-9.637410163879395,-0.2141314148902893
1757491556034446600,4.825446533203125,0.5714660286903381,-9.638382911682129,-0.2668038606643677
1757491556044487400,4.8354873046875,0.521561861038208,-9.583465576171875,-0.23754970729351044
1757491556054529800,4.84552978515625,0.5770025849342346,-9.657910346984863,-0.41606736183166504
1757491556064575000,4.855574951171875,0.3612251877784729,-9.457246780395508,-0.11896190047264099
1757491556074612500,4.865612548828125,0.35987845063209534,-9.719037055969238,0.17993922531604767
1757491556084653800,4.87565380859375,0.5403413772583008,-9.84495735168457,-0.01743278093636036
1757491556094689800,4.885689697265625,0.6741922497749329,-9.952471733093262,-0.2968061864376068
1757491556104734700,4.895734619140625,0.5509656667709351,-9.746047019958496,-0.22685061395168304
1757491556114775300,4.905775390625,0.5351040959358215,-9.706916809082031,0.07900865375995636
1757491556124814800,4.91581494140625,0.869020402431488,-9.555782318115234,0.3445405960083008
1757491556134856000,4.92585595703125,0.5951087474822998,-9.431209564208984,0.337133526802063
1757491556144896800,4.935896728515625,1.1954548358917236,-8.891242027282715,0.1124526634812355
1757491556154937600,4.9459375,0.8188169598579407,-9.296834945678711,-0.09853636473417282
1757491556164974000,4.95597412109375,0.6839935183525085,-8.917802810668945,-0.16579847037792206
1757491556175018200,4.966018310546875,0.8500912189483643,-8.549394607543945,-0.10803835093975067
1757491556185064400,4.976064453125,1.0408791303634644,-7.737685680389404,-0.3635445535182953
1757491556195094800,4.9860947265625,0.6771101951599121,-7.726163864135742,-0.9059808850288391
1757491556205136000,4.996135986328125,0.5342062711715698,-8.158466339111328,-0.6015431880950928
1757491556215176400,5.006176513671875,0.372822105884552,-8.359654426574707,-0.44105684757232666
1757491556235257600,5.026257568359375,0.2454804927110672,-8.832060813903809,0.5015104413032532
1757491556245300200,5.03630029296875,0.7054665088653564,-8.624512672424316,-0.07923310995101929
1757491556255339000,5.046339111328125,0.7127987146377563,-8.960075378417969,-0.5719149112701416
1757491556265383700,5.0563837890625,0.6912509202957153,-9.440786361694336,-0.9163807034492493
1757491556275421000,5.0664208984375,0.6002712845802307,-9.770587921142578,-1.0804582834243774
1757491556285460500,5.07646044921875,0.5538836121559143,-10.029311180114746,-1.1475708484649658
1757491556295501000,5.0865009765625,0.6646154522895813,-10.132560729980469,-1.0640729665756226
1757491556305541400,5.096541259765625,0.6930465698242188,-10.19720458984375,-1.0372130870819092
1757491556315581700,5.106581787109375,0.5689970254898071,-10.489446640014648,-1.0540473461151123
1757491556325625600,5.11662548828125,0.37237319350242615,-10.761412620544434,-1.0418518781661987
1757491556335666700,5.126666748046875,0.41449618339538574,-10.638336181640625,-1.0782138109207153
1757491556345707000,5.13670703125,0.5900210738182068,-10.54877758026123,-1.1392658948898315
1757491556355748600,5.14674853515625,0.6865373253822327,-10.585813522338867,-1.1555016040802002
1757491556365787100,5.156787109375,0.7156418561935425,-10.729914665222168,-1.250895619392395
1757491556375824400,5.166824462890625,0.5774515271186829,-10.932149887084961,-1.3626000881195068
1757491556385865700,5.17686572265625,0.8949825167655945,-11.488651275634766,-0.9370306730270386
1757491556395909600,5.18690966796875,1.2713959217071533,-15.98137092590332,-2.1419875621795654
1757491556405950500,5.196950439453125,-0.29553428292274475,-10.252120971679688,-2.9863924980163574
1757491556415991000,5.206990966796875,0.4100818634033203,-8.207996368408203,-1.6931495666503906
1757491556426030800,5.21703076171875,0.34102410078048706,-9.327510833740234,-0.28154316544532776
1757491556436072200,5.227072265625,0.49709612131118774,-9.676240921020508,0.1867477297782898
1757491556446109000,5.23710888671875,0.5512649416923523,-9.152509689331055,-0.48056116700172424
1757491556456153300,5.2471533203125,0.7974188327789307,-9.597007751464844,-1.2317419052124023
1757491556466193700,5.257193603515625,0.6719476580619812,-10.510320663452148,-1.4651765823364258
1757491556476233700,5.267233642578125,0.5336077213287354,-10.417545318603516,-1.6095020771026611
1757491556486274800,5.27727490234375,0.5199906826019287,-9.6733980178833,-1.409960389137268
1757491556496315600,5.287315673828125,0.6671592593193054,-9.776872634887695,-1.0354174375534058
1757491556506356000,5.29735595703125,0.6242132782936096,-9.57860279083252,-0.7928548455238342
1757491556516393000,5.30739306640625,0.6386532783508301,-9.624317169189453,-1.2216414213180542
1757491556526432300,5.317432373046875,0.628477931022644,-9.782857894897461,-1.2644377946853638
1757491556536473900,5.327473876953125,0.4537012279033661,-10.031704902648926,-1.123254656791687
1757491556546515500,5.337515380859375,0.5186439156532288,-9.892093658447266,-1.1178677082061768
1757491556556556300,5.347556396484375,0.7190834879875183,-9.75973892211914,-1.1070938110351562
1757491556566598100,5.35759814453125,0.6795791983604431,-9.735198020935059,-1.224933385848999
1757491556576635100,5.36763525390625,0.6020669341087341,-9.728015899658203,-1.2101941108703613
1757491556586680300,5.377680419921875,0.5545569658279419,-9.707963943481445,-1.1513866186141968
1757491556596720400,5.387720458984375,0.6332663297653198,-9.348235130310059,-1.230470061302185
1757491556606757000,5.397757080078125,0.7478887438774109,-9.620426177978516,-1.2757353782653809
1757491556616801800,5.4078017578125,0.6047604084014893,-9.391929626464844,-1.0862194299697876
1757491556626841600,5.417841552734375,0.5163245797157288,-9.528697967529297,-0.9148843288421631
1757491556636878800,5.42787890625,0.5591957569122314,-9.602768898010254,-0.9513959288597107
1757491556646923300,5.43792333984375,0.5752069354057312,-9.715520858764648,-1.1014076471328735
1757491556656964000,5.447964111328125,0.781033456325531,-10.166752815246582,-1.1698668003082275
1757491556667004400,5.45800439453125,0.5702689290046692,-10.378939628601074,-1.1822118759155273
1757491556677040000,5.4680400390625,0.5964555144309998,-10.345195770263672,-1.260846495628357
1757491556687085600,5.47808544921875,0.5618143677711487,-10.276362419128418,-1.4046481847763062
1757491556697126000,5.4881259765625,0.734122097492218,-9.925387382507324,-1.2002432346343994
1757491556707163000,5.498162841796875,0.6465840935707092,-9.740435600280762,-1.1508628129959106
1757491556717207000,5.50820703125,0.6524199843406677,-9.716194152832031,-1.211540937423706
1757491556727247000,5.5182470703125,0.5887491703033447,-9.792284965515137,-1.2618939876556396
1757491556737288200,5.5282880859375,0.6854898929595947,-9.807024002075195,-1.2003928422927856
1757491556747328800,5.538328857421875,0.5545569658279419,-9.817124366760254,-1.0470890998840332
1757491556757370000,5.5483701171875,0.4231751561164856,-10.105252265930176,-1.1916390657424927
1757491556767405600,5.558405517578125,0.6088005900382996,-9.991527557373047,-1.052101969718933
1757491556777445600,5.568445556640625,0.5902455449104309,-9.845930099487305,-1.037886381149292
1757491556787487000,5.578487060546875,0.6622212529182434,-9.714548110961914,-1.060032844543457
1757491556797529000,5.588529052734375,0.684442400932312,-9.601122856140137,-1.109562873840332
1757491556807573500,5.598573486328125,0.6691045761108398,-9.542389869689941,-1.1388918161392212
1757491556817612300,5.6086123046875,0.6762123703956604,-9.565284729003906,-1.10926353931427
1757491556827652400,5.61865234375,0.6198737621307373,-9.684844970703125,-1.0584616661071777
1757491556837689600,5.628689697265625,0.6137386560440063,-9.753005027770996,-1.0266636610031128
1757491556847734300,5.638734375,0.5802198052406311,-9.770886421203613,-1.0326491594314575
1757491556857774600,5.648774658203125,0.6014683842658997,-9.805377960205078,-1.068711757659912
1757491556867815200,5.658815185546875,0.6360346674919128,-9.81727409362793,-1.0809072256088257
1757491556877855200,5.668855224609375,0.6943184733390808,-9.777770042419434,-1.0892869234085083
1757491556887896000,5.67889599609375,0.7159411311149597,-9.740884780883789,-1.0819547176361084
1757491556897932800,5.688932861328125,0.6969371438026428,-9.744550704956055,-1.0496330261230469
1757491556907973400,5.698973388671875,0.6527940630912781,-9.758990287780762,-1.0185083150863647
1757491556918017800,5.709017822265625,0.6635679602622986,-9.754277229309082,-1.0006266832351685
1757491556928057600,5.7190576171875,0.6753893494606018,-9.773355484008789,-1.0079588890075684
1757491556938099000,5.729098876953125,0.6896049380302429,-9.798270225524902,-1.0452187061309814
1757491556948139300,5.73913916015625,0.7002291679382324,-9.794529914855957,-1.081056833267212
1757491556958176300,5.74917626953125,0.6553378701210022,-9.78869342803955,-1.0772411823272705
1757491556968220700,5.759220703125,0.6161328554153442,-9.767220497131348,-1.066167950630188
1757491556978256600,5.769256591796875,0.5946598649024963,-9.790040016174316,-1.026888132095337
1757491556988301800,5.7793017578125,0.6078279614448547,-9.7698392868042,-1.0112509727478027
1757491556998342700,5.7893427734375,0.661547839641571,-9.779565811157227,-0.9936684966087341
1757491557008383200,5.79938330078125,0.6842179298400879,-9.784354209899902,-0.9986065626144409
1757491557018421500,5.80942138671875,0.683020830154419,-9.780912399291992,-0.9782558679580688
1757491557028459300,5.819459228515625,0.6447136402130127,-9.816676139831543,-0.978330671787262
1757491557038501000,5.829501220703125,0.6094739437103271,-9.81151294708252,-0.974514901638031
1757491557048541000,5.839541015625,0.6142624020576477,-9.808072090148926,-0.9613468050956726
1757491557058585300,5.84958544921875,0.5868787169456482,-9.793706893920898,-0.9504232406616211
1757491557068626000,5.8596259765625,0.6084265112876892,-9.783082008361816,-0.9421183466911316
1757491557078665700,5.869665771484375,0.6001216173171997,-9.777022361755371,-0.949151337146759
1757491557088703000,5.879702880859375,0.6454617977142334,-9.768792152404785,-0.9433903098106384
1757491557098747600,5.88974755859375,0.6417956948280334,-9.788918495178223,-0.9649381041526794
1757491557108788200,5.899788330078125,0.7083844542503357,-9.825953483581543,-0.9882067441940308
1757491557118824400,5.909824462890625,0.6798784732818604,-9.779191970825195,-1.0223240852355957
1757491557128861700,5.91986181640625,0.547075092792511,-9.629179954528809,-0.8930372595787048
1757491557138909700,5.92990966796875,0.521561861038208,-9.829170227050781,-0.7582137584686279
1757491557148950500,5.939950439453125,0.5550059080123901,-9.81488037109375,-0.758288562297821
1757491557158986800,5.94998681640625,0.6661118268966675,-9.743128776550293,-0.8108113408088684
1757491557169031700,5.96003173828125,0.6911761164665222,-9.7227783203125,-0.8418611884117126
1757491557179076600,5.97007666015625,0.7256675958633423,-9.752555847167969,-0.8565256595611572
1757491557189112600,5.980112548828125,0.6224924325942993,-9.57328987121582,-0.8643816113471985
1757491557199153000,5.99015283203125,0.6320692300796509,-9.633668899536133,-0.7324012517929077
1757491557209193000,6.00019287109375,0.6211457252502441,-9.68619155883789,-0.731503427028656
1757491557219230700,6.010230712890625,0.6399252414703369,-9.733627319335938,-0.7962965369224548
1757491557229291500,6.02029150390625,0.6894552707672119,-9.833510398864746,-0.8998457193374634
1757491557239315500,6.0303154296875,0.6275801062583923,-10.052579879760742,-1.0179846286773682
1757491557249355800,6.040355712890625,0.6542904376983643,-9.964517593383789,-0.9662100076675415
1757491557259401200,6.050401123046875,0.6067056655883789,-9.9563627243042,-0.9050830602645874
1757491557269433000,6.06043310546875,0.5579986572265625,-9.942296981811523,-0.8390928506851196
1757491557279497700,6.070497802734375,0.5972036719322205,-9.828123092651367,-0.7944260239601135
1757491557289516000,6.08051611328125,0.6943933367729187,-9.677886962890625,-0.7819313406944275
1757491557299556000,6.09055615234375,0.4911854565143585,-9.798195838928223,-0.791358470916748
1757491557309599000,6.100598876953125,0.5938368439674377,-9.744400978088379,-0.8284686207771301
1757491557319639600,6.1106396484375,0.6965630650520325,-9.677437782287598,-0.8857797980308533
1757491557329653500,6.120653564453125,0.6567594408988953,-9.236381530761719,-0.721477746963501
1757491557339720700,6.130720703125,0.4314052164554596,-9.420435905456543,-0.3577835261821747
1757491557349757200,6.140757080078125,0.4827309250831604,-9.81151294708252,-0.25318682193756104
1757491557359801900,6.1508017578125,0.6193500757217407,-9.80919361114502,-0.5175216794013977
1757491557369842400,6.160842529296875,0.6810755729675293,-9.765275001525879,-0.7407061457633972
1757491557379858000,6.17085791015625,0.627206027507782,-9.738265991210938,-0.871489405632019
1757491557389923300,6.18092333984375,0.5891232490539551,-9.712004661560059,-0.8592191338539124
1757491557399964000,6.1909638671875,0.5464017391204834,-9.677513122558594,-0.823006808757782
1757491557410000100,6.201000244140625,0.5751321315765381,-9.682600975036621,-0.7671172022819519
1757491557420041000,6.211041015625,0.5439326763153076,-9.770063400268555,-0.694767415523529
1757491557430059300,6.221059326171875,0.5748328566551208,-9.807024002075195,-0.7106289863586426
1757491557440126000,6.2311259765625,0.5236567854881287,-9.753154754638672,-0.7196072340011597
1757491557450166500,6.24116650390625,0.531737208366394,-9.837924003601074,-0.7285854816436768
1757491557460207000,6.25120703125,0.5428104400634766,-10.007015228271484,-0.8263736963272095
1757491557470247700,6.26124755859375,0.47667059302330017,-10.189871788024902,-0.7772177457809448
1757491557480269300,6.271269287109375,0.4721066355705261,-9.790938377380371,-0.7959972620010376
1757491557490329000,6.2813291015625,0.6086509823799133,-9.578153610229492,-0.8858546018600464
1757491557500369400,6.291369384765625,0.6469581723213196,-9.543587684631348,-0.8941594958305359
1757491557510409200,6.3014091796875,0.5321861505508423,-9.67766284942627,-0.7871686220169067
1757491557520446700,6.31144677734375,0.5247790813446045,-9.787945747375488,-0.6935703158378601
1757491557530505200,6.321505126953125,0.5057002902030945,-9.805901527404785,-0.6732944250106812
1757491557540529400,6.331529296875,0.48078563809394836,-9.779640197753906,-0.6646902561187744
1757491557550569000,6.34156884765625,0.4605097472667694,-9.785626411437988,-0.651522159576416
1757491557560610000,6.351610107421875,0.5034556984901428,-9.756970405578613,-0.6765864491462708
1757491557570652700,6.361652587890625,0.5487959384918213,-9.744924545288086,-0.7101052403450012
1757491557580691500,6.37169140625,0.6082768440246582,-9.74709415435791,-0.7665186524391174
1757491557590731500,6.3817314453125,0.6177040338516235,-9.769615173339844,-0.7989152073860168
1757491557600771300,6.391771240234375,0.6025906205177307,-9.800439834594727,-0.7930045127868652
1757491557610810600,6.401810546875,0.5440823435783386,-9.808670043945312,-0.8011597394943237
1757491557620851000,6.411850830078125,0.4677671492099762,-9.824307441711426,-0.7520037889480591
1757491557630891500,6.4218916015625,0.4630535840988159,-9.834033966064453,-0.7090578079223633
1757491557640935400,6.431935302734375,0.48490065336227417,-9.7675199508667,-0.6430675983428955
1757491557650975700,6.441975830078125,0.4776432514190674,-9.779266357421875,-0.6777087450027466
1757491557661016300,6.452016357421875,0.4885667860507965,-9.785776138305664,-0.5776011347770691
1757491557671032300,6.4620322265625,0.43589434027671814,-9.79984188079834,-0.612017810344696
1757491557681073700,6.47207373046875,0.6189759373664856,-9.77133560180664,-0.6902782917022705
1757491557691113500,6.482113525390625,0.5437830686569214,-9.760336875915527,-0.7149685025215149
1757491557701153800,6.49215380859375,0.5389946699142456,-9.789142608642578,-0.6805518269538879
1757491557711219000,6.502218994140625,0.5568763613700867,-9.799991607666016,-0.6723217368125916
1757491557721257700,6.5122578125,0.5223100781440735,-9.798869132995605,-0.6447136402130127
1757491557731297000,6.522297119140625,0.49485155940055847,-9.796324729919434,-0.6636427640914917
1757491557741342500,6.532342529296875,0.494926393032074,-9.773580551147461,-0.6706757545471191
1757491557751382800,6.5423828125,0.5188683867454529,-9.759439468383789,-0.6480056643486023
1757491557761421000,6.552421142578125,0.5511901378631592,-9.752406120300293,-0.6349871754646301
1757491557771459600,6.56245947265625,0.539368748664856,-9.750162124633789,-0.5883750915527344
1757491557781500700,6.572500732421875,0.5786486268043518,-9.789741516113281,-0.5637596845626831
1757491557791541000,6.582541015625,0.6083517074584961,-9.824531555175781,-0.5390694737434387
1757491557801581000,6.5925810546875,0.5988497138023376,-9.806575775146484,-0.550815999507904
1757491557811626000,6.6026259765625,0.5467010140419006,-9.733851432800293,-0.5059247612953186
1757491557821666300,6.612666259765625,0.5464017391204834,-9.556530952453613,-0.3973626494407654
1757491557831706600,6.62270654296875,0.6063315868377686,-9.676166534423828,-0.613214910030365
1757491557841747700,6.632747802734375,0.646434485912323,-9.804854393005371,-0.6918494701385498
1757491557851788300,6.642788330078125,0.6511480212211609,-9.838373184204102,-0.6729951500892639
1757491557861825000,6.652824951171875,0.5352537035942078,-9.886033058166504,-0.6572831869125366
1757491557871869000,6.662868896484375,0.5079448819160461,-9.867103576660156,-0.6200234293937683
1757491557881909800,6.67290966796875,0.4792144298553467,-9.87391185760498,-0.6700772047042847
1757491557891950300,6.682950439453125,0.5245546102523804,-9.906458854675293,-0.6203975081443787
1757491557901991000,6.692990966796875,0.514005184173584,-9.874510765075684,-0.5616647601127625
1757491557912031200,6.70303125,0.4760720431804657,-9.81832218170166,-0.5646575093269348
1757491557922068500,6.713068359375,0.5908440947532654,-9.648857116699219,-0.5425859689712524
1757491557932108000,6.72310791015625,0.6480804681777954,-9.599552154541016,-0.6343886256217957
1757491557942153000,6.733153076171875,0.508917510509491,-9.82999324798584,-0.5935375690460205
1757491557952193800,6.74319384765625,0.45991119742393494,-9.812860488891602,-0.6707505583763123
1757491557962234400,6.753234375,0.5105634927749634,-9.940351486206055,-0.7457938194274902
1757491557972275200,6.763275146484375,0.5615899562835693,-9.942147254943848,-0.8845078945159912
1757491557982315500,6.7733154296875,0.6026654839515686,-9.812111854553223,-0.8670750856399536
1757491557992355800,6.78335595703125,0.5944353938102722,-9.605687141418457,-0.5840355753898621
1757491558002400800,6.79340087890625,0.44173020124435425,-9.681253433227539,-0.46806642413139343
1757491558012432600,6.8034326171875,0.46671968698501587,-9.645041465759277,-0.5646575093269348
1757491558022473500,6.813473388671875,0.45908817648887634,-9.865233421325684,-0.9562591314315796
1757491558032514300,6.823514404296875,0.6232406497001648,-9.688735961914062,-0.9487023949623108
1757491558042556400,6.833556396484375,0.5061492323875427,-9.841141700744629,-0.758288562297821
1757491558052594700,6.8435947265625,0.5065233111381531,-9.833510398864746,-0.6066308617591858
1757491558062639400,6.853639404296875,0.568772554397583,-9.769165992736816,-0.5957821011543274
1757491558072680200,6.86368017578125,0.6236147284507751,-9.763105392456055,-0.6353612542152405
1757491558082720500,6.873720458984375,0.559869110584259,-9.815628051757812,-0.5864297747612
1757491558092757000,6.883757080078125,0.5172224044799805,-9.75973892211914,-0.5273977518081665
1757491558102801400,6.893801513671875,0.5182698369026184,-9.805078506469727,-0.5336825251579285
1757491558112842000,6.903842041015625,0.5704934000968933,-9.797297477722168,-0.6794295310974121
1757491558122878700,6.913878662109375,0.6228665113449097,-9.757344245910645,-0.8095394372940063
1757491558132923000,6.9239228515625,0.5795464515686035,-9.808221817016602,-0.8872013688087463
1757491558142964000,6.9339638671875,0.7109282612800598,-9.79797077178955,-0.8280945420265198
1757491558153004000,6.944004150390625,0.5488707423210144,-9.76213264465332,-0.7817816734313965
1757491558163041000,6.954041015625,0.5544073581695557,-9.780987739562988,-0.6160580515861511
1757491558173085700,6.964085693359375,0.49874213337898254,-9.726519584655762,-0.5152022838592529
1757491558183126300,6.974126220703125,0.468889445066452,-9.779341697692871,-0.441430926322937
1757491558193166300,6.984166259765625,0.5354781746864319,-9.81143856048584,-0.4932803809642792
1757491558203207200,6.994207275390625,0.6246621608734131,-9.838598251342773,-0.5845593214035034
1757491558213247700,7.004247802734375,0.6364087462425232,-9.8622407913208,-0.6337152719497681
1757491558223288000,7.0142880859375,0.6413467526435852,-9.812111854553223,-0.6250362992286682
1757491558233328000,7.024328125,0.6942436695098877,-9.737217903137207,-0.5817909836769104
1757491558243370000,7.034369873046875,0.592939019203186,-9.959729194641113,-0.7045686841011047
1757491558253408300,7.044408203125,0.5733364820480347,-9.755474090576172,-0.7102549076080322
1757491558263446300,7.0544462890625,0.7330746054649353,-9.52585506439209,-0.6008698344230652
1757491558273487600,7.064487548828125,0.5424363017082214,-9.87002182006836,-0.46986207365989685
1757491558283528400,7.074528564453125,0.5359270572662354,-10.120365142822266,-0.31281742453575134
1757491558293573400,7.084573486328125,0.6418704986572266,-9.903241157531738,-0.7986907362937927
1757491558303612400,7.0946123046875,0.5600935816764832,-9.955913543701172,-0.9991303086280823
1757491558313653000,7.104653076171875,0.5578489899635315,-9.44639778137207,-0.68182373046875
1757491558323689500,7.114689453125,0.5632359385490417,-9.473482131958008,-0.5389198660850525
1757491558333734000,7.12473388671875,0.5790975093841553,-9.700332641601562,-0.5571756362915039
1757491558343774700,7.134774658203125,0.6224924325942993,-9.818995475769043,-0.7181108593940735
1757491558353815000,7.14481494140625,0.6091746687889099,-9.849895477294922,-0.7457190155982971
1757491558363855600,7.154855712890625,0.6292261481285095,-9.911920547485352,-0.7569418549537659
1757491558373892000,7.16489208984375,0.6090250611305237,-9.891718864440918,-0.7352443933486938
1757491558383936500,7.1749365234375,0.6288520693778992,-9.699509620666504,-0.732850193977356
1757491558393973200,7.18497314453125,0.6664859056472778,-9.632472038269043,-0.5416133403778076
1757491558404017700,7.195017578125,0.4894646108150482,-9.775001525878906,-0.36750996112823486
1757491558414058000,7.20505810546875,0.5187935829162598,-9.899201393127441,-0.3768623173236847
1757491558424098800,7.215098876953125,0.5804442763328552,-9.94521427154541,-0.5003881454467773
1757491558434139100,7.22513916015625,0.6080524325370789,-9.844508171081543,-0.5988497138023376
1757491558444176000,7.23517578125,0.5930138230323792,-9.71926212310791,-0.5740846991539001
1757491558454220500,7.245220458984375,0.5753566026687622,-9.674071311950684,-0.5247790813446045
1757491558464257300,7.25525732421875,0.5896469950675964,-9.692102432250977,-0.5118354558944702
1757491558474301700,7.2653017578125,0.6048352122306824,-9.763480186462402,-0.5696703791618347
1757491558484342000,7.275342041015625,0.6090998649597168,-9.819219589233398,-0.628477931022644
1757491558494382800,7.2853828125,0.5864297747612,-9.815478324890137,-0.6558616161346436
1757491558504421400,7.29542138671875,0.5448305010795593,-9.797821998596191,-0.5970540642738342
1757491558514460000,7.3054599609375,0.5793219804763794,-9.808445930480957,-0.6223428249359131
1757491558524501000,7.3155009765625,0.5866542458534241,-9.779939651489258,-0.604311466217041
1757491558534540800,7.325540771484375,0.5879261493682861,-9.777695655822754,-0.5672761797904968
1757491558544585500,7.33558544921875,0.6090998649597168,-9.82999324798584,-0.6238391995429993
1757491558554625800,7.345625732421875,0.5865045785903931,-9.780838012695312,-0.6603507399559021
1757491558564662800,7.355662841796875,0.49290627241134644,-9.719560623168945,-0.45901334285736084
1757491558574706700,7.365706787109375,0.5379471778869629,-9.791237831115723,-0.4645499587059021
1757491558584747800,7.375747802734375,0.6010194420814514,-9.824606895446777,-0.4960486590862274
1757491558594788000,7.3857880859375,0.659228503704071,-9.831415176391602,-0.5882254242897034
1757491558604824600,7.395824462890625,0.7184101343154907,-9.895384788513184,-0.7202057838439941
1757491558614869200,7.405869140625,0.5555295944213867,-9.721880912780762,-0.749310314655304
1757491558624909800,7.415909912109375,0.5387701988220215,-9.49929428100586,-0.5962310433387756
1757491558634950400,7.425950439453125,0.6390274167060852,-9.796624183654785,-0.6177788376808167
1757491558644991000,7.435990966796875,0.5959317684173584,-9.974543571472168,-0.6498013138771057
1757491558655031800,7.44603173828125,0.6128408312797546,-9.9401273727417,-0.6186766624450684
1757491558665068500,7.456068603515625,0.5832125544548035,-9.88393783569336,-0.6205471754074097
1757491558675110100,7.466110107421875,0.6106710433959961,-9.839495658874512,-0.6919242739677429
1757491558685149200,7.476149169921875,0.6588543653488159,-9.72622013092041,-0.6675333380699158
1757491558695189500,7.486189453125,0.7116764783859253,-9.623494148254395,-0.693345844745636
1757491558705229800,7.496229736328125,0.7352443933486938,-9.679533004760742,-0.7093570828437805
1757491558715273500,7.5062734375,0.6944681406021118,-9.76325511932373,-0.6727706789970398
1757491558725318400,7.516318359375,0.6211457252502441,-9.824007987976074,-0.6465092897415161
1757491558735355400,7.52635546875,0.5746083855628967,-9.8576021194458,-0.6011691093444824
1757491558745401000,7.536401123046875,0.545877993106842,-9.88393783569336,-0.5785738229751587
1757491558755432400,7.546432373046875,0.5591957569122314,-9.85543155670166,-0.5449801683425903
1757491558765473500,7.5564736328125,0.6104466319084167,-9.865008354187012,-0.558447539806366
1757491558775515100,7.56651513671875,0.6638672351837158,-9.892242431640625,-0.6173299551010132
1757491558785556500,7.576556396484375,0.7018752098083496,-9.917157173156738,-0.6582558155059814
1757491558795599000,7.58659912109375,0.7044190168380737,-9.860968589782715,-0.6889315247535706
1757491558805638700,7.596638671875,0.7021744847297668,-9.88506031036377,-0.6532429456710815
1757491558815676000,7.606676025390625,0.622118353843689,-9.935189247131348,-0.6257844567298889
1757491558825720000,7.616719970703125,0.5586720108985901,-9.969605445861816,-0.6531681418418884
1757491558835756800,7.6267568359375,0.5812672972679138,-9.952471733093262,-0.7402572631835938
1757491558845801500,7.636801513671875,0.6430675983428955,-9.909975051879883,-0.9192986488342285
1757491558855841800,7.646841796875,0.6275053024291992,-9.979631423950195,-0.8313865661621094
1757491558865882600,7.656882568359375,0.5715408325195312,-9.934066772460938,-0.8522610068321228
1757491558875918800,7.6669189453125,0.6433668732643127,-9.816825866699219,-0.9186252355575562
1757491558885963800,7.6769638671875,0.6938695907592773,-9.794903755187988,-0.7767688035964966
1757491558896003800,7.68700390625,0.7144447565078735,-9.711331367492676,-0.7822306156158447
1757491558906040600,7.69704052734375,0.7537994384765625,-9.666888236999512,-0.8501660823822021
1757491558916085200,7.707085205078125,0.687061071395874,-9.690905570983887,-0.791508138179779
1757491558926125300,7.717125244140625,0.645087718963623,-9.704821586608887,-0.8725368976593018
1757491558936166000,7.727165771484375,0.6008698344230652,-9.708189010620117,-0.8998457193374634
1757491558946203000,7.737202880859375,0.6845172047615051,-9.6641206741333,-0.8951321840286255
1757491558956247300,7.747247314453125,0.6195744872093201,-9.708487510681152,-1.0944494009017944
1757491558966288000,7.757287841796875,0.791508138179779,-9.81031608581543,-0.8298153281211853
1757491558976328700,7.76732861328125,0.615833580493927,-9.893589973449707,-0.8414870500564575
1757491558986369800,7.777369873046875,0.5813421010971069,-9.82879638671875,-0.8922142386436462
1757491558996408600,7.78740869140625,0.6223428249359131,-9.670853614807129,-0.9724947810173035
1757491559006445600,7.797445556640625,0.6803273558616638,-9.75053596496582,-1.0616040229797363
1757491559016486700,7.807486572265625,0.642618715763092,-9.610774993896484,-1.05569326877594
1757491559026527500,7.817527587890625,0.6362590789794922,-9.773505210876465,-0.9899275898933411
1757491559036574200,7.82757421875,0.6299743056297302,-9.890671730041504,-0.947729766368866
1757491559046612000,7.837612060546875,0.7126491069793701,-9.77013874053955,-0.9687538743019104
1757491559056652500,7.847652587890625,0.7618798613548279,-9.667412757873535,-0.9826701879501343
1757491559066688800,7.857688720703125,0.8239794969558716,-9.615787506103516,-1.0553940534591675
1757491559076729600,7.8677294921875,0.7350199222564697,-9.50498104095459,-0.9802011251449585
1757491559086773500,7.8777734375,0.6337152719497681,-9.848998069763184,-0.9295487999916077
1757491559096814600,7.887814697265625,0.7246201038360596,-9.781062126159668,-0.9235633015632629
1757491559106855000,7.89785498046875,0.7570914626121521,-9.737143516540527,-0.8816647529602051
1757491559116895500,7.9078955078125,0.7686883807182312,-9.767744064331055,-0.980949342250824
1757491559126935300,7.917935302734375,0.7542483806610107,-9.824980735778809,-1.0004022121429443
1757491559136972800,7.927972900390625,0.7999626398086548,-9.716343879699707,-1.0093804597854614
1757491559147017500,7.938017578125,0.6174047589302063,-9.862838745117188,-0.7852233648300171
1757491559157057300,7.948057373046875,0.5165489912033081,-9.552565574645996,-0.4759972393512726
1757491559167098600,7.9580986328125,0.6414216160774231,-9.971325874328613,-1.0736498832702637
1757491559177138700,7.968138671875,0.7774421572685242,-9.99444580078125,-1.0290578603744507
1757491559187179300,7.97817919921875,0.8481459617614746,-9.510666847229004,-0.5977274179458618
1757491559197215700,7.9882158203125,0.4424035847187042,-9.150264739990234,-0.6853402256965637
1757491559207256300,7.99825634765625,0.7346458435058594,-10.284892082214355,-1.4126538038253784
1757491559217301200,8.00830126953125,0.8708908557891846,-10.366294860839844,-1.1608136892318726
1757491559227341800,8.018341796875,0.9115923047065735,-10.028712272644043,-1.114575743675232
1757491559237382400,8.02838232421875,0.5618143677711487,-9.834258079528809,-0.9672574996948242
1757491559247420700,8.038420654296875,0.5098153352737427,-8.859145164489746,-0.12158055603504181
1757491559257459200,8.048459228515625,0.617030680179596,-9.374422073364258,-1.0086323022842407
1757491559267499800,8.058499755859375,0.8109610080718994,-10.17453384399414,-1.0399813652038574
1757491559277540400,8.068540283203125,0.8210615515708923,-10.14333438873291,-0.8393173217773438
1757491559287584500,8.07858447265625,0.5778256058692932,-9.156923294067383,-0.31842881441116333
1757491559297624800,8.088624755859374,0.5727379322052002,-9.671602249145508,-1.299228549003601
1757491559307665400,8.09866552734375,0.8069956302642822,-10.272920608520508,-1.213635802268982
1757491559317705700,8.108705810546875,0.861314058303833,-9.969006538391113,-0.8658031821250916
1757491559327742700,8.11874267578125,0.43013331294059753,-9.242366790771484,-0.6274304986000061
1757491559337787000,8.128786865234375,0.5723638534545898,-9.126472473144531,-0.6940940618515015
1757491559347823900,8.138823974609375,0.6774094700813293,-10.141539573669434,-1.1942577362060547
1757491559357868000,8.148867919921875,0.744297444820404,-10.283769607543945,-0.9365817904472351
1757491559367908600,8.15890869140625,0.643815815448761,-9.664868354797363,-0.6872855424880981
1757491559377949200,8.16894921875,0.5952584147453308,-9.243264198303223,-0.6961889863014221
1757491559387989800,8.17898974609375,0.6383540034294128,-9.669282913208008,-1.0070611238479614
1757491559398026500,8.189026611328124,0.7644985318183899,-10.133009910583496,-0.9594763517379761
1757491559408070700,8.199070556640624,0.7040449380874634,-10.055572509765625,-0.8978256583213806
1757491559418111500,8.209111572265625,0.5747580528259277,-9.863363265991211,-0.8482207655906677
1757491559428151800,8.21915185546875,0.6599018573760986,-9.292046546936035,-0.5058499574661255
1757491559438192000,8.229192138671875,0.6989572644233704,-9.028085708618164,-0.531737208366394
1757491559448233000,8.23923291015625,0.6669347882270813,-9.518447875976562,-0.8738088011741638
1757491559458269700,8.249269775390625,0.7229741215705872,-10.45166301727295,-0.9972598552703857
1757491559468314000,8.259314208984375,0.6863877177238464,-10.380210876464844,-0.9524433612823486
1757491559478355000,8.26935498046875,0.5794716477394104,-9.775001525878906,-0.6304980516433716
1757491559488398600,8.279398681640625,0.5032312870025635,-9.377115249633789,-0.669179379940033
1757491559498431700,8.289431640625,0.5581482648849487,-9.45560073852539,-0.5065233111381531
1757491559508472000,8.29947216796875,0.6854898929595947,-9.969531059265137,-0.938975989818573
1757491559518514700,8.3095146484375,0.7166892886161804,-10.200870513916016,-1.0027215480804443
1757491559528555000,8.319554931640624,0.6533178091049194,-10.009334564208984,-0.8352771401405334
1757491559538597600,8.32959765625,0.5938368439674377,-9.969829559326172,-0.834678590297699
1757491559548638000,8.339637939453125,0.5284451842308044,-9.511116027832031,-0.3719242811203003
1757491559558678800,8.3496787109375,0.5208137035369873,-8.966509819030762,-0.39205053448677063
1757491559568719000,8.359718994140625,0.6655880808830261,-9.7814359664917,-1.0604816675186157
1757491559578756000,8.369756103515625,0.7871686220169067,-10.49094295501709,-1.0360159873962402
1757491559588796200,8.379796142578124,0.6691045761108398,-10.187777519226074,-0.9856629371643066
1757491559598840300,8.38984033203125,0.5299415588378906,-10.086248397827148,-0.9401730895042419
1757491559608881400,8.39988134765625,0.5480477213859558,-9.362825393676758,-0.43185412883758545
1757491559618922200,8.409922119140624,0.43941083550453186,-8.760009765625,-0.37244799733161926
1757491559628962600,8.419962646484375,0.5894973278045654,-9.750311851501465,-1.0706570148468018
1757491559639003000,8.4300029296875,0.758438229560852,-10.584317207336426,-1.0007015466690063
1757491559649039400,8.440039306640625,0.787467896938324,-9.922618865966797,-0.8019079566001892
1757491559659084300,8.450084228515625,0.33092355728149414,-9.96257209777832,-0.545877993106842
1757491559669124600,8.46012451171875,0.3875614106655121,-8.893561363220215,-0.38382047414779663
1757491559679165400,8.47016552734375,0.5845593214035034,-10.313772201538086,-1.329829454421997
1757491559689205200,8.480205322265626,0.7623288035392761,-10.83623218536377,-0.9940426349639893
1757491559699246000,8.49024609375,0.7451952695846558,-10.128371238708496,-0.7028478384017944
1757491559709286700,8.50028662109375,0.3222445845603943,-8.526500701904297,0.2645592987537384
1757491559719323000,8.510322998046876,0.3405003845691681,-9.609951972961426,-1.1330559253692627
1757491559729368600,8.52036865234375,0.7140706777572632,-10.751012802124023,-0.8226327300071716
1757491559739409200,8.5304091796875,0.7268646955490112,-8.999878883361816,0.02199672721326351
1757491559749445400,8.5404453125,0.4206313192844391,-10.08781909942627,-1.3418751955032349
1757491559759486000,8.55048583984375,1.0269628763198853,-10.391283988952637,-0.7392845749855042
1757491559769529300,8.560529296875,0.4521300196647644,-9.732429504394531,-0.31700727343559265
1757491559779565800,8.57056591796875,0.306682288646698,-9.131036758422852,-0.6941688656806946
1757491559789610800,8.58061083984375,0.5806687474250793,-10.674324035644531,-1.138966679573059
1757491559799651300,8.5906513671875,0.9588029384613037,-9.877952575683594,-0.24757541716098785
1757491559809687600,8.6006875,0.27465981245040894,-8.81859302520752,-0.5940613150596619
1757491559819732200,8.610732177734375,0.3812018036842346,-10.802413940429688,-1.0111761093139648
1757491559829772800,8.620772705078124,0.8464999198913574,-9.228375434875488,0.2752583622932434
1757491559839809500,8.6308095703125,0.13751696050167084,-9.480889320373535,-1.1336544752120972
1757491559849854000,8.64085400390625,0.7995137572288513,-10.3294095993042,-0.1388636976480484
1757491559859894300,8.650894287109375,0.372822105884552,-9.195230484008789,-0.7294833064079285
1757491559869934800,8.660934814453125,0.6896049380302429,-10.598307609558105,-0.31199440360069275
1757491559879971800,8.670971923828125,0.37813422083854675,-9.155652046203613,-0.5287444591522217
1757491559890015700,8.681015625,0.7715315222740173,-10.783708572387695,-0.7562684416770935
1757491559900056600,8.691056640625,0.2825906276702881,-9.100211143493652,-0.109085813164711
1757491559910092800,8.7010927734375,0.3233668804168701,-10.858378410339355,-0.9957634210586548
1757491559920138000,8.711137939453126,0.7487117648124695,-8.946533203125,0.5747580528259277
1757491559930177800,8.721177734375,0.014365210197865963,-10.052878379821777,-1.3337948322296143
1757491559940218600,8.731218505859376,0.8176947236061096,-10.423456192016602,0.017956512048840523
1757491559950255000,8.741255126953124,0.10040683299303055,-9.026439666748047,-0.7604582905769348
1757491559960299500,8.751299560546874,0.6146364808082581,-10.153360366821289,0.032620999962091446
1757491559970336000,8.7613359375,0.1363946795463562,-8.97885513305664,-0.7352443933486938
1757491559980381000,8.771380859375,0.7055413126945496,-9.674295425415039,0.4364180862903595
1757491559990418700,8.781418701171875,0.05992986261844635,-10.40684700012207,-1.2230629920959473
1757491560000457700,8.791457763671875,0.6229413747787476,-9.073575973510742,0.431255578994751
1757491560010498300,8.801498291015625,0.30892685055732727,-10.861445426940918,-1.1019313335418701
1757491560020540200,8.8115400390625,0.5496188998222351,-8.944812774658203,0.019602525979280472
1757491560030545000,8.821544921875,0.848520040512085,-9.969979286193848,-0.1843535304069519
1757491560040619000,8.831618896484375,0.0537199005484581,-10.0626802444458,-1.2743886709213257
1757491560050663700,8.84166357421875,1.0105026960372925,-9.43951416015625,0.4556465148925781
1757491560060702000,8.851701904296876,0.13033436238765717,-9.793781280517578,-1.5939397811889648
1757491560070743000,8.861742919921875,0.9751134514808655,-8.941221237182617,0.3827729821205139
1757491560080781300,8.87178125,0.13422493636608124,-10.033724784851074,-1.6074819564819336
1757491560090822700,8.88182275390625,0.7841758728027344,-9.198372840881348,0.2876783013343811
1757491560100862200,8.8918623046875,-0.0966658964753151,-9.747468948364258,-1.2178256511688232
1757491560110905000,8.901905029296875,0.5942857265472412,-10.791938781738281,-0.4882675111293793
1757491560120946000,8.91194580078125,0.15068507194519043,-8.129586219787598,0.1999906599521637
1757491560130987800,8.92198779296875,0.12195464968681335,-10.68435001373291,-0.6225672364234924
1757491560141027600,8.932027587890625,0.4595370888710022,-10.166603088378906,-0.38314709067344666
1757491560151067100,8.942067138671876,0.36309564113616943,-9.58249282836914,-0.14731822907924652
1757491560161183500,8.95218359375,0.1289876103401184,-8.806023597717285,0.09531915187835693
1757491560171202800,8.962202880859374,0.20208558440208435,-10.21343994140625,-0.2546083927154541
1757491560181200100,8.9722001953125,0.2654571235179901,-9.937358856201172,-0.08476970344781876
1757491560191230200,8.982230224609374,0.11783961206674576,-9.644442558288574,0.12187983095645905
1757491560201272300,8.992272216796875,0.038980595767498016,-9.474678993225098,0.353743314743042
1757491560211312600,9.002312744140625,-0.05671265348792076,-9.345392227172852,0.569819986820221
1757491560221352700,9.012352783203125,-0.21959318220615387,-9.300724983215332,0.7630021572113037
1757491560231391000,9.022390869140626,-0.15831658244132996,-9.324742317199707,1.0167126655578613
1757491560241430300,9.03243017578125,-0.3026420474052429,-9.325864791870117,1.044844627380371
1757491560251471000,9.04247119140625,-0.236277773976326,-9.941922187805176,1.244461178779602
1757491560261511400,9.052511474609375,-0.24667759239673615,-10.14445686340332,1.1548281908035278
1757491560271554300,9.06255419921875,-0.03778349608182907,-10.5275297164917,1.299228549003601
1757491560281596400,9.072596435546876,-0.23373393714427948,-10.556558609008789,1.197325348854065
1757491560291632600,9.082632568359376,-0.03561374917626381,-10.626888275146484,1.354669213294983
1757491560301677600,9.092677490234376,-0.1833808869123459,-10.590975761413574,1.3830255270004272
1757491560311717600,9.102717529296875,-0.19954174757003784,-10.483835220336914,1.4470704793930054
1757491560321754000,9.112754150390625,-0.386139839887619,-10.611401557922363,1.4661492109298706
1757491560331799000,9.122799072265625,-0.6104466319084167,-10.759766578674316,1.3899089097976685
1757491560341839000,9.132839111328124,-0.49148473143577576,-10.963797569274902,1.5789011716842651
1757491560351879700,9.142879638671875,-0.516623854637146,-11.006893157958984,1.6097265481948853
1757491560361916400,9.15291650390625,-0.40798693895339966,-10.856806755065918,1.4062193632125854
1757491560371961000,9.162961181640625,-0.23994390666484833,-10.795230865478516,1.2149077653884888
1757491560382001200,9.173001220703124,-0.05274725705385208,-10.60047721862793,1.377638578414917
1757491560392037600,9.18303759765625,-0.13691841065883636,-10.373252868652344,1.8317887783050537
1757491560402082800,9.193082763671875,-0.6025158166885376,-10.142287254333496,1.8617911338806152
1757491560412122600,9.20312255859375,-0.9952397346496582,-9.906233787536621,1.286434531211853
1757491560422159000,9.2131591796875,-0.5672761797904968,-9.49233627319336,1.0008511543273926
1757491560432203800,9.223203857421876,-0.43028295040130615,-9.18513011932373,0.3960907459259033
1757491560442244600,9.23324462890625,-0.3911527097225189,-8.92341423034668,-0.16086041927337646
1757491560452285000,9.243284912109376,0.8975263833999634,-8.449511528015137,0.2265513390302658
1757491560462321400,9.2533212890625,1.1394903659820557,-8.622642517089844,0.41285014152526855
1757491560472367000,9.2633671875,1.3911060094833374,-8.753949165344238,0.5671265125274658
1757491560482402600,9.273402587890626,1.0029460191726685,-8.918625831604004,0.6644657850265503
1757491560492443400,9.283443359375,1.1801917552947998,-8.819341659545898,1.31583833694458
1757491560502484200,9.293484130859374,0.6182277798652649,-8.60693073272705,1.5036334991455078
1757491560512526800,9.30352685546875,0.43357497453689575,-8.60236644744873,1.6023943424224854
1757491560522575000,9.3135751953125,0.17470189929008484,-8.60580825805664,1.6441432237625122
1757491560532608800,9.32360888671875,-0.10310030728578568,-8.493879318237305,1.5471031665802002
1757491560542649300,9.3336494140625,-0.3299509286880493,-8.51602554321289,1.5050550699234009
1757491560552685800,9.343685791015625,-0.5107131600379944,-8.727463722229004,1.5689502954483032
1757491560562730500,9.35373046875,-0.6530185341835022,-8.890119552612305,1.6687586307525635
1757491560572771000,9.36377099609375,-0.8390928506851196,-8.927005767822266,1.694421410560608
1757491560582811600,9.373811767578125,-1.0412533283233643,-9.079561233520508,1.6942718029022217
1757491560592852200,9.383852294921875,-1.1606640815734863,-9.102156639099121,1.7054197788238525
1757491560602892300,9.393892333984375,-1.123329520225525,-9.090784072875977,1.8186954259872437
1757491560612933400,9.403933349609375,-1.0048165321350098,-9.097966194152832,2.029310464859009
1757491560622970000,9.41397021484375,-0.7546224594116211,-8.976236343383789,2.2258594036102295
1757491560633014000,9.424013916015625,-0.5211129784584045,-8.7222261428833,2.2169559001922607
1757491560643054300,9.434054443359376,-0.2935141623020172,-8.717063903808594,2.0679917335510254
1757491560653095700,9.444095703125,0.09060557186603546,-8.462679862976074,2.1931636333465576
1757491560663135700,9.4541357421875,-0.1157446876168251,-8.39377212524414,2.074052095413208
1757491560673176600,9.464176513671875,-0.4570680558681488,-8.437690734863281,2.114753484725952
1757491560683216600,9.474216552734376,-0.7579892873764038,-8.596680641174316,2.255861759185791
1757491560693253400,9.48425341796875,-0.8037036061286926,-8.906355857849121,2.607210874557495
1757491560703298300,9.49429833984375,-0.7869441509246826,-9.462259292602539,2.9840731620788574
1757491560713338000,9.504338134765625,-0.5201402902603149,-10.169072151184082,3.396923303604126
1757491560723379000,9.51437890625,0.04750993847846985,-10.813935279846191,3.238456964492798
1757491560733416700,9.524416748046875,0.8911667466163635,-11.029862403869629,2.4275708198547363
1757491560743455700,9.534455810546875,1.755548357963562,-10.941576957702637,1.452831506729126
1757491560753496600,9.54449658203125,2.1624131202697754,-11.034276962280273,0.496871680021286
1757491560763537000,9.554536865234375,1.4826093912124634,-11.564817428588867,-0.21719898283481598
1757491560773581300,9.564581298828125,0.11282675713300705,-12.412738800048828,-0.5303156971931458
1757491560783622000,9.574621826171875,-0.6168810129165649,-12.736105918884277,-0.3489548861980438
1757491560793662500,9.584662353515625,-0.43701663613319397,-12.620809555053711,0.45646950602531433
1757491560803703000,9.594703125,-0.48138418793678284,-11.450718879699707,1.2175264358520508
1757491560813743600,9.60474365234375,-0.7879168391227722,-10.044349670410156,1.8787750005722046
1757491560823784200,9.6147841796875,-0.6732944250106812,-8.808642387390137,2.1180455684661865
1757491560833820700,9.624820556640625,-0.02431611157953739,-8.109086036682129,1.4622586965560913
1757491560843864800,9.63486474609375,1.2984055280685425,-7.3086748123168945,0.48894086480140686
1757491560853905400,9.644905517578126,1.5812206268310547,-7.445967197418213,-0.35336920619010925
1757491560863920000,9.654920166015625,1.5440356731414795,-8.089932441711426,-0.5007622241973877
1757491560873960400,9.66496044921875,1.2790274620056152,-9.028759002685547,-0.10960954427719116
1757491560884001300,9.675001220703125,1.0582371950149536,-9.78989028930664,0.5640589594841003
1757491560894042400,9.68504248046875,0.7071873545646667,-10.452186584472656,1.2867337465286255
1757491560904104200,9.695104248046874,0.645087718963623,-10.833463668823242,1.8834885358810425
1757491560914148000,9.705148193359374,0.9623942375183105,-11.093907356262207,2.315791606903076
1757491560924189000,9.71518896484375,0.4965724050998688,-11.256937980651855,2.32761287689209
1757491560934229200,9.725229248046874,0.5149030089378357,-10.931625366210938,1.9740941524505615
1757491560944269600,9.73526953125,0.661697506904602,-10.081310272216797,1.146224021911621
1757491560954311000,9.745310791015624,0.8031798601150513,-9.440262794494629,0.3933224380016327
1757491560964351200,9.755351318359375,0.8768015503883362,-9.209671020507812,-0.16153380274772644
1757491560974394400,9.765394287109375,0.8522610068321228,-9.269451141357422,-0.39451953768730164
1757491560984428800,9.7754287109375,0.764723002910614,-9.422380447387695,-0.34858080744743347
1757491560994468900,9.78546875,0.648903489112854,-9.5833158493042,-0.10931026935577393
1757491561004509700,9.795509765625,0.6059575080871582,-9.746944427490234,0.15831658244132996
1757491561014551800,9.8055517578125,0.6356605291366577,-9.866056442260742,0.33039984107017517
1757491561024594400,9.815594482421876,0.6750900745391846,-9.893814086914062,0.3932476341724396
1757491561034634800,9.825634765625,0.7517045140266418,-9.824681282043457,0.3969137370586395
1757491561044675600,9.835675537109376,0.7460930943489075,-9.705195426940918,0.37746086716651917
1757491561054716200,9.845716064453125,0.6108955144882202,-9.711779594421387,0.31364041566848755
1757491561064752400,9.85575244140625,0.8286182284355164,-9.587057113647461,0.3934720754623413
1757491561074797000,9.865797119140625,0.9242366552352905,-9.488969802856445,0.3197007477283478
1757491561084837000,9.875837158203124,0.8795698285102844,-9.65491771697998,0.3283049166202545
1757491561094877700,9.885877685546875,0.9530419111251831,-9.793631553649902,0.3544915020465851
1757491561104918500,9.89591845703125,1.1593173742294312,-9.832014083862305,0.3329436779022217
1757491561114959000,9.905958984375,1.2030863761901855,-9.875932693481445,0.2584989666938782
1757491561124999700,9.915999755859374,1.1348515748977661,-9.88730525970459,0.16325463354587555
1757491561135035600,9.92603564453125,0.8365490436553955,-9.971850395202637,0.0018704701215028763
1757491561145078000,9.936078125,1.1543793678283691,-9.928754806518555,0.12831424176692963
1757491561155116500,9.946116455078124,1.2144588232040405,-9.862464904785156,0.23590368032455444
1757491561165157400,9.956157470703126,1.0021978616714478,-9.895983695983887,0.31543606519699097
1757491561175198200,9.9661982421875,1.1452513933181763,-9.946560859680176,0.36810851097106934
1757491561185240000,9.976239990234374,1.3911060094833374,-9.917007446289062,0.3457376956939697
1757491561195281400,9.986281494140625,1.5872061252593994,-9.755847930908203,0.3017442226409912
1757491561205320000,9.99631982421875,1.6781857013702393,-9.725321769714355,0.38741177320480347
1757491561215364400,10.0063642578125,1.6249147653579712,-9.821314811706543,0.45497313141822815
1757491561225410600,10.01641064453125,1.2856115102767944,-9.895759582519531,0.37970542907714844
1757491561235441000,10.02644091796875,1.5021370649337769,-10.005293846130371,0.2645592987537384
1757491561245481500,10.0364814453125,1.4624083042144775,-10.04651927947998,0.15113398432731628
1757491561255523000,10.046523193359375,1.5093945264816284,-9.909226417541504,0.1363198608160019
1757491561265563400,10.0565634765625,1.5569044351577759,-9.676764488220215,0.2056768834590912
1757491561275607000,10.06660693359375,1.6695815324783325,-9.578227996826172,0.2941127121448517
1757491561285647600,10.076647705078125,1.8679262399673462,-9.534684181213379,0.35913026332855225
1757491561295684000,10.08668408203125,1.9781343936920166,-9.630526542663574,0.4439747631549835
1757491561305728800,10.096728759765625,2.000654697418213,-9.665167808532715,0.4340238869190216
1757491561315764700,10.1067646484375,2.002899408340454,-9.676839828491211,0.3886088728904724
1757491561325809700,10.1168095703125,1.9599533081054688,-9.668310165405273,0.3662380278110504
1757491561335850000,10.12685009765625,1.9003976583480835,-9.652897834777832,0.39878422021865845
1757491561345890300,10.136890380859375,1.8361282348632812,-9.63755989074707,0.4576666057109833
1757491561355931100,10.14693115234375,1.8364275693893433,-9.621249198913574,0.549693763256073
1757491561365967400,10.15696728515625,1.67661452293396,-9.615114212036133,0.5624129176139832
1757491561376008400,10.167008544921876,1.8123358488082886,-9.874884605407715,0.6040869951248169
1757491561386052600,10.177052490234376,1.571419358253479,-10.15485668182373,0.5568015575408936
1757491561396093200,10.18709326171875,1.4288146495819092,-10.273669242858887,0.4659714996814728
1757491561406133500,10.197133544921876,1.2440122365951538,-10.245985984802246,0.47300446033477783
1757491561416174000,10.207174072265625,1.1255741119384766,-10.007089614868164,0.4882675111293793
1757491561426214400,10.21721435546875,1.2297966480255127,-9.976788520812988,0.6204723119735718
1757491561436251100,10.227251220703126,1.2936171293258667,-9.849446296691895,0.6902034878730774
1757491561446295600,10.237295654296876,1.2081739902496338,-9.72390079498291,0.6818985939025879
1757491561456336100,10.247336181640625,1.5551087856292725,-9.83223819732666,0.7559691667556763
1757491561466376700,10.257376708984374,1.4903905391693115,-9.904962539672852,0.7581389546394348
1757491561476415000,10.2674150390625,1.2600234746932983,-9.840542793273926,0.5794716477394104
1757491561496494000,10.287494140625,1.7856255769729614,-9.641749382019043,0.548496663570404
1757491561506534400,10.297534423828125,1.5485247373580933,-9.574711799621582,0.595408022403717
1757491561516579000,10.3075791015625,1.2037596702575684,-9.539472579956055,0.5579237937927246
1757491561526619600,10.31761962890625,1.9031659364700317,-9.45911693572998,0.5372738242149353
1757491561536660000,10.327659912109375,1.9128923416137695,-9.799616813659668,0.5647323131561279
1757491561546700300,10.3377001953125,1.7958757877349854,-9.78368091583252,0.5104886889457703
1757491561556741000,10.3477412109375,1.3019968271255493,-9.624092102050781,0.243011474609375
1757491561566777300,10.35777734375,1.9781343936920166,-9.467047691345215,0.4067898392677307
1757491561576818400,10.367818359375,1.862539291381836,-9.62596321105957,0.7141454815864563
1757491561586862300,10.3778623046875,1.2700492143630981,-9.562516212463379,0.8604910373687744
1757491561596903200,10.387903076171876,0.8820388913154602,-9.543288230895996,0.6905775666236877
1757491561606943200,10.397943115234375,1.6162357330322266,-9.79056453704834,0.7463923692703247
1757491561616983800,10.40798388671875,1.5068507194519043,-10.350882530212402,0.8779986500740051
1757491561627025000,10.41802490234375,1.039083480834961,-10.573692321777344,0.6638672351837158
1757491561637060600,10.428060546875,1.1943325996398926,-10.764031410217285,0.47569796442985535
1757491561647101400,10.438101318359376,0.7275380492210388,-10.520720481872559,-0.0777367353439331
1757491561657146400,10.448146484375,1.9020435810089111,-10.604293823242188,0.3100491166114807
1757491561667186400,10.4581865234375,1.4613608121871948,-10.538078308105469,0.5798457264900208
1757491561677226800,10.468226806640626,1.2706477642059326,-10.227954864501953,0.7080851793289185
1757491561687266800,10.478266845703125,1.4752023220062256,-10.072930335998535,0.680701494216919
1757491561697303800,10.4883037109375,1.2327146530151367,-9.889100074768066,0.2893243134021759
1757491561707349000,10.498348876953125,2.063502550125122,-10.124555587768555,0.3411737382411957
1757491561717391400,10.508391357421875,1.5531635284423828,-10.413131713867188,0.4048445522785187
1757491561727427000,10.518427001953125,1.4977227449417114,-10.348188400268555,0.5761796236038208
1757491561737466400,10.52846630859375,1.5307927131652832,-10.127472877502441,0.6013935208320618
1757491561747508200,10.53850830078125,1.6330699920654297,-9.953893661499023,0.7297077775001526
1757491561757546800,10.548546630859375,1.6038906574249268,-9.812111854553223,0.8060229420661926
1757491561767591700,10.558591796875,1.1257985830307007,-9.851615905761719,0.4702361822128296
1757491561777632000,10.568632080078125,1.7527053356170654,-9.809942245483398,0.5236567854881287
1757491561787672600,10.578672607421876,1.442581295967102,-9.99339771270752,0.2911947965621948
1757491561797712600,10.588712646484375,1.1120318174362183,-9.908478736877441,0.10714052617549896
1757491561807749400,10.598749267578125,1.1065701246261597,-9.705121040344238,0.026186581701040268
1757491561817794000,10.6087939453125,1.1635819673538208,-9.483283042907715,0.0644189864397049
1757491561827830800,10.618830810546875,1.2655600309371948,-9.350030899047852,0.13048399984836578
1757491561837875000,10.628875,1.2680290937423706,-9.352499961853027,0.15435118973255157
1757491561847915500,10.63891552734375,1.292494773864746,-9.505354881286621,0.15075989067554474
1757491561857956400,10.648956298828125,1.3494319915771484,-9.564910888671875,0.10594342648983002
1757491561867996400,10.658996337890626,1.303044319152832,-9.541118621826172,0.12547113001346588
1757491561878033400,10.669033447265624,1.3261632919311523,-9.46143627166748,0.18555063009262085
1757491561888074000,10.679073974609375,1.0847229957580566,-9.532289505004883,0.09187749028205872
1757491561898118100,10.6891181640625,1.4991443157196045,-9.431583404541016,0.14200608432292938
1757491561908158200,10.699158203125,1.2704980373382568,-9.566706657409668,-0.004638765938580036
1757491561918199300,10.70919921875,1.3159130811691284,-9.752107620239258,-0.19699791073799133
1757491561928239600,10.719239501953124,1.3428478240966797,-9.789366722106934,-0.4014776945114136
1757491561938280200,10.7292802734375,1.3912556171417236,-9.753005027770996,-0.4849754869937897
1757491561948316700,10.739316650390625,1.3966425657272339,-9.596708297729492,-0.46484923362731934
1757491561958357200,10.749357177734375,1.271246314048767,-9.353472709655762,-0.3635445535182953
1757491561968406800,10.75940673828125,1.4481927156448364,-9.343671798706055,-0.2091933786869049
1757491561978438000,10.76943798828125,1.5471031665802002,-9.466448783874512,-0.035090018063783646
1757491561988479000,10.77947900390625,1.9024925231933594,-9.624241828918457,0.1364694982767105
1757491561998521000,10.78952099609375,2.1062989234924316,-9.738340377807617,0.22662615776062012
1757491562008574700,10.79957470703125,2.2001216411590576,-9.837475776672363,0.19684827327728271
1757491562018600000,10.809599853515625,2.092158079147339,-9.962423324584961,0.15001170337200165
1757491562028644600,10.81964453125,2.1144542694091797,-10.122909545898438,0.23949499428272247
1757491562038685000,10.829684814453126,2.2414965629577637,-10.337190628051758,0.3198503851890564
1757491562048725200,10.839725341796875,2.3347954750061035,-10.557756423950195,0.21884499490261078
1757491562058765000,10.84976513671875,2.1184945106506348,-10.877756118774414,0.042272623628377914
1757491562068806400,10.859806396484375,1.6513258218765259,-11.302577018737793,-0.12786532938480377
1757491562078843100,10.869843017578125,0.9321674704551697,-11.596614837646484,-0.09898527711629868
1757491562088887300,10.87988720703125,0.44442370533943176,-11.645846366882324,0.10459668934345245
1757491562098928400,10.889928466796874,1.5589245557785034,-11.607613563537598,0.4826560914516449
1757491562108964600,10.899964599609374,2.2015433311462402,-12.15760612487793,1.1812392473220825
1757491562119009300,10.91000927734375,2.440664291381836,-12.835390090942383,2.022801160812378
1757491562129049900,10.9200498046875,1.3688100576400757,-13.46678638458252,2.290802001953125
1757491562139090400,10.93009033203125,0.6484545469284058,-14.020594596862793,2.2105214595794678
1757491562149126700,10.940126708984375,-0.0966658964753151,-14.203152656555176,1.6578350067138672
1757491562159170600,10.950170654296874,-0.7292588949203491,-13.764714241027832,0.8057985305786133
1757491562169211600,10.960211669921875,-1.0091559886932373,-13.177910804748535,0.024615386500954628
1757491562179248400,10.970248291015626,-1.3058873414993286,-12.713884353637695,-0.5233575105667114
1757491562189292800,10.980292724609376,-0.9897031188011169,-12.206762313842773,-0.7935281991958618
1757491562199333000,10.9903330078125,-0.3966144621372223,-11.552546501159668,-0.7023240923881531
1757491562209369600,11.00036962890625,0.04908113554120064,-11.036596298217773,-0.12098200619220734
1757491562219412500,11.01041259765625,0.5439326763153076,-10.689586639404297,0.8241291046142578
1757491562229451000,11.020450927734375,1.0337713956832886,-10.353052139282227,1.7202339172363281
1757491562239492000,11.0304921875,1.5319898128509521,-9.881768226623535,2.38462495803833
1757491562249531100,11.04053125,2.0667197704315186,-9.432332038879395,2.864811897277832
1757491562259575800,11.050575927734375,2.562469244003296,-9.047389030456543,3.1360301971435547
1757491562269616400,11.060616455078126,2.8453590869903564,-8.986710548400879,3.1040825843811035
1757491562279652900,11.07065283203125,2.7446529865264893,-9.23323917388916,2.7472715377807617
1757491562289697300,11.080697265625,2.2906525135040283,-9.698686599731445,2.0899884700775146
1757491562299738000,11.090738037109375,1.5741876363754272,-10.38267993927002,1.272443413734436
1757491562309779000,11.100779052734374,0.5736357569694519,-11.133187294006348,0.4546738564968109
1757491562319815000,11.11081494140625,-0.518943190574646,-11.741539001464844,-0.08372224122285843
1757491562329858800,11.12085888671875,-1.7432781457901,-12.488604545593262,-0.04728548228740692
1757491562339896000,11.13089599609375,-1.6574609279632568,-12.681562423706055,0.5273229479789734
1757491562349940700,11.140940673828124,-1.5844378471374512,-12.784887313842773,1.3759177923202515
1757491562359981000,11.15098095703125,-1.0887632369995117,-12.451644897460938,2.200421094894409
1757491562370021600,11.161021728515625,-0.5509656667709351,-11.972354888916016,2.9398553371429443
1757491562380061700,11.171061767578125,0.13534721732139587,-11.321057319641113,3.1104421615600586
1757491562390102800,11.181102783203125,1.0538976192474365,-10.919281005859375,2.963348388671875
1757491562400139000,11.191138916015625,1.595585823059082,-10.76844596862793,2.726771354675293
1757491562410183700,11.20118359375,1.3941736221313477,-10.615815162658691,2.5807249546051025
1757491562420224000,11.21122412109375,0.7644985318183899,-10.523938179016113,2.5377042293548584
1757491562430264300,11.221264404296875,0.1412578970193863,-10.637662887573242,2.529099941253662
1757491562440305000,11.231304931640626,-0.07653963565826416,-10.72145938873291,2.88995099067688
1757491562450345500,11.241345458984375,-0.8221838474273682,-10.82051944732666,3.092036724090576
1757491562460387000,11.251386962890624,-0.7978677153587341,-10.742034912109375,3.1640124320983887
1757491562470422300,11.26142236328125,-0.4355950653553009,-10.465130805969238,3.069965124130249
1757491562480463000,11.271463134765625,0.06232406198978424,-9.884686470031738,3.3961002826690674
1757491562490503400,11.28150341796875,-0.2770540416240692,-9.55361270904541,3.167229652404785
1757491562500546800,11.291546875,-0.34192192554473877,-9.176750183105469,3.079392194747925
1757491562510586400,11.30158642578125,-0.46806642413139343,-8.797269821166992,3.162515878677368
1757491562520628000,11.3116279296875,-0.6199486255645752,-8.3213472366333,3.307215452194214
1757491562530663400,11.321663330078126,-0.8735095262527466,-8.146495819091797,3.2689831256866455
1757491562540708400,11.331708251953126,-0.7292588949203491,-7.609072208404541,3.4449570178985596
1757491562550747400,11.341747314453125,-0.8891466856002808,-7.293711185455322,3.4776527881622314
1757491562560786200,11.3517861328125,-1.0960206985473633,-7.156343936920166,3.0225300788879395
1757491562570826800,11.36182666015625,-0.9738415479660034,-7.219939708709717,2.800767183303833
1757491562580867600,11.37186767578125,-0.7427262663841248,-7.000870227813721,2.564788579940796
1757491562590909200,11.3819091796875,-0.9567080140113831,-7.117587566375732,2.5686042308807373
1757491562600951000,11.391950927734374,-0.665513277053833,-6.544625282287598,2.770390748977661
1757491562610993000,11.401992919921875,-0.7475146651268005,-6.086060523986816,3.276240587234497
1757491562621032200,11.4120322265625,-0.9642647504806519,-6.169633388519287,3.584568738937378
1757491562631072500,11.422072509765625,-0.5552303194999695,-5.561431407928467,3.617788314819336
1757491562641112000,11.432112060546874,-0.7918822169303894,-5.566070079803467,3.418321371078491
1757491562651204900,11.442204833984375,-0.9801263213157654,-5.786261558532715,3.3306338787078857
1757491562661194200,11.4521943359375,-1.1225064992904663,-5.9758524894714355,3.100940227508545
1757491562671234300,11.462234375,-0.877923846244812,-5.218536853790283,2.9652936458587646
1757491562681277000,11.47227685546875,-1.0601075887680054,-5.423465251922607,2.92653751373291
1757491562691313700,11.482313720703125,-1.1243770122528076,-5.481450080871582,3.086350440979004
1757491562701357800,11.49235791015625,-1.4803647994995117,-5.749600410461426,3.334449529647827
1757491562711403000,11.502403076171875,-1.3457658290863037,-4.9868974685668945,3.6086604595184326
1757491562721435000,11.512434814453124,-1.7053450345993042,-5.094038009643555,4.142941474914551
1757491562731475000,11.522474853515625,-1.5743372440338135,-5.426009178161621,4.607940673828125
1757491562741517600,11.532517578125,-1.8649334907531738,-5.400570869445801,4.870779037475586
1757491562751558400,11.542558349609376,-2.0253450870513916,-5.382539749145508,5.140126705169678
1757491562761601000,11.55260107421875,-2.1581482887268066,-5.576395034790039,5.275473594665527
1757491562771641000,11.56264111328125,-1.6561142206192017,-5.279513835906982,5.2178635597229
1757491562781681400,11.572681396484375,-1.6569372415542603,-5.3261260986328125,5.474117755889893
1757491562791718000,11.5827177734375,-1.7259202003479004,-5.613879203796387,5.496338844299316
1757491562801762300,11.59276220703125,-1.9649661779403687,-5.760748386383057,5.560907363891602
1757491562811803100,11.60280322265625,-2.2492029666900635,-5.971588134765625,5.789927959442139
1757491562821843500,11.612843505859376,-2.501865863800049,-6.164321422576904,6.221782207489014
1757491562831883800,11.6228837890625,-2.5738415718078613,-6.199710369110107,6.6466779708862305
1757491562841924900,11.6329248046875,-2.5270049571990967,-6.217367649078369,6.825345516204834
1757491562851961300,11.64296142578125,-2.5534160137176514,-6.230311393737793,6.795567512512207
1757491562862005200,11.653005126953126,-2.594341993331909,-6.240187644958496,6.633435249328613
1757491562872046000,11.663046142578125,-2.593967914581299,-6.314183235168457,6.369174957275391
1757491562882086700,11.673086669921876,-2.7304375171661377,-6.307973384857178,6.1192803382873535
1757491562892127000,11.683126953125,-2.959757089614868,-6.251784324645996,5.916670799255371
1757491562902167800,11.693167724609374,-3.1722424030303955,-6.20075798034668,5.797484397888184
1757491562912208400,11.70320849609375,-3.27227520942688,-6.398055076599121,5.6414875984191895
1757491562922244400,11.713244384765625,-3.1879544258117676,-6.576722621917725,5.772345542907715
1757491562932289300,11.723289306640625,-2.9637224674224854,-6.753818511962891,6.027851581573486
1757491562942329900,11.733329833984374,-2.8227639198303223,-6.9386210441589355,6.4316487312316895
1757491562952371700,11.743371826171876,-2.8656349182128906,-7.10845947265625,6.7446160316467285
1757491562962409000,11.753408935546876,-2.9916298389434814,-7.311293601989746,6.754566669464111
1757491562972447000,11.763447021484374,-2.9770402908325195,-7.445144176483154,6.52562141418457
1757491562982487600,11.773487548828125,-3.015122890472412,-7.329249858856201,6.253355503082275
1757491562992528000,11.78352783203125,-3.0552258491516113,-7.029151916503906,5.941660404205322
1757491563002573600,11.793573486328125,-3.208080530166626,-6.903531074523926,5.68308687210083
1757491563012612600,11.803612548828125,-3.255366086959839,-6.673313617706299,5.485565185546875
1757491563022653400,11.8136533203125,-3.1594483852386475,-6.526443958282471,5.469404220581055
1757491563032693200,11.823693359375,-2.9438953399658203,-6.417881965637207,5.664830684661865
1757491563042730200,11.833730224609376,-2.769792079925537,-6.544400691986084,5.854122638702393
1757491563052775000,11.84377490234375,-2.8039841651916504,-6.785691261291504,5.886070251464844
1757491563062811400,11.853811279296876,-3.12233829498291,-7.074716567993164,6.016928195953369
1757491563072855800,11.863855712890626,-3.3552491664886475,-7.396512031555176,6.456114292144775
1757491563082896400,11.873896484375,-3.327641010284424,-7.691747188568115,7.008875846862793
1757491563092936700,11.883936767578126,-2.913743495941162,-8.008679389953613,7.49766731262207
1757491563102977300,11.893977294921875,-2.2589292526245117,-8.525378227233887,7.729829788208008
1757491563113013800,11.904013671875,-2.0615572929382324,-8.988431930541992,7.6351094245910645
1757491563123058000,11.914057861328125,-2.244189977645874,-9.093552589416504,7.19016170501709
1757491563133094100,11.92409423828125,-2.2793548107147217,-8.911667823791504,6.625953197479248
1757491563143139000,11.93413916015625,-1.7623568773269653,-8.562488555908203,6.088829040527344
1757491563153180000,11.944179931640624,-1.2395230531692505,-8.023344039916992,5.304877758026123
1757491563163220500,11.954220458984375,-1.2507458925247192,-7.568670272827148,4.8652424812316895
1757491563173261000,11.964260986328124,-1.1997195482254028,-7.710302352905273,5.00246000289917
1757491563183301600,11.974301513671875,-0.7770680785179138,-8.238372802734375,5.4420952796936035
1757491563193342200,11.98434228515625,-0.2941875457763672,-9.036166191101074,6.075286865234375
1757491563203383000,11.994383056640626,-0.4133738875389099,-9.384821891784668,5.620014190673828
1757491563213421000,12.004421142578124,-1.2242600917816162,-9.7582426071167,5.297919273376465
1757491563223459000,12.014458984375,-1.5407435894012451,-9.713425636291504,5.00133752822876
1757491563233500200,12.024500244140626,-1.1112836599349976,-9.418116569519043,5.039495468139648
1757491563243542800,12.034542724609375,-1.02793550491333,-9.13657283782959,5.066055774688721
1757491563253584400,12.04458447265625,-0.718859076499939,-8.706514358520508,4.936245441436768
1757491563263625000,12.054625,-0.8046014308929443,-8.461258888244629,4.612579345703125
1757491563273665800,12.064665771484375,-0.5159504413604736,-8.343568801879883,4.380491256713867
1757491563283705900,12.074705810546876,-0.4817582666873932,-8.29321575164795,4.088324069976807
1757491563293742800,12.084742919921876,-0.4528034031391144,-8.382773399353027,3.8238394260406494
1757491563303787000,12.094787109375,-0.22385786473751068,-8.550143241882324,3.568707227706909
1757491563313827600,12.10482763671875,0.0049380408599972725,-8.80579948425293,3.2795326709747314
1757491563323868000,12.114867919921876,-0.08723872154951096,-9.129764556884766,3.1310172080993652
1757491563333908500,12.124908447265625,0.0727986991405487,-9.39477252960205,3.0783448219299316
1757491563343949300,12.13494921875,0.46649524569511414,-9.45911693572998,3.1739633083343506
1757491563353989400,12.1449892578125,0.20612579584121704,-9.55929946899414,3.235389471054077
1757491563364026400,12.1550263671875,0.3290531039237976,-9.641300201416016,3.3714849948883057
1757491563374070300,12.1650703125,0.29703065752983093,-9.658583641052246,3.49082088470459
1757491563384111400,12.175111328125,0.24892215430736542,-9.633444786071777,3.5342156887054443
1757491563394151700,12.185151611328125,0.1164928749203682,-9.583914756774902,3.4659810066223145
1757491563404192000,12.19519189453125,-0.06733692437410355,-9.55705451965332,3.385850191116333
1757491563414232600,12.205232666015625,0.12277765572071075,-9.370381355285645,3.2573862075805664
1757491563424273200,12.215273193359375,0.5779004096984863,-9.106346130371094,3.085153341293335
1757491563434310000,12.225309814453125,0.6726210117340088,-8.960674285888672,3.0511107444763184
1757491563444354300,12.235354248046875,0.87665194272995,-8.968230247497559,3.0692169666290283
1757491563454398200,12.245398193359375,1.3839234113693237,-8.859818458557129,2.9792847633361816
1757491563464431400,12.255431396484376,1.3714286088943481,-8.810213088989258,3.0703392028808594
1757491563474471200,12.26547119140625,1.3529484272003174,-8.579322814941406,2.9753193855285645
1757491563484513500,12.275513427734374,0.9972598552703857,-9.154603958129883,3.2917280197143555
1757491563494554400,12.285554443359375,1.3204022645950317,-9.201740264892578,3.312527656555176
1757491563504599800,12.295599853515625,1.0101286172866821,-9.239673614501953,3.3399860858917236
1757491563514637600,12.305637451171876,0.477792888879776,-9.246781349182129,3.249380588531494
1757491563524678100,12.31567822265625,0.66274493932724,-9.108665466308594,3.022679567337036
1757491563534718500,12.325718505859374,0.9216928482055664,-8.926257133483887,2.747047185897827
1757491563544758800,12.3357587890625,0.6735188364982605,-8.79659652709961,2.4233062267303467
1757491563554799400,12.34579931640625,0.5131821632385254,-9.182661056518555,2.3068881034851074
1757491563564840200,12.355840087890625,0.7713818550109863,-9.246406555175781,2.0785412788391113
1757491563574880300,12.36588037109375,0.767192006111145,-9.293169021606445,1.8634370565414429
1757491563584920000,12.375920166015625,0.5806687474250793,-9.322123527526855,1.7376667261123657
1757491563594957000,12.38595703125,0.4999392330646515,-9.21939754486084,1.751807451248169
1757491563605001500,12.39600146484375,0.6523451209068298,-9.00623893737793,1.8157775402069092
1757491563615045000,12.406045166015625,0.6293757557868958,-8.848146438598633,1.973271131515503
1757491563625080600,12.41608056640625,1.002646803855896,-8.682796478271484,2.249502182006836
1757491563635119000,12.426119140625,1.2991536855697632,-8.677260398864746,2.5106945037841797
1757491563645159700,12.43615966796875,1.2334628105163574,-8.820388793945312,2.7415854930877686
1757491563655199700,12.44619970703125,1.2208184003829956,-8.686537742614746,2.719813108444214
1757491563665241900,12.456241943359375,1.2845640182495117,-9.247005462646484,2.7992706298828125
1757491563675281700,12.46628173828125,1.3247417211532593,-9.658733367919922,2.7510125637054443
1757491563685326000,12.476326171875,1.3227964639663696,-9.74125862121582,2.5237131118774414
1757491563695367400,12.486367431640625,1.1408370733261108,-9.764826774597168,2.2702269554138184
1757491563705409500,12.496409423828124,0.9242366552352905,-9.52937126159668,2.0031237602233887
1757491563715442400,12.5064423828125,1.26728093624115,-9.618854522705078,1.900696873664856
1757491563725484300,12.516484375,1.4657751321792603,-9.40951156616211,1.7580174207687378
1757491563735523800,12.52652392578125,1.9627964496612549,-9.310750961303711,1.922244668006897
1757491563745564400,12.536564453125,2.0999393463134766,-9.511789321899414,2.2281038761138916
1757491563755609000,12.546609130859375,2.0994155406951904,-9.46031379699707,2.4432079792022705
1757491563765649000,12.55664892578125,1.9266589879989624,-9.506327629089355,2.635866403579712
1757491563775689700,12.566689697265625,1.7743278741836548,-9.860594749450684,2.857330083847046
1757491563785730800,12.576730712890624,1.5582512617111206,-9.7320556640625,2.7840824127197266
1757491563795771400,12.586771484375,2.0520553588867188,-9.717915534973145,2.6803836822509766
1757491563805807900,12.596807861328125,1.8564789295196533,-9.813833236694336,2.3310546875
1757491563815852300,12.606852294921875,1.3130699396133423,-9.669732093811035,1.8249802589416504
1757491563825892400,12.616892333984374,1.3742717504501343,-9.714847564697266,1.495029330253601
1757491563835933000,12.626932861328125,0.713771402835846,-9.655665397644043,1.0522516965866089
1757491563845973200,12.63697314453125,1.2895768880844116,-9.401805877685547,0.9832687377929688
1757491563856014000,12.64701416015625,1.2030115127563477,-9.31501579284668,1.0821043252944946
1757491563866054400,12.657054443359375,1.1852046251296997,-9.168146133422852,1.3110499382019043
1757491563876091000,12.6670908203125,1.303942084312439,-9.22628116607666,1.7003321647644043
1757491563886135300,12.67713525390625,0.8650550246238708,-9.317410469055176,1.9177556037902832
1757491563896150800,12.68715087890625,0.8148515820503235,-9.39791488647461,2.0236241817474365
1757491563906215700,12.697215576171875,1.3162124156951904,-9.487024307250977,2.291550397872925
1757491563916256000,12.707256103515626,0.9320178031921387,-9.522562980651855,2.3360674381256104
1757491563926297300,12.71729736328125,0.8175450563430786,-9.447968482971191,2.251222848892212
1757491563936333600,12.72733349609375,0.6758382320404053,-9.527426719665527,1.931522250175476
1757491563946373600,12.73737353515625,1.8723405599594116,-9.43480110168457,2.1687726974487305
1757491563956416000,12.747416015625,0.9735422730445862,-9.685294151306152,2.372953176498413
1757491563966454800,12.757454833984376,0.9403975605964661,-9.60404109954834,2.370110034942627
1757491563976475100,12.76747509765625,0.9238625764846802,-9.475427627563477,2.207528829574585
1757491563986538800,12.777538818359375,0.7366659641265869,-9.28299331665039,1.9627217054367065
1757491563996576500,12.787576416015625,0.8127566576004028,-9.323320388793945,1.889249563217163
1757491564006620700,12.79762060546875,0.9494506120681763,-9.49809741973877,1.9435679912567139
1757491564016661800,12.807661865234374,0.9015665650367737,-9.550769805908203,1.9791817665100098
1757491564026701800,12.817701904296875,0.7986159324645996,-9.493682861328125,1.8428618907928467
1757491564036738800,12.82773876953125,0.2596960663795471,-9.614889144897461,1.6297780275344849
1757491564046783000,12.837782958984375,1.3784615993499756,-9.348908424377441,1.6084545850753784
1757491564056797200,12.847797119140624,1.8526631593704224,-9.46607494354248,1.4957027435302734
1757491564066838000,12.857838134765625,1.0135703086853027,-9.6687593460083,1.6820014715194702
1757491564076879400,12.86787939453125,0.9950900673866272,-9.668534278869629,1.396867036819458
1757491564086919400,12.87791943359375,1.3020715713500977,-9.676764488220215,1.020678162574768
1757491564096985000,12.887985107421875,1.573738694190979,-9.889100074768066,0.656460165977478
1757491564107022000,12.89802197265625,1.675492286682129,-9.810091972351074,0.09329904615879059
