time,seconds_elapsed,z,y,x
1757491551265171200,0.056171142578125,10.979958534240723,0.37663784623146057,2.6082582473754883
1757491551275227600,0.0662275390625,9.746271133422852,0.9716718196868896,2.1490204334259033
1757491551285267500,0.076267333984375,8.941071510314941,1.1798925399780273,1.291372537612915
1757491551295308800,0.086308837890625,8.1795654296875,2.349086046218872,-0.2688239514827728
1757491551305337000,0.096337158203125,5.767706871032715,8.902015686035156,-8.787393569946289
1757491551315397400,0.1063974609375,5.1770124435424805,12.2449951171875,-10.537779808044434
1757491551325438000,0.11643798828125,8.648530006408691,2.268730640411377,-0.09135375916957855
1757491551335476000,0.12647607421875,9.027412414550781,2.081084966659546,0.6013935208320618
1757491551345533700,0.13653369140625,10.132636070251465,4.156932830810547,0.14357727766036987
1757491551355578600,0.14657861328125,10.110788345336914,2.900949478149414,0.3679588735103607
1757491551365617000,0.156616943359375,10.314370155334473,3.0339772701263428,-0.046163201332092285
1757491551375657500,0.166657470703125,9.979781150817871,2.8288989067077637,-0.5018097162246704
1757491551385698300,0.1766982421875,9.699958801269531,2.716820478439331,-1.1993454694747925
1757491551395734800,0.18673486328125,9.193883895874023,2.8103439807891846,-0.8825625777244568
1757491551405774800,0.19677490234375,8.967856407165527,2.927135944366455,-0.7661445140838623
1757491551415794200,0.206794189453125,9.161637306213379,3.022679567337036,-0.563535213470459
1757491551425859800,0.21685986328125,9.21139144897461,3.191695213317871,-0.4659714996814728
1757491551435864800,0.22686474609375,9.413028717041016,3.187655210494995,-0.42871174216270447
1757491551445941000,0.23694091796875,9.397167205810547,3.1379005908966064,-0.5077952146530151
1757491551455977500,0.2469775390625,9.341277122497559,3.258059501647949,-0.6522703170776367
1757491551465997300,0.256997314453125,9.289427757263184,3.1185972690582275,-0.6768109202384949
1757491551476058600,0.26705859375,9.546355247497559,3.1536126136779785,-1.0895113945007324
1757491551486128400,0.27712841796875,9.352873802185059,3.135132312774658,-1.160290002822876
1757491551496142600,0.287142578125,9.134702682495117,3.0573208332061768,-1.0739490985870361
1757491551506184200,0.29718408203125,9.05374813079834,3.117250680923462,-1.1017817258834839
1757491551516220400,0.307220458984375,8.908899307250977,3.286790132522583,-1.049857497215271
1757491551526265300,0.317265380859375,8.812607765197754,3.0156466960906982,-0.9987562298774719
1757491551536309800,0.327309814453125,8.797569274902344,3.1601216793060303,-1.0072107315063477
1757491551546346200,0.33734619140625,8.965462684631348,3.0859763622283936,-1.0288333892822266
1757491551556361500,0.347361572265625,9.053897857666016,3.103708505630493,-1.0171616077423096
1757491551566424000,0.357424072265625,9.112481117248535,3.168351888656616,-1.0718541145324707
1757491551576463600,0.367463623046875,9.142633438110352,3.231274366378784,-0.9952397346496582
1757491551586482400,0.377482421875,9.322572708129883,3.4346320629119873,-0.87897127866745
1757491551596547000,0.387547119140625,9.280075073242188,3.487828254699707,-0.7602338790893555
1757491551606567400,0.3975673828125,9.101183891296387,3.540949583053589,-0.8342296481132507
1757491551616629800,0.407629638671875,8.814253807067871,3.713331937789917,-0.8281693458557129
1757491551626670000,0.417670166015625,8.431779861450195,3.7223851680755615,-0.6174795627593994
1757491551636686600,0.4276865234375,8.032097816467285,3.731438159942627,-0.6394762992858887
1757491551646747100,0.4377470703125,8.38681411743164,3.660435199737549,-0.875454843044281
1757491551656770600,0.4477705078125,8.375815391540527,3.108945608139038,-0.6548141837120056
1757491551666832100,0.45783203125,8.937705039978027,3.003451108932495,-0.4874444901943207
1757491551676872400,0.46787255859375,8.908899307250977,3.0336031913757324,-0.04803367331624031
1757491551686887700,0.4778876953125,9.55593204498291,2.711134195327759,-0.4768202304840088
1757491551696953300,0.487953369140625,10.607211112976074,2.871321201324463,-0.07489362359046936
1757491551706990300,0.497990234375,10.11782169342041,2.814159631729126,1.0260651111602783
1757491551717030700,0.50803076171875,9.499369621276855,2.589852809906006,1.1849054098129272
1757491551727074800,0.51807470703125,9.10066032409668,2.67716646194458,1.5083470344543457
1757491551737078300,0.528078369140625,8.482806205749512,2.9867665767669678,1.1457751989364624
1757491551747156200,0.53815625,8.20612621307373,2.688838243484497,1.1068693399429321
1757491551757171700,0.548171630859375,8.153903007507324,2.6006267070770264,0.8344541192054749
1757491551767201500,0.558201416015625,8.181137084960938,2.5878326892852783,0.7578396797180176
1757491551777273600,0.568273681640625,8.382623672485352,2.5324668884277344,0.786420464515686
1757491551787287300,0.578287353515625,8.754623413085938,2.424204111099243,0.8519617319107056
1757491551797351700,0.5883515625,9.108964920043945,2.4297406673431396,0.839616596698761
1757491551807374000,0.5983740234375,9.044546127319336,2.457423686981201,0.806696355342865
1757491551817436000,0.608435791015625,9.095871925354004,2.5090484619140625,0.7387608885765076
1757491551827476000,0.61847607421875,9.315539360046387,2.628833532333374,0.5834370255470276
1757491551837517300,0.628517333984375,9.444377899169922,2.6913070678710938,0.4663456082344055
1757491551847559700,0.6385595703125,9.686416625976562,2.614243745803833,0.524330198764801
1757491551857601500,0.6486015625,9.653571128845215,2.475679397583008,1.05337393283844
1757491551867616300,0.6586162109375,9.530942916870117,3.1722424030303955,-0.004563947208225727
1757491551877682200,0.66868212890625,9.584138870239258,2.8844892978668213,0.2330605685710907
1757491551887722800,0.67872265625,9.86658000946045,2.318110942840576,0.47494974732398987
1757491551897735200,0.688735107421875,9.422755241394043,2.736048698425293,0.8354267477989197
1757491551907799800,0.6987998046875,9.41991138458252,3.1774048805236816,0.43267714977264404
1757491551917812500,0.7088125,9.634267807006836,2.596885919570923,0.6652888059616089
1757491551927885000,0.718885009765625,9.874510765075684,2.2492775917053223,0.8801683783531189
1757491551937925000,0.728925048828125,9.808819770812988,2.51877498626709,0.9658359289169312
1757491551947942000,0.73894189453125,10.07390308380127,2.4974515438079834,1.102903962135315
1757491551958006500,0.749006591796875,10.322600364685059,2.322824478149414,1.0934020280838013
1757491551968022000,0.75902197265625,10.223240852355957,2.3213281631469727,0.9339631199836731
1757491551978086100,0.769086181640625,9.948356628417969,2.449866771697998,0.6318448185920715
1757491551988127700,0.779127685546875,9.566407203674316,2.5422680377960205,0.39796119928359985
1757491551998122200,0.789122314453125,9.305888175964355,2.5183260440826416,0.24263738095760345
1757491552008208600,0.799208740234375,9.214982986450195,2.4455273151397705,0.2593219578266144
1757491552018223600,0.8092236328125,9.188721656799316,2.4059481620788574,0.30690672993659973
1757491552028289500,0.81928955078125,9.202563285827637,2.362403631210327,0.16931495070457458
1757491552038326500,0.829326416015625,9.528399467468262,2.2524948120117188,-0.16228199005126953
1757491552048358100,0.839358154296875,9.682226181030273,2.0493619441986084,-0.42452189326286316
1757491552058409200,0.8494091796875,9.57785415649414,1.8925416469573975,-0.5766285061836243
1757491552068426200,0.85942626953125,9.647884368896484,1.8486977815628052,-0.6739677786827087
1757491552078487800,0.86948779296875,9.645265579223633,1.8022353649139404,-0.7005284428596497
1757491552088529400,0.879529296875,9.574711799621582,1.758167028427124,-0.6968623399734497
1757491552098547500,0.88954736328125,9.631948471069336,1.8014123439788818,-0.7648726105690002
1757491552108613400,0.89961328125,9.763928413391113,1.7397615909576416,-0.901940643787384
1757491552118629000,0.909629150390625,9.75278091430664,1.6876877546310425,-0.9929203391075134
1757491552128693800,0.91969384765625,9.75637149810791,1.568501353263855,-0.7873182892799377
1757491552138735400,0.9297353515625,9.660978317260742,1.50355863571167,-0.6584054827690125
1757491552148771800,0.939771728515625,9.714921951293945,1.5607202053070068,-0.6415712237358093
1757491552158812400,0.9498125,9.598204612731934,1.5736638307571411,-0.5681740045547485
1757491552168822000,0.959822021484375,9.623044967651367,1.5691747665405273,-0.6351368427276611
1757491552178897000,0.96989697265625,9.624990463256836,1.509993076324463,-0.7465420365333557
1757491552188941600,0.979941650390625,9.597456932067871,1.4982465505599976,-0.7894132137298584
1757491552198978300,0.989978271484375,9.568876266479492,1.4380173683166504,-0.6703764796257019
1757491552209018400,1.000018310546875,9.45328140258789,1.4522329568862915,-0.6112695932388306
1757491552219044900,1.010044921875,9.410933494567871,1.4920365810394287,-0.6203227043151855
1757491552229095700,1.020095703125,9.344345092773438,1.550694465637207,-0.6362590789794922
1757491552239139000,1.03013916015625,9.46255874633789,1.6525229215621948,-0.733972430229187
1757491552249180700,1.0401806640625,9.444676399230957,1.6393548250198364,-0.7280617952346802
1757491552259220700,1.050220703125,9.380407333374023,1.6691327095031738,-0.6952911615371704
1757491552269237200,1.0602373046875,9.306635856628418,1.731381893157959,-0.6969371438026428
1757491552279302000,1.070302001953125,9.24603271484375,1.7525556087493896,-0.6141875386238098
1757491552289338400,1.08033837890625,9.117643356323242,1.7650504112243652,-0.44165539741516113
1757491552299383000,1.090383056640625,9.164929389953613,1.6891093254089355,-0.3959411084651947
1757491552309421000,1.100421142578125,9.421707153320312,1.7953519821166992,-0.4596867263317108
1757491552319438300,1.110438232421875,9.641151428222656,1.7987936735153198,-0.4941033720970154
1757491552329501000,1.1205009765625,9.696816444396973,1.681777000427246,-0.5142296552658081
1757491552339543000,1.13054296875,9.896207809448242,1.6956185102462769,-0.4685153365135193
1757491552349584600,1.140584716796875,9.902268409729004,1.7458219528198242,-0.48729485273361206
1757491552359622000,1.150621826171875,9.808595657348633,1.8733880519866943,-0.42512044310569763
1757491552369645600,1.1606455078125,9.499743461608887,1.818171739578247,-0.26059389114379883
1757491552379702800,1.170702880859375,9.465476036071777,1.9446154832839966,-0.1999158412218094
1757491552389721900,1.180721923828125,9.472808837890625,1.8250551223754883,0.08087912946939468
1757491552399787800,1.190787841796875,9.526753425598145,1.665466547012329,0.4614075720310211
1757491552409828000,1.200828125,9.496077537536621,1.6779613494873047,0.6167314052581787
1757491552419844000,1.210843994140625,9.413776397705078,1.5720926523208618,0.8037784099578857
1757491552429909500,1.220909423828125,9.40060806274414,1.4878467321395874,0.9393500685691833
1757491552439926800,1.2309267578125,9.5177001953125,1.4764742851257324,1.0425251722335815
1757491552449965300,1.24096533203125,9.71477222442627,1.432405948638916,1.20600426197052
1757491552460030500,1.251030517578125,9.904064178466797,1.3456909656524658,1.3465139865875244
1757491552470046000,1.2610458984375,10.112659454345703,1.0881646871566772,1.7030255794525146
1757491552480102000,1.271101806640625,10.092308044433594,0.9305962920188904,1.9359365701675415
1757491552490128600,1.281128662109375,10.107048034667969,0.9573065638542175,2.0971710681915283
1757491552500190700,1.291190673828125,9.973346710205078,1.0295066833496094,2.506355047225952
1757491552510233000,1.301233154296875,9.077615737915039,0.800261914730072,3.0185647010803223
1757491552520248000,1.311248046875,8.216376304626465,0.7638251781463623,3.1535377502441406
1757491552530293500,1.32129345703125,7.5965776443481445,0.7598597407341003,3.428496837615967
1757491552540329500,1.33132958984375,6.976928234100342,0.24914661049842834,4.020987033843994
1757491552550392800,1.341392822265625,6.806490898132324,0.41614219546318054,4.356997966766357
1757491552560436200,1.351436279296875,7.131728172302246,0.367061048746109,4.7859344482421875
1757491552570472200,1.36147216796875,5.922731399536133,0.3067570924758911,5.2649245262146
1757491552580514600,1.3715146484375,5.079224109649658,0.6811503767967224,4.638915538787842
1757491552590531000,1.381531005859375,5.807809829711914,-0.09329904615879059,6.315230846405029
1757491552600580900,1.391580810546875,7.782726764678955,0.013991116546094418,5.7626190185546875
1757491552610655700,1.40165576171875,9.050755500793457,-0.4232499599456787,4.692934513092041
1757491552620702500,1.411702392578125,10.089465141296387,-0.38471829891204834,3.802964925765991
1757491552630698800,1.42169873046875,10.292448997497559,-0.9693524241447449,3.1572787761688232
1757491552640757000,1.431757080078125,10.13405704498291,-1.1642553806304932,2.513537645339966
1757491552650795500,1.44179541015625,10.20416259765625,-1.2839654684066772,2.5517702102661133
1757491552660814800,1.45181494140625,9.61444091796875,-1.0455927848815918,2.576385498046875
1757491552670877200,1.461877197265625,8.84971809387207,-1.2251578569412231,2.8973581790924072
1757491552680918000,1.47191796875,7.330970764160156,-1.2991536855697632,3.5853171348571777
1757491552690961400,1.48196142578125,6.155642032623291,-1.7726070880889893,4.309488296508789
1757491552701000000,1.492,5.834146022796631,-1.788543462753296,4.772691249847412
1757491552711040800,1.502040771484375,5.996128559112549,-2.1275475025177,5.194519996643066
1757491552721081300,1.512081298828125,7.471555233001709,-2.7204864025115967,4.900856018066406
1757491552731124700,1.522124755859375,7.486668586730957,-1.9990836381912231,4.614449501037598
1757491552741205200,1.532205322265625,6.467411994934082,-1.2507458925247192,3.7280712127685547
1757491552751200000,1.542199951171875,6.30752420425415,-1.8460043668746948,4.163965702056885
1757491552761245400,1.552245361328125,5.116483688354492,-2.82747745513916,4.5149407386779785
1757491552771286000,1.5622861328125,5.56554651260376,-2.638784408569336,3.864914894104004
1757491552781301200,1.57230126953125,7.510535717010498,-2.056020736694336,3.5137155055999756
1757491552791367400,1.582367431640625,7.282937049865723,-2.464456558227539,4.339041709899902
1757491552801390800,1.592390869140625,8.0076322555542,-3.114856481552124,4.553247928619385
1757491552811443700,1.602443603515625,8.350601196289062,-3.484910249710083,5.428627967834473
1757491552821484500,1.612484619140625,8.119710922241211,-4.220154762268066,6.925901889801025
1757491552831502800,1.6225029296875,8.442778587341309,-5.198335647583008,7.887996673583984
1757491552841580500,1.63258056640625,9.36940860748291,-6.116362571716309,7.5732340812683105
1757491552851626800,1.642626708984375,9.799542427062988,-6.4304518699646,6.713491439819336
1757491552861650700,1.652650634765625,9.731382369995117,-6.181978225708008,5.433865070343018
1757491552871687000,1.66268701171875,9.672201156616211,-5.886219501495361,4.037596702575684
1757491552881706000,1.6727060546875,9.394248962402344,-5.712265968322754,3.204713821411133
1757491552891752000,1.682751953125,8.647931098937988,-5.551181316375732,3.204489231109619
1757491552901838300,1.69283837890625,7.253608226776123,-5.578714370727539,5.11768102645874
1757491552911852500,1.7028525390625,5.677699565887451,-6.4030680656433105,7.671920299530029
1757491552921893400,1.712893310546875,5.5324015617370605,-7.110330104827881,9.541342735290527
1757491552931930600,1.7229306640625,6.001814842224121,-7.036858081817627,10.252046585083008
1757491552941961200,1.732961181640625,5.243600845336914,-6.364760875701904,10.511892318725586
1757491552952016100,1.74301611328125,5.347300052642822,-6.203376770019531,10.18792724609375
1757491552962051600,1.753051513671875,6.163273811340332,-6.669871807098389,10.364723205566406
1757491552972096300,1.76309619140625,6.609193801879883,-6.985233306884766,10.766276359558105
1757491552982115300,1.773115234375,6.226794719696045,-6.75883150100708,11.224242210388184
1757491552992152800,1.78315283203125,4.779948711395264,-6.3215155601501465,12.328118324279785
1757491553002217200,1.79321728515625,3.1647605895996094,-6.381744861602783,13.668123245239258
1757491553012232700,1.803232666015625,1.7714099884033203,-6.25200891494751,14.66590690612793
1757491553022298000,1.813298095703125,0.8880243897438049,-5.6063971519470215,15.29251480102539
1757491553032316200,1.823316162109375,-0.22168810665607452,-4.250156879425049,15.163601875305176
1757491553042379000,1.83337890625,-0.5713163614273071,-3.5998318195343018,14.605154037475586
1757491553052417800,1.843417724609375,-0.6140379309654236,-3.553144931793213,14.090176582336426
1757491553062456000,1.8534560546875,-0.6236147284507751,-3.4876785278320312,13.391368865966797
1757491553072496400,1.863496337890625,-1.1519851684570312,-3.3593642711639404,12.689493179321289
1757491553082538800,1.873538818359375,-1.523909330368042,-3.260603427886963,12.125060081481934
1757491553092581600,1.88358154296875,-2.08168363571167,-3.1150808334350586,11.582099914550781
1757491553102622500,1.89362255859375,-2.5469818115234375,-2.772111415863037,11.374104499816895
1757491553112642600,1.903642578125,-2.757671356201172,-2.7737574577331543,11.036147117614746
1757491553122677500,1.913677490234375,-3.336394786834717,-3.0142998695373535,10.822464942932129
1757491553132744000,1.923743896484375,-4.480673789978027,-2.5638158321380615,10.587384223937988
1757491553142784300,1.9337841796875,-5.506065368652344,-2.1541080474853516,9.616386413574219
1757491553152824600,1.943824462890625,-5.752967357635498,-2.233715295791626,8.114623069763184
1757491553162865200,1.953865234375,-5.945476055145264,-2.6139445304870605,6.297947406768799
1757491553172880400,1.96388037109375,-4.911705017089844,-3.4626142978668213,5.186065196990967
1757491553182946600,1.973946533203125,-3.5021185874938965,-5.176413536071777,4.340986728668213
1757491553192992000,1.983991943359375,-2.6734254360198975,-5.6588454246521,4.3494415283203125
1757491553203027700,1.99402783203125,-2.8877065181732178,-6.41848087310791,4.709245204925537
1757491553213067800,2.00406787109375,-2.5276784896850586,-6.429479122161865,5.151424407958984
1757491553223097900,2.014097900390625,-1.0772411823272705,-6.034585475921631,6.032789707183838
1757491553233148400,2.0241484375,-0.5455039143562317,-6.694113254547119,6.972139835357666
1757491553263245600,2.05424560546875,0.665513277053833,-7.337480068206787,7.564854145050049
1757491553283342800,2.0743427734375,1.4086884260177612,-6.860884189605713,7.305682182312012
1757491553293377000,2.084376953125,1.4518588781356812,-6.525770664215088,7.381698131561279
1757491553303406000,2.094406005859375,1.6371102333068848,-6.29128885269165,7.727285861968994
1757491553313465600,2.104465576171875,1.6695815324783325,-6.126163482666016,8.137517929077148
1757491553323479000,2.11447900390625,1.7431284189224243,-6.1111249923706055,8.469039916992188
1757491553353609500,2.144609375,1.0535235404968262,-5.319541931152344,8.954913139343262
1757491553383730200,2.174730224609375,0.7013514637947083,-5.081243991851807,8.429460525512695
1757491553403800000,2.194800048828125,1.1335797309875488,-5.621136665344238,7.834351539611816
1757491553413840400,2.20484033203125,1.183334231376648,-5.670891284942627,7.745467185974121
1757491553423902000,2.21490185546875,1.0919804573059082,-5.652336120605469,7.878494739532471
1757491553433942300,2.2249423828125,0.7716811299324036,-5.274576187133789,8.116418838500977
1757491553443998700,2.234998779296875,0.33092355728149414,-4.790647983551025,8.175375938415527
1757491553454039800,2.245039794921875,-0.4953004717826843,-4.06198787689209,8.355988502502441
1757491553464080100,2.255080078125,0.019602525979280472,-3.5951931476593018,8.470087051391602
1757491553474121200,2.265121337890625,0.9866355657577515,-3.91900897026062,8.736666679382324
1757491553484161500,2.27516162109375,1.4258219003677368,-4.4456586837768555,9.112930297851562
1757491553494201300,2.285201416015625,1.0610054731369019,-6.117409706115723,9.244236946105957
1757491553504242700,2.29524267578125,0.9330652952194214,-5.827112674713135,8.493729591369629
1757491553514260200,2.30526025390625,0.7618798613548279,-4.972831726074219,7.925107002258301
1757491553524303600,2.3153037109375,-0.1992424726486206,-4.718896865844727,8.285733222961426
1757491553534364200,2.3253642578125,-0.13444939255714417,-4.494889259338379,8.618677139282227
1757491553544409600,2.33540966796875,0.050203416496515274,-4.701688289642334,8.856226921081543
1757491553554440400,2.3454404296875,0.361973375082016,-4.9386396408081055,8.885406494140625
1757491553564481000,2.35548095703125,0.6476315855979919,-5.070993900299072,8.760309219360352
1757491553574524700,2.365524658203125,0.7289596199989319,-5.239785194396973,8.573861122131348
1757491553584574000,2.375573974609375,0.20635025203227997,-4.8226704597473145,8.215179443359375
1757491553594607000,2.385607177734375,0.4676923453807831,-4.8436198234558105,8.267552375793457
1757491553604647700,2.395647705078125,0.4076876640319824,-5.262829303741455,8.805574417114258
1757491553614687200,2.405687255859375,0.36646249890327454,-5.432293891906738,8.795024871826172
1757491553624729300,2.415729248046875,0.529268205165863,-5.213374137878418,8.657358169555664
1757491553644808700,2.43580859375,-0.03531447425484657,-4.456731796264648,8.403722763061523
1757491553654850600,2.4458505859375,0.23036709427833557,-4.215740203857422,8.380229949951172
1757491553664889900,2.455889892578125,0.6789806485176086,-4.080617427825928,8.387337684631348
1757491553674931500,2.465931396484375,0.5070470571517944,-4.02465295791626,8.215478897094727
1757491553684971300,2.47597119140625,0.22266076505184174,-3.7562780380249023,8.120758056640625
1757491553695012400,2.486012451171875,0.1843535304069519,-3.4951603412628174,8.206201553344727
1757491553705049300,2.49604931640625,0.1471685916185379,-3.331157684326172,8.384119987487793
1757491553715088400,2.50608837890625,0.27331307530403137,-3.2478842735290527,8.647781372070312
1757491553725129700,2.516129638671875,0.8825625777244568,-3.1132853031158447,8.795024871826172
1757491553735169500,2.52616943359375,1.7457470893859863,-3.4355297088623047,8.496498107910156
1757491553745210400,2.53621044921875,1.7450737953186035,-4.38924503326416,8.514080047607422
1757491553755251200,2.546251220703125,1.4436287879943848,-4.962132453918457,8.544981002807617
1757491553765292800,2.556292724609375,1.7470190525054932,-4.5423994064331055,8.569072723388672
1757491553775336400,2.56633642578125,2.3503577709198,-3.0056209564208984,8.632742881774902
1757491553785376500,2.57637646484375,3.548281669616699,-2.4408137798309326,8.262240409851074
1757491553795415300,2.586415283203125,1.2009166479110718,-4.160748481750488,8.086116790771484
1757491553805453600,2.59645361328125,0.09120412170886993,-5.50816011428833,8.022595405578613
1757491553815493600,2.60649365234375,0.3604021668434143,-6.13753604888916,7.735441207885742
1757491553825534700,2.61653466796875,0.14088380336761475,-6.842628479003906,7.645808219909668
1757491553835579100,2.6265791015625,-0.18667291104793549,-7.677980422973633,7.647678852081299
1757491553845619000,2.636618896484375,-1.1397897005081177,-8.279224395751953,7.575253963470459
1757491553855660000,2.646659912109375,-2.4659528732299805,-8.292990684509277,7.847445011138916
1757491553865695700,2.65669580078125,-2.2665607929229736,-7.704466342926025,8.056937217712402
1757491553875714800,2.66671484375,-1.584213376045227,-6.95231294631958,7.876250267028809
1757491553885777000,2.67677685546875,-1.1942577362060547,-6.047828197479248,7.393669128417969
1757491553895822300,2.686822265625,-0.882861852645874,-4.9683427810668945,7.27418327331543
1757491553905862700,2.696862548828125,-0.7653963565826416,-3.846808671951294,7.618798732757568
1757491553915902200,2.706902099609375,-0.6617723107337952,-2.571073293685913,8.224756240844727
1757491553925943300,2.716943359375,-0.0727238729596138,-1.0921300649642944,8.396615028381348
1757491553935979500,2.7269794921875,0.06539163738489151,-0.4133738875389099,8.244209289550781
1757491553946024000,2.73702392578125,-0.06973112374544144,-0.5605424642562866,8.34409236907959
1757491553956061000,2.74706103515625,-1.8697967529296875,-2.620004892349243,8.579621315002441
1757491553966104000,2.75710400390625,-2.017488956451416,-5.630115032196045,8.112603187561035
1757491553976146200,2.767146240234375,-2.0511574745178223,-8.430133819580078,7.639298915863037
1757491553986186500,2.7771865234375,-1.782333493232727,-10.128146171569824,7.353416442871094
1757491553996226800,2.787226806640625,-1.7735048532485962,-11.1358060836792,7.581688404083252
1757491554006263600,2.797263671875,-1.5541361570358276,-10.973673820495605,7.804872989654541
1757491554016303000,2.80730322265625,-1.109562873840332,-10.244789123535156,8.071452140808105
1757491554026348500,2.8173486328125,-0.871489405632019,-8.877923965454102,8.311022758483887
1757491554036390400,2.827390380859375,-1.0188076496124268,-7.56208610534668,8.089035034179688
1757491554046426000,2.837426025390625,-0.8960300087928772,-6.117634296417236,7.876250267028809
1757491554056466000,2.8474658203125,-0.625859260559082,-4.874220371246338,7.70431661605835
1757491554066507000,2.857507080078125,-0.29560908675193787,-3.881749153137207,7.551910877227783
1757491554076546000,2.867546142578125,-0.24697686731815338,-3.8535425662994385,7.381248950958252
1757491554086591500,2.877591552734375,-0.43933600187301636,-3.8237645626068115,7.199813365936279
1757491554096631800,2.8876318359375,-0.22213701903820038,-4.4880805015563965,7.220538139343262
1757491554106672400,2.89767236328125,-0.6548889875411987,-5.040093898773193,7.1866455078125
1757491554116712200,2.907712158203125,-0.7196820378303528,-5.812448501586914,7.169811248779297
1757491554126753500,2.91775341796875,-0.6733692288398743,-6.463895797729492,7.047108173370361
1757491554136793900,2.9277939453125,-0.25917232036590576,-7.0685811042785645,7.032742977142334
1757491554146830600,2.93783056640625,-0.5135562419891357,-7.861959934234619,7.2422356605529785
1757491554156875300,2.947875244140625,-1.0164883136749268,-8.490213394165039,7.433622360229492
1757491554166914600,2.95791455078125,-0.9942670464515686,-8.958354949951172,7.449483871459961
1757491554176955600,2.96795556640625,-0.6775590777397156,-9.078887939453125,7.342193603515625
1757491554186996200,2.977996337890625,-0.6557120084762573,-8.823455810546875,7.106364727020264
1757491554197037000,2.988037109375,-0.5333832502365112,-8.207847595214844,6.926126480102539
1757491554207073500,2.998073486328125,-0.5363759994506836,-7.721973896026611,6.948497295379639
1757491554217117400,3.008117431640625,-0.5472247004508972,-7.115642070770264,6.998027324676514
1757491554227158500,3.018158447265625,-0.5254524350166321,-6.178835868835449,7.057882308959961
1757491554237198600,3.028198486328125,-0.5090671181678772,-5.680393218994141,7.187617778778076
1757491554247239400,3.038239501953125,-0.49963995814323425,-5.242254257202148,6.9566521644592285
1757491554257280000,3.048280029296875,-0.36406829953193665,-5.110498428344727,7.079803943634033
1757491554267319800,3.05831982421875,-0.361299991607666,-5.034332752227783,7.12925910949707
1757491554277357000,3.068357177734375,-0.3512742817401886,-5.161674499511719,7.041197776794434
1757491554287406800,3.07840673828125,-0.3446902334690094,-5.617395877838135,6.961740016937256
1757491554297438000,3.08843798828125,-0.5909188985824585,-6.104391098022461,6.991816997528076
1757491554307478500,3.098478515625,-0.6629694104194641,-6.498761177062988,7.139883518218994
1757491554317519000,3.10851904296875,-0.7749731540679932,-6.886247634887695,7.288174629211426
1757491554327573500,3.118573486328125,-0.6708253622055054,-7.145719528198242,7.342043876647949
1757491554337600000,3.12860009765625,-0.4361936151981354,-7.3232645988464355,7.441178798675537
1757491554347644200,3.13864404296875,-0.49223291873931885,-7.348478317260742,7.497367858886719
1757491554357685500,3.148685546875,-0.7746738791465759,-7.253907203674316,7.515997886657715
1757491554367724500,3.158724609375,-0.416740745306015,-6.989797115325928,7.615207195281982
1757491554377762000,3.168761962890625,-0.6720973253250122,-6.748955249786377,7.76716423034668
1757491554387806200,3.17880615234375,-0.03321954980492592,-6.774543285369873,7.715090751647949
1757491554397843000,3.188843017578125,-0.48894086480140686,-6.734216213226318,7.667356014251709
1757491554407887400,3.198887451171875,-0.3324199318885803,-6.493074893951416,7.373542785644531
1757491554417927200,3.20892724609375,-0.28880056738853455,-6.217741966247559,7.217695236206055
1757491554427968800,3.21896875,-0.5159504413604736,-6.004807472229004,7.203479766845703
1757491554438008800,3.2290087890625,-0.568772554397583,-5.820154666900635,7.300369739532471
1757491554448045300,3.23904541015625,-0.42354923486709595,-5.655104637145996,7.453598976135254
1757491554458090200,3.24909033203125,-0.06636428087949753,-5.620538234710693,7.610867977142334
1757491554468125700,3.259125732421875,0.08529343456029892,-5.770549774169922,7.693841934204102
1757491554478144800,3.269144775390625,-0.03396773710846901,-6.030320644378662,7.619846343994141
1757491554488185600,3.279185546875,-0.31551089882850647,-6.264278888702393,7.439383029937744
1757491554498226200,3.28922607421875,-0.538171648979187,-6.448931694030762,7.408183574676514
1757491554508266200,3.299266357421875,-0.6312462687492371,-6.511330604553223,7.496469974517822
1757491554518332400,3.30933251953125,-0.5508908629417419,-6.482301235198975,7.657405376434326
1757491554528369400,3.319369384765625,-0.34192192554473877,-6.501080513000488,7.7708306312561035
1757491554538412800,3.329412841796875,0.05529109388589859,-6.5773210525512695,7.862782955169678
1757491554548450800,3.339450927734375,-0.2412906438112259,-6.511854648590088,7.9922943115234375
1757491554558491600,3.34949169921875,-0.5098153352737427,-6.213028430938721,8.01107406616211
1757491554568533000,3.359532958984375,-0.4198082983493805,-5.753565788269043,8.028057098388672
1757491554578576000,3.369575927734375,-0.24735096096992493,-5.517063617706299,7.963189601898193
1757491554588616700,3.37961669921875,-0.5076456069946289,-5.499331474304199,7.8273186683654785
1757491554598653200,3.389653076171875,-0.6139631271362305,-6.037578105926514,7.552060127258301
1757491554608693200,3.399693359375,-0.792555570602417,-6.47324800491333,7.320870399475098
1757491554618737400,3.4097373046875,-0.4266168177127838,-7.065738201141357,7.020472526550293
1757491554628778200,3.4197783203125,-0.298302561044693,-7.239691734313965,6.876670837402344
1757491554638818800,3.42981884765625,0.41359832882881165,-7.878345012664795,6.638747215270996
1757491554648859400,3.439859375,-0.11350012570619583,-8.420482635498047,6.5516581535339355
1757491554658896000,3.449895751953125,-0.041449617594480515,-8.910919189453125,6.465691089630127
1757491554668939800,3.459939697265625,-0.13115736842155457,-9.181913375854492,6.238765716552734
1757491554678977000,3.46997705078125,0.00785597413778305,-9.32534122467041,6.22043514251709
1757491554689021400,3.480021484375,0.3131166994571686,-9.851092338562012,6.457685947418213
1757491554699062300,3.490062255859375,-0.14267945289611816,-8.905981063842773,5.972111701965332
1757491554709102800,3.500102783203125,-0.34603697061538696,-7.941267967224121,5.306598663330078
1757491554719138300,3.51013818359375,0.08424597233533859,-8.122478485107422,4.861800670623779
1757491554729183500,3.52018359375,0.2240075021982193,-8.50989055633545,4.450447082519531
1757491554739224000,3.53022412109375,-0.01496376097202301,-8.412551879882812,4.135983467102051
1757491554749260000,3.540260009765625,0.1363198608160019,-7.917774677276611,3.7544076442718506
1757491554759305000,3.550304931640625,-0.4298340380191803,-7.798962593078613,3.7900211811065674
1757491554769344800,3.5603447265625,-0.4290110170841217,-7.715539455413818,4.067449569702148
1757491554779387100,3.57038720703125,-0.5841103792190552,-7.651719093322754,4.505363941192627
1757491554789422300,3.58042236328125,-0.6172551512718201,-7.7108259201049805,4.92996072769165
1757491554799463200,3.590463134765625,-0.5217863321304321,-7.826570510864258,5.119626045227051
1757491554809503200,3.600503173828125,-0.8577227592468262,-8.11709213256836,5.301810264587402
1757491554819543300,3.610543212890625,-1.1143512725830078,-8.235679626464844,5.4549641609191895
1757491554829588200,3.620588134765625,-1.0604816675186157,-8.126818656921387,5.901707172393799
1757491554839628800,3.63062890625,-0.8227823972702026,-7.9415669441223145,6.281337738037109
1757491554849665300,3.640665283203125,-0.2701706886291504,-8.11357593536377,6.139182090759277
1757491554859709700,3.650709716796875,-0.29538464546203613,-8.203059196472168,5.6280198097229
1757491554869750000,3.66075,-0.7108534574508667,-8.11365032196045,4.7964091300964355
1757491554879791400,3.670791259765625,-1.021575927734375,-7.798139572143555,4.579209804534912
1757491554889827800,3.680827880859375,-0.375291109085083,-7.70199728012085,4.255843162536621
1757491554899872000,3.6908720703125,0.027009587734937668,-7.486668586730957,4.557363033294678
1757491554909912600,3.70091259765625,0.5805190801620483,-7.274557590484619,4.717325687408447
1757491554919948300,3.7109482421875,0.20777182281017303,-7.098733425140381,4.765583515167236
1757491554929993500,3.720993408203125,-1.849969744682312,-6.973636150360107,4.6983962059021
1757491554940034000,3.731033935546875,0.5267243981361389,-7.098733425140381,4.9275665283203125
1757491554950075000,3.741074951171875,0.45579615235328674,-7.644311904907227,5.196315288543701
1757491554960115000,3.751114990234375,1.044620156288147,-8.145747184753418,5.758204936981201
1757491554970155000,3.761155029296875,1.1551275253295898,-8.481908798217773,6.111050128936768
1757491554980192000,3.77119189453125,-0.26912322640419006,-8.712499618530273,6.064812183380127
1757491554990236700,3.781236572265625,-1.1365724802017212,-8.183530807495117,6.812252044677734
1757491555000276700,3.79127685546875,2.1675007343292236,-7.5732340812683105,8.280646324157715
1757491555010317800,3.80131787109375,2.6137948036193848,-7.6443867683410645,9.54897403717041
1757491555020357400,3.811357421875,-0.49387893080711365,-7.687856674194336,10.317288398742676
1757491555030373400,3.821373291015625,-2.568753957748413,-6.827065944671631,9.170391082763672
1757491555040435000,3.83143505859375,-1.4226795434951782,-6.036829948425293,7.642965316772461
1757491555050476500,3.8414765625,0.08963292837142944,-6.468010902404785,6.975506782531738
1757491555060517600,3.851517578125,-0.17320552468299866,-7.010447025299072,6.621089935302734
1757491555070558200,3.86155810546875,-0.31124621629714966,-7.391948223114014,6.2981719970703125
1757491555080613400,3.87161328125,-0.046088382601737976,-7.556399822235107,6.152649402618408
1757491555090641000,3.881640869140625,0.191835418343544,-7.17512321472168,5.74361515045166
1757491555100683000,3.89168310546875,0.4059668183326721,-6.932635307312012,6.160729885101318
1757491555110720500,3.901720458984375,0.10459668934345245,-6.7877116203308105,6.642787456512451
1757491555120760000,3.911760009765625,-0.455422043800354,-6.705410957336426,6.826093673706055
1757491555130777300,3.92177734375,-0.9262567758560181,-6.922086238861084,6.829236030578613
1757491555140839700,3.931839599609375,-1.2095955610275269,-7.295656204223633,6.637101173400879
1757491555150880500,3.941880615234375,-0.7977181077003479,-7.62725305557251,6.190283298492432
1757491555160924700,3.951924560546875,0.5413140654563904,-7.994089603424072,5.864148139953613
1757491555170965000,3.961965087890625,1.1584943532943726,-8.39489459991455,5.599663734436035
1757491555181004000,3.972004150390625,0.5975777506828308,-8.709582328796387,4.910432815551758
1757491555191044400,3.98204443359375,0.3727472722530365,-8.271143913269043,4.413187026977539
1757491555201084400,3.99208447265625,1.6493057012557983,-3.3779194355010986,3.514164447784424
1757491555211201300,4.002201171875,-0.7323264479637146,-4.031087398529053,4.467131614685059
1757491555221202400,4.012202392578125,-0.7523030638694763,-3.824662446975708,4.263325214385986
1757491555231217700,4.0222177734375,-0.5428852438926697,-3.6385879516601562,4.2457427978515625
1757491555241245400,4.032245361328125,-0.17485153675079346,-4.055478572845459,4.662483215332031
1757491555251290400,4.042290283203125,-0.47824180126190186,-5.758728504180908,5.118952751159668
1757491555261326300,4.052326416015625,-0.6342390179634094,-7.975759029388428,5.611934185028076
1757491555271371500,4.06237158203125,-0.27219080924987793,-9.694197654724121,6.0772318840026855
1757491555281410000,4.07241015625,0.04825812950730324,-10.387693405151367,6.427907943725586
1757491555291448000,4.082447998046875,-0.08963292837142944,-10.403255462646484,6.724414825439453
1757491555301488400,4.09248828125,-0.3621230125427246,-9.579350471496582,6.8039469718933105
1757491555311531800,4.10253173828125,-0.6622960567474365,-8.351947784423828,6.646528244018555
1757491555321581800,4.112581787109375,-1.376441478729248,-6.664783954620361,6.85213041305542
1757491555331614000,4.122614013671875,-0.8604910373687744,-6.420875072479248,6.136638164520264
1757491555341654500,4.132654541015625,-0.2908954918384552,-6.699948787689209,5.1523966789245605
1757491555351691000,4.14269091796875,0.07841010391712189,-7.679851055145264,4.506935119628906
1757491555361731600,4.152731689453125,0.47996261715888977,-8.94069766998291,4.138602256774902
1757491555371775500,4.162775390625,0.33167174458503723,-9.02367115020752,3.5468602180480957
1757491555381816600,4.172816650390625,0.1687164008617401,-8.971298217773438,3.1290719509124756
1757491555391857200,4.182857177734375,0.010549451224505901,-9.216179847717285,3.205761194229126
1757491555401897500,4.1928974609375,-0.12509703636169434,-9.345616340637207,3.595716953277588
1757491555411938300,4.202938232421875,-0.07900865375995636,-9.31853199005127,3.9119012355804443
1757491555421974500,4.212974609375,0.09382277727127075,-9.121310234069824,4.068721294403076
1757491555431993600,4.22299365234375,0.37252283096313477,-9.315165519714355,4.0446295738220215
1757491555442059300,4.233059326171875,0.20545242726802826,-9.307458877563477,3.9858222007751465
1757491555452099600,4.243099609375,0.08312369138002396,-9.295188903808594,3.692906379699707
1757491555462140400,4.253140380859375,0.2288707196712494,-9.3543701171875,3.2992098331451416
1757491555472180700,4.2631806640625,0.10998363792896271,-8.73921012878418,3.0342764854431152
1757491555482222000,4.27322216796875,0.12360066175460815,-8.453851699829102,2.785504102706909
1757491555492258800,4.2832587890625,-0.013691840693354607,-8.749310493469238,2.6850972175598145
1757491555502303000,4.293302978515625,0.10384850203990936,-9.249773979187012,2.688389301300049
1757491555512344000,4.303343994140625,0.19774609804153442,-9.711854934692383,2.656142234802246
1757491555522383000,4.313383056640625,0.04863222315907478,-9.871817588806152,2.9349920749664307
1757491555532422000,4.323421875,0.22378304600715637,-9.939004898071289,2.956465005874634
1757491555542461200,4.333461181640625,0.27398645877838135,-10.221894264221191,2.920851230621338
1757491555552502000,4.343501953125,0.28700491786003113,-10.16024398803711,2.7589433193206787
1757491555562542000,4.3535419921875,0.45482349395751953,-9.76976490020752,2.45054030418396
1757491555572586000,4.3635859375,0.6352116465568542,-9.46375560760498,2.0782418251037598
1757491555582626300,4.373626220703125,0.7090578079223633,-9.597980499267578,1.6581343412399292
1757491555592667400,4.38366748046875,0.5520131587982178,-9.41632080078125,1.2054805755615234
1757491555602707700,4.393707763671875,0.40297406911849976,-9.745747566223145,1.230245590209961
1757491555612748500,4.40374853515625,0.38075289130210876,-10.318037033081055,1.3100024461746216
1757491555622788900,4.413788818359375,0.41045594215393066,-10.707319259643555,1.3096283674240112
1757491555632825900,4.423825927734375,0.4878185987472534,-11.04018783569336,1.233088731765747
1757491555642870300,4.433870361328125,0.4620061218738556,-11.191396713256836,1.146224021911621
1757491555652910600,4.44391064453125,0.5581482648849487,-10.928258895874023,1.0210522413253784
1757491555662951200,4.453951171875,0.3993079662322998,-10.916736602783203,0.9157073497772217
1757491555672991200,4.4639912109375,0.4750994145870209,-10.723928451538086,0.7436240911483765
1757491555683028000,4.474028076171875,0.6470330357551575,-10.580126762390137,0.5874024033546448
1757491555693072600,4.48407275390625,0.6532429456710815,-10.444629669189453,0.472555547952652
1757491555703113500,4.494113525390625,0.6169558763504028,-10.516830444335938,0.3457376956939697
1757491555713153500,4.504153564453125,0.7190086841583252,-10.624045372009277,0.26583120226860046
1757491555723193900,4.51419384765625,0.5870283246040344,-10.794407844543457,0.22707507014274597
1757491555733234400,4.524234375,0.491110622882843,-10.989311218261719,0.3133411407470703
1757491555743275500,4.534275634765625,0.5118354558944702,-11.312602996826172,0.49485155940055847
1757491555753312000,4.54431201171875,0.33833062648773193,-11.95125675201416,0.7610568404197693
1757491555763357200,4.554357177734375,0.21420623362064362,-11.479449272155762,0.517746090888977
1757491555773401600,4.564401611328125,0.35075053572654724,-10.508899688720703,0.2611176371574402
1757491555783433700,4.574433837890625,0.39205053448677063,-10.224213600158691,0.14350245893001556
1757491555793474300,4.584474365234375,0.39384618401527405,-9.998111724853516,0.05910685285925865
1757491555803516400,4.594516357421875,0.4305822253227234,-8.719233512878418,0.025812486186623573
1757491555813556500,4.604556396484375,0.511536180973053,-9.003021240234375,0.42444705963134766
1757491555823599000,4.61459912109375,0.4661211371421814,-9.836277961730957,0.6457610726356506
1757491555833640000,4.624639892578125,0.45684361457824707,-10.008810997009277,0.5264999270439148
1757491555843680800,4.6346806640625,0.423025518655777,-9.763704299926758,0.4602852761745453
1757491555853721000,4.64472119140625,0.5956324934959412,-9.805228233337402,0.3553893268108368
1757491555863757800,4.6547578125,0.4339490532875061,-9.757868766784668,-0.01346738450229168
1757491555873801700,4.6648017578125,0.2932897210121155,-9.775750160217285,-0.4735282063484192
1757491555883843000,4.674843017578125,0.46088382601737976,-9.652822494506836,-0.9961375594139099
1757491555893883100,4.684883056640625,0.4431517720222473,-9.50393295288086,-1.171662449836731
1757491555903923700,4.694923828125,0.3552396893501282,-9.564910888671875,-0.8757541179656982
1757491555913964500,4.704964599609375,0.6672340631484985,-9.6873140335083,-0.3398270010948181
1757491555924004400,4.71500439453125,0.79764324426651,-9.429862976074219,-0.029628245159983635
1757491555934041000,4.725041015625,0.5960065722465515,-9.52585506439209,0.1198597252368927
1757491555944086500,4.73508642578125,0.38561612367630005,-9.964892387390137,0.11312603205442429
1757491555954126300,4.745126220703125,0.24817396700382233,-9.89546012878418,-0.13040918111801147
1757491555964167000,4.7551669921875,0.25011926889419556,-9.910274505615234,-0.2844610810279846
1757491555974206700,4.765206787109375,0.3627963662147522,-10.032752990722656,-0.41112932562828064
1757491555984248600,4.77524853515625,0.0991349145770073,-10.274118423461914,-0.5499181747436523
1757491555994289200,4.7852890625,-0.1389385163784027,-10.503138542175293,-0.5348796248435974
1757491556004325400,4.795325439453125,0.43761518597602844,-9.950227737426758,-0.2247556895017624
1757491556014370300,4.805370361328125,0.3793313205242157,-9.642722129821777,-0.09711480885744095
1757491556024407600,4.815407470703125,0.463801771402359,-9.619603157043457,-0.22266076505184174
1757491556034446600,4.825446533203125,0.4911854565143585,-9.620575904846191,-0.2753331959247589
1757491556044487400,4.8354873046875,0.4412812888622284,-9.565658569335938,-0.24607904255390167
1757491556054529800,4.84552978515625,0.4967220425605774,-9.640103340148926,-0.4245966970920563
1757491556064575000,4.855574951171875,0.2809446156024933,-9.43943977355957,-0.12749123573303223
1757491556074612500,4.865612548828125,0.2795978784561157,-9.7012300491333,0.17140987515449524
1757491556084653800,4.87565380859375,0.46006083488464355,-9.827150344848633,-0.02596212550997734
1757491556094689800,4.885689697265625,0.5939116477966309,-9.934664726257324,-0.30533552169799805
1757491556104734700,4.895734619140625,0.47068509459495544,-9.728240013122559,-0.23537994921207428
1757491556114775300,4.905775390625,0.45482349395751953,-9.689109802246094,0.07047931104898453
1757491556124814800,4.91581494140625,0.788739800453186,-9.537976264953613,0.33601123094558716
1757491556134856000,4.92585595703125,0.5148282051086426,-9.413402557373047,0.32860419154167175
1757491556144896800,4.935896728515625,1.1151742935180664,-8.873435020446777,0.10392332077026367
1757491556154937600,4.9459375,0.7385364174842834,-9.279027938842773,-0.10706570744514465
1757491556164974000,4.95597412109375,0.6037129163742065,-8.899995803833008,-0.1743278056383133
1757491556175018200,4.966018310546875,0.769810676574707,-8.531588554382324,-0.1165676936507225
1757491556185064400,4.976064453125,0.9605985879898071,-7.719879150390625,-0.3720739185810089
1757491556195094800,4.9860947265625,0.5968295931816101,-7.708356857299805,-0.9145102500915527
1757491556205136000,4.996135986328125,0.4539256691932678,-8.140660285949707,-0.6100724935531616
1757491556215176400,5.006176513671875,0.2925415337085724,-8.34184741973877,-0.4495861828327179
1757491556235257600,5.026257568359375,0.16519992053508759,-8.814253807067871,0.49298110604286194
1757491556245300200,5.03630029296875,0.6251859068870544,-8.606706619262695,-0.08776245266199112
1757491556255339000,5.046339111328125,0.6325181722640991,-8.942268371582031,-0.5804442763328552
1757491556265383700,5.0563837890625,0.6109703183174133,-9.422979354858398,-0.9249100685119629
1757491556275421000,5.0664208984375,0.5199906826019287,-9.75278091430664,-1.0889877080917358
1757491556285460500,5.07646044921875,0.4736030101776123,-10.011504173278809,-1.1561001539230347
1757491556295501000,5.0865009765625,0.5843348503112793,-10.114753723144531,-1.072602391242981
1757491556305541400,5.096541259765625,0.6127659678459167,-10.179397583007812,-1.045742392539978
1757491556315581700,5.106581787109375,0.4887164235115051,-10.471639633178711,-1.0625766515731812
1757491556325625600,5.11662548828125,0.29209262132644653,-10.743605613708496,-1.0503811836242676
1757491556335666700,5.126666748046875,0.33421558141708374,-10.620529174804688,-1.0867431163787842
1757491556345707000,5.13670703125,0.5097405314445496,-10.530970573425293,-1.1477952003479004
1757491556355748600,5.14674853515625,0.6062567830085754,-10.56800651550293,-1.164030909538269
1757491556365787100,5.156787109375,0.6353612542152405,-10.71210765838623,-1.2594249248504639
1757491556375824400,5.166824462890625,0.49717095494270325,-10.914342880249023,-1.3711293935775757
1757491556385865700,5.17686572265625,0.8147019743919373,-11.470845222473145,-0.9455600380897522
1757491556395909600,5.18690966796875,1.191115379333496,-15.963563919067383,-2.1505167484283447
1757491556405950500,5.196950439453125,-0.37581485509872437,-10.23431396484375,-2.994921922683716
1757491556415991000,5.206990966796875,0.3298012912273407,-8.190190315246582,-1.7016788721084595
1757491556426030800,5.21703076171875,0.26074352860450745,-9.309703826904297,-0.290072500705719
1757491556436072200,5.227072265625,0.41681554913520813,-9.65843391418457,0.17821839451789856
1757491556446109000,5.23710888671875,0.4709843695163727,-9.134702682495117,-0.4890905022621155
1757491556456153300,5.2471533203125,0.7171382308006287,-9.579200744628906,-1.2402713298797607
1757491556466193700,5.257193603515625,0.591667115688324,-10.492513656616211,-1.4737060070037842
1757491556476233700,5.267233642578125,0.45332711935043335,-10.399739265441895,-1.61803138256073
1757491556486274800,5.27727490234375,0.4397101104259491,-9.655591011047363,-1.418489694595337
1757491556496315600,5.287315673828125,0.5868787169456482,-9.759065628051758,-1.0439467430114746
1757491556506356000,5.29735595703125,0.5439326763153076,-9.560795783996582,-0.8013842105865479
1757491556516393000,5.30739306640625,0.5583727359771729,-9.606510162353516,-1.230170726776123
1757491556526432300,5.317432373046875,0.5481973886489868,-9.765050888061523,-1.2729671001434326
1757491556536473900,5.327473876953125,0.3734206557273865,-10.013897895812988,-1.1317840814590454
1757491556546515500,5.337515380859375,0.43836337327957153,-9.874286651611328,-1.1263971328735352
1757491556556556300,5.347556396484375,0.6388029456138611,-9.741931915283203,-1.115623116493225
1757491556566598100,5.35759814453125,0.5992985963821411,-9.717391014099121,-1.2334628105163574
1757491556576635100,5.36763525390625,0.5217863321304321,-9.710208892822266,-1.2187235355377197
1757491556586680300,5.377680419921875,0.4742763936519623,-9.690156936645508,-1.1599159240722656
1757491556596720400,5.387720458984375,0.5529857873916626,-9.330428123474121,-1.238999366760254
1757491556606757000,5.397757080078125,0.6676082015037537,-9.602619171142578,-1.2842648029327393
1757491556616801800,5.4078017578125,0.5244798064231873,-9.374122619628906,-1.0947487354278564
1757491556626841600,5.417841552734375,0.43604397773742676,-9.51089096069336,-0.9234136939048767
1757491556636878800,5.42787890625,0.47891515493392944,-9.584961891174316,-0.9599252343177795
1757491556646923300,5.43792333984375,0.494926393032074,-9.697713851928711,-1.1099369525909424
1757491556656964000,5.447964111328125,0.7007529139518738,-10.148945808410645,-1.1783961057662964
1757491556667004400,5.45800439453125,0.4899883270263672,-10.361132621765137,-1.1907413005828857
1757491556677040000,5.4680400390625,0.5161749124526978,-10.327388763427734,-1.2693758010864258
1757491556687085600,5.47808544921875,0.48153382539749146,-10.25855541229248,-1.4131776094436646
1757491556697126000,5.4881259765625,0.653841495513916,-9.907580375671387,-1.2087725400924683
1757491556707163000,5.498162841796875,0.5663034915924072,-9.722628593444824,-1.1593921184539795
1757491556717207000,5.50820703125,0.5721393823623657,-9.698387145996094,-1.220070242881775
1757491556727247000,5.5182470703125,0.5084685683250427,-9.7744779586792,-1.2704232931137085
1757491556737288200,5.5282880859375,0.6052092909812927,-9.789216995239258,-1.208922266960144
1757491556747328800,5.538328857421875,0.4742763936519623,-9.799318313598633,-1.0556185245513916
1757491556757370000,5.5483701171875,0.342894583940506,-10.087445259094238,-1.2001683712005615
1757491556767405600,5.558405517578125,0.5285200476646423,-9.97372055053711,-1.0606313943862915
1757491556777445600,5.568445556640625,0.5099649429321289,-9.828123092651367,-1.0464158058166504
1757491556787487000,5.578487060546875,0.5819406509399414,-9.696741104125977,-1.0685621500015259
1757491556797529000,5.588529052734375,0.6041618585586548,-9.5833158493042,-1.1180921792984009
1757491556807573500,5.598573486328125,0.5888239741325378,-9.524582862854004,-1.14742112159729
1757491556817612300,5.6086123046875,0.5959317684173584,-9.547477722167969,-1.1177929639816284
1757491556827652400,5.61865234375,0.5395932197570801,-9.667037963867188,-1.0669909715652466
1757491556837689600,5.628689697265625,0.5334580540657043,-9.735198020935059,-1.0351929664611816
1757491556847734300,5.638734375,0.4999392330646515,-9.753080368041992,-1.0411784648895264
1757491556857774600,5.648774658203125,0.5211877822875977,-9.78757095336914,-1.0772411823272705
1757491556867815200,5.658815185546875,0.5557540655136108,-9.799467086791992,-1.089436650276184
1757491556877855200,5.668855224609375,0.6140379309654236,-9.759963035583496,-1.0978163480758667
1757491556887896000,5.67889599609375,0.6356605291366577,-9.723077774047852,-1.0904840230941772
1757491556897932800,5.688932861328125,0.6166566014289856,-9.726743698120117,-1.0581623315811157
1757491556907973400,5.698973388671875,0.5725134611129761,-9.741183280944824,-1.0270377397537231
1757491556918017800,5.709017822265625,0.5832874178886414,-9.736470222473145,-1.0091559886932373
1757491556928057600,5.7190576171875,0.5951087474822998,-9.755548477172852,-1.0164883136749268
1757491556938099000,5.729098876953125,0.6093243360519409,-9.780463218688965,-1.0537480115890503
1757491556948139300,5.73913916015625,0.6199486255645752,-9.77672290802002,-1.0895862579345703
1757491556958176300,5.74917626953125,0.575057327747345,-9.770886421203613,-1.0857704877853394
1757491556968220700,5.759220703125,0.5358522534370422,-9.74941349029541,-1.0746972560882568
1757491556978256600,5.769256591796875,0.5143792629241943,-9.772233963012695,-1.0354174375534058
1757491556988301800,5.7793017578125,0.5275473594665527,-9.752032279968262,-1.0197802782058716
1757491556998342700,5.7893427734375,0.5812672972679138,-9.761758804321289,-1.0021978616714478
1757491557008383200,5.79938330078125,0.6039373874664307,-9.766547203063965,-1.0071358680725098
1757491557018421500,5.80942138671875,0.6027402877807617,-9.763105392456055,-0.9867851734161377
1757491557028459300,5.819459228515625,0.5644330382347107,-9.798869132995605,-0.9868600368499756
1757491557038501000,5.829501220703125,0.5291934013366699,-9.793706893920898,-0.9830442667007446
1757491557048541000,5.839541015625,0.5339818000793457,-9.790265083312988,-0.9698761701583862
1757491557058585300,5.84958544921875,0.5065981149673462,-9.775899887084961,-0.9589526057243347
1757491557068626000,5.8596259765625,0.5281459093093872,-9.765275001525879,-0.9506477117538452
1757491557078665700,5.869665771484375,0.5198410153388977,-9.759215354919434,-0.9576807022094727
1757491557088703000,5.879702880859375,0.5651812553405762,-9.750985145568848,-0.9519196152687073
1757491557098747600,5.88974755859375,0.5615150928497314,-9.771111488342285,-0.9734674692153931
1757491557108788200,5.899788330078125,0.6281038522720337,-9.808146476745605,-0.9967361092567444
1757491557118824400,5.909824462890625,0.5995978713035583,-9.761384963989258,-1.030853509902954
1757491557128861700,5.91986181640625,0.46679452061653137,-9.611372947692871,-0.9015665650367737
1757491557138909700,5.92990966796875,0.4412812888622284,-9.81136417388916,-0.7667431235313416
1757491557148950500,5.939950439453125,0.47472530603408813,-9.797073364257812,-0.7668179273605347
1757491557158986800,5.94998681640625,0.5858312249183655,-9.725321769714355,-0.819340705871582
1757491557169031700,5.96003173828125,0.6108955144882202,-9.704971313476562,-0.8503904938697815
1757491557179076600,5.97007666015625,0.6453869938850403,-9.734748840332031,-0.8650550246238708
1757491557189112600,5.980112548828125,0.5422118902206421,-9.5554838180542,-0.8729109764099121
1757491557199153000,5.99015283203125,0.5517886877059937,-9.615861892700195,-0.7409306168556213
1757491557209193000,6.00019287109375,0.5408651232719421,-9.668384552001953,-0.7400327920913696
1757491557219230700,6.010230712890625,0.5596446394920349,-9.7158203125,-0.8048258423805237
1757491557229291500,6.02029150390625,0.6091746687889099,-9.815703392028809,-0.908375084400177
1757491557239315500,6.0303154296875,0.5472995638847351,-10.034772872924805,-1.026513934135437
1757491557249355800,6.040355712890625,0.5740098357200623,-9.946710586547852,-0.9747393727302551
1757491557259401200,6.050401123046875,0.5264251232147217,-9.938555717468262,-0.913612425327301
1757491557269433000,6.06043310546875,0.4777180552482605,-9.924489974975586,-0.8476222157478333
1757491557279497700,6.070497802734375,0.5169231295585632,-9.81031608581543,-0.8029553890228271
1757491557289516000,6.08051611328125,0.6141127347946167,-9.660079956054688,-0.7904606461524963
1757491557299556000,6.09055615234375,0.4109048545360565,-9.780388832092285,-0.7998878359794617
1757491557309599000,6.100598876953125,0.5135562419891357,-9.726593971252441,-0.836997926235199
1757491557319639600,6.1106396484375,0.6162824630737305,-9.65963077545166,-0.8943091630935669
1757491557329653500,6.120653564453125,0.576478898525238,-9.218574523925781,-0.7300070524215698
1757491557339720700,6.130720703125,0.35112464427948,-9.402628898620605,-0.3663128614425659
1757491557349757200,6.140757080078125,0.4024503529071808,-9.793706893920898,-0.26171618700027466
1757491557359801900,6.1508017578125,0.5390694737434387,-9.791387557983398,-0.5260509848594666
1757491557369842400,6.160842529296875,0.6007949709892273,-9.747468948364258,-0.7492355108261108
1757491557379858000,6.17085791015625,0.54692542552948,-9.720458984375,-0.8800187706947327
1757491557389923300,6.18092333984375,0.5088427066802979,-9.694197654724121,-0.867748498916626
1757491557399964000,6.1909638671875,0.4661211371421814,-9.659706115722656,-0.8315361738204956
1757491557410000100,6.201000244140625,0.49485155940055847,-9.664793968200684,-0.7756465077400208
1757491557420041000,6.211041015625,0.4636521339416504,-9.752257347106934,-0.7032967209815979
1757491557430059300,6.221059326171875,0.49455228447914124,-9.789216995239258,-0.7191583514213562
1757491557440126000,6.2311259765625,0.44337621331214905,-9.735347747802734,-0.7281365990638733
1757491557450166500,6.24116650390625,0.4514566659927368,-9.820117950439453,-0.7371148467063904
1757491557460207000,6.25120703125,0.46252983808517456,-9.989208221435547,-0.8349030017852783
1757491557470247700,6.26124755859375,0.39639002084732056,-10.172064781188965,-0.7857470512390137
1757491557480269300,6.271269287109375,0.3918260633945465,-9.773131370544434,-0.8045265674591064
1757491557490329000,6.2813291015625,0.5283703804016113,-9.560346603393555,-0.89438396692276
1757491557500369400,6.291369384765625,0.5666776299476624,-9.52578067779541,-0.9026888608932495
1757491557510409200,6.3014091796875,0.45190557837486267,-9.659855842590332,-0.7956979870796204
1757491557520446700,6.31144677734375,0.4444985091686249,-9.77013874053955,-0.702099621295929
1757491557530505200,6.321505126953125,0.42541971802711487,-9.788095474243164,-0.68182373046875
1757491557540529400,6.331529296875,0.40050506591796875,-9.761834144592285,-0.6732195615768433
1757491557550569000,6.34156884765625,0.3802291452884674,-9.76781940460205,-0.6600514650344849
1757491557560610000,6.351610107421875,0.4231751561164856,-9.739163398742676,-0.6851157546043396
1757491557570652700,6.361652587890625,0.4685153365135193,-9.727117538452148,-0.7186346054077148
1757491557580691500,6.37169140625,0.527996301651001,-9.729287147521973,-0.7750479578971863
1757491557590731500,6.3817314453125,0.5374234914779663,-9.751808166503906,-0.8074445128440857
1757491557600771300,6.391771240234375,0.5223100781440735,-9.782633781433105,-0.8015338182449341
1757491557610810600,6.401810546875,0.463801771402359,-9.790863037109375,-0.8096891045570374
1757491557620851000,6.411850830078125,0.3874865770339966,-9.806500434875488,-0.7605331540107727
1757491557630891500,6.4218916015625,0.3827729821205139,-9.816226959228516,-0.7175871133804321
1757491557640935400,6.431935302734375,0.40462008118629456,-9.749712944030762,-0.6515969634056091
1757491557650975700,6.441975830078125,0.3973626494407654,-9.761459350585938,-0.6862380504608154
1757491557661016300,6.452016357421875,0.4082862138748169,-9.767969131469727,-0.5861304998397827
1757491557671032300,6.4620322265625,0.3556137681007385,-9.782034873962402,-0.6205471754074097
1757491557681073700,6.47207373046875,0.5386953949928284,-9.753528594970703,-0.6988075971603394
1757491557691113500,6.482113525390625,0.4635024964809418,-9.742530822753906,-0.7234978079795837
1757491557701153800,6.49215380859375,0.4587140679359436,-9.77133560180664,-0.6890811920166016
1757491557711219000,6.502218994140625,0.47659578919410706,-9.782184600830078,-0.6808511018753052
1757491557721257700,6.5122578125,0.4420294761657715,-9.781062126159668,-0.6532429456710815
1757491557731297000,6.522297119140625,0.41457098722457886,-9.778518676757812,-0.6721721291542053
1757491557741342500,6.532342529296875,0.41464582085609436,-9.755773544311523,-0.6792051196098328
1757491557751382800,6.5423828125,0.43858781456947327,-9.741632461547852,-0.6565349698066711
1757491557761421000,6.552421142578125,0.4709095358848572,-9.734600067138672,-0.6435165405273438
1757491557771459600,6.56245947265625,0.45908817648887634,-9.732355117797852,-0.5969043970108032
1757491557781500700,6.572500732421875,0.4983680546283722,-9.771934509277344,-0.5722890496253967
1757491557791541000,6.582541015625,0.5280711054801941,-9.806724548339844,-0.5475988388061523
1757491557801581000,6.5925810546875,0.5185691118240356,-9.788768768310547,-0.5593453645706177
1757491557811626000,6.6026259765625,0.46642041206359863,-9.716044425964355,-0.5144540667533875
1757491557821666300,6.612666259765625,0.4661211371421814,-9.538723945617676,-0.405892014503479
1757491557831706600,6.62270654296875,0.5260509848594666,-9.65835952758789,-0.6217442750930786
1757491557841747700,6.632747802734375,0.566153883934021,-9.787047386169434,-0.7003788352012634
1757491557851788300,6.642788330078125,0.5708674788475037,-9.820566177368164,-0.6815244555473328
1757491557861825000,6.652824951171875,0.45497313141822815,-9.868226051330566,-0.6658125519752502
1757491557871869000,6.662868896484375,0.42766427993774414,-9.849296569824219,-0.6285527944564819
1757491557881909800,6.67290966796875,0.39893385767936707,-9.85610580444336,-0.6786065697669983
1757491557891950300,6.682950439453125,0.44427403807640076,-9.888651847839355,-0.6289268732070923
1757491557901991000,6.692990966796875,0.43372461199760437,-9.856703758239746,-0.5701941251754761
1757491557912031200,6.70303125,0.3957914710044861,-9.800515174865723,-0.5731868743896484
1757491557922068500,6.713068359375,0.5105634927749634,-9.631050109863281,-0.5511152744293213
1757491557932108000,6.72310791015625,0.5677999258041382,-9.581745147705078,-0.6429179906845093
1757491557942153000,6.733153076171875,0.42863690853118896,-9.812187194824219,-0.6020669341087341
1757491557952193800,6.74319384765625,0.37963059544563293,-9.795053482055664,-0.6792799234390259
1757491557962234400,6.753234375,0.43028295040130615,-9.922544479370117,-0.7543231844902039
1757491557972275200,6.763275146484375,0.48130935430526733,-9.92434024810791,-0.8930372595787048
1757491557982315500,6.7733154296875,0.5223848819732666,-9.794304847717285,-0.8756044507026672
1757491557992355800,6.78335595703125,0.5141547918319702,-9.58788013458252,-0.5925649404525757
1757491558002400800,6.79340087890625,0.36144962906837463,-9.663447380065918,-0.47659578919410706
1757491558012432600,6.8034326171875,0.38643911480903625,-9.62723445892334,-0.5731868743896484
1757491558022473500,6.813473388671875,0.37880760431289673,-9.847426414489746,-0.9647884368896484
1757491558032514300,6.823514404296875,0.5429600477218628,-9.670928955078125,-0.9572317600250244
1757491558042556400,6.833556396484375,0.4258686304092407,-9.823334693908691,-0.7668179273605347
1757491558052594700,6.8435947265625,0.4262427091598511,-9.815703392028809,-0.6151602268218994
1757491558062639400,6.853639404296875,0.488491952419281,-9.751358985900879,-0.604311466217041
1757491558072680200,6.86368017578125,0.5433341264724731,-9.745298385620117,-0.6438906192779541
1757491558082720500,6.873720458984375,0.4795885384082794,-9.797821998596191,-0.5949591398239136
1757491558092757000,6.883757080078125,0.43694180250167847,-9.741931915283203,-0.5359270572662354
1757491558102801400,6.893801513671875,0.4379892647266388,-9.787272453308105,-0.5422118902206421
1757491558112842000,6.903842041015625,0.4902127981185913,-9.77949047088623,-0.6879588961601257
1757491558122878700,6.913878662109375,0.5425859689712524,-9.739537239074707,-0.81806880235672
1757491558132923000,6.9239228515625,0.4992658793926239,-9.790414810180664,-0.89573073387146
1757491558142964000,6.9339638671875,0.6306477189064026,-9.78016471862793,-0.8366238474845886
1757491558153004000,6.944004150390625,0.4685901701450348,-9.744325637817383,-0.7903110384941101
1757491558163041000,6.954041015625,0.47412675619125366,-9.76318073272705,-0.62458735704422
1757491558173085700,6.964085693359375,0.41846156120300293,-9.708712577819824,-0.5237316489219666
1757491558183126300,6.974126220703125,0.3886088728904724,-9.761534690856934,-0.44996029138565063
1757491558193166300,6.984166259765625,0.45519760251045227,-9.793631553649902,-0.5018097162246704
1757491558203207200,6.994207275390625,0.5443816184997559,-9.820791244506836,-0.5930886268615723
1757491558213247700,7.004247802734375,0.5561281442642212,-9.844433784484863,-0.6422445774078369
1757491558223288000,7.0142880859375,0.561066210269928,-9.794304847717285,-0.6335656046867371
1757491558233328000,7.024328125,0.6139631271362305,-9.719411849975586,-0.590320348739624
1757491558243370000,7.034369873046875,0.512658417224884,-9.941922187805176,-0.7130979895591736
1757491558253408300,7.044408203125,0.49305590987205505,-9.737667083740234,-0.7187842130661011
1757491558263446300,7.0544462890625,0.6527940630912781,-9.508048057556152,-0.609399139881134
1757491558273487600,7.064487548828125,0.4621557593345642,-9.852214813232422,-0.4783914387226105
1757491558283528400,7.074528564453125,0.4556465148925781,-10.102558135986328,-0.3213467597961426
1757491558293573400,7.084573486328125,0.5615899562835693,-9.8854341506958,-0.8072200417518616
1757491558303612400,7.0946123046875,0.47981297969818115,-9.938106536865234,-1.007659673690796
1757491558313653000,7.104653076171875,0.4775684177875519,-9.428590774536133,-0.6903530955314636
1757491558323689500,7.114689453125,0.48295536637306213,-9.45567512512207,-0.5474491715431213
1757491558333734000,7.12473388671875,0.49881696701049805,-9.682525634765625,-0.5657049417495728
1757491558343774700,7.134774658203125,0.5422118902206421,-9.801188468933105,-0.7266402244567871
1757491558353815000,7.14481494140625,0.5288941264152527,-9.832088470458984,-0.7542483806610107
1757491558363855600,7.154855712890625,0.5489455461502075,-9.894113540649414,-0.7654711604118347
1757491558373892000,7.16489208984375,0.5287444591522217,-9.87391185760498,-0.7437736988067627
1757491558383936500,7.1749365234375,0.5485714673995972,-9.681702613830566,-0.7413794994354248
1757491558393973200,7.18497314453125,0.5862053036689758,-9.614665031433105,-0.5501426458358765
1757491558404017700,7.195017578125,0.4091840386390686,-9.757194519042969,-0.3760392963886261
1757491558414058000,7.20505810546875,0.43851301074028015,-9.881394386291504,-0.3853916525840759
1757491558424098800,7.215098876953125,0.5001636743545532,-9.927407264709473,-0.508917510509491
1757491558434139100,7.22513916015625,0.5277718305587769,-9.826701164245605,-0.6073790192604065
1757491558444176000,7.23517578125,0.5127332806587219,-9.701455116271973,-0.582614004611969
1757491558454220500,7.245220458984375,0.4950760304927826,-9.656264305114746,-0.5333084464073181
1757491558464257300,7.25525732421875,0.5093663930892944,-9.674295425415039,-0.5203647613525391
1757491558474301700,7.2653017578125,0.5245546102523804,-9.745673179626465,-0.5781996846199036
1757491558484342000,7.275342041015625,0.5288193225860596,-9.801412582397461,-0.6370072960853577
1757491558494382800,7.2853828125,0.5061492323875427,-9.797672271728516,-0.6643909811973572
1757491558504421400,7.29542138671875,0.4645499587059021,-9.780014991760254,-0.6055833697319031
1757491558514460000,7.3054599609375,0.4990414083003998,-9.79063892364502,-0.6308721303939819
1757491558524501000,7.3155009765625,0.5063736438751221,-9.76213264465332,-0.6128408312797546
1757491558534540800,7.325540771484375,0.5076456069946289,-9.759888648986816,-0.5758054852485657
1757491558544585500,7.33558544921875,0.5288193225860596,-9.812187194824219,-0.6323685050010681
1757491558554625800,7.345625732421875,0.5062240362167358,-9.763031005859375,-0.6688801050186157
1757491558564662800,7.355662841796875,0.4126257002353668,-9.701754570007324,-0.46754270792007446
1757491558574706700,7.365706787109375,0.4576666057109833,-9.773430824279785,-0.47307929396629333
1757491558584747800,7.375747802734375,0.5207388401031494,-9.80679988861084,-0.5045779943466187
1757491558594788000,7.3857880859375,0.578947901725769,-9.813608169555664,-0.596754789352417
1757491558604824600,7.395824462890625,0.6381295919418335,-9.877578735351562,-0.7287351489067078
1757491558614869200,7.405869140625,0.4752490520477295,-9.704073905944824,-0.7578396797180176
1757491558624909800,7.415909912109375,0.45848962664604187,-9.481487274169922,-0.6047604084014893
1757491558634950400,7.425950439453125,0.5587468147277832,-9.778817176818848,-0.6263082027435303
1757491558644991000,7.435990966796875,0.5156511664390564,-9.95673656463623,-0.6583306193351746
1757491558655031800,7.44603173828125,0.5325602293014526,-9.922320365905762,-0.627206027507782
1757491558665068500,7.456068603515625,0.5029320120811462,-9.866130828857422,-0.6290764808654785
1757491558675110100,7.466110107421875,0.5303905010223389,-9.821688652038574,-0.7004536390304565
1757491558685149200,7.476149169921875,0.5785738229751587,-9.708413124084473,-0.6760627031326294
1757491558695189500,7.486189453125,0.6313958764076233,-9.605687141418457,-0.7018752098083496
1757491558705229800,7.496229736328125,0.6549637913703918,-9.661725997924805,-0.7178863883018494
1757491558715273500,7.5062734375,0.6141875386238098,-9.745448112487793,-0.6813000440597534
1757491558725318400,7.516318359375,0.5408651232719421,-9.806200981140137,-0.655038595199585
1757491558735355400,7.52635546875,0.4943278431892395,-9.839795112609863,-0.6096984148025513
1757491558745401000,7.536401123046875,0.4655974209308624,-9.866130828857422,-0.5871031284332275
1757491558755432400,7.546432373046875,0.47891515493392944,-9.837625503540039,-0.553509533405304
1757491558765473500,7.5564736328125,0.5301660299301147,-9.84720230102539,-0.5669769048690796
1757491558775515100,7.56651513671875,0.5835866928100586,-9.874436378479004,-0.625859260559082
1757491558785556500,7.576556396484375,0.6215946078300476,-9.899351119995117,-0.6667851805686951
1757491558795599000,7.58659912109375,0.6241384744644165,-9.843161582946777,-0.6974608898162842
1757491558805638700,7.596638671875,0.6218938827514648,-9.867253303527832,-0.6617723107337952
1757491558815676000,7.606676025390625,0.541837751865387,-9.91738224029541,-0.6343138217926025
1757491558825720000,7.616719970703125,0.4783914387226105,-9.951798439025879,-0.661697506904602
1757491558835756800,7.6267568359375,0.5009866952896118,-9.934664726257324,-0.7487865686416626
1757491558845801500,7.636801513671875,0.5627870559692383,-9.892168045043945,-0.9278279542922974
1757491558855841800,7.646841796875,0.5472247004508972,-9.961824417114258,-0.8399158716201782
1757491558865882600,7.656882568359375,0.49126026034355164,-9.916259765625,-0.8607903122901917
1757491558875918800,7.6669189453125,0.5630863308906555,-9.799018859863281,-0.9271546006202698
1757491558885963800,7.6769638671875,0.6135889887809753,-9.77709674835205,-0.7852981686592102
1757491558896003800,7.68700390625,0.6341641545295715,-9.693524360656738,-0.7907599210739136
1757491558906040600,7.69704052734375,0.6735188364982605,-9.64908218383789,-0.858695387840271
1757491558916085200,7.707085205078125,0.606780469417572,-9.67309856414795,-0.8000374436378479
1757491558926125300,7.717125244140625,0.564807116985321,-9.68701457977295,-0.8810662031173706
1757491558936166000,7.727165771484375,0.5205892324447632,-9.69038200378418,-0.908375084400177
1757491558946203000,7.737202880859375,0.6042366623878479,-9.646313667297363,-0.9036614894866943
1757491558956247300,7.747247314453125,0.5392939448356628,-9.690681457519531,-1.1029788255691528
1757491558966288000,7.757287841796875,0.711227536201477,-9.792509078979492,-0.8383446931838989
1757491558976328700,7.76732861328125,0.535552978515625,-9.87578296661377,-0.8500164151191711
1757491558986369800,7.777369873046875,0.5010614991188049,-9.810989379882812,-0.9007435441017151
1757491558996408600,7.78740869140625,0.5420622229576111,-9.653047561645508,-0.9810241460800171
1757491559006445600,7.797445556640625,0.6000468134880066,-9.732728958129883,-1.0701333284378052
1757491559016486700,7.807486572265625,0.56233811378479,-9.592967987060547,-1.0642226934432983
1757491559026527500,7.817527587890625,0.555978536605835,-9.755698204040527,-0.9984569549560547
1757491559036574200,7.82757421875,0.549693763256073,-9.872864723205566,-0.9562591314315796
1757491559046612000,7.837612060546875,0.6323685050010681,-9.752331733703613,-0.9772831797599792
1757491559056652500,7.847652587890625,0.6815993189811707,-9.649605751037598,-0.9911994934082031
1757491559066688800,7.857688720703125,0.7436988949775696,-9.597980499267578,-1.0639233589172363
1757491559076729600,7.8677294921875,0.6547393202781677,-9.487174034118652,-0.9887304902076721
1757491559086773500,7.8777734375,0.5534346699714661,-9.831191062927246,-0.9380781650543213
1757491559096814600,7.887814697265625,0.6443395614624023,-9.76325511932373,-0.9320926666259766
1757491559106855000,7.89785498046875,0.6768109202384949,-9.71933650970459,-0.8901941180229187
1757491559116895500,7.9078955078125,0.6884077787399292,-9.749937057495117,-0.9894786477088928
1757491559126935300,7.917935302734375,0.6739677786827087,-9.807173728942871,-1.0089315176010132
1757491559136972800,7.927972900390625,0.7196820378303528,-9.69853687286377,-1.0179097652435303
1757491559147017500,7.938017578125,0.5371242165565491,-9.84503173828125,-0.7937526702880859
1757491559157057300,7.948057373046875,0.4362684488296509,-9.534758567810059,-0.4845265746116638
1757491559167098600,7.9580986328125,0.5611410140991211,-9.953519821166992,-1.0821791887283325
1757491559177138700,7.968138671875,0.6971616148948669,-9.976638793945312,-1.0375871658325195
1757491559187179300,7.97817919921875,0.7678653597831726,-9.492859840393066,-0.6062567830085754
1757491559197215700,7.9882158203125,0.3621230125427246,-9.132457733154297,-0.6938695907592773
1757491559207256300,7.99825634765625,0.6543652415275574,-10.267085075378418,-1.4211831092834473
1757491559217301200,8.00830126953125,0.7906103134155273,-10.348487854003906,-1.169343113899231
1757491559227341800,8.018341796875,0.8313117027282715,-10.010905265808105,-1.1231050491333008
1757491559237382400,8.02838232421875,0.48153382539749146,-9.816451072692871,-0.9757868051528931
1757491559247420700,8.038420654296875,0.42953476309776306,-8.841338157653809,-0.13010989129543304
1757491559257459200,8.048459228515625,0.536750078201294,-9.35661506652832,-1.0171616077423096
1757491559267499800,8.058499755859375,0.7306804060935974,-10.15672779083252,-1.0485106706619263
1757491559277540400,8.068540283203125,0.7407809495925903,-10.125528335571289,-0.8478466868400574
1757491559287584500,8.07858447265625,0.4975450336933136,-9.139117240905762,-0.32695817947387695
1757491559297624800,8.088624755859374,0.4924573600292206,-9.65379524230957,-1.30775785446167
1757491559307665400,8.09866552734375,0.7267150282859802,-10.25511360168457,-1.2221651077270508
1757491559317705700,8.108705810546875,0.781033456325531,-9.951200485229492,-0.8743325471878052
1757491559327742700,8.11874267578125,0.34985271096229553,-9.224559783935547,-0.635959804058075
1757491559337787000,8.128786865234375,0.49208328127861023,-9.108665466308594,-0.7026233673095703
1757491559347823900,8.138823974609375,0.5971288681030273,-10.123732566833496,-1.2027870416641235
1757491559357868000,8.148867919921875,0.6640169024467468,-10.265962600708008,-0.945111095905304
1757491559367908600,8.15890869140625,0.563535213470459,-9.647061347961426,-0.695814847946167
1757491559377949200,8.16894921875,0.5149778127670288,-9.225458145141602,-0.704718291759491
1757491559387989800,8.17898974609375,0.5580734610557556,-9.65147590637207,-1.0155904293060303
1757491559398026500,8.189026611328124,0.6842179298400879,-10.115202903747559,-0.9680056571960449
1757491559408070700,8.199070556640624,0.6237643361091614,-10.037765502929688,-0.9063549637794495
1757491559418111500,8.209111572265625,0.4944774806499481,-9.845556259155273,-0.8567501306533813
1757491559428151800,8.21915185546875,0.5796212553977966,-9.274239540100098,-0.5143792629241943
1757491559438192000,8.229192138671875,0.6186766624450684,-9.010278701782227,-0.5402665734291077
1757491559448233000,8.23923291015625,0.5866542458534241,-9.500640869140625,-0.8823381662368774
1757491559458269700,8.249269775390625,0.6426935195922852,-10.433856010437012,-1.0057891607284546
1757491559468314000,8.259314208984375,0.6061071157455444,-10.362403869628906,-0.9609727263450623
1757491559478355000,8.26935498046875,0.4991910457611084,-9.757194519042969,-0.6390274167060852
1757491559488398600,8.279398681640625,0.4229506850242615,-9.359308242797852,-0.6777087450027466
1757491559498431700,8.289431640625,0.4778676927089691,-9.437793731689453,-0.5150526165962219
1757491559508472000,8.29947216796875,0.6052092909812927,-9.9517240524292,-0.9475052952766418
1757491559518514700,8.3095146484375,0.6364087462425232,-10.183063507080078,-1.0112509727478027
1757491559528555000,8.319554931640624,0.5730372071266174,-9.991527557373047,-0.8438064455986023
1757491559538597600,8.32959765625,0.5135562419891357,-9.95202350616455,-0.8432078957557678
1757491559548638000,8.339637939453125,0.4481646418571472,-9.493309020996094,-0.38045361638069153
1757491559558678800,8.3496787109375,0.4405331015586853,-8.948702812194824,-0.40057986974716187
1757491559568719000,8.359718994140625,0.5853074789047241,-9.763628959655762,-1.0690110921859741
1757491559578756000,8.369756103515625,0.7068880796432495,-10.473135948181152,-1.044545292854309
1757491559588796200,8.379796142578124,0.5888239741325378,-10.169970512390137,-0.9941922426223755
1757491559598840300,8.38984033203125,0.4496610164642334,-10.068441390991211,-0.9487023949623108
1757491559608881400,8.39988134765625,0.4677671492099762,-9.34501838684082,-0.4403834640979767
1757491559618922200,8.409922119140624,0.35913026332855225,-8.742202758789062,-0.3809773325920105
1757491559628962600,8.419962646484375,0.5092167854309082,-9.732504844665527,-1.0791864395141602
1757491559639003000,8.4300029296875,0.67815762758255,-10.566510200500488,-1.0092308521270752
1757491559649039400,8.440039306640625,0.7071873545646667,-9.904812812805176,-0.8104372620582581
1757491559659084300,8.450084228515625,0.2506429851055145,-9.9447660446167,-0.5544073581695557
1757491559669124600,8.46012451171875,0.30728083848953247,-8.875754356384277,-0.39234980940818787
1757491559679165400,8.47016552734375,0.5042787194252014,-10.295965194702148,-1.338358759880066
1757491559689205200,8.480205322265626,0.6820482015609741,-10.818425178527832,-1.002571940422058
1757491559699246000,8.49024609375,0.6649147272109985,-10.110564231872559,-0.7113772034645081
1757491559709286700,8.50028662109375,0.24196401238441467,-8.50869369506836,0.2560299336910248
1757491559719323000,8.510322998046876,0.2602197825908661,-9.592144966125488,-1.141585350036621
1757491559729368600,8.52036865234375,0.6337900757789612,-10.733205795288086,-0.8311620950698853
1757491559739409200,8.5304091796875,0.6465840935707092,-8.982071876525879,0.01346738450229168
1757491559749445400,8.5404453125,0.3403507471084595,-10.070012092590332,-1.3504046201705933
1757491559759486000,8.55048583984375,0.946682333946228,-10.3734769821167,-0.7478139400482178
1757491559769529300,8.560529296875,0.3718494474887848,-9.71462345123291,-0.3255366086959839
1757491559779565800,8.57056591796875,0.2264017015695572,-9.113229751586914,-0.7026981711387634
1757491559789610800,8.58061083984375,0.5003881454467773,-10.656517028808594,-1.147495985031128
1757491559799651300,8.5906513671875,0.8785223960876465,-9.860145568847656,-0.2561047673225403
1757491559809687600,8.6006875,0.19437925517559052,-8.800786018371582,-0.6025906205177307
1757491559819732200,8.610732177734375,0.300921231508255,-10.78460693359375,-1.0197054147720337
1757491559829772800,8.620772705078124,0.7662193775177002,-9.21056842803955,0.2667290270328522
1757491559839809500,8.6308095703125,0.057236384600400925,-9.463082313537598,-1.1421838998794556
1757491559849854000,8.64085400390625,0.7192331552505493,-10.311602592468262,-0.14739304780960083
1757491559859894300,8.650894287109375,0.2925415337085724,-9.177424430847168,-0.7380126714706421
1757491559869934800,8.660934814453125,0.6093243360519409,-10.580500602722168,-0.320523738861084
1757491559879971800,8.670971923828125,0.29785364866256714,-9.137845039367676,-0.5372738242149353
1757491559890015700,8.681015625,0.6912509202957153,-10.765901565551758,-0.7647978067398071
1757491559900056600,8.691056640625,0.20231004059314728,-9.082404136657715,-0.11761515587568283
1757491559910092800,8.7010927734375,0.2430862933397293,-10.840571403503418,-1.0042928457260132
1757491559920138000,8.711137939453126,0.6684311628341675,-8.928726196289062,0.5662286877632141
1757491559930177800,8.721177734375,-0.06591536849737167,-10.035072326660156,-1.342324137687683
1757491559940218600,8.731218505859376,0.7374141216278076,-10.405649185180664,0.00942716933786869
1757491559950255000,8.741255126953124,0.020126258954405785,-9.00863265991211,-0.7689876556396484
1757491559960299500,8.751299560546874,0.534355878829956,-10.135553359985352,0.024091655388474464
1757491559970336000,8.7613359375,0.05611410364508629,-8.961048126220703,-0.7437736988067627
1757491559980381000,8.771380859375,0.6252607107162476,-9.656488418579102,0.4278887212276459
1757491559990418700,8.781418701171875,-0.020350715145468712,-10.389039993286133,-1.2315922975540161
1757491560000457700,8.791457763671875,0.5426607728004456,-9.055768966674805,0.42272624373435974
1757491560010498300,8.801498291015625,0.22864626348018646,-10.84363842010498,-1.110460638999939
1757491560020540200,8.8115400390625,0.4693383574485779,-8.927005767822266,0.01107318326830864
1757491560030545000,8.821544921875,0.7682394981384277,-9.95217227935791,-0.19288288056850433
1757491560040619000,8.831618896484375,-0.026560675352811813,-10.044873237609863,-1.2829179763793945
1757491560050663700,8.84166357421875,0.9302221536636353,-9.421707153320312,0.4471171796321869
1757491560060702000,8.851701904296876,0.050053779035806656,-9.77597427368164,-1.6024690866470337
1757491560070743000,8.861742919921875,0.8948329091072083,-8.92341423034668,0.3742436468601227
1757491560080781300,8.87178125,0.05394435673952103,-10.015918731689453,-1.616011381149292
1757491560090822700,8.88182275390625,0.7038952708244324,-9.180566787719727,0.27914896607398987
1757491560100862200,8.8918623046875,-0.1769464761018753,-9.72966194152832,-1.226354956626892
1757491560110905000,8.901905029296875,0.514005184173584,-10.774131774902344,-0.4967968463897705
1757491560120946000,8.91194580078125,0.07040449231863022,-8.111780166625977,0.19146130979061127
1757491560130987800,8.92198779296875,0.04167407378554344,-10.666543006896973,-0.631096601486206
1757491560141027600,8.932027587890625,0.3792565166950226,-10.148796081542969,-0.3916764259338379
1757491560151067100,8.942067138671876,0.2828150689601898,-9.564685821533203,-0.15584756433963776
1757491560161183500,8.95218359375,0.04870704188942909,-8.788216590881348,0.0867898091673851
1757491560171202800,8.962202880859374,0.12180501222610474,-10.195632934570312,-0.26313772797584534
1757491560181200100,8.9722001953125,0.1851765364408493,-9.919551849365234,-0.09329904615879059
1757491560191230200,8.982230224609374,0.037559039890766144,-9.626636505126953,0.11335048824548721
1757491560201272300,8.992272216796875,-0.041299980133771896,-9.45687198638916,0.34521394968032837
1757491560211312600,9.002312744140625,-0.13699322938919067,-9.327585220336914,0.5612906813621521
1757491560221352700,9.012352783203125,-0.2998737692832947,-9.282918930053711,0.7544727921485901
1757491560231391000,9.022390869140626,-0.23859716951847076,-9.30693531036377,1.0081833600997925
1757491560241430300,9.03243017578125,-0.38292261958122253,-9.30805778503418,1.0363152027130127
1757491560251471000,9.04247119140625,-0.3165583610534668,-9.924116134643555,1.2359317541122437
1757491560261511400,9.052511474609375,-0.32695817947387695,-10.126649856567383,1.146298885345459
1757491560271554300,9.06255419921875,-0.11806406825780869,-10.509722709655762,1.2906991243362427
1757491560281596400,9.072596435546876,-0.3140145242214203,-10.538752555847168,1.1887959241867065
1757491560291632600,9.082632568359376,-0.11589432507753372,-10.609082221984863,1.346139907836914
1757491560301677600,9.092677490234376,-0.2636614739894867,-10.573168754577637,1.3744962215423584
1757491560311717600,9.102717529296875,-0.27982231974601746,-10.466028213500977,1.4385411739349365
1757491560321754000,9.112754150390625,-0.46642041206359863,-10.593594551086426,1.4576199054718018
1757491560331799000,9.122799072265625,-0.690727174282074,-10.741959571838379,1.3813796043395996
1757491560341839000,9.132839111328124,-0.5717653036117554,-10.945990562438965,1.5703718662261963
1757491560351879700,9.142879638671875,-0.5969043970108032,-10.989086151123047,1.6011972427368164
1757491560361916400,9.15291650390625,-0.4882675111293793,-10.83899974822998,1.3976900577545166
1757491560371961000,9.162961181640625,-0.32022446393966675,-10.777423858642578,1.2063783407211304
1757491560382001200,9.173001220703124,-0.1330278366804123,-10.582671165466309,1.3691092729568481
1757491560392037600,9.18303759765625,-0.21719898283481598,-10.355445861816406,1.8232593536376953
1757491560402082800,9.193082763671875,-0.6827964186668396,-10.124480247497559,1.8532617092132568
1757491560412122600,9.20312255859375,-1.0755202770233154,-9.888426780700684,1.2779051065444946
1757491560422159000,9.2131591796875,-0.647556722164154,-9.474529266357422,0.992321789264679
1757491560432203800,9.223203857421876,-0.5105634927749634,-9.167323112487793,0.3875614106655121
1757491560442244600,9.23324462890625,-0.47143328189849854,-8.905607223510742,-0.1693897694349289
1757491560452285000,9.243284912109376,0.8172457814216614,-8.431705474853516,0.21802198886871338
1757491560462321400,9.2533212890625,1.0592098236083984,-8.604835510253906,0.4043208062648773
1757491560472367000,9.2633671875,1.3108254671096802,-8.736143112182617,0.558597207069397
1757491560482402600,9.273402587890626,0.9226654767990112,-8.900818824768066,0.6559364199638367
1757491560492443400,9.283443359375,1.0999112129211426,-8.801534652709961,1.3073089122772217
1757491560502484200,9.293484130859374,0.5379471778869629,-8.589123725891113,1.495104193687439
1757491560512526800,9.30352685546875,0.35329440236091614,-8.584559440612793,1.593864917755127
1757491560522575000,9.3135751953125,0.09442132711410522,-8.588001251220703,1.6356137990951538
1757491560532608800,9.32360888671875,-0.1833808869123459,-8.476072311401367,1.5385738611221313
1757491560542649300,9.3336494140625,-0.41023150086402893,-8.498218536376953,1.4965256452560425
1757491560552685800,9.343685791015625,-0.5909937024116516,-8.709656715393066,1.5604209899902344
1757491560562730500,9.35373046875,-0.7332990765571594,-8.872312545776367,1.660229206085205
1757491560572771000,9.36377099609375,-0.9193734526634216,-8.909198760986328,1.685892105102539
1757491560582811600,9.373811767578125,-1.1215338706970215,-9.06175422668457,1.6857424974441528
1757491560592852200,9.383852294921875,-1.2409446239471436,-9.084349632263184,1.6968904733657837
1757491560602892300,9.393892333984375,-1.2036100625991821,-9.072977066040039,1.8101661205291748
1757491560612933400,9.403933349609375,-1.085097074508667,-9.080159187316895,2.0207810401916504
1757491560622970000,9.41397021484375,-0.8349030017852783,-8.958429336547852,2.217329978942871
1757491560633014000,9.424013916015625,-0.6013935208320618,-8.704419136047363,2.2084267139434814
1757491560643054300,9.434054443359376,-0.3737947344779968,-8.699256896972656,2.059462308883667
1757491560653095700,9.444095703125,0.010324995033442974,-8.444872856140137,2.184634208679199
1757491560663135700,9.4541357421875,-0.19602526724338531,-8.375965118408203,2.0655226707458496
1757491560673176600,9.464176513671875,-0.5373486280441284,-8.419883728027344,2.1062240600585938
1757491560683216600,9.474216552734376,-0.8382698893547058,-8.578873634338379,2.2473323345184326
1757491560693253400,9.48425341796875,-0.8839841485023499,-8.888548851013184,2.5986814498901367
1757491560703298300,9.49429833984375,-0.8672247529029846,-9.444452285766602,2.975543737411499
1757491560713338000,9.504338134765625,-0.6004208922386169,-10.151265144348145,3.3883938789367676
1757491560723379000,9.51437890625,-0.032770637422800064,-10.79612922668457,3.2299277782440186
1757491560733416700,9.524416748046875,0.8108862042427063,-11.012056350708008,2.419041633605957
1757491560743455700,9.534455810546875,1.6752678155899048,-10.9237699508667,1.4443022012710571
1757491560753496600,9.54449658203125,2.082132577896118,-11.016469955444336,0.4883423149585724
1757491560763537000,9.554536865234375,1.4023288488388062,-11.54701042175293,-0.2257283329963684
1757491560773581300,9.564581298828125,0.03254617750644684,-12.39493179321289,-0.5388450026512146
1757491560783622000,9.574621826171875,-0.6971616148948669,-12.71829891204834,-0.35748425126075745
1757491560793662500,9.584662353515625,-0.5172972083091736,-12.603002548217773,0.4479401707649231
1757491560803703000,9.594703125,-0.5616647601127625,-11.43291187286377,1.2089970111846924
1757491560813743600,9.60474365234375,-0.8681973814964294,-10.026542663574219,1.8702455759048462
1757491560823784200,9.6147841796875,-0.7535749673843384,-8.7908353805542,2.109516143798828
1757491560833820700,9.624820556640625,-0.10459668934345245,-8.091279029846191,1.4537293910980225
1757491560843864800,9.63486474609375,1.2181249856948853,-7.290867805480957,0.4804115295410156
1757491560853905400,9.644905517578126,1.500939965248108,-7.428160190582275,-0.3618985414505005
1757491560863920000,9.654920166015625,1.4637550115585327,-8.072125434875488,-0.5092915892601013
1757491560873960400,9.66496044921875,1.198746919631958,-9.01095199584961,-0.118138886988163
1757491560884001300,9.675001220703125,0.9779565930366516,-9.77208423614502,0.5555295944213867
1757491560894042400,9.68504248046875,0.6269067525863647,-10.434379577636719,1.2782044410705566
1757491560904104200,9.695104248046874,0.564807116985321,-10.815656661987305,1.8749592304229736
1757491560914148000,9.705148193359374,0.8821136951446533,-11.07610034942627,2.3072621822357178
1757491560924189000,9.71518896484375,0.41629183292388916,-11.239130973815918,2.3190836906433105
1757491560934229200,9.725229248046874,0.4346224367618561,-10.913818359375,1.9655647277832031
1757491560944269600,9.73526953125,0.5814169049263,-10.06350326538086,1.1376947164535522
1757491560954311000,9.745310791015624,0.7228992581367493,-9.422455787658691,0.38479310274124146
1757491560964351200,9.755351318359375,0.7965209484100342,-9.191864013671875,-0.17006313800811768
1757491560974394400,9.765394287109375,0.7719804048538208,-9.251644134521484,-0.40304890275001526
1757491560984428800,9.7754287109375,0.684442400932312,-9.404573440551758,-0.3571101427078247
1757491560994468900,9.78546875,0.568622887134552,-9.565508842468262,-0.11783961206674576
1757491561004509700,9.795509765625,0.5256769061088562,-9.729137420654297,0.14978724718093872
1757491561014551800,9.8055517578125,0.5553799867630005,-9.848249435424805,0.32187050580978394
1757491561024594400,9.815594482421876,0.5948094725608826,-9.876007080078125,0.38471829891204834
1757491561034634800,9.825634765625,0.6714239120483398,-9.80687427520752,0.3883844017982483
1757491561044675600,9.835675537109376,0.6658125519752502,-9.687389373779297,0.36893153190612793
1757491561054716200,9.845716064453125,0.530614972114563,-9.69397258758545,0.3051110804080963
1757491561064752400,9.85575244140625,0.7483376860618591,-9.569250106811523,0.3849427402019501
1757491561074797000,9.865797119140625,0.8439561128616333,-9.471162796020508,0.31117141246795654
1757491561084837000,9.875837158203124,0.7992892861366272,-9.637110710144043,0.3197755515575409
1757491561094877700,9.885877685546875,0.8727613091468811,-9.775824546813965,0.34596213698387146
1757491561104918500,9.89591845703125,1.079036831855774,-9.814207077026367,0.32441434264183044
1757491561114959000,9.905958984375,1.1228058338165283,-9.858125686645508,0.24996961653232574
1757491561124999700,9.915999755859374,1.0545710325241089,-9.869498252868652,0.15472528338432312
1757491561135035600,9.92603564453125,0.7562684416770935,-9.9540433883667,-0.006658873520791531
1757491561145078000,9.936078125,1.0740987062454224,-9.910947799682617,0.11978490650653839
1757491561155116500,9.946116455078124,1.1341782808303833,-9.844657897949219,0.2273743450641632
1757491561165157400,9.956157470703126,0.9219173192977905,-9.87817668914795,0.30690672993659973
1757491561175198200,9.9661982421875,1.064970850944519,-9.928754806518555,0.3595791757106781
1757491561185240000,9.976239990234374,1.3108254671096802,-9.899201393127441,0.3372083604335785
1757491561195281400,9.986281494140625,1.5069254636764526,-9.738040924072266,0.2932148873806
1757491561205320000,9.99631982421875,1.597905158996582,-9.707515716552734,0.37888240814208984
1757491561215364400,10.0063642578125,1.544634222984314,-9.803507804870605,0.4464437961578369
1757491561225410600,10.01641064453125,1.2053309679031372,-9.877952575683594,0.3711760938167572
1757491561235441000,10.02644091796875,1.4218565225601196,-9.987486839294434,0.2560299336910248
1757491561245481500,10.0364814453125,1.3821277618408203,-10.028712272644043,0.14260463416576385
1757491561255523000,10.046523193359375,1.4291139841079712,-9.891419410705566,0.12779051065444946
1757491561265563400,10.0565634765625,1.4766238927841187,-9.658957481384277,0.19714754819869995
1757491561275607000,10.06660693359375,1.5893009901046753,-9.56042194366455,0.28558337688446045
1757491561285647600,10.076647705078125,1.787645697593689,-9.516877174377441,0.3506008982658386
1757491561295684000,10.08668408203125,1.8978537321090698,-9.612719535827637,0.4354454278945923
1757491561305728800,10.096728759765625,1.9203742742538452,-9.647360801696777,0.425494521856308
1757491561315764700,10.1067646484375,1.9226187467575073,-9.659032821655273,0.3800795078277588
1757491561325809700,10.1168095703125,1.8796727657318115,-9.650503158569336,0.3577086925506592
1757491561335850000,10.12685009765625,1.8201169967651367,-9.635090827941895,0.3902548849582672
1757491561345890300,10.136890380859375,1.755847692489624,-9.619752883911133,0.44913727045059204
1757491561355931100,10.14693115234375,1.7561469078063965,-9.603442192077637,0.5411643981933594
1757491561365967400,10.15696728515625,1.5963339805603027,-9.597307205200195,0.5538836121559143
1757491561376008400,10.167008544921876,1.7320553064346313,-9.857077598571777,0.595557689666748
1757491561386052600,10.177052490234376,1.4911386966705322,-10.137049674987793,0.5482721924781799
1757491561396093200,10.18709326171875,1.348534107208252,-10.25586223602295,0.45744216442108154
1757491561406133500,10.197133544921876,1.1637316942214966,-10.228178977966309,0.4644751250743866
1757491561416174000,10.207174072265625,1.0452934503555298,-9.989282608032227,0.47973817586898804
1757491561426214400,10.21721435546875,1.1495161056518555,-9.95898151397705,0.6119430065155029
1757491561436251100,10.227251220703126,1.2133365869522095,-9.831639289855957,0.6816741228103638
1757491561446295600,10.237295654296876,1.1278934478759766,-9.706093788146973,0.6733692288398743
1757491561456336100,10.247336181640625,1.4748282432556152,-9.814431190490723,0.7474398612976074
1757491561466376700,10.257376708984374,1.4101099967956543,-9.887155532836914,0.7496095895767212
1757491561476415000,10.2674150390625,1.1797429323196411,-9.822735786437988,0.5709422826766968
1757491561496494000,10.287494140625,1.7053450345993042,-9.623942375183105,0.5399672985076904
1757491561506534400,10.297534423828125,1.468244194984436,-9.556904792785645,0.5868787169456482
1757491561516579000,10.3075791015625,1.1234791278839111,-9.521665573120117,0.5493944883346558
1757491561526619600,10.31761962890625,1.822885274887085,-9.441309928894043,0.5287444591522217
1757491561536660000,10.327659912109375,1.8326117992401123,-9.781810760498047,0.5562030076980591
1757491561546700300,10.3377001953125,1.7155951261520386,-9.765873908996582,0.5019593238830566
1757491561556741000,10.3477412109375,1.221716284751892,-9.606285095214844,0.23448212444782257
1757491561566777300,10.35777734375,1.8978537321090698,-9.449240684509277,0.3982604742050171
1757491561576818400,10.367818359375,1.7822587490081787,-9.608156204223633,0.7056161165237427
1757491561586862300,10.3778623046875,1.1897685527801514,-9.544709205627441,0.8519617319107056
1757491561596903200,10.387903076171876,0.8017582893371582,-9.525481224060059,0.6820482015609741
1757491561606943200,10.397943115234375,1.5359551906585693,-9.772757530212402,0.7378630638122559
1757491561616983800,10.40798388671875,1.426570177078247,-10.333075523376465,0.8694692850112915
1757491561627025000,10.41802490234375,0.9588029384613037,-10.555885314941406,0.6553378701210022
1757491561637060600,10.428060546875,1.1140519380569458,-10.746224403381348,0.4671685993671417
1757491561647101400,10.438101318359376,0.6472574472427368,-10.502913475036621,-0.08626607805490494
1757491561657146400,10.448146484375,1.821763038635254,-10.58648681640625,0.3015197813510895
1757491561667186400,10.4581865234375,1.3810802698135376,-10.520272254943848,0.5713163614273071
1757491561677226800,10.468226806640626,1.1903671026229858,-10.210147857666016,0.6995558142662048
1757491561687266800,10.478266845703125,1.3949217796325684,-10.055123329162598,0.6721721291542053
1757491561697303800,10.4883037109375,1.15243399143219,-9.871294021606445,0.28079497814178467
1757491561707349000,10.498348876953125,1.9832220077514648,-10.106748580932617,0.33264440298080444
1757491561717391400,10.508391357421875,1.4728829860687256,-10.39532470703125,0.39631518721580505
1757491561727427000,10.518427001953125,1.4174422025680542,-10.330381393432617,0.5676502585411072
1757491561737466400,10.52846630859375,1.450512170791626,-10.109665870666504,0.5928642153739929
1757491561747508200,10.53850830078125,1.5527894496917725,-9.936086654663086,0.7211784720420837
1757491561757546800,10.548546630859375,1.5236101150512695,-9.794304847717285,0.7974936366081238
1757491561767591700,10.558591796875,1.045517921447754,-9.833809852600098,0.46170684695243835
1757491561777632000,10.568632080078125,1.6724246740341187,-9.792135238647461,0.5151274800300598
1757491561787672600,10.578672607421876,1.3623007535934448,-9.975590705871582,0.2826654314994812
1757491561797712600,10.588712646484375,1.031751275062561,-9.890671730041504,0.09861118346452713
1757491561807749400,10.598749267578125,1.026289463043213,-9.6873140335083,0.017657237127423286
1757491561817794000,10.6087939453125,1.0833014249801636,-9.465476036071777,0.05588964745402336
1757491561827830800,10.618830810546875,1.1852794885635376,-9.332223892211914,0.12195464968681335
1757491561837875000,10.628875,1.1877485513687134,-9.33469295501709,0.14582185447216034
1757491561847915500,10.63891552734375,1.2122142314910889,-9.487547874450684,0.1422305405139923
1757491561857956400,10.648956298828125,1.2691513299942017,-9.547103881835938,0.09741408377885818
1757491561867996400,10.658996337890626,1.2227636575698853,-9.523311614990234,0.11694178730249405
1757491561878033400,10.669033447265624,1.2458827495574951,-9.443629264831543,0.17702129483222961
1757491561888074000,10.679073974609375,1.0044424533843994,-9.514482498168945,0.08334814757108688
1757491561898118100,10.6891181640625,1.4188637733459473,-9.413776397705078,0.13347674906253815
1757491561908158200,10.699158203125,1.1902174949645996,-9.54889965057373,-0.013168109580874443
1757491561918199300,10.70919921875,1.2356325387954712,-9.73430061340332,-0.20552724599838257
1757491561928239600,10.719239501953124,1.2625672817230225,-9.771559715270996,-0.4100070297718048
1757491561938280200,10.7292802734375,1.3109750747680664,-9.735198020935059,-0.4935048222541809
1757491561948316700,10.739316650390625,1.3163620233535767,-9.578901290893555,-0.47337856888771057
1757491561958357200,10.749357177734375,1.1909656524658203,-9.335665702819824,-0.3720739185810089
1757491561968406800,10.75940673828125,1.3679121732711792,-9.325864791870117,-0.21772271394729614
1757491561978438000,10.76943798828125,1.466822624206543,-9.448641777038574,-0.04361936077475548
1757491561988479000,10.77947900390625,1.8222119808197021,-9.60643482208252,0.12794014811515808
1757491561998521000,10.78952099609375,2.0260183811187744,-9.72053337097168,0.2180968075990677
1757491562008574700,10.79957470703125,2.1198410987854004,-9.819668769836426,0.18831892311573029
1757491562018600000,10.809599853515625,2.0118775367736816,-9.944616317749023,0.14148235321044922
1757491562028644600,10.81964453125,2.0341737270355225,-10.1051025390625,0.23096564412117004
1757491562038685000,10.829684814453126,2.1612160205841064,-10.31938362121582,0.31132104992866516
1757491562048725200,10.839725341796875,2.2545149326324463,-10.539949417114258,0.21031565964221954
1757491562058765000,10.84976513671875,2.0382137298583984,-10.859949111938477,0.03374328091740608
1757491562068806400,10.859806396484375,1.5710452795028687,-11.284770011901855,-0.1363946795463562
1757491562078843100,10.869843017578125,0.8518868684768677,-11.578808784484863,-0.10751461982727051
1757491562088887300,10.87988720703125,0.36414310336112976,-11.628039360046387,0.09606734663248062
1757491562098928400,10.889928466796874,1.4786440134048462,-11.58980655670166,0.47412675619125366
1757491562108964600,10.899964599609374,2.121262788772583,-12.139800071716309,1.1727099418640137
1757491562119009300,10.91000927734375,2.3603835105895996,-12.817583084106445,2.0142717361450195
1757491562129049900,10.9200498046875,1.288529396057129,-13.448979377746582,2.2822728157043457
1757491562139090400,10.93009033203125,0.5681740045547485,-14.002787590026855,2.2019922733306885
1757491562149126700,10.940126708984375,-0.1769464761018753,-14.185345649719238,1.6493057012557983
1757491562159170600,10.950170654296874,-0.8095394372940063,-13.746907234191895,0.7972691655158997
1757491562169211600,10.960211669921875,-1.089436650276184,-13.160103797912598,0.016086041927337646
1757491562179248400,10.970248291015626,-1.3861680030822754,-12.696077346801758,-0.531886875629425
1757491562189292800,10.980292724609376,-1.069983720779419,-12.188955307006836,-0.8020575642585754
1757491562199333000,10.9903330078125,-0.4768950641155243,-11.534740447998047,-0.7108534574508667
1757491562209369600,11.00036962890625,-0.031199440360069275,-11.018789291381836,-0.12951134145259857
1757491562219412500,11.01041259765625,0.4636521339416504,-10.67177963256836,0.815599799156189
1757491562229451000,11.020450927734375,0.9534908533096313,-10.335245132446289,1.7117046117782593
1757491562239492000,11.0304921875,1.451709270477295,-9.863961219787598,2.3760955333709717
1757491562249531100,11.04053125,1.9864392280578613,-9.414525032043457,2.8562827110290527
1757491562259575800,11.050575927734375,2.4821887016296387,-9.029582023620605,3.1275007724761963
1757491562269616400,11.060616455078126,2.765078544616699,-8.968904495239258,3.095553159713745
1757491562279652900,11.07065283203125,2.664372444152832,-9.215432167053223,2.7387423515319824
1757491562289697300,11.080697265625,2.210371971130371,-9.680879592895508,2.0814590454101562
1757491562299738000,11.090738037109375,1.49390709400177,-10.364872932434082,1.2639139890670776
1757491562309779000,11.100779052734374,0.4933551847934723,-11.11538028717041,0.4461445212364197
1757491562319815000,11.11081494140625,-0.599223792552948,-11.723731994628906,-0.09225158393383026
1757491562329858800,11.12085888671875,-1.8235586881637573,-12.47079849243164,-0.05581482872366905
1757491562339896000,11.13089599609375,-1.737741470336914,-12.663755416870117,0.5187935829162598
1757491562349940700,11.140940673828124,-1.6647183895111084,-12.767080307006836,1.3673884868621826
1757491562359981000,11.15098095703125,-1.169043779373169,-12.433837890625,2.191891670227051
1757491562370021600,11.161021728515625,-0.6312462687492371,-11.954548835754395,2.931325912475586
1757491562380061700,11.171061767578125,0.05506663769483566,-11.303250312805176,3.1019127368927
1757491562390102800,11.181102783203125,0.9736170768737793,-10.901473999023438,2.9548189640045166
1757491562400139000,11.191138916015625,1.5153051614761353,-10.750638961791992,2.7182419300079346
1757491562410183700,11.20118359375,1.3138929605484009,-10.59800910949707,2.572195529937744
1757491562420224000,11.21122412109375,0.6842179298400879,-10.506131172180176,2.5291748046875
1757491562430264300,11.221264404296875,0.06097732484340668,-10.619855880737305,2.520570755004883
1757491562440305000,11.231304931640626,-0.15682020783424377,-10.703652381896973,2.8814218044281006
1757491562450345500,11.241345458984375,-0.9024643898010254,-10.802712440490723,3.0835072994232178
1757491562460387000,11.251386962890624,-0.8781483173370361,-10.724227905273438,3.1554830074310303
1757491562470422300,11.26142236328125,-0.5158756375312805,-10.4473237991333,3.0614356994628906
1757491562480463000,11.271463134765625,-0.017956512048840523,-9.8668794631958,3.387570858001709
1757491562490503400,11.28150341796875,-0.35733461380004883,-9.535805702209473,3.1587002277374268
1757491562500546800,11.291546875,-0.4222024977207184,-9.158944129943848,3.0708630084991455
1757491562510586400,11.30158642578125,-0.548346996307373,-8.779462814331055,3.153986692428589
1757491562520628000,11.3116279296875,-0.7002291679382324,-8.303540229797363,3.2986862659454346
1757491562530663400,11.321663330078126,-0.9537901282310486,-8.12868881225586,3.260453701019287
1757491562540708400,11.331708251953126,-0.8095394372940063,-7.5912652015686035,3.436427593231201
1757491562550747400,11.341747314453125,-0.969427227973938,-7.275904178619385,3.469123363494873
1757491562560786200,11.3517861328125,-1.1763012409210205,-7.1385369300842285,3.014000654220581
1757491562570826800,11.36182666015625,-1.0541220903396606,-7.202132701873779,2.7922377586364746
1757491562580867600,11.37186767578125,-0.823006808757782,-6.983063220977783,2.5562591552734375
1757491562590909200,11.3819091796875,-1.036988615989685,-7.099780559539795,2.560075044631958
1757491562600951000,11.391950927734374,-0.7457938194274902,-6.52681827545166,2.7618613243103027
1757491562610993000,11.401992919921875,-0.8277952671051025,-6.068253993988037,3.2677111625671387
1757491562621032200,11.4120322265625,-1.044545292854309,-6.15182638168335,3.5760395526885986
1757491562631072500,11.422072509765625,-0.6355109214782715,-5.543624401092529,3.6092591285705566
1757491562641112000,11.432112060546874,-0.8721627593040466,-5.548263072967529,3.409792184829712
1757491562651204900,11.442204833984375,-1.0604069232940674,-5.7684550285339355,3.3221044540405273
1757491562661194200,11.4521943359375,-1.2027870416641235,-5.958045959472656,3.0924108028411865
1757491562671234300,11.462234375,-0.9582043886184692,-5.200729846954346,2.9567642211914062
1757491562681277000,11.47227685546875,-1.1403882503509521,-5.405658721923828,2.9180080890655518
1757491562691313700,11.482313720703125,-1.2046575546264648,-5.4636430740356445,3.0778210163116455
1757491562701357800,11.49235791015625,-1.5606454610824585,-5.7317938804626465,3.325920343399048
1757491562711403000,11.502403076171875,-1.426046371459961,-4.969090938568115,3.6001312732696533
1757491562721435000,11.512434814453124,-1.7856255769729614,-5.076231479644775,4.1344122886657715
1757491562731475000,11.522474853515625,-1.6546177864074707,-5.408202171325684,4.5994110107421875
1757491562741517600,11.532517578125,-1.945214033126831,-5.382763862609863,4.862249374389648
1757491562751558400,11.542558349609376,-2.105625629425049,-5.36473274230957,5.13159704208374
1757491562761601000,11.55260107421875,-2.238429069519043,-5.558588027954102,5.266944408416748
1757491562771641000,11.56264111328125,-1.7363947629928589,-5.261707305908203,5.209333896636963
1757491562781681400,11.572681396484375,-1.7372177839279175,-5.308319091796875,5.465588569641113
1757491562791718000,11.5827177734375,-1.8062007427215576,-5.596072196960449,5.487809658050537
1757491562801762300,11.59276220703125,-2.0452468395233154,-5.742941856384277,5.552378177642822
1757491562811803100,11.60280322265625,-2.3294835090637207,-5.9537811279296875,5.781398773193359
1757491562821843500,11.612843505859376,-2.582146644592285,-6.146514415740967,6.213252544403076
1757491562831883800,11.6228837890625,-2.6541221141815186,-6.181903839111328,6.638148784637451
1757491562841924900,11.6329248046875,-2.607285737991333,-6.199560642242432,6.8168158531188965
1757491562851961300,11.64296142578125,-2.6336967945098877,-6.2125043869018555,6.7870378494262695
1757491562862005200,11.653005126953126,-2.6746225357055664,-6.222380638122559,6.624905586242676
1757491562872046000,11.663046142578125,-2.674248456954956,-6.2963762283325195,6.360645771026611
1757491562882086700,11.673086669921876,-2.810718059539795,-6.29016637802124,6.110751152038574
1757491562892127000,11.683126953125,-3.0400376319885254,-6.233977317810059,5.908141613006592
1757491562902167800,11.693167724609374,-3.2525229454040527,-6.182950973510742,5.788955211639404
1757491562912208400,11.70320849609375,-3.352555751800537,-6.380248069763184,5.632957935333252
1757491562922244400,11.713244384765625,-3.268234968185425,-6.558915615081787,5.7638163566589355
1757491562932289300,11.723289306640625,-3.0440030097961426,-6.736011505126953,6.019322395324707
1757491562942329900,11.733329833984374,-2.9030444622039795,-6.920814037322998,6.42311954498291
1757491562952371700,11.743371826171876,-2.945915460586548,-7.090652942657471,6.736086368560791
1757491562962409000,11.753408935546876,-3.0719103813171387,-7.293486595153809,6.746037483215332
1757491562972447000,11.763447021484374,-3.0573208332061768,-7.427337169647217,6.517091751098633
1757491562982487600,11.773487548828125,-3.0954034328460693,-7.311442852020264,6.244826316833496
1757491562992528000,11.78352783203125,-3.1355063915252686,-7.011344909667969,5.933131217956543
1757491563002573600,11.793573486328125,-3.2883613109588623,-6.885724067687988,5.674557209014893
1757491563012612600,11.803612548828125,-3.335646629333496,-6.655506610870361,5.4770355224609375
1757491563022653400,11.8136533203125,-3.2397289276123047,-6.508637428283691,5.460875034332275
1757491563032693200,11.823693359375,-3.0241761207580566,-6.400075435638428,5.656301498413086
1757491563042730200,11.833730224609376,-2.8500726222991943,-6.5265936851501465,5.845592975616455
1757491563052775000,11.84377490234375,-2.8842649459838867,-6.767884254455566,5.877540588378906
1757491563062811400,11.853811279296876,-3.2026188373565674,-7.056909561157227,6.00839900970459
1757491563072855800,11.863855712890626,-3.4355297088623047,-7.378705024719238,6.447585105895996
1757491563082896400,11.873896484375,-3.407921552658081,-7.673940181732178,7.000346660614014
1757491563092936700,11.883936767578126,-2.9940240383148193,-7.990872859954834,7.489137649536133
1757491563102977300,11.893977294921875,-2.339209794998169,-8.50757122039795,7.7213006019592285
1757491563113013800,11.904013671875,-2.1418378353118896,-8.970624923706055,7.626579761505127
1757491563123058000,11.914057861328125,-2.3244705200195312,-9.075745582580566,7.1816325187683105
1757491563133094100,11.92409423828125,-2.359635353088379,-8.893860816955566,6.617424011230469
1757491563143139000,11.93413916015625,-1.842637538909912,-8.544681549072266,6.0802998542785645
1757491563153180000,11.944179931640624,-1.3198037147521973,-8.005537033081055,5.2963480949401855
1757491563163220500,11.954220458984375,-1.331026554107666,-7.550863265991211,4.856712818145752
1757491563173261000,11.964260986328124,-1.28000009059906,-7.692495346069336,4.993930816650391
1757491563183301600,11.974301513671875,-0.8573486804962158,-8.220566749572754,5.433566093444824
1757491563193342200,11.98434228515625,-0.3744681179523468,-9.018359184265137,6.066757678985596
1757491563203383000,11.994383056640626,-0.4936544597148895,-9.36701488494873,5.611485004425049
1757491563213421000,12.004421142578124,-1.3045406341552734,-9.740435600280762,5.2893900871276855
1757491563223459000,12.014458984375,-1.6210241317749023,-9.695618629455566,4.9928083419799805
1757491563233500200,12.024500244140626,-1.1915642023086548,-9.400309562683105,5.030965805053711
1757491563243542800,12.034542724609375,-1.1082161664962769,-9.118765830993652,5.057526588439941
1757491563253584400,12.04458447265625,-0.7991396188735962,-8.68870735168457,4.92771577835083
1757491563263625000,12.054625,-0.8848819732666016,-8.443451881408691,4.6040496826171875
1757491563273665800,12.064665771484375,-0.5962310433387756,-8.325761795043945,4.371962070465088
1757491563283705900,12.074705810546876,-0.5620388388633728,-8.275408744812012,4.079794406890869
1757491563293742800,12.084742919921876,-0.533083975315094,-8.36496639251709,3.815310001373291
1757491563303787000,12.094787109375,-0.3041384220123291,-8.532336235046387,3.56017804145813
1757491563313827600,12.10482763671875,-0.07534253597259521,-8.787992477416992,3.271003246307373
1757491563323868000,12.114867919921876,-0.16751930117607117,-9.111957550048828,3.122488021850586
1757491563333908500,12.124908447265625,-0.007481880486011505,-9.376965522766113,3.0698153972625732
1757491563343949300,12.13494921875,0.3862146735191345,-9.441309928894043,3.165433883666992
1757491563353989400,12.1449892578125,0.12584522366523743,-9.541492462158203,3.2268600463867188
1757491563364026400,12.1550263671875,0.2487725168466568,-9.623494148254395,3.3629555702209473
1757491563374070300,12.1650703125,0.21675007045269012,-9.640776634216309,3.4822914600372314
1757491563384111400,12.175111328125,0.1686415821313858,-9.61563777923584,3.525686502456665
1757491563394151700,12.185151611328125,0.03621229901909828,-9.566107749938965,3.457451820373535
1757491563404192000,12.19519189453125,-0.14761750400066376,-9.539247512817383,3.3773207664489746
1757491563414232600,12.205232666015625,0.04249707981944084,-9.352575302124023,3.248856782913208
1757491563424273200,12.215273193359375,0.4976198673248291,-9.088539123535156,3.0766239166259766
1757491563434310000,12.225309814453125,0.5923404693603516,-8.942867279052734,3.042581558227539
1757491563444354300,12.235354248046875,0.796371340751648,-8.950424194335938,3.06068754196167
1757491563454398200,12.245398193359375,1.3036428689956665,-8.842011451721191,2.9707553386688232
1757491563464431400,12.255431396484376,1.291148066520691,-8.79240608215332,3.061809778213501
1757491563474471200,12.26547119140625,1.2726678848266602,-8.561515808105469,2.966789960861206
1757491563484513500,12.275513427734374,0.9169792532920837,-9.136796951293945,3.283198833465576
1757491563494554400,12.285554443359375,1.240121603012085,-9.18393325805664,3.3039982318878174
1757491563504599800,12.295599853515625,0.9298480749130249,-9.221866607666016,3.3314568996429443
1757491563514637600,12.305637451171876,0.397512286901474,-9.228974342346191,3.2408511638641357
1757491563524678100,12.31567822265625,0.5824643969535828,-9.090858459472656,3.014150381088257
1757491563534718500,12.325718505859374,0.8414122462272644,-8.90845012664795,2.7385177612304688
1757491563544758800,12.3357587890625,0.5932382941246033,-8.778789520263672,2.4147768020629883
1757491563554799400,12.34579931640625,0.4329015910625458,-9.164854049682617,2.298358917236328
1757491563564840200,12.355840087890625,0.6911013126373291,-9.22860050201416,2.070011854171753
1757491563574880300,12.36588037109375,0.686911404132843,-9.275362014770508,1.854907751083374
1757491563584920000,12.375920166015625,0.5003881454467773,-9.304316520690918,1.7291373014450073
1757491563594957000,12.38595703125,0.4196586608886719,-9.201590538024902,1.7432781457901
1757491563605001500,12.39600146484375,0.5720645785331726,-8.988431930541992,1.8072482347488403
1757491563615045000,12.406045166015625,0.5490952134132385,-8.830339431762695,1.964741826057434
1757491563625080600,12.41608056640625,0.922366201877594,-8.664990425109863,2.2409727573394775
1757491563635119000,12.426119140625,1.218873143196106,-8.659453392028809,2.5021653175354004
1757491563645159700,12.43615966796875,1.1531822681427002,-8.802581787109375,2.73305606842041
1757491563655199700,12.44619970703125,1.1405378580093384,-8.668730735778809,2.7112836837768555
1757491563665241900,12.456241943359375,1.2042834758758545,-9.229198455810547,2.790741443634033
1757491563675281700,12.46628173828125,1.244461178779602,-9.640926361083984,2.742483139038086
1757491563685326000,12.476326171875,1.2425159215927124,-9.723451614379883,2.515183687210083
1757491563695367400,12.486367431640625,1.0605565309524536,-9.74701976776123,2.26169753074646
1757491563705409500,12.496409423828124,0.8439561128616333,-9.511565208435059,1.9945944547653198
1757491563715442400,12.5064423828125,1.1870002746582031,-9.601048469543457,1.892167568206787
1757491563725484300,12.516484375,1.385494589805603,-9.391705513000488,1.749488115310669
1757491563735523800,12.52652392578125,1.8825159072875977,-9.292943954467773,1.9137153625488281
1757491563745564400,12.536564453125,2.0196588039398193,-9.493982315063477,2.2195746898651123
1757491563755609000,12.546609130859375,2.019134998321533,-9.442506790161133,2.434678554534912
1757491563765649000,12.55664892578125,1.8463784456253052,-9.488520622253418,2.6273369789123535
1757491563775689700,12.566689697265625,1.6940473318099976,-9.842787742614746,2.8488006591796875
1757491563785730800,12.576730712890624,1.4779706001281738,-9.714248657226562,2.7755532264709473
1757491563795771400,12.586771484375,1.971774697303772,-9.700108528137207,2.671854257583618
1757491563805807900,12.596807861328125,1.776198387145996,-9.796026229858398,2.3225252628326416
1757491563815852300,12.606852294921875,1.232789397239685,-9.651925086975098,1.8164509534835815
1757491563825892400,12.616892333984374,1.293991208076477,-9.697040557861328,1.4865000247955322
1757491563835933000,12.626932861328125,0.633490800857544,-9.637859344482422,1.0437222719192505
1757491563845973200,12.63697314453125,1.2092963457107544,-9.38399887084961,0.9747393727302551
1757491563856014000,12.64701416015625,1.1227309703826904,-9.297208786010742,1.0735750198364258
1757491563866054400,12.657054443359375,1.1049240827560425,-9.15034008026123,1.302520513534546
1757491563876091000,12.6670908203125,1.2236615419387817,-9.208474159240723,1.691802740097046
1757491563886135300,12.67713525390625,0.7847744226455688,-9.299603462219238,1.9092261791229248
1757491563896150800,12.68715087890625,0.7345709800720215,-9.380107879638672,2.015094757080078
1757491563906215700,12.697215576171875,1.2359317541122437,-9.469217300415039,2.2830209732055664
1757491563916256000,12.707256103515626,0.8517372608184814,-9.504755973815918,2.327538251876831
1757491563926297300,12.71729736328125,0.7372645139694214,-9.430161476135254,2.2426936626434326
1757491563936333600,12.72733349609375,0.595557689666748,-9.50961971282959,1.9229928255081177
1757491563946373600,12.73737353515625,1.7920600175857544,-9.416994094848633,2.160243272781372
1757491563956416000,12.747416015625,0.8932616710662842,-9.667487144470215,2.3644237518310547
1757491563966454800,12.757454833984376,0.8601169586181641,-9.586234092712402,2.3615806102752686
1757491563976475100,12.76747509765625,0.843582034111023,-9.457620620727539,2.1989994049072266
1757491563986538800,12.777538818359375,0.6563853621482849,-9.265186309814453,1.9541922807693481
1757491563996576500,12.787576416015625,0.7324760556221008,-9.305513381958008,1.8807202577590942
1757491564006620700,12.79762060546875,0.8691700100898743,-9.480290412902832,1.935038685798645
1757491564016661800,12.807661865234374,0.8212860226631165,-9.532962799072266,1.970652461051941
1757491564026701800,12.817701904296875,0.7183353304862976,-9.475875854492188,1.8343325853347778
1757491564036738800,12.82773876953125,0.1794154942035675,-9.59708309173584,1.6212486028671265
1757491564046783000,12.837782958984375,1.2981810569763184,-9.331101417541504,1.5999252796173096
1757491564056797200,12.847797119140624,1.7723826169967651,-9.448267936706543,1.487173318862915
1757491564066838000,12.857838134765625,0.9332897663116455,-9.650952339172363,1.6734721660614014
1757491564076879400,12.86787939453125,0.91480952501297,-9.650728225708008,1.3883377313613892
1757491564086919400,12.87791943359375,1.2217910289764404,-9.658957481384277,1.0121487379074097
1757491564096985000,12.887985107421875,1.4934581518173218,-9.871294021606445,0.6479308605194092
1757491564107022000,12.89802197265625,1.5952117443084717,-9.792284965515137,0.08476970344781876
1757491564117066800,12.908066650390625,2.674323320388794,-9.704747200012207,-0.32538697123527527
