time,seconds_elapsed,z,y,x
1758273169529384200,0.05038427734375,8.668805661010742,-1.3361141639709473,3.0692168907165525
1758273169539342000,0.060342041015625,8.485349958801269,-1.3634978454589843,2.9466636932373045
1758273169549300000,0.070300048828125,8.308478311157225,-1.4041992736816404,2.8037597816467286
1758273169559257000,0.080257080078125,8.35127466583252,-1.57688106842041,2.694823606109619
1758273169569215000,0.090215087890625,8.510339438629149,-1.9015946685791014,2.6089316215515135
1758273169579173000,0.100173095703125,8.733598743438721,-2.2583307159423827,2.4314614234924314
1758273169589131000,0.110131103515625,9.186102857208251,-2.440888592529297,2.29199917678833
1758273169599089200,0.120089111328125,9.711630121612549,-2.2477064460754392,2.4609400314331054
1758273169609046000,0.1300458984375,9.856479322052001,-2.140117008972168,2.5712229454040525
1758273169619004000,0.14000390625,9.851990193939208,-2.3611317497253417,2.3790882621765137
1758273169628962000,0.149962158203125,10.22204398803711,-2.501940734863281,2.405723755645752
1758273169638920200,0.159920166015625,10.286537795257567,-2.3912089080810546,2.7268460533142087
1758273169648877000,0.169876953125,9.864260477447509,-2.1136311531066894,3.2561142578125
1758273169658835200,0.179835205078125,8.354865968322754,-1.9984101982116698,3.5212720916748044
1758273169668793000,0.18979296875,7.589768900299072,-1.6488567558288574,3.334075449371338
1758273169678751000,0.1997509765625,7.799411183166503,-1.1969511924743652,3.020435031890869
1758273169688709000,0.209709228515625,7.843404638671874,-1.0060136100769042,2.96237564163208
1758273169698666000,0.219666015625,7.388655960845947,-1.151162085723877,3.2945711219787595
1758273169708624100,0.2296240234375,7.246949150085449,-1.3600561805725098,3.393930490875244
1758273169718582300,0.239582275390625,7.530512409210204,-1.5040075553894041,3.206883486175537
1758273169728540000,0.249539794921875,7.986308550262451,-1.9535189170837401,2.6945243309020994
1758273169738497000,0.2594970703125,8.601768014526368,-2.5311200675964356,2.197428211212158
1758273169748455200,0.269455078125,9.5630399810791,-2.56014976272583,2.428019758605957
1758273169758413000,0.2794130859375,10.505307971954345,-2.4251766441345213,3.3152211112976073
1758273169768371200,0.28937109375,11.162965240478515,-2.302324171447754,4.054879786682129
1758273169778328000,0.299328125,11.386374182891846,-2.155380044555664,4.473715439605713
1758273169788286000,0.309285888671875,10.938209559631346,-2.111835501861572,4.395454972839355
1758273169798244000,0.319244140625,9.924265156555176,-2.122908684539795,3.9350200660705563
1758273169808202000,0.329201904296875,9.399336442565918,-2.1417630226135254,3.3755250656127926
1758273169818160000,0.33916015625,9.31374373321533,-2.455253802490234,2.8425159210205075
1758273169828117200,0.3491171875,9.504980590820312,-2.8342858528137205,2.335244444274902
1758273169838075100,0.3590751953125,10.020033222961425,-2.6421511695861817,2.61746096496582
1758273169848033000,0.369032958984375,10.24149687652588,-2.608033795928955,3.3060932174682613
1758273169857991000,0.378990966796875,10.179846183776855,-2.5878327194213866,3.806780639648437
1758273169867948000,0.388947998046875,9.634267480468749,-2.409315058135986,3.8610990898132322
1758273169877906200,0.39890625,8.72821178970337,-2.3732523956298825,3.007566197967529
1758273169887864000,0.408864013671875,8.150610639190674,-2.397942600250244,2.339883209991455
1758273169897822200,0.418822265625,7.838616235351562,-2.364872689819336,2.4980501571655274
1758273169907780000,0.428780029296875,7.886949181365966,-2.3511060302734372,2.8968343711853026
1758273169917737000,0.438737060546875,8.410980069732666,-1.8902222106933593,3.7517140014648436
1758273169927695000,0.448695068359375,8.76651901626587,-1.9017443061828612,4.219930063629151
1758273169937653000,0.458653076171875,8.840888905334472,-2.102258695220947,4.435557850646973
1758273169947611100,0.468611083984375,9.235632904052734,-2.1568764205932616,4.407575618743897
1758273169957568300,0.478568359375,9.144204328155517,-2.45151286239624,4.144213436126709
1758273169967526000,0.48852587890625,8.582315126037598,-2.833986577606201,3.7695208763122556
1758273169977484000,0.498484130859375,8.106916458892822,-2.8362311416625974,3.073855656433105
1758273169987442000,0.50844189453125,7.4585367218017575,-2.7192145355224606,2.855085479736328
1758273169997400000,0.518400146484375,7.199663667297363,-2.3337480682373046,3.4440590881347655
1758273170007357200,0.528357177734375,6.912509105682372,-1.582118384552002,4.114285915374755
1758273170017315000,0.538315185546875,7.1321771080017085,-1.1219827529907227,5.989394728088379
1758273170027273200,0.548273193359375,8.370877191925048,-1.5536872398376464,7.441328397369384
1758273170037230800,0.55823095703125,9.32766003036499,-2.166004314422607,7.57809716720581
1758273170047188000,0.56818798828125,10.259154113769531,-2.7162217834472653,7.357830614471435
1758273170057146000,0.57814599609375,10.460117415618896,-3.0119056884765625,6.543353137207031
1758273170067104000,0.58810400390625,9.920075303649902,-3.279607361602783,5.6574985229492185
1758273170077062100,0.598062255859375,9.022249681091308,-3.5832220596313475,5.284003063964843
1758273170087020000,0.60802001953125,8.471134386444092,-3.8435914901733397,4.876689506530761
1758273170096977000,0.617976806640625,8.191461705017089,-3.7988498466491696,4.816086277008056
1758273170106935000,0.62793505859375,7.52692110671997,-3.5673604736328124,4.943427877807617
1758273170116893000,0.637892822265625,6.992415586090088,-3.1364041748046874,4.980089090728759
1758273170126851000,0.64785107421875,6.473023463439941,-3.2486323776245114,4.495562529754638
1758273170136808200,0.65780810546875,6.437260076141357,-3.9600095458984375,3.928884924316406
1758273170146765800,0.667765869140625,6.902932299041748,-4.327818775939941,3.7325603881835936
1758273170156724000,0.677723876953125,10.491391674804687,-5.440823272705078,4.264073156738281
1758273170166682000,0.68768212890625,7.276427758026123,-3.6131495803833005,4.173692044067383
1758273170176640000,0.697639892578125,7.7136688362121575,-3.774458917236328,4.221426439666748
1758273170186597000,0.70759716796875,7.643339162445068,-3.7030817802429197,4.458901316833495
1758273170196555300,0.71755517578125,7.4114008766174315,-3.6462194908142087,4.055777612304687
1758273170206513200,0.72751318359375,7.083095973968505,-3.7701194267272946,4.001309524536133
1758273170216471000,0.737470947265625,6.942885539245605,-3.6743513603210447,3.805583538818359
1758273170226428000,0.747427978515625,6.973561248016357,-3.8516719207763668,3.384952234649658
1758273170236386000,0.757385986328125,6.992565223693847,-3.9809588104248044,3.1741128509521483
1758273170246344200,0.76734423828125,6.821529442596435,-4.043058415985107,3.4096424392700193
1758273170256302000,0.777302001953125,6.619369039916992,-4.46264225692749,3.773860366821289
1758273170266259000,0.787259033203125,6.665457421875,-4.547486778259277,4.155735531616211
1758273170276217000,0.797217041015625,6.144568923187255,-4.684105910491943,4.264073156738281
1758273170286175000,0.807175048828125,5.851428857421874,-4.920383686828613,4.865765961456298
1758273170296133000,0.817133056640625,5.686528218078613,-4.799027590179443,5.515342799377441
1758273170306091000,0.827091064453125,5.572354726409912,-4.752041382598876,5.863399865722656
1758273170316048100,0.837048095703125,5.244947649383545,-4.463091169738769,5.980566109466553
1758273170326006300,0.84700634765625,4.344428549957275,-4.276193802642822,5.495141722869873
1758273170335964000,0.8569638671875,3.7639842849731444,-3.9962218460083005,6.570886456298828
1758273170345921800,0.866921875,5.2816088623046875,-3.836259247589111,8.745270476531982
1758273170355878700,0.876878662109375,6.975057624053955,-5.228188237762451,10.799794776153563
1758273170365836500,0.88683642578125,7.767388735961914,-4.3722611442565915,11.473762543487549
1758273170375794700,0.896794677734375,7.077409745025634,-2.741360900878906,10.318260967254638
1758273170385752600,0.906752685546875,6.081870767211914,-3.7591958816528317,10.08677159423828
1758273170395710700,0.916710693359375,4.525190775299072,-4.625447969818115,9.661052611541747
1758273170405667600,0.92666748046875,3.2884359802246093,-4.5605052497863765,8.072050897216796
1758273170415625500,0.93662548828125,3.167828071594238,-4.683806635284424,6.880636296081542
1758273170425583600,0.94658349609375,2.7166706962585447,-5.208436074066162,5.8654947921752925
1758273170435541500,0.95654150390625,2.867056488037109,-6.782174752807617,5.2253451232910155
1758273170445498600,0.96649853515625,3.7466263229370114,-8.02491505203247,4.756979423522949
1758273170455456800,0.976456787109375,4.6347255012512205,-7.912237936401366,5.346102669525147
1758273170465414700,0.98641455078125,4.668244324493408,-7.526322556304931,5.957222643280029
1758273170475372500,0.99637255859375,3.7898715904235836,-6.991517760467529,6.006752690124511
1758273170485330700,1.00633056640625,2.3048680107116697,-6.834697551727294,5.740098480224609
1758273170495287600,1.01628759765625,0.66394204788208,-7.202357144165038,4.669142150115967
1758273170505245700,1.02624560546875,0.7012018112182616,-7.279270872497558,3.200449069213867
1758273170515203800,1.036203857421875,2.1486463523864745,-7.065139461517334,3.761590083312988
1758273170525161700,1.04616162109375,-0.015263035583496093,-5.608716664123535,8.41397282180786
1758273170535118600,1.05611865234375,-0.18435352783203124,-3.1631893058776854,12.848632846832274
1758273170545076700,1.06607666015625,1.962646810913086,-2.801365579986572,11.334599571990966
1758273170555034600,1.07603466796875,3.7295676361083983,-3.623175299835205,8.498966980743408
1758273170564992800,1.08599267578125,2.944419129180908,-3.1407436653137206,8.824578406524658
1758273170574950700,1.09595068359375,3.5922003158569336,-3.173663938140869,7.352294023132324
1758273170584907500,1.105907470703125,4.387224904632568,-3.225139273834228,5.789628527069091
1758273170594865700,1.11586572265625,3.9408559326171875,-4.218134412384033,5.0382981185913085
1758273170604823600,1.125823486328125,2.104203984069824,-5.795913306427002,4.819079029083252
1758273170614781700,1.13578173828125,0.9484031326293945,-7.776815904998779,5.3752820022583006
1758273170624738800,1.14573876953125,0.9503484214782715,-8.554332894134522,6.033837096405029
1758273170634696700,1.15569677734375,1.1984475685119629,-8.577825997924805,7.0464347610473625
1758273170644654800,1.16565478515625,-0.17941548690795897,-9.110086954498291,8.521562258911132
1758273170654612500,1.175612548828125,-0.14080898513793944,-9.229198487091065,7.470208454895019
1758273170664570600,1.185570556640625,-0.42975919799804685,-8.106317908477783,6.031891807556152
1758273170674527700,1.19552783203125,0.7315782447814941,-7.9104422851562495,4.234744186401367
1758273170684485600,1.205485595703125,3.3282395828247067,-7.475595408630371,1.0913070442199706
1758273170694443800,1.21544384765625,5.049670576477051,-6.80521894378662,-0.47420156631469723
1758273170704401700,1.225401611328125,1.5732897659301757,-6.737882022094726,-0.6868366012573242
1758273170714358500,1.235358642578125,-0.9163806854248047,-5.65615178451538,-0.003591302490234375
1758273170724316700,1.245316650390625,-0.8285434120178222,-5.022286894989014,0.514603719329834
1758273170734274600,1.255274658203125,-0.598849690246582,-5.183296956634521,0.8276455863952636
1758273170744232700,1.265232666015625,-1.8525135345458983,-5.954678804016113,1.6398784996032714
1758273170754190600,1.275190673828125,-2.121412308502197,-5.897517239379883,1.9370587806701658
1758273170764147700,1.285147705078125,2.1781249603271484,-5.363460631561279,1.5119383483886717
1758273170774105600,1.295105712890625,3.761739720916748,-5.329492895507812,1.430685129547119
1758273170784063500,1.3050634765625,0.7803601036071777,-5.233425553894043,1.211166764831543
1758273170794021600,1.315021728515625,-4.107851498413086,-5.162048416900634,0.9347861106872558
1758273170803978800,1.324978759765625,-3.944447235107422,-5.033210440063476,0.6503250259399413
1758273170813936600,1.3349365234375,-1.8812439544677733,-5.059097745513916,0.19467852249145506
1758273170823894800,1.344894775390625,-0.07407061386108398,-4.891952542114257,-0.256628490447998
1758273170833852400,1.354852294921875,0.6277297477722168,-4.454112913513184,-0.24331074371337888
1758273170843810600,1.364810546875,2.0307319206237793,-9.385869058227538,0.15981296081542967
1758273170853767700,1.374767578125,2.399887889099121,-40.41906206436157,-6.393416258239745
1758273170863725600,1.3847255859375,-2.141912660217285,-66.42278557052612,-13.71368783416748
1758273170873683700,1.39468359375,-1.226429800415039,-36.82775957412719,3.8003462226867675
1758273170883641600,1.4046416015625,4.516511794281006,-13.466935425567627,16.446369754028318
1758273170893598500,1.414598388671875,5.420023645782471,-6.580014350128174,13.965527921295164
1758273170903556600,1.424556640625,1.5352818145751952,0.013617021942138671,0.8149263900756836
1758273170913514500,1.434514404296875,0.3049614364624023,-2.0223522148132322,-6.956502561187744
1758273170923472600,1.44447265625,-1.6768389877319334,-5.562927557373047,-8.845527671051025
1758273170933429800,1.4544296875,-3.8199487487792965,-8.169614614868163,-10.548104326629637
1758273170943387600,1.4643876953125,-3.711760761260986,-10.15126540145874,-9.8825162651062
1758273170953345500,1.474345458984375,-2.013523596191406,-10.050110381317138,-5.834070895385742
1758273170963303700,1.4843037109375,-1.5086463211059569,-8.969577244567871,-1.5056535690307615
1758273170973261600,1.494261474609375,-0.27997195663452146,-9.614365679168701,-0.09247603912353515
1758273170983218700,1.50421875,1.4853028549194336,-10.774356383514403,-0.14110826034545898
1758273170993176600,1.514176513671875,1.5797241828918456,-11.278335832977294,-0.9255085792541503
1758273171003134700,1.524134765625,0.7151181083679199,-10.656591589355468,-1.6654665298461913
1758273171013092900,1.5340927734375,-0.04683656997680664,-9.74948843536377,-2.133832229614258
1758273171023049500,1.544049560546875,-0.6018424423217773,-8.500612994384765,-2.3624784881591796
1758273171033007600,1.554007568359375,-0.584185205078125,-6.584353840637207,-2.6556185539245605
1758273171042965800,1.5639658203125,-1.1571475898742676,-6.750451580810546,-2.9893104103088377
1758273171052923600,1.573923583984375,-0.9217676391601562,-8.31895294342041,-2.6517279762268067
1758273171062881800,1.5838818359375,-1.177947216796875,-9.010877223205567,-2.3707085563659667
1758273171072838700,1.593838623046875,-1.3856442108154297,-9.916184725952148,-2.5565584602355957
1758273171082796500,1.603796630859375,-1.281945351409912,-10.921899060821533,-2.325218724822998
1758273171092754700,1.613754638671875,-1.0914566818237303,-10.505158334350586,-2.0542250244140625
1758273171102712600,1.623712646484375,-1.1650783828735352,-10.462062704467773,-2.4842834976196286
1758273171112669700,1.633669677734375,-1.3729250144958496,-10.001328522491454,-2.7913398605346678
1758273171122627800,1.6436279296875,-1.430685129547119,-9.022997869110107,-2.8987796600341795
1758273171132585700,1.653585693359375,-1.3072341064453123,-9.147945268249511,-3.100191874694824
1758273171142543600,1.663543701171875,-1.131260284423828,-9.34591581802368,-2.896385458374023
1758273171152501500,1.67350146484375,-0.9057564155578612,-9.46697263946533,-2.7672482063293455
1758273171162458600,1.683458740234375,-0.7435492530822754,-9.533860648345946,-2.714725407409668
1758273171172416800,1.693416748046875,-0.6153098266601562,-9.399186804962158,-2.6089316215515135
1758273171182374700,1.703374755859375,-0.5340566078186035,-9.242665871429443,-2.5757120735168457
1758273171192332800,1.713332763671875,-0.41838674011230464,-9.125349990081787,-2.5962124252319336
1758273171202289700,1.72328955078125,-0.40192660369873046,-9.07821414489746,-2.759467050933838
1758273171212247600,1.73324755859375,-0.5184942970275879,-9.11053586730957,-2.9034184257507323
1758273171222205700,1.743205810546875,-0.6388029304504395,-9.194482563018799,-2.984073094177246
1758273171232163600,1.75316357421875,-0.8035539321899413,-9.312247357177734,-2.9822774429321286
1758273171242120700,1.76312060546875,-0.9235632904052734,-9.400832818603515,-2.9001263984680175
1758273171252078600,1.77307861328125,-1.0637737251281738,-9.399186804962158,-2.7536311843872068
1758273171262036500,1.783036376953125,-1.1870751106262207,-9.405621221923827,-2.5878327194213866
1758273171271994600,1.79299462890625,-1.2214917594909667,-9.489418280029296,-2.396296586608887
1758273171281952500,1.802952392578125,-1.1791443176269532,-9.60867945022583,-2.2589292663574216
1758273171291909600,1.81290966796875,-1.1140519599914551,-9.641898998260498,-2.173785469818115
1758273171301867800,1.82286767578125,-1.0389338829040526,-9.633818567657471,-2.146401788330078
1758273171311825700,1.83282568359375,-0.9823708686828613,-9.567529109191893,-2.136675344085693
1758273171321783600,1.842783447265625,-0.946158568572998,-9.433004903411865,-2.1039047088623044
1758273171331740700,1.85274072265625,-0.9362824867248535,-9.286659326934814,-2.149544178009033
1758273171341698600,1.862698486328125,-0.968454571533203,-9.186252494812011,-2.1951836471557615
1758273171351657500,1.872657470703125,-1.0184335311889647,-9.149740919494628,-2.203712990570068
1758273171361615400,1.882615478515625,-1.0931026954650878,-9.106196376800536,-2.1836615516662596
1758273171371573500,1.892573486328125,-1.1845312713623046,-9.114875357818603,-2.1657050392150876
1758273171381530400,1.9025302734375,-1.2599486236572266,-9.182810829925536,-2.16405902557373
1758273171391488300,1.91248828125,-1.317110188293457,-9.271994841766357,-2.192789445495605
1758273171401446400,1.9224462890625,-1.356015965270996,-9.41639512939453,-2.2096984947204588
1758273171411404300,1.932404296875,-1.4082394889831542,-9.545382743835448,-2.2233155166625975
1758273171421361400,1.942361328125,-1.4050970993041991,-9.662698625183104,-2.175730758666992
1758273171431319600,1.952319580078125,-1.3869909492492676,-9.687089554595946,-2.1142297035217283
1758273171441277400,1.96227734375,-1.269824705505371,-9.62843161392212,-2.103006883239746
1758273171451235300,1.9722353515625,-1.1712135246276856,-9.564835632324218,-2.0992659431457517
1758273171461192400,1.9821923828125,-1.1571475898742676,-9.542689266967773,-2.109890213012695
1758273171471150300,1.992150390625,-1.2316671165466309,-9.594463877868652,-2.199523137664795
1758273171481108500,2.0021083984375,-1.2767080352783202,-9.7162688873291,-2.305167285919189
1758273171491066400,2.01206640625,-1.3422493057250975,-9.870395619201659,-2.368164717102051
1758273171501024500,2.0220244140625,-1.456273159790039,-10.039037198638916,-2.5119664543151856
1758273171510981400,2.0319814453125,-1.5664064361572265,-10.244339990997315,-2.647687760925293
1758273171520939300,2.041939208984375,-1.6455647285461426,-10.43841996307373,-2.7091888160705566
1758273171530897400,2.0518974609375,-1.6784850013732908,-10.631452471923827,-2.581099027252197
1758273171540855300,2.061855224609375,-2.1754314834594726,-10.73919154663086,-2.4431331565856933
1758273171550812400,2.0718125,-3.19865341796875,-10.822988604736327,-2.418891864776611
1758273171560770600,2.0817705078125,-3.1191958503723143,-11.040262405395508,-2.6644471725463865
1758273171570728200,2.091728271484375,-2.478297993469238,-11.359589051818848,-2.567631642913818
1758273171580686300,2.101686279296875,-2.128594913482666,-11.60050559387207,-1.801038198852539
1758273171590644500,2.11164453125,-2.2186767509460448,-11.764209132385254,-1.0380360572814942
1758273171600601300,2.121601318359375,-2.14490541229248,-11.763760219573975,-0.7537246101379395
1758273171610559500,2.1315595703125,-1.3037924415588378,-11.462390085601806,-0.7517793212890624
1758273171620517400,2.141517333984375,-0.9715969612121581,-11.088296076202392,-1.02786070022583
1758273171630475300,2.151475341796875,-1.034893667602539,-10.75191074295044,-1.016937155151367
1758273171640432400,2.161432373046875,-1.8507178833007811,-10.168024813079834,-1.9092261863708495
1758273171650390300,2.171390380859375,-2.80256268081665,-9.628730889129638,-3.216310655212402
1758273171660348400,2.181348388671875,-2.2560861518859863,-8.537723120117187,-3.7090672843933103
1758273171670306600,2.191306640625,-1.4833575660705565,-7.446565713500976,-3.9145197143554684
1758273171680264400,2.201264404296875,-1.354669226837158,-6.910114904022216,-4.50109912109375
1758273171690221300,2.21122119140625,-2.255188326263428,-6.523002423095702,-4.6082396453857415
1758273171700179500,2.221179443359375,-4.64101028060913,-6.82482146987915,-4.892551092529296
1758273171710137300,2.231137451171875,-5.8262897399902345,-7.471555193328857,-3.781342247009277
1758273171720095500,2.241095458984375,-5.519233377075195,-8.564358613586425,-2.4138041862487793
1758273171730052400,2.25105224609375,-3.964049761199951,-9.960327819061279,-2.750488794708252
1758273171740010500,2.261010498046875,-3.7755063804626463,-10.292822574615478,-2.7335797454833983
1758273171749968400,2.270968505859375,-4.500350933074951,-10.073603485107421,-2.3714567443847656
1758273171759926300,2.28092626953125,-4.867561612701416,-9.803058697509766,-1.866130556488037
1758273171769883400,2.29088330078125,-4.297292704772949,-9.010428310394287,-1.3820529083251953
1758273171779841500,2.300841552734375,-4.185513414764404,-8.87485664138794,-1.557128904724121
1758273171789799400,2.31079931640625,-4.330811528015136,-8.539668408966063,-1.5693991882324219
1758273171799757600,2.320757568359375,-4.285321696472168,-7.078457208251953,-1.1825859825134277
1758273171809715500,2.330715576171875,-4.010736693572998,-6.55667088394165,-1.7835305992126465
1758273171819672300,2.34067236328125,-4.036175086212158,-6.035034197235107,-2.7247511268615723
1758273171829630500,2.35063037109375,-4.2143934722900385,-5.408501550292969,-3.5740941658020016
1758273171839588400,2.36058837890625,-4.248959758758545,-4.846013797760009,-4.3162966804504395
1758273171849546500,2.37054638671875,-4.279934742736816,-4.395903885650634,-4.8323967758178705
1758273171859503600,2.380503662109375,-4.197634060668945,-4.000860611724853,-5.11386510848999
1758273171869461200,2.390461181640625,-4.126406561279297,-3.740341543579101,-5.202450569915771
1758273171879419400,2.40041943359375,-4.095281939697266,-3.7092169219970703,-5.097554609680175
1758273171889377300,2.410377197265625,-4.23309817276001,-3.8789059646606443,-5.059845933532714
1758273171899334400,2.42033447265625,-4.483441883850097,-4.22666375579834,-4.895992757415772
1758273171909292500,2.43029248046875,-4.631583111572265,-4.679467144775391,-4.520701647186279
1758273171919250400,2.44025048828125,-4.7623663772583,-4.996698864746094,-4.228609044647216
1758273171929208300,2.450208251953125,-4.922927526092529,-5.174617975616455,-4.303427846527099
1758273171939166200,2.460166259765625,-5.098153160095214,-5.228936425781249,-4.6550762153625485
1758273171949123300,2.470123291015625,-5.424063861083984,-5.282057775115966,-5.05655390625
1758273171959081500,2.48008154296875,-5.877016887664794,-5.36959577331543,-5.484667090606689
1758273171969039400,2.490039306640625,-6.419902114105224,-5.634304694366454,-5.916970127868652
1758273171978997500,2.49999755859375,-6.597521949768066,-5.617994195556641,-5.784690486145019
1758273171988954400,2.509954345703125,-6.582857464599609,-5.84753827972412,-6.002562837219238
1758273171998912300,2.519912353515625,-6.755539259338378,-5.88045855255127,-5.876867250061035
1758273172008870400,2.529870361328125,-6.836493202972412,-5.455487757873535,-5.700743790435791
1758273172018828300,2.539828369140625,-7.217769817352295,-5.442918199157715,-6.104765320587158
1758273172028786400,2.549786376953125,-7.387009947204589,-5.202899482727051,-6.449979272460937
1758273172038743600,2.55974365234375,-7.445518250274658,-4.786158756256103,-6.654683514404296
1758273172048701200,2.569701171875,-7.826046676635742,-4.418948076629638,-6.52464843673706
1758273172058659300,2.579659423828125,-8.14627114868164,-4.139275395202636,-6.109254448699951
1758273172068617200,2.5896171875,-7.819312984466552,-4.128501487731933,-5.853224508666992
1758273172078574300,2.59957421875,-7.506720030212402,-4.180276098632812,-5.633257231140137
1758273172088532500,2.609532470703125,-7.742997806549072,-4.482992971038818,-5.773467665863037
1758273172098490400,2.619490478515625,-8.487744160461425,-5.520430477905273,-6.328473538208008
1758273172108448500,2.629448486328125,-8.521711896514892,-8.052598008728026,-7.34181939086914
1758273172118405400,2.6394052734375,-3.954472954559326,-12.151770526123046,-9.157671712493896
1758273172128363300,2.64936328125,0.5500678314208984,-16.004639547729493,-9.862315188598632
1758273172138321400,2.6593212890625,-0.9503484214782715,-16.52852079849243,-8.760832787322997
1758273172148279600,2.669279541015625,-4.5407530860900875,-11.662455561828613,-5.681290901947021
1758273172158237400,2.679237548828125,-4.629338547515869,-5.478531948852539,-3.7784991325378416
1758273172168194300,2.6891943359375,-2.0866963844299313,-1.6576853744506834,-3.7771523941040037
1758273172178152400,2.69915234375,0.7029974624633789,0.06584054565429687,-3.9585131698608396
1758273172188110300,2.7091103515625,0.7517793212890624,0.36571430358886714,-3.6456209403991697
1758273172198068500,2.719068359375,-2.402431728363037,-0.26126725616455077,-3.166032420349121
1758273172208025300,2.729025390625,-7.023390570068359,-1.6903063720703124,-3.2110733390808104
1758273172217983500,2.7389833984375,-8.410381519317626,-4.653430201721191,-3.478775012207031
1758273172227941600,2.748941650390625,-3.7394437179565427,-7.973589353942871,-1.6038158370971678
1758273172237899300,2.758899169921875,1.35347212600708,-9.401431369018555,1.8670283821105955
1758273172247856400,2.7688564453125,2.082656169128418,-9.55091933517456,3.974823668670654
1758273172257814500,2.778814453125,0.021697452545166016,-10.002226348114013,4.348169490051269
1758273172267772400,2.7887724609375,-2.1677999656677245,-11.334300296783447,2.7501895195007324
1758273172277730600,2.79873046875,-4.134636629486084,-12.189778477478027,0.5662286926269531
1758273172287688400,2.8086884765625,-4.586093280029297,-12.308441097259522,-1.2801497001647948
1758273172297645300,2.818645263671875,-2.5938182235717773,-11.650185278320311,-2.5842414169311523
1758273172307603500,2.828603515625,-0.22565350646972654,-10.420613088226318,-2.7492916938781735
1758273172317561300,2.838561279296875,0.5407902999877929,-9.840168823242188,-3.5607764190673827
1758273172327519500,2.84851953125,-0.3308487419128418,-9.683647889709473,-5.052513690948486
1758273172337476600,2.8584765625,-1.4034510856628417,-10.096198763275146,-5.965003798675537
1758273172347434000,2.86843408203125,-1.3640963958740233,-10.86638350982666,-5.679495250701904
1758273172357392100,2.87839208984375,-0.22086510314941404,-12.29632045135498,-4.866663787078857
1758273172367350000,2.88835009765625,-0.020949264526367185,-14.277372687530518,-4.431816910552978
1758273172377307100,2.89830712890625,-1.2216413970947264,-15.904831266021727,-2.9613281784057617
1758273172387265000,2.90826513671875,-2.244264781188965,-17.445799309539794,-1.1035773277282714
1758273172397223000,2.918222900390625,-3.3303345092773435,-18.58364364852905,0.8189666053771972
1758273172407181000,2.92818115234375,-4.758026886749267,-18.424129962921143,1.7772458198547363
1758273172417138200,2.93813818359375,-5.679644888305663,-17.545607591247556,1.6690578323364256
1758273172427096000,2.948095947265625,-6.046705930328369,-16.56742657546997,1.3853449356079102
1758273172437054200,2.95805419921875,-6.404190165710449,-16.262914051818846,1.1385925270080566
1758273172447011800,2.96801171875,-7.3663599578857415,-16.76449929962158,0.8924386688232422
1758273172456970000,2.977969970703125,-8.243834866333007,-17.23929941635132,0.09112930068969725
1758273172466927000,2.987927001953125,-8.1594392578125,-17.810166874694822,-1.40464818649292
1758273172476885000,2.997885009765625,-7.77591807937622,-15.490784016418456,-0.8877999031066894
1758273172486843100,3.007843017578125,-7.625681925201415,-12.784438314819335,0.05596446380615234
1758273172496801000,3.017801025390625,-7.991695503997803,-10.89855559463501,0.4186860153198242
1758273172506758000,3.0277578125,-9.096918845367432,-10.239551587677001,0.03890577697753906
1758273172516716000,3.037716064453125,-9.67197615661621,-9.954192677307129,-0.2241571304321289
1758273172526674000,3.047673828125,-9.574711714172363,-9.09766703338623,0.2642600082397461
1758273172536632000,3.057632080078125,-8.024466139221191,-8.147617887115478,-0.7565677246093749
1758273172546589200,3.067589111328125,-6.340444546508789,-6.387879666900634,-2.0350714111328125
1758273172556547000,3.077547119140625,-5.316324786376953,-4.350414054107666,-2.1425112106323243
1758273172566505000,3.0875048828125,-3.1847371208190918,-2.813486225891113,-1.4923358222961425
1758273172576463000,3.097463134765625,1.327285545349121,-1.8969559028625487,-0.20216040267944335
1758273172586420000,3.107419921875,3.376722166442871,-1.4196119468688964,0.9636661682128905
1758273172596378000,3.117378173828125,-0.378583137512207,-0.229843359375,2.3388357467651364
1758273172606336000,3.1273359375,-4.369418029785156,0.5584475372314452,3.118746937561035
1758273172616294100,3.137294189453125,-4.836736266326904,0.476895043182373,2.6523265266418456
1758273172626251000,3.1472509765625,-4.500650208282471,-0.12674305038452147,1.5084966835021971
1758273172636209000,3.157208984375,-3.9160160903930663,-1.8632874420166015,-0.4068646446228027
1758273172646167000,3.1671669921875,-2.9144916084289547,-3.152714673614502,-2.383876665496826
1758273172656125200,3.177125244140625,-1.6719009468078612,-3.387645711517334,-3.12173968963623
1758273172666083000,3.1870830078125,0.738012661743164,-5.589263775634765,-4.693084166717529
1758273172676040200,3.197040283203125,1.6648679794311523,-10.325892485046387,-7.262810736083984
1758273172685998000,3.206998046875,1.8522142593383788,-15.021370853424072,-8.225579078674317
1758273172695956000,3.2169560546875,0.4004302276611328,-16.04309641189575,-6.621164691162109
1758273172705914000,3.2269140625,-3.6080619018554687,-16.571317153167723,-7.321767951965332
1758273172715871000,3.23687109375,-8.01877991027832,-17.65379557876587,-7.738807953643798
1758273172725829000,3.2468291015625,-9.41654476699829,-18.996044884490967,-5.215020128631592
1758273172735787300,3.256787353515625,-7.6467808273315425,-20.73004543685913,-3.810072666931152
1758273172745745000,3.266744873046875,-4.089894985961914,-21.647623223114014,-2.57915373840332
1758273172755702000,3.276701904296875,-3.4280478645324703,-20.785860263061522,-2.6613047828674317
1758273172765660200,3.28666015625,-5.708824221038818,-18.813786283111572,-2.7666496559143066
1758273172775618000,3.2966181640625,-5.4896051315307615,-17.87585778274536,-0.7243956398010254
1758273172785576200,3.306576171875,-4.28382532043457,-17.99885989303589,1.075146183013916
1758273172795533000,3.316532958984375,-4.721066398620605,-17.85730271987915,-0.6507739387512207
1758273172805491000,3.326490966796875,-5.1237411903381345,-16.55410882873535,2.4753052413940426
1758273172815449000,3.336448974609375,-5.887491519927978,-15.40534094467163,2.512116091918945
1758273172825407000,3.346406982421875,-5.992088204956055,-14.908394462585449,-0.45938744354248046
1758273172835364000,3.356364013671875,-6.191255855560303,-14.381520459747314,-2.8247090461730955
1758273172845322200,3.366322265625,-5.7417444938659665,-13.164667465972899,-4.204966303253173
1758273172855280000,3.376280029296875,-4.26482134475708,-11.458200232696532,-6.111648650360107
1758273172865238000,3.386238037109375,-2.16420866317749,-8.368931903076172,-7.254730305480956
1758273172875195100,3.396195068359375,-2.348113278198242,-5.7706245513916015,-6.929867067718505
1758273172885153000,3.406153076171875,-2.514061380767822,-4.676175117492676,-5.570259799957275
1758273172895111200,3.416111083984375,-2.290053887939453,-2.9683611457824703,-5.6018333343505855
1758273172905069000,3.426069091796875,-2.8534394660949705,-1.106420442199707,-5.131223070526123
1758273172915026000,3.43602587890625,-1.7389385932922363,1.2057798110961913,-5.776610055541992
1758273172924984000,3.445984130859375,-0.6289268486022949,3.7722143531799315,-7.861660426330566
1758273172934942000,3.45594189453125,-0.8170213165283202,4.282029669189453,-8.207622566223144
1758273172944900000,3.465900146484375,-0.46417584686279295,2.945167317199707,-8.277204051971434
1758273172954858000,3.47585791015625,-0.579696076965332,1.580023458099365,-8.425345279693603
1758273172964815000,3.485815185546875,-0.09965864410400391,1.0504559783935545,-7.711424272155761
1758273172974773200,3.495773193359375,-0.21877017669677734,0.17163433151245117,-6.433219860839843
1758273172984731000,3.50573095703125,-0.2663549346923828,-1.099387474822998,-5.486762017059326
1758273172994689000,3.51568896484375,-0.022296002960205077,-2.3644237770080565,-5.035305366516113
1758273173004646100,3.525646240234375,-0.7966706024169922,-2.6931775924682615,-5.519682289886474
1758273173014604000,3.53560400390625,-0.3253121505737305,-2.673724703979492,-6.259490602874756
1758273173024562200,3.545562255859375,3.017891192626953,-3.212569715118408,-5.2265422241210935
1758273173034520000,3.55552001953125,5.472546444702148,-3.819799111175537,-3.0541034927368162
1758273173044477000,3.565476806640625,3.24294614868164,-5.012710088348388,-0.41793782730102536
1758273173054435000,3.57543505859375,-1.933168202972412,-6.867617824554443,1.8269255043029784
1758273173064393000,3.58539306640625,-7.5537062377929685,-7.682993127441406,2.580500476837158
1758273173074351000,3.59535107421875,-14.449755207061767,-6.645405982971191,1.960551884460449
1758273173084308200,3.60530810546875,-23.442077367401122,-5.73964956741333,1.8001403732299803
1758273173094266000,3.61526611328125,-20.7104429107666,-5.791723453521728,3.915716815185547
1758273173104224000,3.62522412109375,9.204807557678222,-10.870573362731934,4.625747245025634
1758273173114182000,3.635181884765625,32.05506820220947,-18.391060052490232,8.181286347961425
1758273173124139000,3.645138916015625,21.041890203094482,-18.80914751739502,11.317241609954833
1758273173134097200,3.65509716796875,11.630433114624022,-14.490007722473143,8.998457302093506
1758273173144055000,3.665054931640625,2.9926024375915525,-13.601609268951416,2.114080065917969
1758273173154013200,3.67501318359375,-15.649399876403807,-13.895497522735594,-7.170633972167968
1758273173163970000,3.684969970703125,-36.623204969787594,-12.759149559783936,-13.635427367401123
1758273173173928000,3.694927978515625,2.131737303161621,-11.57536647644043,-7.802852848052978
1758273173183886000,3.704885986328125,21.92385423965454,-9.162310478210449,-2.8782793083190916
1758273173193844000,3.714843994140625,18.121562728118896,-7.485172215270996,-3.7030817802429197
1758273173203801000,3.724801025390625,3.387645711517334,-10.620528926849365,-7.160009702301025
1758273173213759000,3.734759033203125,-3.210025875854492,-17.848474101257324,-9.752780462646484
1758273173223716900,3.744716796875,-1.4140753555297851,-24.283489613342283,-4.6070425445556635
1758273173233675000,3.754675048828125,-7.966257111358642,-27.82900299682617,4.833294601440429
1758273173243632000,3.764632080078125,-10.171765753173828,-28.94200749359131,10.465803644561767
1758273173253590000,3.774590087890625,-7.9384245170593255,-26.69175720825195,10.61140103302002
1758273173263548200,3.784548095703125,-6.0407204261779786,-25.351902104187012,7.6744637840270995
1758273173273506000,3.794506103515625,-6.656030252838135,-22.840833475494385,5.941660332489013
1758273173283463000,3.804462890625,-6.394762996673584,-20.558860018157958,4.672583815002441
1758273173293421000,3.814421142578125,-8.269871809387206,-17.23720448989868,2.881870610809326
1758273173303379000,3.82437890625,-11.628787100982665,-13.83474465560913,2.7442040153503418
1758273173313337000,3.834337158203125,-12.911929553222656,-11.734580886840819,3.1405940277099607
1758273173323294200,3.844294189453125,-11.95769055404663,-9.521440727233886,2.9008745864868164
1758273173333251800,3.854251953125,-11.460893709564209,-8.758588223266601,0.2888005752563476
1758273173343210000,3.8642099609375,-7.668328642272948,-8.29396346359253,-2.086546746826172
1758273173353168100,3.874168212890625,-2.2131401596069336,-6.662464669799804,-3.283348301696777
1758273173363125000,3.884125,0.5186439346313476,-4.200177899932861,-2.0588637901306153
1758273173373083100,3.894083251953125,-0.4842272857666015,-1.871218235015869,0.21772271347045896
1758273173383041000,3.904041015625,-2.6864439002990723,-1.0531494552612304,0.05581482620239257
1758273173392999200,3.913999267578125,-5.280561399078369,-0.3238157745361328,-0.8316858016967773
1758273173402956300,3.923956298828125,-5.20948353729248,-0.1806125877380371,-0.7606079399108886
1758273173412914000,3.933913818359375,-1.1540052001953125,-0.6148609138488769,0.6579565437316894
1758273173422872000,3.9438720703125,-0.850989052581787,-0.2603694305419922,2.140715559387207
1758273173432830200,3.953830322265625,-3.7639842849731444,0.5211877738952636,3.2517747673034667
1758273173442787000,3.963787109375,-8.386738777923583,0.9036614891052246,4.012831620025635
1758273173452745200,3.9737451171875,-8.259995727539062,-0.5262754524230957,1.435174257659912
1758273173462703000,3.983703125,-2.485330960845947,-2.1088427497863766,-1.8984522789001463
1758273173472661200,3.9936611328125,4.50109912109375,-1.2029366966247559,-0.5366004470825195
1758273173482618000,4.0036181640625,7.475595408630371,-1.6525976959228514,-0.49589901885986326
1758273173492576000,4.013575927734375,5.098153160095214,-2.888305027770996,-1.4440028762817383
1758273173502534100,4.0235341796875,1.7132009254455565,-6.151751528167725,-2.888753940582275
1758273173512492300,4.0334921875,-4.471919788360595,-12.550554740142822,-6.459256803894043
1758273173522449200,4.04344921875,-8.712050928497314,-19.108722000122068,-8.406042028808594
1758273173532407000,4.053406982421875,-6.929118879699707,-24.320001188659667,-5.984007774353027
1758273173542365200,4.063365234375,-5.307346530151367,-26.6610814994812,-3.3324294357299804
1758273173552323000,4.073322998046875,-9.990105702209473,-27.6831063331604,-1.4695909065246582
1758273173562280200,4.0832802734375,-14.517541041564941,-28.14309232711792,-0.45055882492065424
1758273173572238000,4.093238037109375,-8.889820401763915,-27.98821740722656,-2.2629694816589354
1758273173582196200,4.1031962890625,2.4363994644165037,-26.92145093002319,-2.0823568939208985
1758273173592154400,4.113154296875,-0.7704840217590332,-21.249886472320554,2.171391268157959
1758273173602111000,4.123111083984375,-7.373093650054932,-18.61521718292236,1.846976943206787
1758273173612069000,4.133069091796875,-7.035960128784179,-18.226309050750732,-3.948038537597656
1758273173622027300,4.14302734375,-6.854000802612305,-15.837793619537353,-4.376301359558105
1758273173631985200,4.152985107421875,-7.694664860534668,-15.043217943572998,-1.3210007659912109
1758273173641942300,4.1629423828125,-6.812700823974609,-15.947178707885742,0.19632453613281248
1758273173651900200,4.172900146484375,-5.125536841583251,-15.995960566711425,1.0209773704528808
1758273173661858000,4.182858154296875,-3.680785777282715,-15.336507646942138,1.6594810256958006
1758273173671816200,4.192816162109375,-0.5400421119689941,-13.692439294433592,-1.4873977813720702
1758273173681773300,4.202773193359375,2.252494849395752,-9.713725048065186,-4.737975447845459
1758273173691731200,4.212731201171875,1.597979970550537,-5.75880318069458,-4.46249261932373
1758273173701689300,4.222689453125,1.9113211128234862,-3.810820854949951,-4.180425736236572
1758273173711646200,4.232646240234375,2.1677999656677245,-0.7167641220092773,-6.078728377532959
1758273173721604000,4.24260400390625,2.461388944244385,3.6827310661315917,-6.775590698242187
1758273173731562200,4.252562255859375,1.8822914176940917,8.890269314575194,-7.176769113922119
1758273173741520100,4.26252001953125,0.26815058593749996,10.01763902130127,-7.117811898040771
1758273173751477200,4.272477294921875,-0.032172084808349606,9.068936613464356,-5.665130040740967
1758273173761435100,4.28243505859375,-0.08993219985961913,7.490708806610107,-2.475155603790283
1758273173771393000,4.29239306640625,-0.42242695541381836,5.144989730072021,-0.07032967376708985
1758273173781351200,4.30235107421875,-0.5078700271606446,2.968211508178711,0.8328829025268554
1758273173791308300,4.312308349609375,-0.25752631607055665,1.055394019317627,0.17342998275756835
1758273173801266200,4.32226611328125,1.2099696640014648,-0.5524620330810547,-0.6391022056579589
1758273173811224300,4.332224365234375,2.6892870147705077,-2.7934347869873046,-0.9313444458007812
1758273173821182200,4.34218212890625,3.9023990684509275,-5.201552744293212,-1.5770307060241697
1758273173831139000,4.35213916015625,2.781164503479004,-7.626430113220215,-1.6246154640197752
1758273173841097200,4.36209716796875,0.0282815071105957,-12.09236439743042,-0.5548562347412109
1758273173851055000,4.37205517578125,-3.799298759460449,-16.804452539825437,0.6156091018676757
1758273173861013200,4.38201318359375,-10.032602781677246,-20.67991683959961,-0.21128829650878905
1758273173870970400,4.391970458984375,-23.579594325256345,-20.887913108825682,-1.7440262718200683
1758273173880928000,4.401927978515625,-35.08358366470337,-16.159664105224607,0.08454524612426757
1758273173890886100,4.41188623046875,-4.7478515296936035,-10.385747526550292,0.04578910675048828
1758273173900844000,4.421843994140625,40.768765144348144,-7.632565254974365,3.4090438888549803
1758273173910801200,4.43180126953125,28.093263005065918,-3.058742258453369,7.312490420532226
1758273173920759300,4.44175927734375,6.163423261260986,-2.5028385604858396,4.228758682250977
1758273173930717200,4.45171728515625,1.2419921112060546,-4.327220225524902,1.3420996681213377
1758273173940675300,4.46167529296875,-0.10594342346191406,-5.442020373535156,1.3409025672912598
1758273173950632200,4.471632080078125,-0.05910685348510742,-7.611615990447998,0.8641571617126464
1758273173960590000,4.481590087890625,3.5428199066162107,-11.423035395812988,1.0440215614318846
1758273173970548200,4.49154833984375,12.36066462097168,-15.252710588836669,-0.0848445213317871
1758273173980505300,4.50150537109375,8.157493968963623,-17.879748360443113,-1.2785036865234374
1758273173990463200,4.511463134765625,3.0966005722045895,-21.855469854736327,-2.4678233612060545
1758273174000421000,4.521421142578125,-2.441337505340576,-27.168203338623044,-1.228375089263916
1758273174010379000,4.53137890625,-10.044873065185547,-29.180529833984373,0.8412626083374023
1758273174020336000,4.541336181640625,-14.25567523498535,-24.753351689147948,1.9764134704589842
1758273174030294300,4.551294189453125,-8.206275827789305,-21.466262447357177,3.9643490364074703
1758273174040252200,4.561252197265625,0.05566518859863281,-21.3248549118042,5.205592959594727
1758273174050210300,4.571210205078125,-2.734477571105957,-22.647950604248045,4.106804035186768
1758273174060167200,4.581167236328125,-11.24257244567871,-23.56403201446533,2.5960627876281737
1758273174070125000,4.591125,-14.84928760910034,-21.81476842651367,1.141585279083252
1758273174080083200,4.601083251953125,-13.963133719635008,-18.269255043029784,0.04159925384521484
1758273174090041000,4.611041015625,-12.156558929443358,-13.915698599243163,0.6631938598632812
1758273174099998200,4.620998291015625,-12.581380086517333,-10.522217021179198,1.375917766571045
1758273174109956400,4.630956298828125,-9.740360541534423,-9.600150106811522,0.0056862289428710935
1758273174119914000,4.6409140625,-4.063558767700195,-8.356063069152832,-0.42541970748901364
1758273174129872100,4.6508720703125,-1.3102268585205077,-6.6723407516479485,0.1836053398132324
1758273174139829200,4.660829345703125,-2.833238389587402,-5.530456197357178,0.16041151123046873
1758273174149787100,4.670787109375,-4.318391606903076,-3.5317467239379883,0.04578910675048828
1758273174159745300,4.680745361328125,-1.2409446479797364,-1.6831237670898436,0.5820902786254882
1758273174169703200,4.690703125,0.3072060005187988,-1.2389993591308592,0.9542389991760253
1758273174179660000,4.700659912109375,-3.453186981964111,0.31229367904663086,1.692401298522949
1758273174189618200,4.7106181640625,-6.866121448516846,1.2638392013549804,3.1765070526123047
1758273174199576000,4.720576171875,-3.8126165061950683,0.7426514274597168,3.3770214416503905
1758273174209534200,4.7305341796875,-1.2202946586608887,0.6039373687744141,3.1126117958068846
1758273174219491300,4.7404912109375,-4.46264225692749,0.6871358764648438,3.2038907341003418
1758273174229449000,4.750448974609375,-7.3277534561157225,0.4991910461425781,2.704550050354004
1758273174239407000,4.760406982421875,-5.287145453643799,-0.488417138671875,0.25752631607055665
1758273174249364200,4.7703642578125,0.969801309967041,-0.41105449752807616,-0.7365162857055664
1758273174259322000,4.780322021484375,4.178330809783935,-0.54902036819458,-0.8412626083374023
1758273174269280300,4.7902802734375,4.68006569519043,-1.2927192588806151,-1.2535142066955565
1758273174279238100,4.800238037109375,2.318185757446289,-2.0751742889404294,-1.4095862274169921
1758273174289195000,4.810195068359375,-2.3102549644470214,-5.5267152572631835,-2.87289235458374
1758273174299153200,4.820153076171875,-5.602880797576904,-14.228890103912352,-6.293458338928223
1758273174309111000,4.830111083984375,-4.684255548095702,-23.701548972320555,-6.690147626495361
1758273174319069200,4.840069091796875,-5.03740029296875,-29.791799445343017,-3.946691799163818
1758273174329026300,4.8500263671875,-10.488997473144531,-31.337106979370116,-0.4966472068786621
1758273174338984200,4.859984130859375,-17.209222257995606,-33.12722163314819,2.1281460006713866
1758273174348942000,4.869942138671875,-13.275548930358886,-34.63152846374511,0.11596914291381835
1758273174358900200,4.879900146484375,-1.1457751319885254,-29.315203677368164,-1.6304513305664061
1758273174368857300,4.889857421875,-0.23732523956298826,-21.947945893859863,0.30795418853759765
1758273174378815500,4.8998154296875,-5.545719232940674,-17.517475721740723,2.1191677444458006
1758273174388773000,4.909773193359375,-6.263830093383788,-16.590919679260253,1.4251485382080078
1758273174398730200,4.919730224609375,-4.021061688232422,-17.195455598449705,-0.16594810256958006
1758273174408688400,4.9296884765625,-3.580229307556152,-17.048661109161376,-0.28924948806762696
1758273174418646300,4.939646240234375,-3.1967081291198727,-16.165350334167478,1.609502066040039
1758273174428604400,4.9496044921875,-1.9822493370056151,-14.425364277648924,4.734683420562744
1758273174438561300,4.959561279296875,0.7836521308898925,-12.792518745422363,5.98236176071167
1758273174448519200,4.969519287109375,3.1063270164489745,-11.82376489868164,3.0910639808654783
1758273174458477300,4.979477294921875,3.01983648147583,-9.708038819122313,-2.9409774642944333
1758273174468435200,4.989435302734375,1.9614497100830077,-5.610063402557373,-4.958840550994873
1758273174478392300,4.999392333984375,1.7977461715698242,-2.5393501358032227,-4.7301942924499505
1758273174488350500,5.0093505859375,1.9639935493469236,-0.6630442222595214,-6.948721405792236
1758273174498308400,5.019308349609375,0.8334814529418945,3.4383728591918943,-8.770409593963622
1758273174508266200,5.029266357421875,-0.9874585472106933,8.30563519668579,-9.187748870849608
1758273174518223400,5.039223388671875,-1.6157868453979491,9.418041143035888,-7.517942850494384
1758273174528181200,5.04918115234375,-1.0809820495605469,8.005611801147461,-4.670788163757324
1758273174538139400,5.059139404296875,-1.18108960647583,5.705981106567383,-2.1172224555969237
1758273174548097300,5.06909716796875,-1.0037690460205078,3.999813148498535,-0.2680009483337402
1758273174558054100,5.07905419921875,1.2493243537902832,2.473958502960205,0.48123453369140623
1758273174568012300,5.08901220703125,4.339340871429443,0.7544727981567383,0.6853402252197265
1758273174577970200,5.09897021484375,7.007528984069824,-1.291671795654297,0.8731354179382323
1758273174587927300,5.10892724609375,8.321047869873047,-4.0328830589294435,0.9171288734436035
1758273174597885400,5.118885498046875,3.5440170074462887,-7.81467421875,-0.21966800231933592
1758273174607843300,5.12884326171875,-2.8618191719055175,-12.463764929962158,0.9980828170776367
1758273174617801500,5.138801513671875,-7.758560117340087,-17.05300059967041,3.0072669227600097
1758273174627758300,5.14875830078125,-13.037325865173338,-20.688146907806395,2.8158804275512694
1758273174637716200,5.15871630859375,-28.19800932769775,-20.517859314727783,-0.7734767738342284
1758273174647674400,5.16867431640625,-30.67690587158203,-13.398999953460693,0.18884265594482422
1758273174657632300,5.17863232421875,-9.775226103210448,-3.3461960952758787,2.032677209472656
1758273174667589400,5.18858935546875,22.38937682495117,-3.462763788604736,1.337460902404785
1758273174677547300,5.19854736328125,39.845501129150385,-7.058705044555664,0.45938744354248046
1758273174687505200,5.208505126953125,16.62563560333252,-7.365312494659423,1.3039420791625975
1758273174697462300,5.218462158203125,3.9682396141052245,-8.959401887512206,-1.6683096443176268
1758273174707420400,5.22842041015625,3.47323842086792,-12.00856733932495,-2.1103391258239745
1758273174717378300,5.23837841796875,4.597765013122558,-13.752743248748779,-1.2556091331481933
1758273174727336400,5.24833642578125,4.138227931976318,-13.350816645050047,-0.9826701438903808
1758273174737293300,5.258293212890625,3.6112042915344236,-12.37338381729126,-0.14514847564697264
1758273174747251200,5.268251220703125,4.726602989959717,-10.545710124969482,-0.36062662506103516
1758273174757209300,5.278209228515625,4.735431608581543,-11.425130322265625,-1.1001356628417969
1758273174767167200,5.288167236328125,2.7124808433532714,-16.18974126358032,-2.310554239654541
1758273174777124400,5.298124267578125,-5.202600207519531,-22.00854912338257,-0.8803180229187011
1758273174787082200,5.308082275390625,-11.201122829437255,-26.805631424713134,3.116053460693359
1758273174797040000,5.3180400390625,-10.58521445236206,-27.282376830291746,7.3006690498352045
1758273174806998300,5.327998291015625,-5.163993705749512,-25.92666014022827,9.549722234344483
1758273174816955400,5.337955322265625,-3.324498642730713,-24.53428223724365,11.673229469299315
1758273174826913300,5.347913330078125,-7.602637734222411,-22.97760224533081,12.274622998809814
1758273174836871400,5.357871337890625,-9.824007962036132,-20.829404805755615,8.564358613586425
1758273174846828300,5.367828369140625,-11.507431004333496,-18.716072927856445,5.435286681365967
1758273174856786200,5.3777861328125,-16.839467739105224,-14.848689058685302,3.375824340820312
1758273174866744300,5.387744384765625,-16.679804415893553,-11.224316658020019,0.6914753669738769
1758273174876702200,5.3977021484375,-12.718597769165038,-9.014019612884521,-0.1331774673461914
1758273174886659300,5.407659423828125,-10.974421859741211,-7.599196069335937,-0.050727147674560547
1758273174896617500,5.417617431640625,-9.132682232666015,-8.07025524597168,-0.975487538909912
1758273174906575000,5.4275751953125,-2.834734765625,-7.911190473175048,0.12375029830932617
1758273174916533200,5.437533203125,-2.2219687782287596,-6.855347541046142,0.8864531646728515
1758273174926490400,5.447490478515625,-2.721758374786377,-4.536563233184814,0.13602058181762694
1758273174936448300,5.4574482421875,0.7251438278198242,-2.860771708679199,1.6114473548889159
1758273174946406400,5.467406494140625,3.365798621368408,-1.915361328125,3.799298759460449
1758273174956364300,5.4773642578125,-0.7122749938964843,-0.7899369102478027,3.1762077774047848
1758273174966321200,5.487321044921875,-4.11129316329956,0.7760206130981445,3.157652714538574
1758273174976279300,5.497279296875,-2.714725407409668,1.4095862274169921,3.5332430999755857
1758273174986237200,5.5072373046875,-3.385550785064697,0.9271545928955077,3.2941222091674804
1758273174996194300,5.5171943359375,-6.573280657958984,0.6429927833557129,2.965368393707275
1758273175006152400,5.52715234375,-9.106346014404297,-0.09112930068969725,1.5387234794616698
1758273175016110300,5.5371103515625,-3.934720790863037,-0.656310530090332,-0.5916670852661132
1758273175026068200,5.547068115234375,3.7777509445190427,-0.10354922180175781,-0.7481880187988281
1758273175036025300,5.557025390625,7.546972545623779,-1.696890426635742,-1.6998831787109374
1758273175045983200,5.566983154296875,7.491606632232665,-4.651036000061035,-1.6092027908325195
1758273175055941400,5.57694140625,4.7858594810485835,-12.015600306701659,-2.51540811920166
1758273175065898500,5.5868984375,0.6405985816955566,-19.904494776916504,-4.771793546295166
1758273175075856100,5.596856201171875,-3.540126429748535,-23.362769437408446,-5.871629933929443
1758273175085814300,5.606814208984375,-5.849034655761718,-23.96670680618286,-5.518335551452636
1758273175095772200,5.616772216796875,-9.313893370819091,-25.50408354721069,-3.1714193740844725
1758273175105729300,5.626729248046875,-14.089427857208252,-27.250653658294677,-0.6907271789550781
1758273175115687400,5.6366875,-13.245322134399414,-28.366950182342528,-1.253963119506836
1758273175125645300,5.646645263671875,-13.986626823425292,-27.69477806625366,2.1465514259338376
1758273175135603500,5.656603515625,-4.424933580780029,-25.878476831817625,7.4317515907287595
1758273175145560300,5.666560302734375,-2.3324013298034667,-22.12810956878662,3.71565133895874
1758273175155518200,5.676518310546875,-6.586149491882324,-19.36445266494751,-0.2775777549743652
1758273175165476400,5.686476318359375,-6.032041445159912,-17.738191187286375,-0.39279870986938475
1758273175175433500,5.69643359375,-6.519261483001708,-15.776292564392088,1.274912384033203
1758273175185391400,5.706391357421875,-6.190806942749023,-14.949245528411865,3.1673791587829587
1758273175195349200,5.716349365234375,-2.6431986328124997,-14.087781843566894,4.41161583404541
1758273175205307100,5.72630712890625,-0.13736732025146484,-12.797905699157715,5.6215854980468745
1758273175215264300,5.73626416015625,1.4221557861328125,-11.630882027435302,3.303250102996826
1758273175225222400,5.746222412109375,2.5568577354431152,-7.998878108978271,-0.8013093681335449
1758273175235180300,5.75618017578125,1.488145969390869,-2.5815479400634764,-3.537432952880859
1758273175245138400,5.766138427734375,2.2291513832092282,0.6748655929565429,-5.98161357269287
1758273175255095300,5.77609521484375,2.842216645812988,2.902370962524414,-9.369408921813964
1758273175265053200,5.78605322265625,2.221819140625,6.135740304565429,-10.633397760772704
1758273175275011300,5.79601123046875,2.2417209419250486,8.17889214630127,-9.33409444732666
1758273175284969200,5.80596923828125,2.1734861946105957,6.995258700561523,-6.33969635848999
1758273175294926300,5.81592626953125,1.4842553916931152,5.697601400756835,-2.251896298980713
1758273175304884200,5.82588427734375,-0.13512275619506836,4.367323103332519,0.29014731369018554
1758273175314842000,5.835842041015625,-1.0263643241882323,3.0735563812255857,1.1978490180969237
1758273175324799200,5.84579931640625,-0.031872809600830075,1.8394950630187987,0.736067372894287
1758273175334757400,5.85575732421875,2.17692785949707,0.6552630668640136,0.09606734161376952
1758273175344715300,5.86571533203125,5.093065481567383,-0.9639654434204101,0.16519991455078123
1758273175354672600,5.875672607421875,7.803002485656738,-3.6749499107360837,-0.16445172653198242
1758273175364629800,5.885629638671875,6.517914744567871,-7.3006690498352045,-0.47644613037109373
1758273175374587600,5.895587646484375,1.1251251426696776,-11.520000563049315,-0.25947160491943355
1758273175384545800,5.9055458984375,-6.744615714263916,-15.19435192337036,0.24121581726074218
1758273175394503000,5.9155029296875,-13.499855698394775,-18.356194490814207,0.3420715621948242
1758273175404460500,5.92546044921875,-20.76236715927124,-20.522647718048095,-0.8916904808044434
1758273175414418700,5.935418701171875,-35.972131755828855,-20.049792890167236,-0.8834604125976562
1758273175424376800,5.945376953125,-28.713361235046385,-19.813964026641845,-0.22834698333740233
1758273175434333700,5.955333740234375,13.093589604187011,-21.747281867218017,-1.0702081420898437
1758273175444291800,5.965291748046875,36.57666767501831,-11.936890927124022,9.261669847106933
1758273175454250000,5.97525,25.680805557250974,1.4010568840026854,14.972439356994627
1758273175464208000,5.985207763671875,13.504344826507568,2.826953610229492,7.902511492156982
1758273175474164700,5.995164794921875,6.331316652679443,-1.5904980903625487,1.8077718910217284
1758273175484123000,6.005122802734375,4.723011687469482,-6.9530608963012694,-1.225232699584961
1758273175494080800,6.015080810546875,3.203741096496582,-8.581566938018799,-1.6008230850219725
1758273175504038000,6.025037841796875,2.5004443588256833,-8.307430847930908,-1.1236287666320801
1758273175513995800,6.034995849609375,4.288464086151123,-10.557830770874023,-1.4157213691711426
1758273175523953700,6.04495361328125,6.198887373352051,-16.512509574890135,-4.22651411819458
1758273175533911800,6.054911865234375,6.374113007354736,-21.98131507949829,-4.2588358406066895
1758273175543868700,6.06486865234375,4.219930063629151,-26.222344045257568,-1.3931260910034178
1758273175553826800,6.074826904296875,-3.995324020385742,-31.221736386871335,2.5899276458740235
1758273175563785000,6.084784912109375,-15.317204396057129,-29.453319185638428,8.014440419769286
1758273175573741600,6.094741455078125,-10.3805102104187,-24.440459459686277,11.020959154510498
1758273175583699700,6.10469970703125,-4.7095443031311035,-23.955483985900877,12.94006142272949
1758273175593657900,6.114657958984375,-6.830657336425781,-24.716391201019285,12.715605017089842
1758273175603615700,6.12461572265625,-10.953023682403563,-23.504027335357666,9.502885664367675
1758273175613572900,6.13457275390625,-15.556474924468993,-19.47204210205078,6.034734922027588
1758273175623530800,6.14453076171875,-17.949329846191404,-14.969745880126952,2.2188263885498047
1758273175633488600,6.154488525390625,-15.856199044799803,-10.995520761871337,0.19572598571777342
1758273175643446800,6.16444677734375,-10.920402684783935,-9.355642262268066,0.03845686416625976
1758273175653403600,6.174403564453125,-6.283582257080078,-8.744372650909423,0.4043208053588867
1758273175663361800,6.18436181640625,-2.038064163208008,-7.670573206329346,2.627187409210205
1758273175673320000,6.19431982421875,-1.2669815910339355,-6.313060865020751,4.584147991180419
1758273175683276500,6.204276611328125,-2.714575769805908,-5.8916813728332516,3.816955996704101
1758273175693234700,6.214234619140625,-0.015263035583496093,-3.723282856750488,2.959233251953125
1758273175703192800,6.22419287109375,1.071405242919922,-2.6747721672058105,2.02384859085083
1758273175713150700,6.234150634765625,-2.25384158782959,-1.349581548309326,1.0102034629821777
1758273175723107800,6.24410791015625,-6.029347968292236,0.7776666267395019,0.9232640151977538
1758273175733065700,6.254065673828125,-5.932981351470947,1.364246033477783,1.7215806312561035
1758273175743023900,6.26402392578125,-3.3659482589721677,0.891241567993164,2.1383213577270506
1758273175752980700,6.273980712890625,-3.4018612838745117,0.9427169036865234,2.5891794578552245
1758273175762938600,6.283938720703125,-8.642768717956542,0.526125814819336,2.721758374786377
1758273175772896800,6.293896728515625,-10.634594861602782,-1.6240169136047362,-0.493504817199707
1758273175782855000,6.30385498046875,-2.187851404571533,-1.704073031616211,-1.9096750991821287
1758273175792811800,6.313811767578125,5.424512773895263,-1.3521253875732422,-2.7636569038391112
1758273175802769700,6.323769775390625,8.0698063331604,-1.0951976219177246,-3.3162685745239258
1758273175812727800,6.333727783203125,5.747131447601318,-1.3298293846130371,-2.0018518630981443
1758273175822685700,6.343685791015625,-0.23478140029907224,-3.709965110015869,-2.5611972259521485
1758273175832642800,6.353642822265625,-6.806565682220459,-11.148001480102538,-4.524442587280273
1758273175842600700,6.3636005859375,-6.836044290161133,-21.504868949127196,-3.493589134979248
1758273175852558800,6.373558837890625,-1.631798069000244,-27.846360958862302,-1.2228384979248046
1758273175862515700,6.383515625,-0.9234136528015137,-27.985523930358884,0.4043208053588867
1758273175872473600,6.3934736328125,-7.373243287658691,-27.36228331069946,1.5414169563293456
1758273175882431700,6.403431640625,-14.86305426864624,-30.304457875823974,1.8637363548278807
1758273175892390000,6.413389892578125,-12.501024693298339,-30.731673234558105,1.9843442634582518
1758273175902346800,6.4233466796875,-3.6544495590209958,-27.42707639312744,4.942230776977539
1758273175912305000,6.433304931640625,-0.29553426742553707,-23.853580777740476,7.3274541809082026
1758273175922262800,6.4432626953125,-5.410147563934326,-20.062661724090574,4.357447021484375
1758273175932219600,6.4532197265625,-6.973860523223877,-18.804808026885986,0.9346364730834961
1758273175942177800,6.463177734375,-5.561580818939209,-17.215656674957273,0.7395090377807617
1758273175952135700,6.4731357421875,-1.9586065956115721,-16.12629491958618,3.142988229370117
1758273175962093800,6.48309375,-0.522833787536621,-14.462175128173827,3.0172926422119137
1758273175972050700,6.49305078125,-0.20964228286743164,-12.995427336120605,4.289511549377441
1758273175982008600,6.503008544921875,0.6605003829956054,-13.364583304595946,5.553350750732421
1758273175991966700,6.512966796875,3.084180651092529,-13.37535721206665,1.848174044036865
1758273176001924900,6.5229248046875,3.9529765785217283,-10.385448251342773,-3.4386721343994138
1758273176011881700,6.5328818359375,3.470544944000244,-5.324255579376221,-4.746205516052246
1758273176021840000,6.54283984375,4.637119702911376,-0.026785131072998045,-5.723638343811035
1758273176031797800,6.5527978515625,4.856638067626953,4.546588952636719,-8.836848690032959
1758273176041754600,6.562754638671875,1.8309657196044922,8.507795599365235,-10.547206501007079
1758273176051712800,6.572712646484375,-1.281346800994873,11.59347262649536,-9.632022916412353
1758273176061670700,6.582670654296875,-2.054973212432861,10.601076038360596,-6.846967835235596
1758273176071628800,6.59262890625,-1.0134954902648925,7.6461822769165035,-2.714725407409668
1758273176081586000,6.6025859375,-0.07122749938964844,5.229534976196288,-0.14829086532592772
1758273176091543600,6.61254345703125,0.8282441368103027,3.553294538879394,1.0322001907348632
1758273176101501700,6.622501708984375,3.243843974304199,1.68551796875,1.7344494651794433
1758273176111458800,6.632458740234375,6.411073495483398,-0.38352117843627925,1.90892691116333
1758273176121416700,6.642416748046875,8.627804957580565,-3.1138088966369626,1.3353659759521483
1758273176131374800,6.652374755859375,7.489212430572509,-7.019200717163086,-0.22430676803588867
1758273176141333000,6.6623330078125,1.276259122467041,-11.551424459838866,-0.7709329345703124
1758273176151289600,6.67228955078125,-6.0996776420593255,-16.831536946105956,-0.4412812934875488
1758273176161247700,6.682247802734375,-15.784971545410155,-21.728726804351805,-0.4955997436523437
1758273176171205600,6.69220556640625,-26.580726106262205,-23.529166452789305,-0.17133505630493162
1758273176181163800,6.702163818359375,-34.61162666244507,-16.75911234588623,3.4715924072265625
1758273176191121000,6.712120849609375,-17.592893074035644,-7.331195121002197,3.4693478431701656
1758273176201078500,6.72207861328125,10.869376261901856,-7.036259403991699,-1.2927192588806151
1758273176211036700,6.73203662109375,36.29684535598755,-11.105354763031006,-4.314052116394043
1758273176220993800,6.741993896484375,28.33447882232666,-8.627356044769286,0.9545382743835449
1758273176230951700,6.75195166015625,8.128763549041748,-3.9438486846923824,2.484582772827148
1758273176240909800,6.761909912109375,5.7237879814147945,-5.734861164093017,-0.08439560852050781
1758273176250868000,6.771867919921875,5.993883856201172,-9.019256929016112,1.1996446693420408
1758273176260824600,6.781824462890625,7.9183730781555175,-11.38353106842041,1.02142628326416
1758273176270782700,6.79178271484375,7.425915724182128,-11.386823095703125,0.7797615531921386
1758273176280740900,6.801740966796875,6.320991658020019,-11.35165825881958,2.203114440155029
1758273176290697700,6.81169775390625,6.719027684020996,-14.512303725433348,0.9347861106872558
1758273176300655900,6.82165576171875,0.6465840858459472,-21.492149752807617,1.4429554130554199
1758273176310613800,6.83161376953125,-7.389553786468506,-30.50512190246582,5.629665928649902
1758273176320571600,6.841571533203125,-9.438391857147217,-31.62785284347534,8.77819074935913
1758273176330528800,6.85152880859375,-12.08578034286499,-26.682629314422606,8.592041570281982
1758273176340486700,6.861486572265625,-11.467477764129638,-23.14340071029663,9.232640151977538
1758273176350444800,6.87144482421875,-8.304887008666991,-20.750845063781735,9.322572351837158
1758273176360401700,6.881401611328125,-7.850437606048583,-20.94073518295288,6.105812783813477
1758273176370359600,6.891359619140625,-8.519317694854736,-21.38710415496826,2.9501053581237793
1758273176380317700,6.901317626953125,-12.606818479156493,-18.620005586242673,2.6249428451538086
1758273176390275800,6.91127587890625,-17.099238619232178,-14.2249995262146,1.1561001266479491
1758273176400232400,6.921232421875,-13.238738079833984,-10.621127477264404,-0.9576806640625
1758273176410190600,6.931190673828125,-8.36997936630249,-8.774300171661377,-0.8336310905456542
1758273176420148700,6.941148681640625,-4.282029669189453,-8.407239129638672,-0.34311902542114253
1758273176430106600,6.951106689453125,-2.6669910118103024,-7.197718378448486,0.5698199951171875
1758273176440063700,6.961063720703125,-2.4896704513549803,-5.251980616760253,2.659209856414795
1758273176450021600,6.971021728515625,-1.817647972869873,-3.6981437393188474,3.7337574890136715
1758273176459979500,6.9809794921875,-1.1575965026855468,-1.3507786491394043,3.769969789123535
1758273176469936600,6.9909365234375,-2.4766519798278805,-1.2729670951843262,2.130989115142822
1758273176479894500,7.00089453125,-3.078644059753418,-1.5496470245361327,1.3519757499694824
1758273176489852700,7.010852783203125,-4.1943420333862305,-1.472134745788574,1.5529390518188475
1758273176499810800,7.020810791015625,-4.428375245666504,-1.6304513305664061,1.9265841484069823
1758273176509767400,7.030767333984375,-4.006846115875244,-1.4707880073547361,2.316988656616211
1758273176519725600,7.0407255859375,-5.5546974891662595,-1.0401309837341308,2.427271570587158
1758273176529683700,7.05068359375,-7.409006674957275,-1.1278186195373534,0.7996633544921875
1758273176539640600,7.060640625,-4.583100527954102,-1.9910779556274414,-2.475903791809082
1758273176549598700,7.0705986328125,1.900696842956543,-1.8694225837707519,-3.949235638427734
1758273176559556600,7.080556640625,5.487061292266845,-1.162534543609619,-3.3783681800842285
1758273176569514800,7.0905146484375,3.553294538879394,-0.6251859085083007,-1.382202545928955
1758273176579471600,7.1004716796875,-0.4082113830566406,-1.9922750564575193,-1.5867571502685547
1758273176589429500,7.110429443359375,-3.2740707702636715,-6.178387021636962,-2.34960965423584
1758273176599387600,7.1203876953125,-3.562871345520019,-12.859855667114257,-3.1063270164489745
1758273176609345800,7.130345703125,-0.9120411949157714,-18.313398136138915,-2.4621371322631833
1758273176619302700,7.140302734375,0.5997475158691405,-22.95276240310669,-1.6868647071838379
1758273176629260500,7.150260498046875,-2.6910826660156246,-26.986842562866208,-2.0006547622680664
1758273176639218700,7.16021875,-10.25900447616577,-31.579220622253416,-1.101183126068115
1758273176649175600,7.170175537109375,-13.176339199066161,-35.06203584976196,0.5506663818359374
1758273176659133700,7.1801337890625,-8.283189556121826,-33.39462403106689,0.8294412376403808
1758273176669091600,7.190091552734375,-2.9255647911071776,-29.126061746215818,0.4381389038085937
1758273176679049700,7.2000498046875,-3.831470844268799,-23.82574818344116,4.556165759277343
1758273176689006600,7.210006591796875,-6.288819573211669,-20.59597014389038,2.3740005836486815
1758273176698964500,7.219964599609375,-5.64388150100708,-18.103606215667725,0.9614216041564941
1758273176708922600,7.229922607421875,-5.391143588256836,-15.478962645721435,0.7627028663635254
1758273176718879700,7.239879638671875,-4.9534535972595215,-13.085658811187743,2.4899697265625
1758273176728837600,7.249837646484375,-3.1425393165588376,-11.806556574249267,4.707748651885986
1758273176738795800,7.259795654296875,-1.6217723495483398,-11.355848111724853,5.687725318908691
1758273176748753700,7.269753662109375,-0.9781810157775879,-11.207108333587646,7.277924134063721
1758273176758710500,7.27971044921875,2.5260323890686034,-11.50458788986206,3.33257907333374
1758273176768668700,7.289668701171875,3.0793922477722164,-9.779715231323241,-1.6837223175048828
1758273176778626600,7.29962646484375,3.486406529998779,-5.908440784454346,-3.947888899993896
1758273176788583700,7.309583740234375,5.347150132751464,-0.5363011718749999,-6.12257219543457
1758273176798541600,7.31954150390625,5.411045389556884,4.629637822723389,-9.800814133453368
1758273176808499500,7.32949951171875,2.034472860717773,8.477419165802,-11.493065794372558
1758273176818457600,7.33945751953125,-0.3479074287414551,9.996989031982421,-10.096198763275146
1758273176828414700,7.349414794921875,-0.2485480598449707,8.656984290313721,-6.863577609252929
1758273176838372600,7.35937255859375,-0.5482721801757812,6.520308946228027,-2.4015339027404785
1758273176848330800,7.369330810546875,-0.4722562774658203,5.035006091308594,0.3420715621948242
1758273176858287600,7.37928759765625,0.7333738960266113,3.5488054107666014,1.3962684806823729
1758273176868245500,7.38924560546875,3.275866421508789,2.3069629371643066,2.009782656097412
1758273176878203600,7.39920361328125,6.034884559631347,0.594959112548828,1.7814356727600096
1758273176888161500,7.40916162109375,6.518662932586669,-1.956062756347656,1.0998363876342774
1758273176898118700,7.41911865234375,4.471919788360595,-5.595099642181396,-0.36391865234375
1758273176908076800,7.429076904296875,0.6241384452819824,-9.768791686248779,-0.7279869422912597
1758273176918034400,7.439034423828125,-4.321683634185791,-14.490456635284422,-0.17776947326660156
1758273176927991600,7.448991455078125,-11.697620398712157,-19.008165530395505,-0.5933130989074706
1758273176937949700,7.45894970703125,-19.828478874206542,-21.295077028656003,-0.9841665199279784
1758273176947907600,7.468907470703125,-28.764387657928467,-18.37878976898193,1.380257257080078
1758273176957865700,7.47886572265625,-25.31943074417114,-15.543606090545653,0.9856628959655761
1758273176967822600,7.488822509765625,-0.902763663482666,-19.48476129837036,-3.6816836029052733
1758273176977780500,7.498780517578125,35.91078033828735,-18.135179750061035,-0.1227028350830078
1758273176987738600,7.508738525390625,30.972889051818846,-3.6929064231872557,11.704503728485106
1758273176997695700,7.51869580078125,16.39444550552368,0.9280524185180663,9.606883798980713
1758273177007653600,7.528653564453125,10.31077908706665,-2.6101287223815914,3.9428012214660644
1758273177017611800,7.53861181640625,8.030302005767822,-7.231835752105712,0.9184756118774413
1758273177027569400,7.5485693359375,8.371176467132567,-9.585635259246825,0.2771288421630859
1758273177037526500,7.558526611328125,7.454795781707763,-10.17565633087158,0.5158008201599121
1758273177047484700,7.568484619140625,5.310638557434082,-13.525593366241454,-1.2050316230773925
1758273177057442600,7.578442626953125,3.9131729759216305,-19.104532147216794,-4.316147042846679
1758273177067400700,7.588400634765625,-0.8325836273193359,-26.30359726409912,-3.669114044189453
1758273177077357600,7.598357666015625,-10.991330908966065,-34.36173186416626,2.540247961425781
1758273177087315500,7.6083154296875,-14.847043045043945,-31.584607575988766,6.713191817474365
1758273177097273600,7.618273681640625,-10.55334164276123,-23.20744560470581,7.51450118560791
1758273177107230700,7.628230712890625,-4.2691608352661135,-20.606444776153563,9.086743488311766
1758273177117188600,7.638188720703125,-4.629637822723389,-21.013159783172608,9.772233351135254
1758273177127146800,7.648146728515625,-9.042600395202637,-21.89781729660034,7.879916213989257
1758273177137104600,7.658104736328125,-12.356624405670166,-20.342783318328856,4.975749600219726
1758273177147061500,7.6680615234375,-15.07269655151367,-17.16148786239624,2.266860059356689
1758273177157019600,7.67801953125,-15.982044269561767,-13.054384552001952,0.7416039642333984
1758273177166977500,7.6879775390625,-13.915997874450683,-10.216507396697997,-0.3275567146301269
1758273177176934700,7.6979345703125,-12.18109949645996,-10.009109677886963,-1.3254898941040039
1758273177186892800,7.707892822265625,-8.435520636749267,-8.871564614105225,-0.8533832542419433
1758273177196850400,7.717850341796875,-1.7096096229553222,-7.370250535583495,0.16250643768310546
1758273177206808600,7.72780859375,0.8967781593322753,-6.012887831878662,1.0845733520507812
1758273177216765700,7.737765625,-2.044049667358398,-4.808155484008789,1.8447323791503905
1758273177226723600,7.7477236328125,-2.2273557319641113,-2.295141566467285,2.7615619773864744
1758273177236681700,7.757681640625,-2.683451148223877,-1.0550947441101073,1.834856297302246
1758273177246638600,7.767638671875,-8.614636848449706,-0.012868833923339843,0.29358897857666016
1758273177256596500,7.777596435546875,-8.56750100326538,1.6686089195251463,1.073799444580078
1758273177266554600,7.7875546875,-3.055300593566894,1.4627075767517088,2.7602152389526364
1758273177276512500,7.797512451171875,-1.9750667320251463,0.45459904022216796,4.003254813385009
1758273177286469600,7.8074697265625,-2.9240684150695797,0.16879121704101563,4.804564181518554
1758273177296427800,7.817427734375,-5.279513935852051,0.10908581314086914,4.485536810302734
1758273177306385700,7.8273857421875,-4.999841254425048,-1.157446865081787,1.2237363235473633
1758273177316342500,7.837342529296875,-0.5038298118591308,-1.4140753555297851,-1.191264963531494
1758273177326300700,7.84730078125,4.177432984161377,-0.6087257720947266,-1.5662567985534668
1758273177336258600,7.857258544921875,3.6296097167968746,-0.47120881423950195,-0.7224503509521484
1758273177346216700,7.867216796875,-0.10654197387695312,-2.7540800971984862,-0.9858125335693358
1758273177356174300,7.87717431640625,-3.512892385864258,-9.069535163879394,-2.0886416732788087
1758273177366132200,7.88713232421875,-1.2832920898437499,-17.29002656402588,-2.5080758766174314
1758273177376090000,7.897090087890625,1.8887258346557616,-22.54290500640869,-2.363974864196777
1758273177386047200,7.907047119140625,0.004339490509033203,-25.580548362731932,-1.4432546882629393
1758273177396005000,7.917005126953125,-6.290914499664306,-25.649980210876464,-0.4656722229003906
1758273177405963300,7.92696337890625,-13.317896372222899,-27.514764028930664,0.9952397026062011
1758273177415921200,7.936921142578125,-13.795090690612792,-28.743139118194577,1.3998597831726074
1758273177425878000,7.9468779296875,-8.873210627746582,-26.061483621215817,-0.3363853332519531
1758273177435836200,7.956836181640625,-3.111713970184326,-23.536947608184814,-2.439392216491699
1758273177445794000,7.9667939453125,-2.2954408416748047,-21.817611540985105,-1.061080248260498
1758273177455751200,7.976751220703125,-3.643675651550293,-19.609559059906005,3.010858225250244
1758273177465709300,7.986709228515625,-4.798877952575683,-18.811392081451416,-0.045938744354248044
1758273177475667200,7.996667236328125,-5.707926395416259,-16.283564041137694,0.587926145172119
1758273177485625000,8.006625,-4.6921863410949705,-16.97593723373413,3.1467291694641113
1758273177495582200,8.016582275390626,-2.2966379425048826,-17.318457708740233,5.090222367095947
1758273177505540000,8.0265400390625,-0.14814122772216795,-16.98282056350708,6.612934622955322
1758273177515498200,8.036498291015626,2.11961665725708,-15.73723714981079,4.970063371276855
1758273177525455400,8.046455322265626,1.7176900535583495,-14.000992033386229,1.7937059562683104
1758273177535413200,8.056413330078126,1.023371572113037,-10.97367367172241,-2.8453590354919434
1758273177545371100,8.06637109375,1.6675614562988281,-6.819434516143798,-3.4365772079467773
1758273177555329000,8.0763291015625,3.924545433807373,-2.725499314880371,-4.8886605148315425
1758273177565286100,8.0862861328125,5.489156218719482,1.1180921752929687,-7.672967407989502
1758273177575244300,8.096244384765624,3.8901287849426267,7.494000833892822,-9.561693242645264
1758273177585202200,8.1062021484375,0.7574655502319335,12.30305414352417,-9.867253229522705
1758273177595159000,8.116158935546874,0.7116764434814453,12.196212894439697,-7.496395035552978
1758273177605117200,8.1261171875,1.2428899368286133,9.08479819946289,-3.689015845489502
1758273177615075000,8.136074951171874,0.1131260284423828,6.523301698303222,0.05716156463623046
1758273177625033200,8.146033203125,0.13033435287475587,4.600308852386474,1.8421885398864746
1758273177634990300,8.155990234375,1.8273744171142576,2.1823148132324217,1.6500538566589356
1758273177644948200,8.1659482421875,3.1075241172790524,-0.3956418243408203,1.0832266136169433
1758273177654906000,8.175906005859375,3.0430303100585934,-3.829974468231201,-0.15023615417480468
1758273177664863200,8.18586328125,1.511190160369873,-8.212560607147216,-1.9416975463867185
1758273177674821000,8.195821044921875,-2.18979669342041,-12.716353205108641,-1.8779519271850584
1758273177684779300,8.205779296875,-7.0841434371948235,-17.159841848754883,-1.4495394676208495
1758273177694737200,8.215737060546875,-12.818256413269042,-19.74183870162964,-2.4371476524353026
1758273177704694000,8.225694091796875,-19.38300772781372,-19.105878885650633,-2.5941174987792968
1758273177714652200,8.235652099609375,-22.271013480377196,-15.472228953552245,-0.7215525253295898
1758273177724610000,8.245610107421875,-10.385448251342773,-10.51518405380249,0.9772831901550293
1758273177734568200,8.255568115234375,9.200019154357909,-10.749217266082763,-1.284489190673828
1758273177744525300,8.265525390625,27.852496100616452,-12.18139877166748,-0.26755203552246093
1758273177754483200,8.275483154296875,23.42516831817627,-4.510675927734375,5.762244845581054
1758273177764441300,8.28544140625,10.769567980194092,-0.034715924072265626,6.09728344039917
1758273177774398200,8.295398193359375,6.3250318733215325,-3.0955531089782715,2.429216859436035
1758273177784356000,8.305356201171875,4.116979392242431,-9.37763899002075,-0.7547720733642578
1758273177794314200,8.315314208984375,-2.406322306060791,-14.047828603363037,-2.2934955528259278
1758273177804272000,8.325272216796876,-2.154033306121826,-14.885649546813964,-0.006584054565429687
1758273177814229200,8.335229248046875,8.967033405303955,-14.468609545135497,4.285321696472168
1758273177824187100,8.345187255859376,9.804555073547363,-17.706468015289307,4.940734400939941
1758273177834145000,8.35514501953125,4.169352553558349,-22.622063298797606,3.0383915443420406
1758273177844102100,8.36510205078125,-2.7186159851074216,-26.668563379669187,2.93050283203125
1758273177854060300,8.375060302734376,-5.882104566192627,-26.930878099060056,3.4452561889648434
1758273177864018200,8.38501806640625,-9.765350021362304,-23.827693472290036,4.717026183319091
1758273177873976300,8.394976318359374,-11.41495496520996,-20.808754816436767,6.656778440856933
1758273177883933200,8.40493310546875,-7.608623238372802,-19.88100167312622,8.42699129333496
1758273177893891000,8.41489111328125,-6.1650692749023435,-22.884378018188475,5.212326651763916
1758273177903849200,8.42484912109375,-8.559270935058594,-24.128913968658445,3.179948717498779
1758273177913806000,8.43480615234375,-13.098378007507323,-20.705953782653808,2.6671406494140624
1758273177923764200,8.44476416015625,-15.817592543029784,-15.744120479583739,0.03426701126098632
1758273177933722400,8.454722412109374,-13.978546392822265,-12.264447641754149,-2.2641665824890134
1758273177943680000,8.464679931640624,-9.541791441345215,-10.004620549774168,-2.931251020050049
1758273177953637000,8.47463720703125,-6.513874529266357,-8.305485559082031,-2.110638401031494
1758273177963595300,8.48459521484375,-3.8872856704711913,-6.573879208374023,-0.0674865592956543
1758273177973553200,8.49455322265625,-1.3226467796325683,-4.148253651428222,2.794931163024902
1758273177983510300,8.50451025390625,-1.1290157203674316,-3.5634698959350586,4.248810121154785
1758273177993468200,8.51446826171875,-0.7619546783447265,-3.522918105316162,3.8003462226867675
1758273178003426000,8.524426025390625,-1.6240169136047362,-2.7020062110900875,3.197306679534912
1758273178013384200,8.53438427734375,-4.649838899230957,-1.3965677558898926,2.21538472366333
1758273178023341000,8.544341064453125,-4.771344633483887,-0.0234931037902832,2.6933272300720215
1758273178033299200,8.55429931640625,-4.597166462707519,0.6959644950866699,3.7933132553100584
1758273178043257300,8.56425732421875,-5.530905110168456,0.8467991996765136,4.0915409996032714
1758273178053214000,8.5742138671875,-7.9165774269104,1.1742062767028807,4.1751884201049805
1758273178063172000,8.584172119140625,-9.610624739074707,0.5544073219299316,3.175160314178467
1758273178073130200,8.594130126953125,-4.549132791900634,-1.2741641960144041,-0.17223288192749023
1758273178083088100,8.604088134765625,1.8347066596984862,-1.6015712730407714,-2.717568521881103
1758273178093045200,8.614045166015625,5.390844313049316,-0.9793781166076659,-2.9554923118591305
1758273178103003100,8.624003173828125,4.188655804443359,-0.27144261322021485,-1.0410288093566893
1758273178112961000,8.6339609375,-0.17357962036132812,-0.630722499847412,-0.4364928901672363
1758273178122918100,8.643918212890625,-4.30926371307373,-2.7729344352722167,-1.3664905975341797
1758273178132876000,8.6538759765625,-5.175066888427734,-10.637437976074217,-1.7685668388366698
1758273178142834200,8.663834228515626,-4.575020097351074,-20.520103878784177,-1.7706617652893066
1758273178152792300,8.673792236328126,0.4144961624145508,-27.442937979125976,-0.3676595924377441
1758273178162749000,8.6837490234375,-0.43185412445068355,-30.247146673583984,0.7062894897460937
1758273178172707000,8.69370703125,-6.72291826171875,-28.727127894592282,1.176600478363037
1758273178182665200,8.703665283203126,-10.256161361694335,-28.97268320236206,0.9301473449707031
1758273178192622000,8.7136220703125,-8.687360723876953,-26.9805577835083,0.3091512893676758
1758273178202580200,8.723580322265626,-3.1398458396911617,-24.070256027984616,-3.01968684387207
1758273178212538400,8.733538330078124,-1.1915642387390135,-20.982184799194336,-3.6092590026855467
1758273178222496000,8.74349609375,-3.8596027137756344,-18.724452633666992,0.4933551795959472
1758273178232453000,8.753453125,-5.10099627456665,-18.634670071411133,0.030226795959472655
1758273178242411300,8.763411376953124,-5.438728346252441,-17.143531349945068,-2.14490541229248
1758273178252369200,8.773369140625,-4.4577042160034175,-16.276082160949706,-0.38247371520996093
1758273178262326300,8.783326171875,-2.0624550926208496,-16.89827531738281,3.142389678955078
1758273178272284000,8.793283935546874,-1.5497966621398924,-16.795623921203614,6.037727674102783
1758273178282242000,8.803241943359374,-0.7803601036071777,-16.366912186431883,7.259817984008788
1758273178292200200,8.8132001953125,0.011671733093261718,-15.10576646194458,5.013757551574707
1758273178302157000,8.823156982421875,0.46208092041015625,-12.287641470336913,0.7624035911560059
1758273178312115200,8.833115234375,1.0601824226379395,-8.142979121398925,-2.3081600379943845
1758273178322073300,8.8430732421875,2.9595325271606443,-3.7575498680114743,-4.968118082427978
1758273178332030000,8.853030029296875,4.202721739196777,0.5952583877563477,-7.307402742004394
1758273178341988000,8.862988037109375,3.019088293457031,5.931933888244629,-10.236858110809326
1758273178351946200,8.8729462890625,0.7683890953063964,10.830021572113036,-10.81535708694458
1758273178361903600,8.882903564453125,-0.15292963104248045,11.23658694152832,-8.003217599487304
1758273178371860700,8.89286083984375,-0.2653074714660644,8.772504520416259,-4.541800549316406
1758273178381818600,8.902818603515625,-1.223137773132324,6.143820735168457,-1.5240589942932128
1758273178391776500,8.912776611328125,-1.8261773162841797,4.187757978820801,0.6787561706542968
1758273178401733600,8.922733642578125,0.25004443588256836,2.1218612213134764,0.9409212524414062
1758273178411691800,8.93269189453125,3.403956210327148,-0.3205237472534179,0.14679448928833008
1758273178421649700,8.942649658203125,5.473593907928467,-3.078644059753418,-1.0654197387695312
1758273178431607800,8.95260791015625,5.755211878204346,-6.728754128265381,-2.066046395111084
1758273178441564700,8.962564697265625,3.4905963829040525,-11.017667127227783,-1.722478456878662
1758273178451522600,8.9725224609375,-0.09068038787841796,-15.422848544311522,-0.6869862388610839
1758273178461480700,8.982480712890625,-6.0142345703124995,-18.052879067993164,-0.4086602958679199
1758273178471437600,8.9924375,-13.118579084014891,-18.24007571029663,-0.5952583877563477
1758273178481395700,9.002395751953125,-20.138527989196778,-14.747384400939941,0.7676409072875976
1758273178491353900,9.012353759765626,-18.57855597000122,-8.115595439910889,2.4283190338134766
1758273178501310500,9.022310546875,-4.867561612701416,-2.742109088897705,1.7152958518981933
1758273178511268600,9.0322685546875,12.447005518341063,-6.72246934890747,-2.5938182235717773
1758273178521226800,9.042226806640626,25.227852530670166,-13.112593579864502,-2.467524085998535
1758273178531184600,9.0521845703125,13.276746031188964,-8.015936795806883,3.6797383140563964
1758273178541141800,9.062141845703126,4.573224446105956,-4.853196402740478,2.924666965484619
1758273178551099600,9.072099609375,4.549581704711914,-7.523629079437256,2.0301333702087403
1758273178561057500,9.0820576171875,-1.9777602088928221,-12.749722390747069,2.309955689239502
1758273178571014700,9.0920146484375,2.306663661956787,-16.415694045257567,0.28356325912475583
1758273178580972500,9.10197265625,7.35438894958496,-13.827113137817381,0.023044190979003905
1758273178590930700,9.1119306640625,4.848108724212646,-11.577012490081787,0.6956652198791503
1758273178600888800,9.121888916015624,5.17117631072998,-12.999018638610838,-0.2506429862976074
1758273178610845400,9.131845458984374,6.359897434997558,-19.12099228363037,-0.4933551795959472
1758273178620803600,9.141803466796874,5.61170941619873,-27.111490686798096,-0.32187048568725585
1758273178630761700,9.15176171875,-0.24974516067504882,-29.906421849822998,1.5891513519287108
1758273178640718600,9.161718505859374,-9.976638317871092,-24.796297681427,6.763470052337646
1758273178650676700,9.1716767578125,-12.294524800109862,-20.773589979553222,10.88478893508911
1758273178660635000,9.181634765625,-9.132831870269776,-20.465785428619384,11.512518682861327
1758273178670592500,9.191592529296875,-6.018424423217773,-22.637475971984863,8.265083406066895
1758273178680549600,9.201549560546875,-6.912958018493652,-22.035184616851804,5.811924530029296
1758273178690507800,9.2115078125,-12.881403482055664,-17.954267887115478,4.6526820137023925
1758273178700465700,9.221465576171875,-17.5707467086792,-13.843573274230955,2.141912660217285
1758273178710422800,9.2314228515625,-15.032444036102294,-10.884040747070312,-1.0567407577514647
1758273178720380700,9.241380615234375,-9.65910732269287,-8.457517364501953,-1.8490718696594237
1758273178730338600,9.251338623046875,-6.693738928985596,-6.972663422393798,-1.505354293823242
1758273178740296700,9.261296630859375,-6.254103649139404,-6.742820063018798,-1.4082394889831542
1758273178750253600,9.271253662109375,-5.183446594238281,-6.347627151489258,0.5684732566833496
1758273178760211700,9.281211669921875,-2.9441198539733886,-5.703437267303467,3.8413469261169433
1758273178770169900,9.291169921875,-1.6724994972229004,-5.846640454101562,4.087650421905518
1758273178780126500,9.30112646484375,-1.0603320602416992,-5.36884758529663,1.4495394676208495
1758273178790084600,9.311084716796875,-4.518457083129882,-3.001281418609619,-0.025139117431640625
1758273178800042800,9.321042724609375,-6.1550435554504395,-0.6983586967468262,0.08783727340698241
1758273178810000600,9.331000732421876,-1.6814777534484862,0.07586626510620116,2.695422156524658
1758273178819957800,9.340957763671875,0.206200617980957,-0.2539350135803223,4.171746755218505
1758273178829915600,9.35091552734375,-1.1412860038757324,0.303913973236084,4.711190316772461
1758273178839873500,9.36087353515625,-7.898321639251709,1.1866261978149413,5.347000495147705
1758273178849830700,9.37083056640625,-11.042955882263183,0.8901941047668457,4.741417112731933
1758273178859788500,9.38078857421875,-2.7281927917480466,-0.7498340324401855,0.9525929855346679
1758273178869746700,9.39074658203125,3.349937035369873,-0.5322609565734863,-1.0580874961853026
1758273178879704800,9.400704833984374,4.619312828063965,-0.9316437210083007,-2.0192098251342774
1758273178889661400,9.410661376953126,2.079813054656982,-3.398419618988037,-2.060809078979492
1758273178899619600,9.42061962890625,0.5427355888366698,-7.5917141891479485,-0.723946726989746
1758273178909577700,9.43057763671875,0.7248445526123046,-18.115577223968504,-0.1714846939086914
1758273178919534600,9.44053466796875,-1.4956278495788573,-24.46410220108032,-1.4368202713012694
1758273178929492700,9.45049267578125,-3.127725193786621,-26.274717206573484,-2.0235493156433106
1758273178939450600,9.46045068359375,-5.186888259124755,-26.409241412353513,-0.9712976860046386
1758273178949407500,9.470407470703124,-10.00432127456665,-27.001357410430906,1.4405612113952635
1758273178959365600,9.48036572265625,-10.989684895324707,-25.820716716766356,0.3908534210205078
1758273178969323500,9.490323486328125,-7.719355065155029,-23.964462242126462,-2.595164962005615
1758273178979281700,9.50028173828125,-3.5863644493103024,-22.886024031829834,-3.4350808319091795
1758273178989238800,9.51023876953125,-0.21757307586669922,-20.471172382354734,-0.6441898841857909
1758273178999196400,9.520196533203125,-3.051260378265381,-18.22660832595825,2.0031986015319823
1758273179009154600,9.530154541015625,-3.967940338897705,-17.54231556396484,2.0096330184936524
1758273179019111700,9.540111572265625,-4.978143801879883,-18.422783224487304,2.246060432434082
1758273179029069600,9.550069580078125,-4.6079403701782224,-19.113660041046142,3.1567548889160153
1758273179039027700,9.56002783203125,-2.4363994644165037,-18.91015289993286,4.010587055969238
1758273179048985600,9.569985595703125,-0.9494505958557128,-18.199673557281493,5.866542255401611
1758273179058942500,9.5799423828125,1.3407529296874998,-16.951396666717528,5.41373886642456
1758273179068900600,9.589900634765625,2.745850028991699,-15.127763189697264,2.584391054534912
1758273179078858500,9.5998583984375,3.0960020217895505,-12.418873648834229,-0.9693523971557617
1758273179088815600,9.609815673828125,3.7934628929138183,-8.264035942840575,-3.7898715904235836
1758273179098773800,9.619773681640625,4.939686937713622,-2.570923670196533,-4.249558309173584
1758273179108731600,9.629731689453125,5.116408947753906,2.882469161224365,-6.225971779632568
1758273179118689500,9.639689453125,3.783287535858154,8.230367481994628,-9.209147048187255
1758273179128646700,9.649646728515625,2.5685294685363766,12.920458896636962,-9.319878874969483
1758273179138604500,9.6596044921875,1.4573206230163573,12.601132250213622,-7.61640439376831
1758273179148562700,9.669562744140626,-0.3550900337219238,9.095123194122314,-4.790947159576416
1758273179158519800,9.679519775390625,-1.4797662635803221,6.5963248489379875,-1.6090531532287597
1758273179168477400,9.6894775390625,-0.42661680831909177,4.861127195739746,0.13437456817626953
1758273179178435600,9.699435546875,2.0020015007019043,2.705896788787842,0.2632125450134277
1758273179188392700,9.709392822265626,3.855412860870361,0.5244798011779784,0.053719899749755856
1758273179198350600,9.7193505859375,4.335899206542969,-2.0425532913208007,0.29972412033081053
1758273179208308700,9.729308837890626,3.7693712387084957,-5.571456900787354,-0.3541922080993652
1758273179218266600,9.7392666015625,1.2343605934143065,-9.651326167297363,-1.1430816551208496
1758273179228223500,9.749223388671876,-4.009988505554199,-14.79227568206787,-0.9594763153076171
1758273179238181600,9.759181640625,-11.579556329345703,-20.088399391937255,-1.7738041549682617
1758273179248139500,9.769139404296874,-17.899051611328122,-21.433491812133788,-2.129792014312744
1758273179258096600,9.7790966796875,-25.702503009796143,-17.39716708831787,0.6705261024475098
1758273179268054800,9.7890546875,-20.811597930908203,-10.065074141693115,2.114080065917969
1758273179278012700,9.7990126953125,-0.860565859222412,-4.431517635345458,1.6973393394470213
1758273179287970600,9.808970458984374,22.629994091796874,-6.649446198272705,-1.2460323265075683
1758273179297927700,9.818927734375,36.29160803985595,-10.11924295425415,-0.6619967590332031
1758273179307885600,9.828885498046875,18.76934391479492,-4.850203650665283,3.676147011566162
1758273179317843700,9.83884375,6.93959351196289,-4.178181172180175,1.3648445838928223
1758273179327800800,9.84880078125,1.4073416633605955,-8.513781103515624,0.056413376617431635
1758273179337758500,9.858758544921875,-14.579790284729002,-14.013711229705809,1.0130465774536133
1758273179347716600,9.868716552734375,1.603067649078369,-18.84146923980713,1.5514426757812498
1758273179357674800,9.8786748046875,4.599560664367676,-16.98850679244995,6.074388887023925
1758273179367633000,9.8886328125,3.0870237655639645,-15.43033042449951,7.879467301177978
1758273179377590800,9.8985908203125,5.607519563293457,-15.862334186553953,4.342183985900879
1758273179387548700,9.908548583984375,5.5157917121887206,-17.80597702178955,-0.08125321884155273
1758273179397505800,9.918505859375,2.597708801269531,-22.00001977996826,-0.9859621711730956
1758273179407463700,9.928463623046875,-2.2694038986206055,-25.15961778335571,1.5551836158752441
1758273179417421800,9.938421875,-8.045864316558838,-23.760057275390622,5.1343654602050774
1758273179427378700,9.948378662109375,-10.61065284500122,-20.936096417236328,6.798784526824951
1758273179437336600,9.958336669921875,-9.696666361236572,-20.79438960647583,7.235127779388427
1758273179447294700,9.968294677734375,-10.244938541412353,-21.45743382873535,6.137535955810547
1758273179457252900,9.9782529296875,-10.441711990356445,-20.859930876922608,3.670460782623291
1758273179467209700,9.988209716796876,-11.642254485321045,-17.98434504547119,1.6271593032836913
1758273179477167900,9.99816796875,-13.299490946960448,-14.378527707672118,0.40776247024536133
1758273179487125800,10.008125732421876,-12.98510234146118,-10.75714805908203,0.11088146438598633
1758273179497082600,10.01808251953125,-11.037718566131591,-7.326406717681884,1.0945990715026854
1758273179507040800,10.028040771484376,-7.3286512817382805,-5.96919365158081,1.5370774658203123
1758273179516998700,10.03799853515625,-5.297021535491943,-6.231508370971679,2.5944167739868162
1758273179526956800,10.047956787109374,-1.4359224456787107,-5.675006122589111,4.875043492889404
1758273179536914000,10.057913818359374,0.23268647384643554,-5.4427685615539545,6.496366929626465
1758273179546871600,10.06787158203125,-0.20245967788696287,-6.02665449142456,5.70089342803955
1758273179556829700,10.07782958984375,-1.5267524711608886,-4.199728987121582,3.017741555023193
1758273179566786800,10.087786865234374,-2.6741736167907715,-1.5134347244262694,-0.040102877807617184
1758273179576744700,10.09774462890625,-2.046743144226074,0.020949264526367185,-0.033518823242187495
1758273179586702800,10.107702880859375,-2.7105355545043945,0.7615057655334472,2.3081600379943845
1758273179596659700,10.11765966796875,-4.5072342628479,1.3907318893432616,3.316118936920166
1758273179606617600,10.12761767578125,-8.306981935119628,1.417965933227539,3.4376246711730953
1758273179616575700,10.13757568359375,-8.89969648361206,0.09771335525512695,1.528997035217285
1758273179626533600,10.14753369140625,-3.2225954345703123,-1.583914035797119,-1.8867805458068847
1758273179636490800,10.15749072265625,4.2143934722900385,-1.97910694732666,-4.689343226623535
1758273179646449000,10.167448974609375,6.688501612854004,-1.9734207183837889,-6.332663391113281
1758273179656406800,10.17740673828125,1.7857751632690428,-2.086397109222412,-5.64358222579956
1758273179666363600,10.18736376953125,-2.0910358749389646,-4.021061688232422,-3.9668928756713866
1758273179676321800,10.19732177734375,-2.295590479278564,-8.849418248748778,-2.1724387313842772
1758273179686279700,10.20727978515625,-2.6415526191711423,-18.772486304473876,-0.9542389991760253
1758273179696237800,10.21723779296875,-2.6294319732666014,-27.809849383544922,-1.2460323265075683
1758273179706195000,10.22719482421875,-4.179976823425292,-30.143597451782224,-2.563441790008545
1758273179716152600,10.237152587890625,-9.801861596679688,-31.96588419036865,-2.7070938896179197
1758273179726110700,10.24711083984375,-11.405078883361815,-32.04100226745605,-0.9096469932556152
1758273179736067800,10.25706787109375,-9.468618653106688,-27.687745098876952,0.46417584686279295
1758273179746025700,10.267025634765625,-7.02279201965332,-23.24515428085327,3.206883486175537
1758273179755984000,10.27698388671875,-2.6604069572448727,-19.992780963134763,4.624400506591797
1758273179765941800,10.286941650390625,-3.852719384002685,-18.134431562042234,2.5377041221618653
1758273179775898600,10.296898681640625,-4.9539025100708,-17.05150422363281,-0.3329436683654785
1758273179785856800,10.306856689453125,-5.646425340270996,-17.13589983215332,3.6296097167968746
1758273179795814700,10.316814697265626,-5.511901134490967,-19.48057144546509,6.393116983032226
1758273179805771800,10.326771728515626,-2.937535799407959,-20.316447100067137,5.456984133911132
1758273179815730000,10.33672998046875,0.24121581726074218,-18.6050418258667,5.12613539199829
1758273179825687800,10.346687744140626,1.8353052101135252,-16.481684228515626,3.5877111877441403
1758273179835644700,10.356644775390626,3.132663234710693,-13.102268585205078,1.0657190139770507
1758273179845602800,10.366602783203126,4.805761282348633,-9.712079034423828,-2.6987141838073727
1758273179855560700,10.376560791015624,5.4701522430419915,-5.819107135009765,-4.2320507095336914
1758273179865518800,10.386518798828124,5.2444987365722655,-1.322796417236328,-5.100397724151611
1758273179875476000,10.39647607421875,5.435735594177245,2.0904373245239256,-7.861211513519287
1758273179885433600,10.40643359375,4.177881896972656,6.30168840713501,-10.500968481445312
1758273179895391700,10.416391845703124,1.7024270179748535,10.880299806976318,-10.335020378875733
1758273179905348900,10.426348876953124,0.35090018081665036,10.644770218658447,-7.861660426330566
1758273179915306800,10.436306640625,-0.28520927276611324,8.68885709991455,-5.409399375915527
1758273179925265000,10.446264892578125,-1.784428424835205,6.411522408294678,-2.883217349243164
1758273179935221800,10.4562216796875,-3.0922610816955562,4.278139091491699,-0.43499651412963863
1758273179945179600,10.4661796875,-2.1054010848999023,1.903689595031738,0.43245267486572264
1758273179955137800,10.4761376953125,0.3318962051391601,-0.6274304725646972,-0.30316578521728516
1758273179965095700,10.486095703125,2.3235727111816407,-3.395875779724121,-0.6477811866760254
1758273179975052800,10.496052734375,2.3924060089111325,-5.987000526428222,0.3687070556640625
1758273179985011000,10.506010986328125,0.8496423141479492,-9.402628469848633,2.7142764945983884
1758273179994968600,10.515968505859375,-1.4079402137756347,-13.721020076751708,3.7843349990844724
1758273180004925700,10.52592578125,-6.702567547607422,-16.350900962829588,2.4488193855285645
1758273180014883800,10.5358837890625,-12.571952917480468,-14.770278954315184,-0.8141782020568847
1758273180024841700,10.545841796875,-17.893963932800293,-9.866205766296385,-2.300977433013916
1758273180034799900,10.5557998046875,-17.742979590606687,-4.2043677528381345,-1.7227777320861815
1758273180044757000,10.565757080078125,-5.381716419219971,-1.5828665725708007,-2.966266219329834
1758273180054714600,10.575714599609375,16.227599577331542,-8.259546814727782,-7.60368519744873
1758273180064672800,10.5856728515625,34.937088450622554,-17.954267887115478,-9.222015882110595
1758273180074630000,10.5956298828125,22.63897234802246,-14.04558403930664,-1.4944307487487791
1758273180084587800,10.605587890625,0.8102876243591308,-11.05073703765869,-0.8373720306396484
1758273180094546000,10.6155458984375,-20.846912405395507,-16.993594470977783,-0.11896189498901366
1758273180104502800,10.625502685546875,3.9559693305969237,-17.529147454833982,6.693439653778076
1758273180114460700,10.635460693359375,8.509890525817871,-17.73579698562622,7.117961535644531
1758273180124418800,10.645418701171875,1.9270330612182616,-13.059023317718506,9.177124600982665
1758273180134376700,10.655376708984376,0.32576106338500976,-8.894758442687987,8.48475140838623
1758273180144333800,10.665333740234376,2.3431752372741697,-9.277531433105468,5.0556560806274415
1758273180154292000,10.6752919921875,3.369689199066162,-13.356203598785399,1.1558008514404297
1758273180164249600,10.68524951171875,2.938882537841797,-17.591995248413085,-2.5034371109008786
1758273180174206700,10.695206787109376,0.48183308410644526,-20.634277370452878,-3.081038261413574
1758273180184164900,10.705164794921876,-4.726453352355957,-23.479337130737303,0.13003507766723632
1758273180194122800,10.715122802734374,-11.931055060577393,-23.269096297454833,4.402338302612304
1758273180204081000,10.725080810546874,-12.425008790588379,-19.603423918151854,7.729979335021972
1758273180214037800,10.735037841796874,-8.058284237670899,-17.72891365585327,10.326939948272704
1758273180223995600,10.74499560546875,-3.8609494522094723,-18.37938831939697,8.73344910583496
1758273180233953800,10.754953857421874,-5.402067133331299,-19.263596920013427,6.335057592773437
1758273180243911000,10.764910888671874,-9.35205095977783,-18.027590312957763,4.52608860092163
1758273180253868800,10.774868896484374,-12.088174544525145,-16.702998244476316,2.465429159545898
1758273180263827000,10.784826904296875,-12.699893068695067,-15.081674807739256,0.9771335525512694
1758273180273783800,10.79478369140625,-12.363358097839354,-11.763460944366454,0.567575431060791
1758273180283741700,10.80474169921875,-9.848548529052733,-9.088988052368164,0.15547347030639647
1758273180293699800,10.814699951171875,-7.123947039794921,-8.32478880996704,-0.7267898414611816
1758273180303657700,10.82465771484375,-3.675249185943603,-8.023119400787353,-1.5081974082946776
1758273180313614800,10.83461474609375,-0.9772831901550293,-6.502502071380615,-1.199495031738281
1758273180323573000,10.844572998046875,-2.758569225311279,-4.9917608238220215,-2.457199091339111
1758273180333530600,10.854530517578125,-2.154033306121826,-3.617937983703613,-3.060687547302246
1758273180343487700,10.86448779296875,-1.743427721405029,-1.8243816650390623,-1.24498486328125
1758273180353446000,10.87444580078125,-3.2583588218688964,0.11073182678222655,1.2357073318481444
1758273180363402800,10.88440283203125,-5.089923091888427,1.0250175857543944,3.47952320022583
1758273180373359900,10.89435986328125,-3.9463925239562987,0.5671265182495117,4.0261493667602535
1758273180383318000,10.904318115234375,-4.736030158996582,0.4664204109191894,4.2691608352661135
1758273180393276000,10.91427587890625,-7.904905693817138,0.1279401512145996,4.151844953918457
1758273180403234000,10.924234130859375,-6.903381211853027,-1.4294880287170408,1.6017209106445311
1758273180413191000,10.93419091796875,-0.9205705383300781,-1.7863737136840818,-0.5975029518127442
1758273180423148800,10.944148681640625,3.687669107055664,-1.0908581314086914,-1.0760440086364746
1758273180433107000,10.95410693359375,4.906766664886474,-1.215655892944336,-3.030460751342773
1758273180443064000,10.96406396484375,2.727294966125488,-3.021781770324707,-3.9489363632202146
1758273180453022000,10.97402197265625,-0.11911153259277343,-6.456862602233886,-3.468599655151367
1758273180462979800,10.983979736328125,-1.97910694732666,-14.762497798919677,-3.695749537658691
1758273180472937700,10.993937744140625,-1.6505027694702148,-22.366332633972167,-2.3415292236328122
1758273180482894800,11.003894775390625,-0.9566332008361815,-26.204237895202635,-1.6026187362670898
1758273180492853000,11.01385302734375,-5.237914682006836,-27.381287286376953,-0.7972691528320313
1758273180502811000,11.023810791015626,-12.245892578887938,-27.33041050109863,2.2125416091918946
1758273180512767700,11.033767822265625,-13.575273050689697,-27.250055107879636,2.0503344467163083
1758273180522726000,11.043725830078126,-8.515876029968261,-26.99836465835571,-1.399410870361328
1758273180532683800,11.053683837890626,-2.061557266998291,-23.254731087493894,-0.9353846611022949
1758273180542641000,11.063640869140626,-2.3870190551757813,-18.740014944458007,2.908655741882324
1758273180552599000,11.07359912109375,-5.905148757171631,-16.144101794433592,3.4651579902648924
1758273180562557000,11.083556884765626,-7.552060224151611,-15.712846220397948,0.9440636421203613
1758273180572515000,11.09351513671875,-5.484816728210449,-15.713893683624267,2.0124761329650878
1758273180582472000,11.103471923828126,-4.0800189041137696,-15.225626182556152,4.813093524932861
1758273180592429800,11.113429931640624,-1.6371850227355955,-15.655834293365478,5.620089122009277
1758273180602388000,11.123387939453124,0.6792050834655762,-15.51397784500122,5.229385338592529
1758273180612345000,11.133344970703124,1.8369512237548826,-15.129558840942382,4.242226066589355
1758273180622303000,11.143302978515624,2.5110686286926267,-15.269170725250243,2.070236248016357
1758273180632260900,11.1532607421875,3.703381055450439,-13.993061240386963,-2.8758851066589353
1758273180642218000,11.163218017578124,3.9942765571594236,-8.847323322296143,-5.676801773834228
1758273180652176000,11.17317578125,3.7989994842529295,-3.096899847412109,-5.680692351531982
1758273180662134000,11.183134033203125,4.576067560577393,0.9383774131774901,-7.116614797210693
1758273180672092000,11.193091796875,3.293673296356201,4.382735776519775,-8.659677767181396
1758273180682048800,11.203048828125,0.06643909606933593,8.620771990203856,-8.533832542419432
1758273180692007000,11.2130068359375,-1.5671546241760252,10.115352376556396,-7.659799298858642
1758273180701964800,11.22296484375,-2.450465399169922,7.967154936981201,-5.760748469543457
1758273180711922000,11.232921875,-1.979705497741699,5.045480723571777,-4.054879786682129
1758273180721880000,11.242880126953125,-0.39803602600097654,2.6514287010192867,-2.5197476097106932
1758273180731838000,11.252837890625,2.041655465698242,0.38307226562499996,-1.9259855979919434
1758273180741794800,11.262794921875,3.6617818016052244,-2.088192760467529,-1.1959037292480468
1758273180751753000,11.2727529296875,3.97108272857666,-4.548983154296875,-0.7790133651733397
1758273180761710800,11.2827109375,2.057068138885498,-7.519439226531982,-0.6844423995971679
1758273180771669000,11.2926689453125,-1.2137106040954588,-10.922647248840331,0.47210663986206053
1758273180781626000,11.302626220703125,-6.051045420837402,-14.293832823944092,0.8916904808044434
1758273180791584000,11.312583984375,-11.551574097442627,-15.818789643859862,0.567575431060791
1758273180801542000,11.3225419921875,-14.366855974578856,-13.397653215026855,1.0868179161071776
1758273180811499000,11.3324990234375,-13.748254120635986,-8.381202186584472,0.8203133438110352
1758273180821457000,11.342456787109375,-7.706037318420409,-3.9255928970336913,0.2742857276916504
1758273180831415000,11.3524150390625,4.674678741455078,-4.405331054687499,-1.2795511497497558
1758273180841372000,11.362371826171875,23.267151008605957,-10.390535929870605,-3.8706758964538572
1758273180851329800,11.372329833984375,24.275558820343015,-10.89765776901245,1.042525185394287
1758273180861288000,11.382287841796876,8.655487914276122,-7.110629293060303,4.134935904693603
1758273180871245800,11.392245849609376,3.9936780067443847,-9.560945054626464,0.5158008201599121
1758273180881203000,11.402202880859376,-7.1118263938903805,-12.846687557983397,0.8310872512817382
1758273180891161000,11.4121611328125,-7.01635760269165,-18.13592793807983,2.971802810668945
1758273180901119000,11.422118896484376,6.958148574829101,-18.994398870849608,2.0364181495666505
1758273180911075800,11.432075927734376,6.08426496887207,-13.755736000823974,3.0234277839660644
1758273180921034000,11.442033935546876,1.4362217208862305,-10.918008483123778,3.8681320571899414
1758273180930991900,11.451991943359374,1.7711106781005859,-12.778153535461424,1.941398271179199
1758273180940950000,11.461949951171874,2.0133739585876462,-17.0344455368042,-0.0652419952392578
1758273180950907000,11.471906982421874,-0.3655646659851074,-21.066430770111083,0.4912602531433105
1758273180960864800,11.48186474609375,-6.873752966308594,-23.094768489074706,3.2158617424011227
1758273180970823000,11.491822998046874,-12.5387333694458,-21.86145535888672,7.755866640472411
1758273180980779800,11.50177978515625,-10.46415763092041,-22.042217584228514,9.546280569458007
1758273180990738000,11.511738037109374,-6.8302084236145015,-23.490260675811765,10.053402408599853
1758273181000696000,11.521696044921875,-6.744017163848876,-23.560291074371335,8.489988724517822
1758273181010652700,11.531652587890624,-9.182062641906738,-21.00358297653198,5.238213957214355
1758273181020610800,11.54161083984375,-14.60672505340576,-16.389357826995848,2.9836241813659665
1758273181030569000,11.55156884765625,-16.685640282440186,-12.478130139923095,0.6591536445617675
1758273181040526800,11.56152685546875,-12.80000062561035,-10.130316136932372,-1.1200374641418456
1758273181050484000,11.57148388671875,-8.042572289276123,-8.570942668151854,-0.6266822845458984
1758273181060441900,11.58144189453125,-5.1800049293518065,-8.128913186645507,-0.229843359375
1758273181070400000,11.59139990234375,-3.5640684463500976,-7.154173835754394,0.2498947982788086
1758273181080356900,11.60135693359375,-2.8151322395324705,-4.867411975097656,2.3591864608764648
1758273181090314800,11.611314697265625,-2.96207636642456,-2.9530981101989746,3.705326344299316
1758273181100273000,11.62127294921875,-2.2480057212829587,-3.8545150352478026,1.7120038246154785
1758273181110230000,11.63122998046875,0.34326866302490233,-4.172345305633545,0.974888988494873
1758273181120188000,11.64118798828125,-0.21128829650878905,-3.555389465332031,0.6916250045776366
1758273181130145800,11.651145751953125,-1.6473603797912597,-1.4942811111450194,1.0485106895446776
1758273181140104000,11.66110400390625,-3.5078047073364256,0.3128922294616699,1.4031518104553222
1758273181150060800,11.671060791015625,-3.074454206848144,0.7894879974365234,1.4579191734313963
1758273181160019000,11.68101904296875,-3.3846529594421386,0.9838672447204589,1.6165350334167479
1758273181169976800,11.690976806640625,-6.147561675262451,1.3857938484191894,2.127248175048828
1758273181179933700,11.70093359375,-9.03422068939209,1.29601128616333,2.5285762283325193
1758273181189891800,11.710891845703125,-6.148908413696288,0.1936310592651367,0.82360537109375
1758273181199849700,11.720849609375,0.0526724365234375,0.15741875915527342,-0.1945288848876953
1758273181209806800,11.730806884765625,4.071040647888183,-0.7938274879455566,-1.986139914703369
1758273181219765000,11.740764892578126,5.9670987251281735,-3.234117530059814,-3.8983588531494138
1758273181229723000,11.750722900390626,3.153313224029541,-5.429001902008056,-4.075230500793457
1758273181239681000,11.760680908203126,-3.8908769729614257,-14.152724563598632,-5.45877978515625
1758273181249638000,11.770637939453126,-7.743297081756591,-26.147375605773924,-4.281580756378173
1758273181259595800,11.780595703125,-6.39715719833374,-31.738734307861325,-1.2562076835632323
1758273181269554000,11.790553955078124,-5.597942756652832,-30.898219887542723,1.2045827102661133
1758273181279511000,11.800510986328124,-9.222015882110595,-28.981661458587645,3.2350153556823726
1758273181289469000,11.810468994140624,-12.16808102493286,-26.90334477996826,2.567033092498779
1758273181299426800,11.8204267578125,-9.09661957015991,-25.303269882965086,0.17073650588989256
1758273181309384000,11.830384033203124,0.04219780426025391,-22.516269512939452,0.21682488784790038
1758273181319341800,11.840341796875,-1.1525088241577148,-19.348740716552733,-0.10339958419799804
1758273181329300000,11.850300048828124,-4.408174169158936,-16.692224337005616,-2.3151930053710936
1758273181339257900,11.8602578125,-5.58642066116333,-17.07918718032837,-1.910872200012207
1758273181349214700,11.870214599609374,-4.948964469146728,-19.21705962524414,-0.501136334991455
1758273181359173600,11.880173583984375,-3.775207105255127,-18.511219048309325,0.1005564697265625
1758273181369131500,11.890131591796875,-3.205985660552978,-18.02280190963745,4.002506625366211
1758273181379088600,11.900088623046875,-0.6950666694641113,-17.074997327423095,7.213280689239501
1758273181389046800,11.910046875,0.6072293960571289,-15.580865853881836,7.006631158447266
1758273181399004400,11.92000439453125,1.668758557128906,-15.252710588836669,3.7816415222167965
1758273181408961500,11.92996142578125,3.404704398345947,-12.230180630493164,-0.22131401596069333
1758273181418919700,11.939919677734375,2.6460417472839355,-6.149656601715088,-3.5983354576110838
1758273181428877600,11.949877685546875,3.3075895935058592,-0.5876268699645996,-4.000561336517333
1758273181438834700,11.959834716796875,4.769997895050048,3.435978657531738,-5.313780947113036
1758273181448792600,11.96979248046875,2.882469161224365,7.361721192169189,-8.250119645690917
1758273181458750500,11.97975048828125,-1.0672153900146484,11.527183168029785,-9.462034598541258
1758273181468708600,11.98970849609375,-2.514659931182861,11.665897226715087,-8.432078971862792
1758273181478665500,11.99966552734375,-2.7419594512939454,9.251644127655029,-5.651064105987548
1758273181488623600,12.00962353515625,-2.7334301078796384,6.099827279663086,-2.6343700141906736
1758273181498581800,12.019581787109376,-1.3054384552001952,3.6510078941345214,-0.24525603256225584
1758273181508538400,12.029538330078125,1.4758756858825683,1.4887445198059082,0.9507973342895507
1758273181518496500,12.03949658203125,3.193416101837158,-0.7368155609130859,1.4845546669006346
1758273181528454700,12.04945458984375,3.540724980163574,-3.537582590484619,1.586607512664795
1758273181538412500,12.05941259765625,2.563890702819824,-7.378630241394043,1.0697592292785645
1758273181548369700,12.06936962890625,-1.0251672233581541,-11.547533882141112,0.8948328704833984
1758273181558327600,12.07932763671875,-6.490381425476074,-15.311218891906737,0.8684966522216796
1758273181568285400,12.089285400390626,-12.477082676696776,-18.22077245941162,0.5328595069885254
1758273181578242600,12.09924267578125,-16.33099916152954,-17.904887477874755,0.2337339370727539
1758273181588200400,12.109200439453126,-18.345420583343504,-13.762170417785644,0.4634276588439941
1758273181598158600,12.11915869140625,-13.262380821228026,-9.66584101486206,2.012925045776367
1758273181608115700,12.12911572265625,3.221697608947754,-9.916932913970946,0.6082768592834472
1758273181618073300,12.1390732421875,26.707768431854248,-13.46528941192627,-1.9381062438964842
1758273181628031500,12.149031494140624,27.86835768661499,-9.015067076110839,2.237082176208496
1758273181637988600,12.158988525390624,11.179275739288329,-1.9743185440063475,3.0353987922668457
1758273181647946500,12.168946533203124,5.800402434539794,-4.023755165100098,-0.3022679595947265
1758273181657904600,12.178904541015624,4.815936639404296,-7.676857985687255,-0.8991723609924316
1758273181667862500,12.188862548828125,-8.954613484191894,-10.351330877685546,-0.5508160194396973
1758273181677819400,12.1988193359375,-2.8119898498535156,-13.153444645690918,0.5793968017578125
1758273181687777500,12.208777587890625,7.002590943145751,-13.628693675231933,0.7752724250793457
1758273181697735400,12.2187353515625,3.2281320259094235,-13.91120947113037,1.619078872680664
1758273181707692500,12.228692626953125,2.690783390808105,-15.037980627441405,1.8005892860412596
1758273181717650700,12.238650634765625,4.152293866729736,-18.587085313415525,1.590947003173828
1758273181727608600,12.248608642578125,3.141791128540039,-23.80075870361328,1.7015291923522948
1758273181737565400,12.2585654296875,-0.4129997863769531,-25.6275345703125,3.206733848571777
1758273181747523600,12.268523681640625,-9.85782606048584,-23.594707723236084,6.158335582733154
1758273181757481500,12.2784814453125,-12.699294518280029,-22.33835040206909,10.593594158172607
1758273181767439600,12.288439697265625,-8.757840035247803,-22.410176451873777,12.994379872894287
1758273181777396700,12.298396728515625,-8.292317449951172,-21.332336791992187,11.094281580352783
1758273181787354400,12.308354248046875,-8.05080235748291,-19.775656800079343,8.571092305755615
1758273181797312500,12.3183125,-10.365995362854003,-16.818668112182618,5.8445455276489255
1758273181807269600,12.32826953125,-16.512808850097656,-12.912079190826415,2.7603648765563964
1758273181817227500,12.3382275390625,-16.040103659820556,-10.59134959411621,-1.4740800346374512
1758273181827185700,12.348185546875,-10.179397270965575,-9.293841931915283,-3.5884593757629393
1758273181837142500,12.358142578125,-5.301510663604736,-7.947702048492431,-3.3068414054870603
1758273181847100400,12.368100341796875,-2.6523265266418456,-6.233752935028075,-2.1616648239135743
1758273181857058600,12.37805859375,-3.103483901977539,-4.2408793281555175,-0.18644845428466797
1758273181867016400,12.388016357421876,-4.842422495269775,-3.293673296356201,1.0619780738830567
1758273181876973600,12.3979736328125,-2.4446295326232907,-3.6079122642517087,0.7826046676635742
1758273181886931700,12.407931640625,0.3859153800964355,-3.085976302337646,1.1094131942749024
1758273181896889300,12.417889404296876,0.30256723480224607,-1.697638614654541,1.6895581840515135
1758273181906846500,12.427846435546876,-3.51154564743042,-0.24390929412841794,1.7437269966125488
1758273181916804600,12.4378046875,-4.959588739013672,-0.025887305450439452,2.1513398292541503
1758273181926762500,12.447762451171876,-2.966864769744873,0.2754828285217285,2.6069863327026366
1758273181936719600,12.4577197265625,-4.064905506134033,0.20709844360351562,2.66220260848999
1758273181946677500,12.467677490234376,-6.514772354888915,0.016460136413574217,2.701258023071289
1758273181956635400,12.477635498046874,-6.625953094482422,-0.9934440513610839,0.9017162002563476
1758273181966593500,12.487593505859374,-2.5082255142211913,-1.4993687896728514,-0.5633855781555176
1758273181976550700,12.497550537109374,3.0054712715148924,-1.8719664230346678,-1.9268834236145018
1758273181986508500,12.507508544921874,4.7761330368041985,-3.802590786743164,-3.9228994201660154
1758273181996466700,12.517466796875,1.8263269538879394,-7.9858596374511714,-3.7856817375183103
1758273182006423600,12.527423583984374,-1.192611701965332,-15.746963594055174,-2.7225065628051754
1758273182016381400,12.53738134765625,-1.5164274765014647,-22.70990057220459,-1.3850456604003905
1758273182026339600,12.547339599609375,-1.773504879760742,-25.340080733489987,-0.3190273712158203
1758273182036296700,12.557296630859375,-3.762338271331787,-25.24266665344238,-0.3060088996887207
1758273182046254600,12.567254638671875,-7.905803519439697,-26.448446464538574,1.0462661254882812
1758273182056212700,12.577212646484375,-11.110292803955078,-27.013478056335448,2.13233585357666
1758273182066170400,12.58717041015625,-10.39996309890747,-25.245509767913816,1.0555436569213867
1758273182076127500,12.59712744140625,-4.2791865547180175,-22.652290094757078,0.07616554031372069
1758273182086085600,12.607085693359375,0.05880757827758789,-20.016124429321287,1.007360348510742
1758273182096043500,12.61704345703125,-2.917035447692871,-17.86179184799194,3.0398879203796385
1758273182106000600,12.627000732421875,-4.665401210021972,-16.455796923065183,0.047884033203124995
1758273182115958500,12.63695849609375,-5.5072623687744136,-14.373290391540527,-0.5729623847961426
1758273182125916400,12.64691650390625,-4.448875597381591,-14.767286202239989,2.066794583129883
1758273182135873500,12.65687353515625,-2.835183678436279,-15.862483824157714,3.950732014465332
