time,seconds_elapsed,z,y,x
1758273169534363100,0.055363037109375,0.13240715861320496,-0.09461014717817307,-0.3116372227668762
1758273169544321000,0.065321044921875,0.1410517692565918,-0.20178666710853577,-0.2654881179332733
1758273169554279200,0.075279052734375,0.16747550666332245,-0.316449373960495,-0.24058444797992706
1758273169564236300,0.085236328125,0.2552040219306946,-0.42036354541778564,-0.20096859335899353
1758273169574194000,0.09519384765625,0.4079531133174896,-0.4874613583087921,-0.1468249261379242
1758273169584152000,0.105152099609375,0.6170573234558105,-0.5422055721282959,-0.06503899395465851
1758273169594110000,0.11510986328125,0.8067864179611206,-0.5502702593803406,0.037069499492645264
1758273169604067000,0.125067138671875,0.9575269222259521,-0.5289780497550964,0.14498130977153778
1758273169614025200,0.135025146484375,1.154876708984375,-0.5357422232627869,0.27825281023979187
1758273169623983000,0.144983154296875,1.4032410383224487,-0.5773999094963074,0.4698624312877655
1758273169633941200,0.154941162109375,1.7247899770736694,-0.5517207384109497,0.7073133587837219
1758273169643899000,0.16489892578125,2.106175661087036,-0.36134153604507446,0.9293200373649597
1758273169653856000,0.17485595703125,2.3747615814208984,-0.4030267298221588,0.9992374181747437
1758273169663814100,0.184814208984375,2.3931846618652344,-0.7785257697105408,0.8865010142326355
1758273169673772000,0.19477197265625,2.3318581581115723,-1.098689317703247,0.737824022769928
1758273169683730200,0.204730224609375,2.280728578567505,-1.1004388332366943,0.6142179369926453
1758273169693687000,0.21468701171875,2.2114715576171875,-0.9720069766044617,0.4524194002151489
1758273169703645000,0.22464501953125,2.0813112258911133,-0.8695602416992188,0.2287660837173462
1758273169713603000,0.23460302734375,1.885481595993042,-0.7830203771591187,0.011033963412046432
1758273169723561000,0.24456103515625,1.7701672315597534,-0.674942135810852,-0.14854398369789124
1758273169733519000,0.25451904296875,1.8010928630828857,-0.5773764848709106,-0.24320831894874573
1758273169743476200,0.264476318359375,1.8721431493759155,-0.4790067672729492,-0.24112147092819214
1758273169753434000,0.27443408203125,1.92312753200531,-0.36155226826667786,-0.15649789571762085
1758273169763392000,0.28439208984375,1.9030033349990845,-0.2720540761947632,0.0010523172095417976
1758273169773350000,0.294349853515625,1.7993794679641724,-0.20178157091140747,0.17684409022331238
1758273169783307000,0.30430712890625,1.6947678327560425,-0.13903775811195374,0.32345137000083923
1758273169793265200,0.31426513671875,1.5739681720733643,-0.17926353216171265,0.4255478084087372
1758273169803223000,0.32422314453125,1.4951926469802856,-0.21520288288593292,0.46488162875175476
1758273169813181200,0.33418115234375,1.5382118225097656,-0.18482810258865356,0.43358272314071655
1758273169823138000,0.344137939453125,1.7038111686706543,-0.14008460938930511,0.3806651830673218
1758273169833096000,0.354095947265625,1.873484492301941,-0.07195032387971878,0.36448171734809875
1758273169843054000,0.36405419921875,1.9741525650024414,-0.0629512369632721,0.4074081480503082
1758273169853012000,0.374011962890625,1.9658862352371216,-0.13662506639957428,0.5178617835044861
1758273169862970000,0.38397021484375,1.8918375968933105,-0.2777521014213562,0.6578652262687683
1758273169872927000,0.393927001953125,1.820504069328308,-0.44530314207077026,0.7260683178901672
1758273169882884900,0.403884765625,1.8348798751831055,-0.5297948718070984,0.6661415696144104
1758273169892843000,0.413843017578125,1.9205694198608398,-0.590949296951294,0.46754685044288635
1758273169902801200,0.42380126953125,2.000326633453369,-0.6471220254898071,0.2426956295967102
1758273169912758000,0.433758056640625,2.0084941387176514,-0.6950089931488037,0.10414765775203705
1758273169922716200,0.443716064453125,1.9424684047698975,-0.7207196950912476,0.08248311281204224
1758273169932674000,0.453674072265625,1.8641566038131714,-0.8033374547958374,0.10899689048528671
1758273169942632000,0.4636318359375,1.781190037727356,-0.8034588694572449,0.14847585558891296
1758273169952590000,0.473590087890625,1.7294566631317139,-0.6726447939872742,0.15854889154434204
1758273169962547000,0.483546875,1.7330210208892822,-0.5956400632858276,0.0996892899274826
1758273169972505000,0.493505126953125,1.794754981994629,-0.6276170015335083,0.03856486454606056
1758273169982463200,0.503463134765625,1.8888019323349,-0.8195696473121643,0.002841220935806632
1758273169992421000,0.513421142578125,1.9566570520401,-1.101991057395935,-0.021860545501112938
1758273170002378000,0.5233779296875,2.031254291534424,-1.334986686706543,-0.04641542211174965
1758273170012336000,0.533336181640625,1.9794201850891113,-1.4376823902130127,-0.11572182923555374
1758273170022294000,0.5432939453125,1.74644136428833,-1.3478918075561523,-0.18363191187381744
1758273170032252200,0.553252197265625,1.4990183115005493,-1.0977287292480469,-0.2685835361480713
1758273170042210000,0.5632099609375,1.2698805332183838,-0.7358954548835754,-0.32614031434059143
1758273170052167200,0.573167236328125,1.1299006938934326,-0.5166768431663513,-0.2842605412006378
1758273170062125000,0.583125,1.0855473279953003,-0.5296014547348022,-0.14001253247261047
1758273170072083000,0.5930830078125,1.0669171810150146,-0.6905887722969055,0.011339130811393261
1758273170082041000,0.603041015625,1.1052035093307495,-0.8601676821708679,0.15705984830856323
1758273170091998200,0.612998291015625,1.1767312288284302,-0.9472959637641907,0.23974566161632538
1758273170101956000,0.6229560546875,1.2276383638381958,-0.9909363985061646,0.23464490473270416
1758273170111914200,0.632914306640625,1.2035574913024902,-1.04266357421875,0.18570025265216827
1758273170121872000,0.642871826171875,1.15836501121521,-1.2191928625106812,0.1499185562133789
1758273170131829000,0.6528291015625,1.1850640773773193,-1.4652552604675293,0.1442275494337082
1758273170141787100,0.662787109375,1.2533856630325317,-1.7369704246520996,0.16784553229808807
1758273170151745000,0.6727451171875,1.2618780136108398,-1.5721534490585327,0.6220354437828064
1758273170161703200,0.682703125,1.257304310798645,-1.921581506729126,0.5569280982017517
1758273170171661000,0.6926611328125,1.270408272743225,-1.9287070035934448,0.5497037172317505
1758273170181618000,0.702617919921875,1.2877678871154785,-1.8042044639587402,0.4277128279209137
1758273170191576000,0.712576171875,1.3729327917099,-1.670309066772461,0.32498472929000854
1758273170201534000,0.722533935546875,1.4000227451324463,-1.7457234859466553,0.2947844862937927
1758273170211492000,0.7324921875,1.4094802141189575,-1.9881608486175537,0.35219916701316833
1758273170221449200,0.74244921875,1.4326443672180176,-2.2287797927856445,0.46789276599884033
1758273170231407000,0.752406982421875,1.522064447402954,-2.4801595211029053,0.5535520911216736
1758273170241365000,0.762364990234375,1.6155734062194824,-2.662153482437134,0.6030210852622986
1758273170251323000,0.772322998046875,1.694528579711914,-2.8209824562072754,0.57588130235672
1758273170261281000,0.782281005859375,1.746563196182251,-2.9221367835998535,0.49687331914901733
1758273170271238100,0.792238037109375,1.8272521495819092,-3.0963573455810547,0.40258699655532837
1758273170281196000,0.802196044921875,1.958012342453003,-3.3621022701263428,0.3020939230918884
1758273170291154200,0.812154296875,2.1026804447174072,-3.5017333030700684,0.22645041346549988
1758273170301112000,0.822112060546875,2.1744260787963867,-3.5778820514678955,0.2886679470539093
1758273170311069000,0.83206884765625,2.151277542114258,-3.6916909217834473,0.4316365718841553
1758273170321027000,0.842027099609375,2.1501288414001465,-3.917283296585083,0.5073214769363403
1758273170330985000,0.85198486328125,2.130790948867798,-4.222561836242676,0.4777980446815491
1758273170340943000,0.861943115234375,1.968968391418457,-4.22967529296875,0.49720290303230286
1758273170350900700,0.871900634765625,1.646866798400879,-3.9873015880584717,0.6513584852218628
1758273170360857600,0.881857666015625,1.2812837362289429,-3.6592957973480225,0.8576008677482605
1758273170370815700,0.891815673828125,1.2770283222198486,-3.2907631397247314,0.9005394577980042
1758273170380773600,0.901773681640625,1.3667899370193481,-2.8657708168029785,0.8032379150390625
1758273170390731500,0.9117314453125,1.3208240270614624,-2.6404271125793457,0.6140856742858887
1758273170400688600,0.921688720703125,1.3010101318359375,-2.6339306831359863,0.38020560145378113
1758273170410646800,0.931646728515625,1.3156007528305054,-2.5158557891845703,0.14726513624191284
1758273170420604700,0.941604736328125,1.3443388938903809,-2.336723566055298,-0.032187990844249725
1758273170430562800,0.951562744140625,1.4307940006256104,-2.232306957244873,-0.1302054524421692
1758273170440520700,0.961520751953125,1.6613951921463013,-2.3151185512542725,-0.15139542520046234
1758273170450477600,0.9714775390625,1.8927308320999146,-2.495586395263672,-0.08123024553060532
1758273170460435700,0.981435791015625,2.0072274208068848,-2.5987493991851807,0.0629706010222435
1758273170470393600,0.9913935546875,2.071404218673706,-2.5822689533233643,0.13299348950386047
1758273170480351700,1.001351806640625,2.0357260704040527,-2.4722585678100586,0.14078404009342194
1758273170490308900,1.011308837890625,2.0302538871765137,-2.160195827484131,0.02558642253279686
1758273170500266500,1.0212666015625,2.2717299461364746,-1.4948707818984985,-0.21339447796344757
1758273170510224600,1.031224609375,2.7212512493133545,-0.5848433971405029,-0.14059554040431976
1758273170520182500,1.0411826171875,3.0209712982177734,-0.4639627933502197,0.09338419884443283
1758273170530140700,1.051140625,2.8761978149414062,-0.5437986254692078,0.23835399746894836
1758273170540097800,1.061097900390625,2.8683292865753174,-0.21357092261314392,0.25910747051239014
1758273170550055700,1.0710556640625,3.044461727142334,0.672844648361206,0.06963521987199783
1758273170560013600,1.081013671875,2.771674394607544,1.0859702825546265,-0.3545149862766266
1758273170569971500,1.090971435546875,2.305389881134033,0.8869917988777161,-0.5152719020843506
1758273170579928600,1.100928466796875,1.8234962224960327,0.27989310026168823,-0.29293233156204224
1758273170589886700,1.11088671875,1.4598503112792969,-0.40278419852256775,-0.007850726135075092
1758273170599844600,1.1208447265625,1.2035939693450928,-1.0388972759246826,0.08856316655874252
1758273170609802800,1.130802734375,0.920979380607605,-1.4040530920028687,0.04639355093240738
1758273170619760600,1.1407607421875,0.6192147135734558,-1.3533779382705688,-0.07825090736150742
1758273170629717500,1.150717529296875,0.3016729950904846,-1.0517585277557373,-0.1926049441099167
1758273170639675600,1.160675537109375,-0.06363414227962494,-1.0223665237426758,-0.42399048805236816
1758273170649633500,1.170633544921875,-0.20457576215267181,-0.29957661032676697,-0.8981553912162781
1758273170659591700,1.180591796875,0.047047678381204605,0.6828374266624451,-1.6034765243530273
1758273170669548800,1.190548828125,0.7319108247756958,1.3912523984909058,-1.981590747833252
1758273170679506400,1.20050634765625,1.5493643283843994,1.2486281394958496,-1.871470332145691
1758273170689464600,1.210464599609375,2.2100846767425537,1.2747427225112915,-1.906200885772705
1758273170699422700,1.220422607421875,2.6697640419006348,0.1663302779197693,-2.1178810596466064
1758273170709380600,1.230380615234375,2.8916494846343994,-1.4663420915603638,-2.4879374504089355
1758273170719337700,1.240337646484375,3.0484299659729004,-2.9232144355773926,-2.668074131011963
1758273170729295600,1.250295654296875,3.1320250034332275,-3.6788220405578613,-2.4990036487579346
1758273170739253800,1.260253662109375,3.1295700073242188,-4.1688737869262695,-2.061809778213501
1758273170749211600,1.270211669921875,2.987572193145752,-4.622905254364014,-1.5100780725479126
1758273170759168500,1.28016845703125,2.8172287940979004,-4.068573474884033,-0.4124455749988556
1758273170769126700,1.290126708984375,2.595468521118164,-2.82841420173645,0.9869285821914673
1758273170779084800,1.300084716796875,2.393662929534912,-1.887201189994812,2.002225399017334
1758273170789042700,1.310042724609375,2.3496782779693604,-1.9489336013793945,1.96211576461792
1758273170798999600,1.31999951171875,2.4849276542663574,-2.139993906021118,1.3271403312683105
1758273170808957700,1.329957763671875,2.783644676208496,-1.7011563777923584,0.34264877438545227
1758273170818915600,1.33991552734375,3.1656970977783203,-1.2551714181900024,-0.46572819352149963
1758273170828873700,1.349873779296875,3.4749808311462402,-1.516692042350769,-0.7901055812835693
1758273170838831600,1.35983154296875,3.665055513381958,-2.1297287940979004,-0.5416368842124939
1758273170848788700,1.369788818359375,5.523083209991455,-3.0299065113067627,0.13527584075927734
1758273170858746600,1.37974658203125,10.144294738769531,-3.714524984359741,0.2703516483306885
1758273170868704500,1.38970458984375,11.694936752319336,-3.4748339653015137,0.07067495584487915
1758273170878662700,1.39966259765625,9.795504570007324,-1.3862093687057495,-0.09276643395423889
1758273170888619800,1.409619873046875,4.614268779754639,0.9370843768119812,-0.23229891061782837
1758273170898577700,1.41957763671875,-2.3118197917938232,2.201770544052124,-0.5915111303329468
1758273170908535800,1.429535888671875,-4.085354328155518,2.717106819152832,-0.5996694564819336
1758273170918493700,1.43949365234375,-3.5325191020965576,2.620063066482544,-0.6092597842216492
1758273170928451600,1.44945166015625,-2.193476915359497,1.5490885972976685,-0.6169788837432861
1758273170938408700,1.45940869140625,-0.6017453074455261,-0.14268255233764648,-0.4694211184978485
1758273170948366600,1.46936669921875,0.6259258985519409,-1.5032838582992554,-0.15682350099086761
1758273170958324700,1.47932470703125,1.0060272216796875,-2.239867925643921,0.03695421293377876
1758273170968282600,1.48928271484375,0.8576504588127136,-2.2575948238372803,0.10889658331871033
1758273170978239500,1.499239501953125,0.443237841129303,-1.4202548265457153,0.16121359169483185
1758273170988197600,1.50919775390625,-0.001645898912101984,-0.148052379488945,0.11355084180831909
1758273170998155500,1.519155517578125,-0.19449123740196228,0.7859304547309875,0.009227629750967026
1758273171008113700,1.52911376953125,-0.15599392354488373,0.9489256143569946,-0.009504099376499653
1758273171018071600,1.539071533203125,-0.0001137856743298471,0.5662652850151062,0.01109119039028883
1758273171028028700,1.549028564453125,0.11510676145553589,0.20849306881427765,0.03518717736005783
1758273171037986800,1.55898681640625,0.17478501796722412,0.019554568454623222,-0.09280780702829361
1758273171047944400,1.5689443359375,0.20411264896392822,0.04724662005901337,-0.2518305480480194
1758273171057902600,1.578902587890625,0.13273940980434418,-0.06439682096242905,-0.36239245533943176
1758273171067859700,1.588859619140625,0.16950833797454834,-0.25260129570961,-0.3794252872467041
1758273171077817600,1.598817626953125,0.23054400086402893,-0.39366358518600464,-0.3185417056083679
1758273171087775700,1.608775634765625,0.18714167177677155,-0.34543469548225403,-0.20630209147930145
1758273171097733600,1.618733642578125,0.09332915395498276,-0.15128867328166962,-0.11627339571714401
1758273171107691800,1.62869189453125,0.00890909694135189,0.06285087764263153,-0.020596109330654144
1758273171117648600,1.638648681640625,0.004281855188310146,0.1365938037633896,0.06906187534332275
1758273171127606500,1.6486064453125,0.05814780667424202,0.13913877308368683,0.13734371960163116
1758273171137564700,1.658564697265625,0.07127479463815689,0.12007053941488266,0.18056096136569977
1758273171147522600,1.6685224609375,0.04190736263990402,0.1316349357366562,0.1827947050333023
1758273171157479700,1.678479736328125,-0.00009494554251432419,0.1546928584575653,0.1483674943447113
1758273171167437600,1.6884375,-0.005052449647337198,0.16189317405223846,0.09735772758722305
1758273171177395500,1.6983955078125,0.022950688377022743,0.1756843626499176,0.03690050542354584
1758273171187353600,1.708353515625,0.045355673879384995,0.23658743500709534,-0.019833466038107872
1758273171197310700,1.718310791015625,0.053056471049785614,0.31605803966522217,-0.06387415528297424
1758273171207268600,1.7282685546875,0.06261535733938217,0.3599395751953125,-0.07448431104421616
1758273171217226800,1.738226806640625,0.07556204497814178,0.3575379252433777,-0.05320698767900467
1758273171227184600,1.7481845703125,0.07268771529197693,0.32735633850097656,-0.004456876777112484
1758273171237142500,1.758142578125,0.05826243758201599,0.2927916944026947,0.05974102020263672
1758273171247099600,1.768099609375,0.042687300592660904,0.25800278782844543,0.1269555240869522
1758273171257057800,1.778057861328125,0.027900099754333496,0.22867844998836517,0.18185633420944214
1758273171267015700,1.788015625,0.0243053175508976,0.21922904253005981,0.22085508704185486
1758273171276973800,1.797973876953125,0.020255714654922485,0.22028204798698425,0.24376653134822845
1758273171286930700,1.8079306640625,0.013963228091597557,0.2227892130613327,0.26197388768196106
1758273171296888600,1.817888671875,0.007572706788778305,0.21303698420524597,0.2695673704147339
1758273171306846700,1.8278466796875,0.006660814397037029,0.19171209633350372,0.269743412733078
1758273171316804600,1.8378046875,0.017661267891526222,0.15620151162147522,0.26241758465766907
1758273171326762800,1.8477626953125,0.019534900784492493,0.11475370824337006,0.24902936816215515
1758273171336720000,1.857719970703125,0.021214822307229042,0.08754365891218185,0.2285217046737671
1758273171346678500,1.867678466796875,0.026747221127152443,0.08929276466369629,0.21281729638576508
1758273171356636200,1.87763623046875,0.029641278088092804,0.11396881937980652,0.20550717413425446
1758273171366594300,1.88759423828125,0.03083859011530876,0.1480461210012436,0.2100459784269333
1758273171376551400,1.897551513671875,0.02963191084563732,0.18393753468990326,0.2194320261478424
1758273171386509300,1.90750927734375,0.0311873909085989,0.19436275959014893,0.23464356362819672
1758273171396467500,1.917467529296875,0.0347759984433651,0.17085769772529602,0.25135329365730286
1758273171406425600,1.927425537109375,0.03677155077457428,0.10312534868717194,0.26234808564186096
1758273171416383500,1.937383544921875,0.03913324326276779,0.010296337306499481,0.265219509601593
1758273171426340400,1.94734033203125,0.033557966351509094,-0.0918370708823204,0.25606074929237366
1758273171436298500,1.957298583984375,0.03557957336306572,-0.16176661849021912,0.24187569320201874
1758273171446256400,1.96725634765625,0.04654644429683685,-0.19570903480052948,0.22224313020706177
1758273171456214500,1.977214599609375,0.05609946697950363,-0.2143692672252655,0.19807414710521698
1758273171466171400,1.98717138671875,0.056553054600954056,-0.2363244742155075,0.1604028195142746
1758273171476129300,1.99712939453125,0.05400334298610687,-0.25105175375938416,0.1084381639957428
1758273171486087400,2.00708740234375,0.04146748036146164,-0.2610728442668915,0.04883430898189545
1758273171496045300,2.01704541015625,0.035728368908166885,-0.28031471371650696,-0.015909533947706223
1758273171506002400,2.02700244140625,0.04213304817676544,-0.3165305256843567,-0.07888394594192505
1758273171515960600,2.036960693359375,0.053659744560718536,-0.3642783463001251,-0.14966250956058502
1758273171525918500,2.04691845703125,0.05098119005560875,-0.445173054933548,-0.21490874886512756
1758273171535876600,2.056876708984375,0.03045886941254139,-0.586656391620636,-0.31403374671936035
1758273171545834200,2.066834228515625,-0.014702657237648964,-0.844567060470581,-0.4997156262397766
1758273171555791400,2.076791259765625,-0.03543376550078392,-1.1404591798782349,-0.6830966472625732
1758273171565749500,2.08674951171875,-0.04068769887089729,-1.3051735162734985,-0.8307710886001587
1758273171575707400,2.096707275390625,-0.13409540057182312,-1.3083022832870483,-1.0131728649139404
1758273171585665500,2.10666552734375,-0.3412804901599884,-1.1494189500808716,-1.3076634407043457
1758273171595622400,2.116622314453125,-0.580072820186615,-0.8860856890678406,-1.6749213933944702
1758273171605580300,2.126580322265625,-0.7857180237770081,-0.4587855041027069,-2.0271389484405518
1758273171615538400,2.136538330078125,-0.8953856229782104,-0.05827297642827034,-2.3055975437164307
1758273171625496300,2.146496337890625,-1.0459818840026855,-0.16077910363674164,-2.393749952316284
1758273171635454500,2.156454345703125,-0.9268461465835571,-0.9774337410926819,-2.429741859436035
1758273171645411600,2.16641162109375,-0.622774064540863,-1.7028775215148926,-2.6264028549194336
1758273171655369200,2.176369140625,-0.29277515411376953,-2.1844992637634277,-2.8251922130584717
1758273171665327400,2.186327392578125,-0.05913585051894188,-2.4975738525390625,-2.881882667541504
1758273171675285200,2.19628515625,0.16102713346481323,-2.607917070388794,-2.8997933864593506
1758273171685242400,2.206242431640625,0.368501752614975,-2.547563314437866,-2.94814133644104
1758273171695200500,2.216200439453125,0.6597142219543457,-2.6146998405456543,-3.1340832710266113
1758273171705158400,2.226158447265625,0.922523558139801,-2.6316983699798584,-3.2932534217834473
1758273171715116500,2.236116455078125,0.91624915599823,-2.3755404949188232,-3.2761335372924805
1758273171725073400,2.246073486328125,0.8458995223045349,-1.5805197954177856,-2.896225929260254
1758273171735031300,2.25603125,0.7141265869140625,-0.9128847122192383,-2.262777328491211
1758273171744989400,2.265989501953125,0.4987150728702545,-0.9246279001235962,-1.7223321199417114
1758273171754947300,2.275947265625,0.3675019443035126,-1.2934943437576294,-1.6640605926513672
1758273171764905500,2.285905517578125,0.2792681157588959,-1.331407904624939,-1.864641547203064
1758273171774862300,2.2958623046875,0.039092786610126495,-1.171134352684021,-2.0480408668518066
1758273171784820200,2.3058203125,0.03839975595474243,-1.470976710319519,-2.0966219902038574
1758273171794778400,2.3157783203125,0.012881878763437271,-1.878580093383789,-2.0694823265075684
1758273171804736300,2.325736328125,-0.10344007611274719,-2.1286959648132324,-2.0036988258361816
1758273171814693400,2.335693359375,-0.19164104759693146,-2.021301507949829,-1.8588101863861084
1758273171824651500,2.345651611328125,-0.22363758087158203,-1.8719018697738647,-1.5521851778030396
1758273171834609400,2.355609375,-0.20280420780181885,-1.6158140897750854,-1.2535630464553833
1758273171844567300,2.3655673828125,-0.12144675105810165,-1.3413708209991455,-1.0545454025268555
1758273171854525400,2.375525390625,-0.023783570155501366,-1.1253700256347656,-0.9072421789169312
1758273171864482300,2.385482421875,0.05669652298092842,-0.9548583030700684,-0.7869033217430115
1758273171874440400,2.3954404296875,0.11087080836296082,-0.7771692276000977,-0.6721389293670654
1758273171884398300,2.4053984375,0.15022796392440796,-0.6057851314544678,-0.5735187530517578
1758273171894356500,2.4153564453125,0.18352040648460388,-0.48894238471984863,-0.4818410277366638
1758273171904313300,2.425313232421875,0.19987143576145172,-0.4229203164577484,-0.39472201466560364
1758273171914271200,2.435271240234375,0.18764938414096832,-0.3790820240974426,-0.31210434436798096
1758273171924229400,2.4452294921875,0.1721474677324295,-0.3700087368488312,-0.22361600399017334
1758273171934187500,2.4551875,0.16328980028629303,-0.410327672958374,-0.1408175379037857
1758273171944144400,2.465144287109375,0.16267767548561096,-0.46084174513816833,-0.059453606605529785
1758273171954102300,2.475102294921875,0.13778696954250336,-0.45890963077545166,-0.024736640974879265
1758273171964060400,2.485060302734375,0.12139305472373962,-0.41556018590927124,-0.03457782417535782
1758273171974018300,2.495018310546875,0.08789901435375214,-0.3229924440383911,-0.048523202538490295
1758273171983976400,2.5049765625,0.09509220719337463,-0.16053375601768494,-0.0011096135713160038
1758273171993933300,2.514933349609375,0.11746089905500412,-0.07743913680315018,0.05321274697780609
1758273172003891500,2.524891357421875,0.054020632058382034,0.014332246035337448,0.11834869533777237
1758273172013849600,2.534849609375,-0.008884565904736519,0.16113047301769257,0.23602339625358582
1758273172023807200,2.54480712890625,-0.09004965424537659,0.32451218366622925,0.45784997940063477
1758273172033764400,2.554764404296875,-0.1977715939283371,0.4783848524093628,0.7661460638046265
1758273172043722500,2.564722412109375,-0.29635313153266907,0.5492828488349915,1.0798929929733276
1758273172053680400,2.574680419921875,-0.36662012338638306,0.5048906207084656,1.3141400814056396
1758273172063638500,2.584638427734375,-0.435375839471817,0.5082947611808777,1.4168928861618042
1758273172073595400,2.594595458984375,-0.4748137891292572,0.523354709148407,1.3878157138824463
1758273172083553300,2.60455322265625,-0.4803706407546997,0.5023152232170105,1.1818372011184692
1758273172093511400,2.614511474609375,-0.4161788523197174,0.4347939193248749,0.7215955853462219
1758273172103469300,2.62446923828125,-0.27018219232559204,0.46835070848464966,0.10722070932388306
1758273172113427500,2.634427490234375,-0.058043837547302246,0.8747789263725281,-0.012301428243517876
1758273172123384600,2.644384521484375,0.20263177156448364,1.6320737600326538,0.5034925937652588
1758273172133342500,2.654342529296875,0.3403174579143524,2.2653074264526367,0.9466588497161865
1758273172143300400,2.66430029296875,0.1902492195367813,2.131052017211914,0.8427629470825195
1758273172153258200,2.67425830078125,0.047683026641607285,1.7014421224594116,0.5676973462104797
1758273172163215400,2.68421533203125,0.08046828210353851,1.646978735923767,0.5288625359535217
1758273172173173500,2.694173583984375,0.24857260286808014,1.7806198596954346,0.8397743701934814
1758273172183131400,2.70413134765625,0.44675230979919434,1.6833478212356567,1.2190393209457397
1758273172193089500,2.714089599609375,0.6298829317092896,1.311789631843567,1.2907551527023315
1758273172203046400,2.72404638671875,0.8057147860527039,0.9276637434959412,0.7920321226119995
1758273172213004300,2.73400439453125,0.9231353998184204,0.8458967208862305,0.07514456659555435
1758273172222962400,2.74396240234375,0.8503561615943909,1.4162440299987793,0.06250280141830444
1758273172232920300,2.75392041015625,0.5139749646186829,2.1845450401306152,0.900418221950531
1758273172242878500,2.76387841796875,0.05527978762984276,2.703047752380371,1.9360092878341675
1758273172252835600,2.773835693359375,-0.34951111674308777,2.792257785797119,2.6039938926696777
1758273172262793200,2.783793212890625,-0.551650881767273,2.530613899230957,2.8346750736236572
1758273172272751400,2.79375146484375,-0.5213728547096252,1.924373984336853,2.649822950363159
1758273172282709200,2.803709228515625,-0.3266494572162628,1.0460317134857178,2.19992733001709
1758273172292666400,2.813666259765625,-0.013833216391503811,0.4282265603542328,1.8263705968856812
1758273172302624500,2.82362451171875,0.25230222940444946,0.2297172099351883,1.726872444152832
1758273172312582400,2.83358251953125,0.5198857188224792,0.38568735122680664,1.7394689321517944
1758273172322540300,2.843540283203125,0.8470637202262878,0.7995730042457581,1.711673617362976
1758273172332497400,2.853497314453125,1.0996121168136597,0.9888888597488403,1.7827818393707275
1758273172342455300,2.863455322265625,1.0957667827606201,1.1307568550109863,1.9838382005691528
1758273172352413200,2.8734130859375,0.7836467027664185,1.335066795349121,2.415597438812256
1758273172362371000,2.88337109375,0.36664140224456787,1.641108751296997,2.9717416763305664
1758273172372329000,2.893328857421875,-0.10367657244205475,1.884090542793274,3.4678566455841064
1758273172382286000,2.9032861328125,-0.6335840821266174,2.0142359733581543,3.90571928024292
1758273172392244200,2.913244140625,-1.0208567380905151,2.1250686645507812,4.260929107666016
1758273172402202000,2.9232021484375,-1.205029845237732,2.111356258392334,4.492025375366211
1758273172412160300,2.93316015625,-1.144267201423645,1.9130266904830933,4.603176593780518
1758273172422117000,2.9431171875,-0.915866494178772,1.8178083896636963,4.515025615692139
1758273172432075000,2.953074951171875,-0.646288275718689,1.8190350532531738,4.247086048126221
1758273172442033200,2.963033203125,-0.47254687547683716,1.6826879978179932,3.791511058807373
1758273172451991000,2.972990966796875,-0.49335041642189026,1.0457347631454468,3.251422882080078
1758273172461948200,2.9829482421875,-0.4361388087272644,-0.020672455430030823,2.6748878955841064
1758273172471906000,2.992906005859375,-0.35272884368896484,-1.167405605316162,2.190075397491455
1758273172481864000,3.002864013671875,-0.21827465295791626,-2.071824312210083,1.877304196357727
1758273172491822000,3.012822021484375,-0.12927207350730896,-2.615496873855591,1.520678162574768
1758273172501779200,3.022779296875,-0.034861695021390915,-2.960538864135742,1.0261619091033936
1758273172511737000,3.032737060546875,0.08607377856969833,-2.8546059131622314,0.5387980937957764
1758273172521695200,3.0426953125,-0.0466792918741703,-2.0994672775268555,0.13690339028835297
1758273172531653000,3.052653076171875,-0.2909074127674103,-0.7238428592681885,-0.03542096167802811
1758273172541611000,3.062611083984375,-0.4889688193798065,0.7882005572319031,-0.005768933333456516
1758273172551568100,3.072568115234375,-0.6057156920433044,2.068760633468628,0.05929049104452133
1758273172561526000,3.082526123046875,-0.6630911827087402,2.9503283500671387,0.10060126334428787
1758273172571484200,3.092484130859375,-0.7338521480560303,3.403165817260742,0.33470669388771057
1758273172581442000,3.102442138671875,-0.8128613829612732,3.081293821334839,0.7212786078453064
1758273172591399000,3.11239892578125,-0.9531927108764648,2.294312000274658,0.5431362986564636
1758273172601357000,3.122357177734375,-1.1911685466766357,1.1480761766433716,-0.29902639985084534
1758273172611315000,3.13231494140625,-1.3800042867660522,-0.14614608883857727,-1.291634202003479
1758273172621273000,3.142273193359375,-1.414326786994934,-1.1495873928070068,-2.243457794189453
1758273172631230200,3.152230224609375,-1.161785364151001,-1.7956334352493286,-3.1093101501464844
1758273172641188000,3.16218798828125,-0.6217341423034668,-2.081731081008911,-3.8093574047088623
1758273172651146200,3.172146240234375,-0.04004330188035965,-2.1113810539245605,-4.388393402099609
1758273172661103900,3.182103759765625,0.6494677662849426,-1.72757887840271,-4.780005931854248
1758273172671061000,3.19206103515625,1.6032698154449463,-1.240425705909729,-5.1019182205200195
1758273172681019100,3.20201904296875,2.3264105319976807,-1.1403899192810059,-5.42097806930542
1758273172690977000,3.21197705078125,1.826802134513855,-1.5447185039520264,-5.767493724822998
1758273172700935200,3.22193505859375,0.9000402688980103,-2.2641453742980957,-6.085391521453857
1758273172710892000,3.23189208984375,0.8757413029670715,-3.412663459777832,-6.1191205978393555
1758273172720850000,3.241849853515625,1.1188246011734009,-4.683320045471191,-5.656441688537598
1758273172730808000,3.25180810546875,1.336862325668335,-4.899021625518799,-4.953177452087402
1758273172740766000,3.261765869140625,1.509007215499878,-3.0588483810424805,-4.3339762687683105
1758273172750723000,3.27172314453125,1.6596381664276123,-0.14288407564163208,-3.9644522666931152
1758273172760681200,3.28168115234375,1.7026772499084473,1.7071462869644165,-3.802762985229492
1758273172770639000,3.29163916015625,1.4271622896194458,2.103076696395874,-3.6709465980529785
1758273172780597000,3.301596923828125,0.885484516620636,1.4196863174438477,-3.408569097518921
1758273172790555000,3.311554931640625,0.6731813549995422,0.37008532881736755,-3.316545009613037
1758273172800512000,3.321511962890625,0.14027519524097443,-1.1960468292236328,-3.2768476009368896
1758273172810470100,3.33147021484375,-0.3964955508708954,-2.4853436946868896,-3.4109268188476562
1758273172820428000,3.341427978515625,-0.7163567543029785,-3.5643575191497803,-3.463672161102295
1758273172830386200,3.35138623046875,-0.9705453515052795,-4.167168140411377,-3.4358010292053223
1758273172840343000,3.361343017578125,-1.3027137517929077,-4.901540756225586,-3.11719012260437
1758273172850301000,3.371301025390625,-1.4172803163528442,-5.207780838012695,-2.6759448051452637
1758273172860259000,3.381259033203125,-1.6220269203186035,-4.778794288635254,-2.275505304336548
1758273172870217000,3.391217041015625,-2.038677930831909,-4.344964027404785,-1.707978367805481
1758273172880174000,3.401174072265625,-2.612431049346924,-3.6850016117095947,-0.8922522664070129
1758273172890132000,3.411132080078125,-3.012709856033325,-2.5180959701538086,-0.050507478415966034
1758273172900089900,3.42108984375,-3.1245245933532715,-2.019240617752075,0.7597032189369202
1758273172910048000,3.431048095703125,-2.9824321269989014,-1.423290729522705,1.3968074321746826
1758273172920005000,3.441005126953125,-2.7288599014282227,-0.10620929300785065,1.934969186782837
1758273172929963000,3.450962890625,-2.3989124298095703,0.9290469288825989,2.3956565856933594
1758273172939921200,3.460921142578125,-1.9611817598342896,1.5775532722473145,2.9010121822357178
1758273172949879300,3.47087939453125,-1.3895336389541626,1.6147563457489014,3.2055349349975586
1758273172959836000,3.4808359375,-0.9178710579872131,1.4697377681732178,3.2676279544830322
1758273172969794000,3.4907939453125,-0.5746297836303711,1.6716279983520508,3.1734209060668945
1758273172979752000,3.500751953125,-0.26667121052742004,2.131514549255371,3.05134654045105
1758273172989710000,3.5107099609375,0.1154194325208664,2.6504645347595215,2.9985997676849365
1758273172999667200,3.520667236328125,0.48545125126838684,2.8342185020446777,2.756195306777954
1758273173009624800,3.530624755859375,0.8133212924003601,2.5158755779266357,2.3147101402282715
1758273173019583000,3.5405830078125,0.9288210272789001,2.2443065643310547,1.9519662857055664
1758273173029541000,3.550541015625,0.7307582497596741,2.385187864303589,1.8641499280929565
1758273173039498000,3.560498046875,0.4531957507133484,2.6448686122894287,1.6356816291809082
1758273173049456000,3.5704560546875,0.2798173129558563,2.209272623062134,0.8969752788543701
1758273173059414300,3.580414306640625,0.31797704100608826,1.0997308492660522,-0.3547612428665161
1758273173069372200,3.5903720703125,0.5994755625724792,-0.142527237534523,-2.108790159225464
1758273173079329000,3.6003291015625,0.9896645545959473,-1.1494284868240356,-4.324009418487549
1758273173089287200,3.610287109375,1.0552120208740234,-1.1696234941482544,-5.51418399810791
1758273173099245000,3.6202451171875,0.8559662699699402,1.6977978944778442,-3.2012202739715576
1758273173109203200,3.630203125,0.6298087239265442,6.229331016540527,1.8740192651748657
1758273173119160000,3.64016015625,0.06432978063821793,6.609698295593262,5.676718235015869
1758273173129118000,3.650117919921875,-0.9523364901542664,5.294800281524658,6.867597579956055
1758273173139076000,3.660076171875,-1.538275122642517,3.9169561862945557,6.10258674621582
1758273173149034000,3.670033935546875,-1.170891523361206,1.894265055656433,3.9392178058624268
1758273173158991000,3.6799912109375,0.019006069749593735,-1.4436782598495483,-1.81583571434021
1758273173168949200,3.68994921875,0.6808311343193054,-2.504993200302124,-3.0167160034179688
1758273173178907100,3.6999072265625,0.5777362585067749,0.15854185819625854,-1.2466604709625244
1758273173188865000,3.709864990234375,0.30719026923179626,3.811366081237793,1.0027974843978882
1758273173198822100,3.719822265625,0.24357879161834717,4.489798069000244,2.8952670097351074
1758273173208780000,3.729780029296875,0.23567986488342285,2.0839343070983887,5.221418857574463
1758273173218738200,3.73973828125,0.23138059675693512,1.0262131690979004,6.7851243019104
1758273173228696000,3.749696044921875,-0.5092679262161255,0.3378872573375702,6.8516011238098145
1758273173238653000,3.75965283203125,-1.5282418727874756,0.9168141484260559,5.775726795196533
1758273173248611000,3.769611083984375,-2.300793170928955,1.8907558917999268,4.881538391113281
1758273173258569000,3.77956884765625,-2.137584686279297,2.995311737060547,4.408101558685303
1758273173268527000,3.789527099609375,-1.5338859558105469,3.5036792755126953,4.073031425476074
1758273173278485000,3.799485107421875,-0.9674606919288635,3.1406006813049316,3.7592480182647705
1758273173288442000,3.809442138671875,-0.2884773910045624,1.8386751413345337,3.265357732772827
1758273173298400300,3.819400146484375,0.3292669653892517,-0.4619026184082031,2.925931930541992
1758273173308358000,3.82935791015625,0.6649629473686218,-3.1620640754699707,2.588449716567993
1758273173318315000,3.83931494140625,0.7138399481773376,-5.010870456695557,2.1304619312286377
1758273173328273200,3.849273193359375,0.6270312666893005,-5.353565216064453,1.3265111446380615
1758273173338231000,3.85923095703125,0.7017446160316467,-3.4426658153533936,0.48448285460472107
1758273173348189200,3.869189208984375,0.7810202836990356,0.21978750824928284,0.10345719754695892
1758273173358146300,3.879146240234375,0.6088513135910034,3.649376153945923,0.41837364435195923
1758273173368104200,3.889104248046875,0.008857895620167255,5.2794880867004395,0.9995297193527222
1758273173378062300,3.899062255859375,-0.5538156628608704,4.80385160446167,1.370550274848938
1758273173388020000,3.90902001953125,-0.8460209369659424,2.6292734146118164,1.3860983848571777
1758273173397978000,3.91897802734375,-0.874315083026886,0.32205384969711304,1.0625373125076294
1758273173407935200,3.928935302734375,-0.8530177474021912,-0.7250694036483765,0.7457939982414246
1758273173417893000,3.93889306640625,-0.9883580803871155,-0.9438183903694153,0.355639785528183
1758273173427851300,3.948851318359375,-1.2660067081451416,-0.9537439942359924,-0.41332027316093445
1758273173437808000,3.95880810546875,-1.6084989309310913,-1.2536746263504028,-1.8592901229858398
1758273173447766000,3.96876611328125,-1.638924241065979,-1.4935142993927002,-3.565582036972046
1758273173457724200,3.97872412109375,-1.0237922668457031,-1.390943169593811,-4.780433177947998
1758273173467682000,3.98868212890625,-0.6047062873840332,-0.6194112300872803,-5.189213752746582
1758273173477639200,3.99863916015625,-0.4830056428909302,0.39179831743240356,-5.04642391204834
1758273173487597300,4.008597412109375,-0.3844311237335205,0.7547117471694946,-4.89725923538208
1758273173497555200,4.01855517578125,-0.15309441089630127,0.16859659552574158,-4.883364200592041
1758273173507513000,4.02851318359375,0.5075844526290894,-1.8294479846954346,-5.169281005859375
1758273173517470200,4.03847021484375,1.6600621938705444,-4.888698101043701,-5.7103190422058105
1758273173527428000,4.048427978515625,2.5520262718200684,-7.723543643951416,-5.905327796936035
1758273173537386200,4.05838623046875,2.078320026397705,-9.417559623718262,-5.602010250091553
1758273173547344100,4.06834423828125,0.8680908679962158,-10.32634162902832,-5.43634033203125
1758273173557301000,4.078301025390625,0.5265017151832581,-10.253153800964355,-5.823728084564209
1758273173567259100,4.088259033203125,1.1344616413116455,-8.047769546508789,-5.947231769561768
1758273173577217000,4.098217041015625,2.0290844440460205,-2.9192161560058594,-4.933992862701416
1758273173587175200,4.108175048828125,2.0865683555603027,1.0319511890411377,-3.7599990367889404
1758273173597132300,4.11813232421875,1.5108742713928223,1.6365073919296265,-3.1094837188720703
1758273173607090200,4.128090087890625,1.3326363563537598,1.0423860549926758,-2.6934876441955566
1758273173617048300,4.13804833984375,1.1182621717453003,0.22167366743087769,-2.5391836166381836
1758273173627006000,4.148005859375,0.5358605980873108,-1.3362516164779663,-2.4316580295562744
1758273173636963000,4.157963134765625,-0.01297529973089695,-2.746218681335449,-2.211249828338623
1758273173646921200,4.167921142578125,-0.4835028648376465,-3.874464511871338,-1.6713247299194336
1758273173656879000,4.177879150390625,-0.9712385535240173,-4.957140922546387,-1.033923625946045
1758273173666837200,4.187837158203125,-1.1398069858551025,-4.613984107971191,-0.7528826594352722
1758273173676794000,4.197794189453125,-1.187086820602417,-3.115905523300171,-0.5461665987968445
1758273173686752000,4.207751953125,-1.5651731491088867,-2.095126152038574,-0.17786072194576263
1758273173696710100,4.217710205078125,-2.0609612464904785,-1.3640378713607788,0.2997439503669739
1758273173706668000,4.22766796875,-2.150885581970215,-0.44752052426338196,0.8024113178253174
1758273173716625200,4.237625244140625,-1.9658557176589966,0.861595869064331,1.6522375345230103
1758273173726583300,4.247583251953125,-2.1677448749542236,2.2252328395843506,2.51556396484375
1758273173736541000,4.257541015625,-2.060335636138916,2.6690309047698975,2.9431588649749756
1758273173746499000,4.2674990234375,-1.7798876762390137,2.5596461296081543,2.8807389736175537
1758273173756456200,4.277456298828125,-1.507604718208313,2.121415138244629,2.674697160720825
1758273173766414000,4.2874140625,-1.2376930713653564,1.8376705646514893,2.4676194190979004
1758273173776372200,4.297372314453125,-1.0525459051132202,2.08846378326416,2.1938395500183105
1758273173786330000,4.307330078125,-0.8314521908760071,2.2459263801574707,2.0398383140563965
1758273173796287000,4.317286865234375,-0.5492358207702637,2.187944173812866,2.076984405517578
1758273173806245000,4.3272451171875,-0.37151721119880676,2.1604115962982178,2.269310235977173
1758273173816203000,4.337203125,-0.2391410768032074,2.565124750137329,2.396566390991211
1758273173826161200,4.3471611328125,-0.061071477830410004,2.9089901447296143,2.1466500759124756
1758273173836118300,4.3571181640625,0.12094207108020782,2.814997434616089,1.2625137567520142
1758273173846076200,4.367076171875,0.31395387649536133,2.533348798751831,-0.1332879215478897
1758273173856034000,4.377033935546875,0.7529425024986267,2.044924259185791,-1.9101512432098389
1758273173865992200,4.3869921875,1.3104771375656128,0.33887362480163574,-4.459074974060059
1758273173875949000,4.396948974609375,1.4795440435409546,-3.333322048187256,-7.22709321975708
1758273173885907200,4.4069072265625,1.3659580945968628,-4.163193702697754,-5.186071395874023
1758273173895865000,4.416864990234375,0.8851953148841858,2.112051486968994,-0.9805704355239868
1758273173905822000,4.426822021484375,0.46061983704566956,6.528714179992676,1.9828898906707764
1758273173915780000,4.436780029296875,0.3312077522277832,5.301292896270752,2.155897378921509
1758273173925738000,4.446738037109375,0.26704686880111694,2.7084405422210693,1.6314375400543213
1758273173935696100,4.456696044921875,-0.15724049508571625,0.7452380061149597,1.4135991334915161
1758273173945653200,4.4666533203125,-0.42435315251350403,-0.2939359247684479,1.4590939283370972
1758273173955611100,4.476611083984375,-0.4701835811138153,-0.5556727051734924,1.9566396474838257
1758273173965569300,4.4865693359375,-0.2300165295600891,1.4802109003067017,3.2078068256378174
1758273173975527200,4.496527099609375,0.14802329242229462,3.3206605911254883,4.139965534210205
1758273173985484000,4.506484130859375,0.36877405643463135,4.409481048583984,4.597686290740967
1758273173995442200,4.516442138671875,-0.1739158034324646,4.697574615478516,4.53306770324707
1758273174005400000,4.526400146484375,-1.2042654752731323,3.8738977909088135,4.034300327301025
1758273174015358200,4.536358154296875,-1.767319679260254,1.829423427581787,3.5406763553619385
1758273174025315000,4.546315185546875,-1.9353749752044678,-0.0028553337324410677,3.9198217391967773
1758273174035273000,4.55627294921875,-1.9342466592788696,0.22440695762634277,5.086124420166016
1758273174045231000,4.566231201171875,-1.729122519493103,1.4509966373443604,5.754187107086182
1758273174055189200,4.576189208984375,-1.3839043378829956,2.096355438232422,5.092650890350342
1758273174065146000,4.58614599609375,-0.8859989643096924,2.0663816928863525,3.8287243843078613
1758273174075104300,4.596104248046875,-0.20018069446086884,1.7069947719573975,2.9096741676330566
1758273174085062100,4.606062255859375,0.4099505841732025,1.2267770767211914,2.723898410797119
1758273174095019000,4.61601904296875,0.7248414754867554,0.2970123291015625,2.5903117656707764
1758273174104977200,4.62597705078125,0.9731096625328064,-0.5068660378456116,1.9464167356491089
1758273174114935000,4.63593505859375,1.036583423614502,-0.2553960978984833,1.2411521673202515
1758273174124893200,4.64589306640625,1.0266562700271606,0.8603909015655518,0.760805070400238
1758273174134850300,4.655850341796875,0.884926438331604,1.780945062637329,0.5309662818908691
1758273174144808000,4.665807861328125,0.44357889890670776,2.0996954441070557,0.6821537017822266
1758273174154766000,4.67576611328125,-0.018939483910799026,2.602032423019409,1.063439965248108
1758273174164724200,4.68572412109375,-0.2742844521999359,2.931857109069824,1.2154918909072876
1758273174174681000,4.69568115234375,-0.43958529829978943,1.853323221206665,1.1395097970962524
1758273174184639200,4.70563916015625,-0.6639979481697083,0.4447535574436188,0.5126245617866516
1758273174194597000,4.71559716796875,-0.8886771202087402,-0.030083362013101578,-0.22966021299362183
1758273174204555000,4.725554931640625,-1.1113238334655762,0.2505110204219818,-0.7818549275398254
1758273174214512000,4.73551220703125,-1.3349322080612183,0.10766354948282242,-1.5643715858459473
1758273174224470000,4.745469970703125,-1.4857877492904663,-0.6287707686424255,-2.6676080226898193
1758273174234428200,4.75542822265625,-1.202998161315918,-1.4929394721984863,-3.627917766571045
1758273174244386300,4.76538623046875,-0.7527676224708557,-1.4930616617202759,-4.043249130249023
1758273174254343000,4.775343017578125,-0.46995633840560913,-1.1268787384033203,-4.066792011260986
1758273174264301000,4.785301025390625,-0.3354286253452301,-1.0206674337387085,-3.8110108375549316
1758273174274259200,4.79525927734375,-0.234768807888031,-1.6242928504943848,-3.538675308227539
1758273174284217000,4.805217041015625,0.05541134625673294,-3.383303642272949,-3.5778353214263916
1758273174294174200,4.81517431640625,0.9828447103500366,-5.492475509643555,-4.125597953796387
1758273174304132000,4.825132080078125,2.390371322631836,-7.381353855133057,-4.455498695373535
1758273174314090200,4.83509033203125,3.213768482208252,-8.769227981567383,-4.5507402420043945
1758273174324047000,4.845047119140625,2.31589412689209,-10.21681022644043,-4.7919697761535645
1758273174334005000,4.8550048828125,1.0213282108306885,-11.32927131652832,-5.396607875823975
1758273174343963100,4.864963134765625,0.9434254169464111,-10.04781723022461,-5.460636138916016
1758273174353921500,4.874921630859375,1.7300567626953125,-4.315188884735107,-4.259876251220703
1758273174363878100,4.884878173828125,2.0755116939544678,0.7688456177711487,-3.196486473083496
1758273174373836300,4.894836181640625,1.6419920921325684,2.4898784160614014,-2.7188467979431152
1758273174383794400,4.90479443359375,1.0843101739883423,1.6098942756652832,-2.3568150997161865
1758273174393752300,4.91475244140625,0.593896746635437,-0.23819683492183685,-1.9553302526474
1758273174403709400,4.92470947265625,0.13852232694625854,-2.5230214595794678,-1.667539119720459
1758273174413667300,4.934667236328125,-0.17275230586528778,-4.109668254852295,-1.5578418970108032
1758273174423625200,4.944625244140625,-0.6033297777175903,-5.244020938873291,-1.2635740041732788
1758273174433583400,4.954583251953125,-0.9793928265571594,-5.4102702140808105,-0.7697994709014893
1758273174443540200,4.964540283203125,-1.1023677587509155,-4.56601619720459,-0.45359089970588684
1758273174453498400,4.974498291015625,-0.8481931686401367,-2.534792423248291,-0.49605321884155273
1758273174463456500,4.98445654296875,-0.5516312718391418,-0.5915877223014832,-0.5218456387519836
1758273174473414400,4.994414306640625,-0.8771963119506836,0.6350500583648682,-0.10660400241613388
1758273174483371300,5.004371337890625,-1.2337443828582764,1.5080240964889526,0.8088099360466003
1758273174493329400,5.014329345703125,-1.429831862449646,2.0016262531280518,1.8576178550720215
1758273174503287300,5.024287353515625,-1.6234264373779297,2.0055158138275146,2.347919464111328
1758273174513244400,5.034244384765625,-1.5310074090957642,1.4276695251464844,2.1347548961639404
1758273174523202300,5.044202392578125,-1.4267196655273438,0.9087483286857605,1.7245155572891235
1758273174533160200,5.05416015625,-1.3022693395614624,0.6516174674034119,1.3689405918121338
1758273174543118300,5.064118408203125,-1.182361364364624,0.875088095664978,1.040701985359192
1758273174553075200,5.0740751953125,-1.0481992959976196,1.4039007425308228,1.0477566719055176
1758273174563033300,5.084033447265625,-0.878200352191925,1.7321786880493164,1.5077998638153076
1758273174572991500,5.093991455078125,-0.7793594002723694,1.9655239582061768,2.0991761684417725
1758273174582949400,5.103949462890625,-0.7938054800033569,2.8920631408691406,2.4777090549468994
1758273174592906200,5.11390625,-0.4515131413936615,4.009969234466553,2.165353775024414
1758273174602864400,5.123864501953125,0.026538114994764328,4.6207275390625,0.9437381029129028
1758273174612822300,5.133822265625,0.3342636823654175,4.395010471343994,-0.7416448593139648
1758273174622779400,5.143779296875,0.5146268010139465,3.286649465560913,-2.340780735015869
1758273174632737300,5.1537373046875,1.0544848442077637,0.2507292330265045,-4.611123561859131
1758273174642695400,5.1636953125,1.4213778972625732,-3.4274628162384033,-6.3939385414123535
1758273174652653300,5.1736533203125,0.8209542632102966,-4.5460333824157715,-5.472814083099365
1758273174662610200,5.183610107421875,0.2742714583873749,-1.3638802766799927,-3.2290518283843994
1758273174672568300,5.193568359375,0.18103757500648499,5.15570592880249,0.7287606596946716
1758273174682526500,5.2035263671875,-0.1910073608160019,6.242068290710449,2.699706554412842
1758273174692484400,5.213484375,-0.5831890106201172,4.10780143737793,2.766953706741333
1758273174702441200,5.223441162109375,-0.7129352688789368,1.650782585144043,2.408348321914673
1758273174712399400,5.2333994140625,-0.6502631306648254,0.7232832908630371,2.3935348987579346
1758273174722357200,5.243357177734375,-0.3141431510448456,0.8898347616195679,2.519456148147583
1758273174732315400,5.2533154296875,0.07177690416574478,1.5245875120162964,2.535531520843506
1758273174742272300,5.263272216796875,0.3010750710964203,2.7720730304718018,2.5592033863067627
1758273174752230400,5.27323046875,0.5156458020210266,4.007468223571777,2.7373414039611816
1758273174762188300,5.283188232421875,0.8544462323188782,4.781529903411865,3.089111566543579
1758273174772145200,5.293145263671875,0.8027686476707458,4.729063987731934,2.9606688022613525
1758273174782103300,5.303103271484375,0.09665626287460327,3.8411378860473633,2.7790699005126953
1758273174792061400,5.3130615234375,-0.6558552980422974,2.017642021179199,3.6510169506073
1758273174802019300,5.323019287109375,-1.020043134689331,0.9186400771141052,5.196370601654053
1758273174811976200,5.33297607421875,-1.193082332611084,1.4631081819534302,6.078771591186523
1758273174821934300,5.342934326171875,-1.4632110595703125,2.666152238845825,5.559276103973389
1758273174831892200,5.352892333984375,-1.4898457527160645,3.6160342693328857,4.1955718994140625
1758273174841850400,5.362850341796875,-1.0039397478103638,3.666486978530884,3.0684685707092285
1758273174851807200,5.37280712890625,-0.2636605203151703,1.9513506889343262,2.7240378856658936
1758273174861765400,5.382765380859375,0.3572336435317993,-0.4623538553714752,3.0531344413757324
1758273174871723500,5.3927236328125,0.8178342580795288,-1.9675979614257812,3.215221881866455
1758273174881681200,5.40268115234375,1.0354148149490356,-2.2413125038146973,2.4941420555114746
1758273174891638300,5.41263818359375,1.2713711261749268,-1.8057905435562134,1.1896668672561646
1758273174901596400,5.422596435546875,1.198962688446045,-0.057423777878284454,0.3615116775035858
1758273174911554300,5.43255419921875,0.9563570022583008,1.5769312381744385,0.36146610975265503
1758273174921511400,5.442511474609375,0.5328070521354675,2.766674518585205,0.7464776635169983
1758273174931469300,5.45246923828125,0.13819214701652527,4.022810459136963,0.9969353675842285
1758273174941427200,5.46242724609375,-0.23286688327789307,5.181574821472168,1.0139391422271729
1758273174951385300,5.47238525390625,-0.44699355959892273,4.983452320098877,0.6743928790092468
1758273174961342200,5.48234228515625,-0.6084266901016235,3.6340887546539307,-0.03385484218597412
1758273174971300400,5.49230029296875,-0.8278732895851135,2.294679641723633,-0.6473578810691833
1758273174981258500,5.502258544921875,-1.0626220703125,1.1439553499221802,-1.2450207471847534
1758273174991216400,5.51221630859375,-1.2779731750488281,-0.19302010536193848,-2.0270285606384277
1758273175001173200,5.52217333984375,-1.348525047302246,-2.0528342723846436,-3.0038061141967773
1758273175011131400,5.53213134765625,-1.083416223526001,-3.359811305999756,-3.7179129123687744
1758273175021089300,5.54208935546875,-0.8404879570007324,-3.3525426387786865,-3.8856029510498047
1758273175031046400,5.55204638671875,-0.5674241185188293,-2.7336173057556152,-3.631880283355713
1758273175041004500,5.562004638671875,-0.27282124757766724,-2.1763174533843994,-3.2623801231384277
1758273175050962200,5.571962158203125,0.1292688548564911,-2.2369751930236816,-3.196645736694336
1758273175060920300,5.58192041015625,0.7090528607368469,-3.2327897548675537,-3.671596050262451
1758273175070877400,5.59187744140625,1.301129698753357,-4.885452747344971,-4.555050849914551
1758273175080835300,5.60183544921875,1.602371096611023,-6.799649238586426,-5.348560810089111
1758273175090793500,5.61179345703125,1.2882970571517944,-8.954803466796875,-5.832755088806152
1758273175100751400,5.62175146484375,0.7141217589378357,-12.037555694580078,-5.970411777496338
1758273175110708200,5.631708251953125,1.0841296911239624,-14.812103271484375,-5.368373394012451
1758273175120666400,5.641666259765625,2.088590145111084,-14.6588773727417,-4.164839744567871
1758273175130624300,5.651624267578125,2.625770092010498,-5.64111328125,-2.9617466926574707
1758273175140581400,5.661581298828125,2.5176854133605957,1.6391096115112305,-2.974078416824341
1758273175150539500,5.67153955078125,2.2267425060272217,3.695258855819702,-3.1684749126434326
1758273175160497400,5.681497314453125,1.643173098564148,2.8526077270507812,-2.9305717945098877
1758273175170455300,5.691455322265625,0.8724936842918396,-0.018256332725286484,-2.406947135925293
1758273175180412400,5.701412353515625,0.2821502387523651,-3.403026819229126,-1.8258538246154785
1758273175190370300,5.711370361328125,-0.3524866998195648,-4.908785820007324,-1.2883952856063843
1758273175200328400,5.721328369140625,-1.1496200561523438,-5.29916524887085,-0.7888544201850891
1758273175210286300,5.731286376953125,-1.5571585893630981,-4.133652687072754,-0.5486469864845276
1758273175220243200,5.7412431640625,-1.6162967681884766,-2.5103602409362793,-0.37373587489128113
1758273175230201300,5.751201416015625,-1.5196683406829834,-1.4507427215576172,-0.08163812011480331
1758273175240159200,5.7611591796875,-1.7241765260696411,-0.8785737752914429,0.6333466172218323
1758273175250116400,5.771116455078125,-1.6987624168395996,-0.3609830439090729,1.5604357719421387
1758273175260074500,5.781074462890625,-1.5575745105743408,0.35891014337539673,2.292107582092285
1758273175270032400,5.791032470703125,-1.6174430847167969,1.2053747177124023,2.413996696472168
1758273175279990300,5.800990234375,-1.524346947669983,1.4706037044525146,2.0473814010620117
1758273175289947400,5.810947509765625,-1.4870600700378418,1.560153841972351,1.8150560855865479
1758273175299905300,5.8209052734375,-1.4415289163589478,1.5588065385818481,1.6475379467010498
1758273175309863400,5.830863525390625,-1.3742423057556152,1.8315175771713257,1.375555157661438
1758273175319821300,5.8408212890625,-1.2777204513549805,2.387509346008301,1.219844102859497
1758273175329778200,5.850778076171875,-1.2318429946899414,2.641390323638916,1.3602232933044434
1758273175339736300,5.860736328125,-1.206850528717041,2.7552523612976074,1.7220637798309326
1758273175349694200,5.870694091796875,-1.0696004629135132,3.4199671745300293,2.0763132572174072
1758273175359650800,5.88065087890625,-0.700110912322998,4.6279120445251465,2.0233912467956543
1758273175369609000,5.89060888671875,-0.131797194480896,5.423443794250488,1.2675005197525024
1758273175379566600,5.900566650390625,0.3892289400100708,5.0283522605896,-0.2139582633972168
1758273175389524700,5.910524658203125,0.6863937377929688,3.4235262870788574,-1.9463261365890503
1758273175399481900,5.92048193359375,1.0686277151107788,0.17942588031291962,-3.2405903339385986
1758273175409439700,5.930439697265625,1.680861234664917,-4.876140117645264,-5.162919044494629
1758273175419398000,5.94039794921875,2.1717143058776855,-7.612222671508789,-6.4845733642578125
1758273175429354800,5.950354736328125,2.781273365020752,-4.143309593200684,-4.495481967926025
1758273175439312600,5.960312744140625,2.1654231548309326,2.0357344150543213,-1.2124004364013672
1758273175449270800,5.970270751953125,0.3979780673980713,3.610802412033081,1.1844656467437744
1758273175459228700,5.980228759765625,-0.7455646395683289,2.9908478260040283,2.1813135147094727
1758273175469185800,5.990185791015625,-1.2711853981018066,2.2528908252716064,2.549387216567993
1758273175479144000,6.00014404296875,-1.3288617134094238,2.091801404953003,2.54939866065979
1758273175489101800,6.010101806640625,-1.0932611227035522,2.26937198638916,2.4158506393432617
1758273175499059700,6.020059814453125,-0.7894874215126038,2.5450119972229004,2.430908441543579
1758273175509016800,6.030016845703125,-0.2981535792350769,3.3500585556030273,2.721714735031128
1758273175518974700,6.039974609375,0.7346194982528687,4.609369277954102,3.244420051574707
1758273175528932900,6.049932861328125,1.7831625938415527,5.8029398918151855,3.9636712074279785
1758273175538890000,6.059889892578125,1.7429512739181519,6.521666526794434,4.621038913726807
1758273175548847600,6.06984765625,0.4286997616291046,6.151949405670166,4.872831344604492
1758273175558805800,6.0798056640625,-0.809275209903717,3.9835212230682373,4.705744743347168
1758273175568763600,6.089763671875,-1.3689910173416138,2.0936245918273926,4.998820781707764
1758273175578720800,6.099720703125,-1.5810763835906982,1.7263280153274536,5.368776798248291
1758273175588679000,6.109678955078125,-1.6663742065429688,2.328218698501587,5.103797435760498
1758273175598636800,6.11963671875,-1.5158506631851196,2.9598371982574463,4.09894323348999
1758273175608594700,6.1295947265625,-0.8930004239082336,2.7862048149108887,3.0956485271453857
1758273175618551800,6.1395517578125,0.014400863088667393,1.6380560398101807,2.7258901596069336
1758273175628509700,6.149509765625,0.6586421728134155,0.26913121342658997,2.7065036296844482
1758273175638467800,6.1594677734375,0.920344889163971,-0.4657965898513794,2.401573896408081
1758273175648425000,6.169425048828125,1.0643788576126099,-0.3466449975967407,1.539528250694275
1758273175658382600,6.179382568359375,1.003707766532898,0.5215830206871033,0.7201403975486755
1758273175668340700,6.1893408203125,0.7529085278511047,1.5388002395629883,0.3775036334991455
1758273175678298600,6.199298583984375,0.40608659386634827,2.0217394828796387,0.4555515646934509
1758273175688255700,6.209255859375,-0.13369296491146088,2.71829891204834,0.8869065642356873
1758273175698214000,6.2192138671875,-0.5459247827529907,3.3740031719207764,1.1526812314987183
1758273175708171800,6.229171875,-0.7488774657249451,2.7548789978027344,1.2066658735275269
1758273175718128600,6.239128662109375,-0.8430055379867554,0.8118920922279358,1.0372391939163208
1758273175728086800,6.249086669921875,-0.9009029269218445,-0.6948264241218567,0.3665899336338043
1758273175738044700,6.259044677734375,-0.976254403591156,-1.1472059488296509,-0.450415700674057
1758273175748002800,6.2690029296875,-1.1199774742126465,-1.2501767873764038,-1.1871209144592285
1758273175757960000,6.2789599609375,-1.3302966356277466,-2.0336997509002686,-2.1880855560302734
1758273175767917800,6.288917724609375,-1.1227200031280518,-3.465623617172241,-3.3896899223327637
1758273175777875700,6.298875732421875,-0.6517956256866455,-4.016072750091553,-3.8763647079467773
1758273175787833600,6.30883349609375,-0.12616074085235596,-3.100332260131836,-3.61248779296875
1758273175797790700,6.318790771484375,0.3809347152709961,-1.418532371520996,-2.933525323867798
1758273175807748900,6.328748779296875,0.7002070546150208,-0.2077074646949768,-2.367438793182373
1758273175817706800,6.338706787109375,1.0205092430114746,-0.38857364654541016,-2.293576240539551
1758273175827663600,6.34866357421875,1.6465694904327393,-2.3800532817840576,-2.9680399894714355
1758273175837621800,6.358621826171875,2.3092799186706543,-5.024571418762207,-4.004965782165527
1758273175847579600,6.36857958984375,2.574054718017578,-6.466281414031982,-4.747555732727051
1758273175857537800,6.378537841796875,1.8223958015441895,-6.833633899688721,-5.2799553871154785
1758273175867495000,6.388494873046875,0.6730186343193054,-7.526392936706543,-5.7208123207092285
1758273175877452800,6.398452880859375,0.3705112338066101,-9.323917388916016,-5.977367877960205
1758273175887411000,6.408410888671875,1.0066322088241577,-9.654475212097168,-5.3008131980896
1758273175897367800,6.418367919921875,1.6892688274383545,-6.535130977630615,-3.917576313018799
1758273175907325700,6.42832568359375,1.708257794380188,-1.7370200157165527,-2.9597506523132324
1758273175917283800,6.438283935546875,1.376747488975525,0.2829227149486542,-2.899149179458618
1758273175927241700,6.44824169921875,1.355530023574829,0.06533604860305786,-3.0990638732910156
1758273175937198800,6.45819873046875,1.2323881387710571,-0.8737760782241821,-3.1165084838867188
1758273175947156700,6.46815673828125,0.6354563236236572,-2.1635332107543945,-2.6155459880828857
1758273175957114600,6.478114501953125,-0.008797481656074524,-3.6235196590423584,-1.8430653810501099
1758273175967072800,6.48807275390625,-0.6349711418151855,-4.928366661071777,-1.0257824659347534
1758273175977030000,6.49802978515625,-1.2154673337936401,-5.558569431304932,-0.5103340148925781
1758273175986987800,6.50798779296875,-1.3273431062698364,-3.9527151584625244,-0.4058244526386261
1758273175996946000,6.51794580078125,-0.9747471809387207,-1.5622824430465698,-0.2712852954864502
1758273176006902800,6.52790283203125,-0.9767478704452515,-0.6684194207191467,0.28059878945350647
1758273176016860700,6.537860595703125,-1.3972967863082886,-0.44428297877311707,1.157551646232605
1758273176026818800,6.54781884765625,-1.934263825416565,0.2686285674571991,2.0560543537139893
1758273176036776700,6.557776611328125,-1.9256929159164429,1.0793061256408691,2.4753546714782715
1758273176046733800,6.56773388671875,-1.860046148300171,1.4015103578567505,2.039854049682617
1758273176056692000,6.57769189453125,-1.6209160089492798,1.3298612833023071,1.3425500392913818
1758273176066649600,6.587649658203125,-1.5705674886703491,1.3418619632720947,0.9691237807273865
1758273176076606700,6.597606689453125,-1.4594295024871826,1.4355732202529907,0.8312282562255859
1758273176086564900,6.60756494140625,-1.254256010055542,1.643644094467163,0.8323481678962708
1758273176096522800,6.617522705078125,-1.1507903337478638,1.844403624534607,1.2161645889282227
1758273176106481000,6.62748095703125,-1.1098402738571167,2.113316535949707,1.9437261819839478
1758273176116437800,6.637437744140625,-1.0449286699295044,2.8623874187469482,2.5797879695892334
1758273176126395600,6.647395751953125,-0.7538211345672607,4.461972713470459,2.745978355407715
1758273176136353800,6.657353759765625,-0.15828163921833038,5.644781589508057,2.133791208267212
1758273176146311700,6.667311767578125,0.4719683825969696,5.891332149505615,0.6729051470756531
1758273176156268800,6.677268798828125,0.8680206537246704,4.752627372741699,-1.41726553440094
1758273176166227000,6.68722705078125,1.0858737230300903,0.8720800876617432,-3.089658498764038
1758273176176184600,6.6971845703125,0.964704692363739,-4.444244384765625,-4.791497707366943
1758273176186141700,6.7071416015625,0.84035325050354,-6.1929402351379395,-5.683657169342041
1758273176196099800,6.717099853515625,1.0041104555130005,-3.666342258453369,-4.574018478393555
1758273176206057700,6.7270576171875,1.4442358016967773,2.477947235107422,-1.3890774250030518
1758273176216016000,6.737015869140625,1.470476746559143,5.787250518798828,1.4072790145874023
1758273176225972700,6.74697265625,0.44316190481185913,3.8213446140289307,1.8329356908798218
1758273176235930600,6.7569306640625,-0.3025764524936676,0.765440821647644,1.9343496561050415
1758273176245888800,6.766888671875,-0.5028932094573975,-0.8147373795509338,2.141568422317505
1758273176255846000,6.776845947265625,-0.4526769518852234,-0.41305387020111084,2.4802510738372803
1758273176265803800,6.7868037109375,-0.1534285545349121,0.9806132912635803,2.7915704250335693
1758273176275762000,6.796761962890625,0.11715526878833771,2.4948060512542725,3.165220022201538
1758273176285719800,6.8067197265625,0.5354976654052734,4.245810031890869,3.669537305831909
1758273176295676700,6.8166767578125,0.6966016292572021,5.458520412445068,3.875711441040039
1758273176305634800,6.826634765625,0.005454588681459427,6.1883769035339355,3.674659490585327
1758273176315592700,6.8365927734375,-1.0920623540878296,6.463845729827881,3.8412983417510986
1758273176325549800,6.8465498046875,-1.6592868566513062,5.293574810028076,4.539116382598877
1758273176335508000,6.856508056640625,-1.8367838859558105,3.541407585144043,5.2880425453186035
1758273176345465600,6.866465576171875,-1.9416089057922363,2.684673547744751,5.577020168304443
1758273176355423700,6.876423828125,-1.8478164672851562,2.7305002212524414,4.979660511016846
1758273176365380900,6.886380859375,-1.443793535232544,3.1546359062194824,3.7371444702148438
1758273176375338500,6.89633837890625,-0.851829469203949,2.9303717613220215,2.5937235355377197
1758273176385296600,6.906296630859375,-0.23492135107517242,1.2385715246200562,2.500491142272949
1758273176395254500,6.916254638671875,0.2957872450351715,-0.1586732715368271,3.0433716773986816
1758273176405211600,6.926211669921875,0.4806099534034729,-0.26335081458091736,2.8447837829589844
1758273176415169800,6.936169677734375,0.6140654683113098,0.7534360885620117,1.8088998794555664
1758273176425127700,6.946127685546875,0.9142561554908752,1.8644744157791138,0.920911431312561
1758273176435084500,6.95608447265625,0.92302405834198,2.5128421783447266,0.40751707553863525
1758273176445042700,6.966042724609375,0.6202793121337891,2.602062702178955,0.5540130138397217
1758273176455000600,6.97600048828125,0.09006048738956451,2.4322259426116943,1.0106223821640015
1758273176464958700,6.985958740234375,-0.221845343708992,1.8395135402679443,1.2085214853286743
1758273176474915800,6.995915771484375,-0.3179183602333069,0.9746387004852295,1.1494091749191284
1758273176484873500,7.00587353515625,-0.33281612396240234,-0.03510618954896927,0.8314366936683655
1758273176494831600,7.01583154296875,-0.38642340898513794,-0.5466323494911194,0.0820082426071167
1758273176504788700,7.025788818359375,-0.5047076940536499,-0.7126557230949402,-0.8238228559494019
1758273176514746600,7.03574658203125,-0.6721989512443542,-1.0469865798950195,-1.7736055850982666
1758273176524704800,7.045704833984375,-0.7365943789482117,-1.799564242362976,-2.8000712394714355
1758273176534662700,7.05566259765625,-0.3805696964263916,-2.3863608837127686,-3.5618786811828613
1758273176544619500,7.06561962890625,0.167325958609581,-2.0088798999786377,-3.6837265491485596
1758273176554577700,7.07557763671875,0.6473714113235474,-0.885067343711853,-3.3232522010803223
1758273176564535600,7.08553564453125,0.7976439595222473,-0.29139894247055054,-2.9755542278289795
1758273176574492700,7.09549267578125,0.8550862669944763,-0.8126498460769653,-2.957378625869751
1758273176584450800,7.105450927734375,0.9745520353317261,-2.3855338096618652,-3.334620475769043
1758273176594408700,7.11540869140625,1.1630401611328125,-4.3314080238342285,-3.9429423809051514
1758273176604366600,7.12536669921875,1.2090489864349365,-5.489835739135742,-4.4245076179504395
1758273176614323700,7.13532373046875,1.1236616373062134,-5.718230724334717,-4.817528247833252
1758273176624281600,7.145281494140625,1.215509295463562,-5.915383815765381,-5.251197814941406
1758273176634239700,7.15523974609375,1.3804153203964233,-7.241235733032227,-5.647609233856201
1758273176644196900,7.16519677734375,1.4532794952392578,-9.015640258789062,-5.369846343994141
1758273176654154500,7.175154541015625,1.4817249774932861,-8.978368759155273,-4.22216796875
1758273176664112600,7.185112548828125,2.032270908355713,-5.636796951293945,-3.0454537868499756
1758273176674070500,7.195070556640625,1.831847071647644,-1.3330352306365967,-2.8910160064697266
1758273176684027600,7.205027587890625,1.6026266813278198,0.5657642483711243,-3.1858818531036377
1758273176693985800,7.21498583984375,1.4676316976547241,0.6222091317176819,-3.269732713699341
1758273176703943700,7.224943603515625,1.1928097009658813,-0.6520991921424866,-3.003373622894287
1758273176713901800,7.23490185546875,0.7351251840591431,-2.136706590652466,-2.470712184906006
1758273176723858700,7.244858642578125,0.146426722407341,-3.0741817951202393,-1.6217072010040283
1758273176733816600,7.254816650390625,-0.3656544089317322,-4.107214450836182,-0.9198190569877625
1758273176743774700,7.264774658203125,-0.7851466536521912,-5.1436896324157715,-0.549332320690155
1758273176753731800,7.27473193359375,-0.9239048361778259,-3.645642042160034,-0.43749767541885376
1758273176763689700,7.284689697265625,-0.9093706607818604,-1.908975601196289,-0.18563100695610046
1758273176773647600,7.294647705078125,-1.0597641468048096,-1.4084094762802124,0.4611426889896393
1758273176783605500,7.30460546875,-1.5459604263305664,-1.067211389541626,1.4905362129211426
1758273176793562600,7.314562744140625,-2.079770565032959,-0.033887121826410294,2.406752347946167
1758273176803520800,7.324520751953125,-2.1367409229278564,0.8245450854301453,2.598829507827759
1758273176813478700,7.334478759765625,-2.0304315090179443,1.1236298084259033,2.099212408065796
1758273176823435500,7.344435546875,-1.7903430461883545,1.547541856765747,1.439181923866272
1758273176833393700,7.3543935546875,-1.6903784275054932,1.8361397981643677,1.1748509407043457
1758273176843351600,7.3643515625,-1.595900535583496,2.0403072834014893,1.0718921422958374
1758273176853309700,7.374309814453125,-1.4154671430587769,2.213181734085083,1.1378620862960815
1758273176863266800,7.384266845703125,-1.301218867301941,2.3488359451293945,1.466413974761963
1758273176873224700,7.394224609375,-1.179871678352356,2.7363855838775635,1.9408092498779297
1758273176883182800,7.404182861328125,-0.9216687083244324,3.6138205528259277,2.1668012142181396
1758273176893139700,7.4141396484375,-0.43251821398735046,4.8002142906188965,1.9707468748092651
1758273176903097600,7.42409765625,0.1650819331407547,5.5677080154418945,1.347508430480957
1758273176913055700,7.4340556640625,0.6198872327804565,5.604203224182129,0.27256906032562256
1758273176923013600,7.444013671875,0.9395200610160828,4.523946285247803,-1.195165991783142
1758273176932970800,7.453970703125,1.0666100978851318,1.5159704685211182,-2.4521615505218506
1758273176942928600,7.4639287109375,0.8772473931312561,-3.259284257888794,-3.871204137802124
1758273176952886500,7.473886474609375,1.0333354473114014,-6.168418884277344,-5.641534805297852
1758273176962843600,7.48384375,1.8421484231948853,-5.171507835388184,-5.5799784660339355
1758273176972801800,7.4938017578125,2.418001174926758,0.897787868976593,-2.553239107131958
1758273176982759700,7.503759765625,1.1378874778747559,3.8137593269348145,0.10098236799240112
1758273176992717800,7.5137177734375,-0.40865540504455566,2.1636364459991455,1.562016487121582
1758273177002674700,7.5236748046875,-1.2093089818954468,0.5668383836746216,2.2846126556396484
1758273177012632600,7.533632568359375,-1.3376544713974,0.3636719584465027,2.565052032470703
1758273177022590700,7.5435908203125,-1.0911297798156738,1.4142814874649048,2.8400192260742188
1758273177032547800,7.5535478515625,-0.6608327031135559,2.7504043579101562,3.1614816188812256
1758273177042505700,7.563505615234375,0.11892440915107727,4.039071083068848,3.4349417686462402
1758273177052463600,7.573463623046875,1.135982632637024,5.163599014282227,3.6774237155914307
1758273177062421500,7.58342138671875,1.4014413356781006,5.8228254318237305,3.7956528663635254
1758273177072378600,7.593378662109375,0.23889221251010895,5.387876033782959,3.5528597831726074
1758273177082336800,7.603336669921875,-1.0467778444290161,3.8309690952301025,3.574251890182495
1758273177092294700,7.613294677734375,-1.5643755197525024,2.0734081268310547,4.255716800689697
1758273177102251500,7.62325146484375,-1.6380841732025146,1.6355094909667969,5.281341552734375
1758273177112209700,7.633209716796875,-1.7626776695251465,2.6425137519836426,5.566964626312256
1758273177122167600,7.64316748046875,-1.7442951202392578,3.794800281524658,4.643202304840088
1758273177132125700,7.653125732421875,-1.3762478828430176,4.149064064025879,3.354353427886963
1758273177142082800,7.663082763671875,-0.6197957992553711,3.1607704162597656,2.633430242538452
1758273177152040700,7.673040771484375,0.11640924960374832,1.283482313156128,2.686245918273926
1758273177161998800,7.682998779296875,0.5515540838241577,-0.16101215779781342,2.856619119644165
1758273177171956500,7.69295654296875,0.8772839307785034,-0.8213232159614563,2.308154821395874
1758273177181913600,7.70291357421875,1.119186520576477,-0.6194725632667542,1.0487300157546997
1758273177191871700,7.712871826171875,1.1896032094955444,0.6763672828674316,0.2991902828216553
1758273177201829600,7.72282958984375,1.1182966232299805,2.2808423042297363,0.32692810893058777
1758273177211786800,7.732786865234375,0.7648464441299438,2.7890119552612305,0.7380219101905823
1758273177221744600,7.74274462890625,0.2087627649307251,2.8093276023864746,1.2094273567199707
1758273177231702500,7.75270263671875,-0.09292731434106827,2.594723701477051,1.280391812324524
1758273177241660700,7.76266064453125,-0.05921923369169235,1.2924010753631592,0.5841531157493591
1758273177251617800,7.77261767578125,-0.009109992533922195,-0.17382517457008362,-0.448650598526001
1758273177261575700,7.78257568359375,-0.06009660288691521,-0.5704854130744934,-1.1005094051361084
1758273177271533800,7.792533935546875,-0.23328834772109985,-0.3857959806919098,-1.526724100112915
1758273177281490700,7.80249072265625,-0.5144152641296387,-0.23673079907894135,-1.8689320087432861
1758273177291448600,7.812448486328125,-0.8746357560157776,-0.5311030149459839,-2.330808401107788
1758273177301406700,7.82240673828125,-0.8970428109169006,-1.0228204727172852,-2.8070273399353027
1758273177311364600,7.832364501953125,-0.6124705076217651,-1.1650010347366333,-2.9757602214813232
1758273177321321700,7.84232177734375,-0.2935654819011688,-0.48620277643203735,-2.6960599422454834
1758273177331280000,7.85227978515625,-0.0769471526145935,-0.14916084706783295,-2.3149702548980713
1758273177341237500,7.862237548828125,0.12294121086597443,-1.0059200525283813,-2.2813704013824463
1758273177351194600,7.872194580078125,0.49765756726264954,-3.0942327976226807,-2.847843885421753
1758273177361153000,7.882153076171875,1.0581804513931274,-4.800373554229736,-3.4717209339141846
1758273177371111200,7.892111083984375,1.647393822669983,-5.410336017608643,-3.9513258934020996
1758273177381069000,7.902069091796875,2.042652130126953,-5.657656192779541,-4.666141986846924
1758273177391026200,7.912026123046875,2.1301932334899902,-6.556637763977051,-5.422232627868652
1758273177400984000,7.921984130859375,1.5878851413726807,-8.476114273071289,-5.816864490509033
1758273177410942000,7.93194189453125,0.6708746552467346,-10.15832233428955,-5.276182174682617
1758273177420899000,7.941899169921875,0.6122702956199646,-9.454935073852539,-4.2099175453186035
1758273177430857200,7.951857177734375,1.5428893566131592,-5.723053455352783,-3.2388839721679688
1758273177440815000,7.961815185546875,2.36030912399292,-1.4833950996398926,-2.633833646774292
1758273177450773200,7.971773193359375,2.1366777420043945,1.2478307485580444,-2.7677059173583984
1758273177460730000,7.981730224609375,1.7879793643951416,2.040846586227417,-3.052941083908081
1758273177470688000,7.99168798828125,1.3650568723678589,0.9703037738800049,-3.16261887550354
1758273177480646100,8.001646240234376,0.774914562702179,-1.721894383430481,-2.909832000732422
1758273177490603300,8.011603271484375,0.1592942476272583,-4.522004127502441,-2.3425791263580322
1758273177500561200,8.02156103515625,-0.5279901623725891,-6.324314594268799,-1.5568716526031494
1758273177510519000,8.03151904296875,-1.068210482597351,-5.699481964111328,-1.0071710348129272
1758273177520477200,8.041477294921876,-1.2282017469406128,-3.6708950996398926,-0.9206272959709167
1758273177530434000,8.05143408203125,-1.139621615409851,-1.8721704483032227,-0.9275349974632263
1758273177540392200,8.06139208984375,-1.3645845651626587,-1.2208025455474854,-0.5531243085861206
1758273177550350000,8.07135009765625,-1.9800945520401,-0.9479495286941528,0.3901849091053009
1758273177560307200,8.08130712890625,-2.377180814743042,-0.1917785257101059,1.4500398635864258
1758273177570265000,8.09126513671875,-2.506564140319824,0.8366793990135193,2.225342035293579
1758273177580223000,8.101222900390624,-2.331634521484375,1.0458741188049316,2.233884334564209
1758273177590181000,8.11118115234375,-2.045957088470459,0.9715763926506042,1.7467974424362183
1758273177600138200,8.12113818359375,-1.933591365814209,1.3342070579528809,1.4346760511398315
1758273177610096000,8.13109619140625,-1.9079724550247192,1.657651424407959,1.370608925819397
1758273177620054300,8.14105419921875,-1.807253360748291,1.984854817390442,1.4498075246810913
1758273177630011100,8.15101123046875,-1.5864509344100952,2.500602960586548,1.6955054998397827
1758273177639969000,8.160968994140624,-1.2995555400848389,2.9089534282684326,2.044022798538208
1758273177649927200,8.17092724609375,-0.9612512588500977,3.4491302967071533,2.079927444458008
1758273177659885000,8.180885009765625,-0.4909704029560089,4.371021270751953,1.6856509447097778
1758273177669842200,8.19084228515625,0.026560362428426743,4.724728584289551,0.975125789642334
1758273177679800000,8.200800048828125,0.4536813199520111,4.1609206199646,0.0012126972433179617
1758273177689758000,8.210758056640625,0.8640046119689941,2.6685843467712402,-1.0714232921600342
1758273177699716000,8.220716064453125,1.2014621496200562,-0.4340614080429077,-2.18222975730896
1758273177709673200,8.230673095703125,1.4708589315414429,-4.142409324645996,-4.0232977867126465
1758273177719631000,8.240631103515625,1.5863183736801147,-5.0705342292785645,-5.365701198577881
1758273177729589200,8.25058935546875,1.9392658472061157,-3.046661853790283,-4.402053356170654
1758273177739546000,8.260546142578125,2.2831499576568604,1.6120274066925049,-1.9423410892486572
1758273177749504000,8.27050390625,1.5294418334960938,3.928602933883667,0.19158942997455597
1758273177759462100,8.280462158203125,0.06926247477531433,2.9262895584106445,1.5186221599578857
1758273177769419300,8.290419189453125,-0.7989059090614319,1.868013858795166,2.4370968341827393
1758273177779377200,8.300377197265625,-1.0296554565429688,1.1476266384124756,2.9041566848754883
1758273177789335300,8.310335205078125,-0.6053656935691833,0.2969774901866913,2.9136085510253906
1758273177799293000,8.32029296875,-0.023483093827962875,0.21251560747623444,2.668860912322998
1758273177809250000,8.33025,0.21791328489780426,2.2352657318115234,3.1617391109466553
1758273177819208200,8.340208251953126,0.03737496957182884,4.384867191314697,3.9972035884857178
1758273177829166000,8.350166015625,-0.4519079029560089,5.219407081604004,4.638324737548828
1758273177839124200,8.360124267578126,-1.2091314792633057,5.265092372894287,4.718884468078613
1758273177849081000,8.3700810546875,-1.8396461009979248,5.210205078125,4.393985748291016
1758273177859039000,8.3800390625,-1.9767999649047852,4.538007736206055,3.9618844985961914
1758273177868997000,8.3899970703125,-1.7895389795303345,3.1489362716674805,4.073769569396973
1758273177878954200,8.399954345703126,-1.5318176746368408,2.080711841583252,5.090890407562256
1758273177888912100,8.409912109375,-1.1515552997589111,2.585794687271118,5.273736000061035
1758273177898870300,8.419870361328124,-0.8096872568130493,3.46376633644104,4.385152339935303
1758273177908828200,8.429828125,-0.6566593647003174,3.737128496170044,3.0933279991149902
1758273177918785000,8.439784912109374,-0.39384305477142334,2.8833584785461426,2.50093412399292
1758273177928743200,8.4497431640625,-0.02369028888642788,1.6255067586898804,2.6307568550109863
1758273177938701000,8.459701171875,0.2754804491996765,1.0786329507827759,2.556852102279663
1758273177948658200,8.469658203125,0.5810233354568481,1.1884849071502686,1.9379348754882812
1758273177958616300,8.4796162109375,0.7645078301429749,1.5955771207809448,0.9463322758674622
1758273177968574000,8.489573974609375,0.8227601647377014,2.5089268684387207,0.22872117161750793
1758273177978532000,8.499531982421875,0.6587652564048767,3.162273645401001,0.03317876160144806
1758273177988489200,8.5094892578125,0.3925018906593323,3.238399028778076,0.13196152448654175
1758273177998447000,8.519447021484375,0.03326241299510002,2.4736168384552,0.36802342534065247
1758273178008405200,8.5294052734375,-0.1820988953113556,0.6686432957649231,0.44703301787376404
1758273178018362000,8.539362060546875,-0.26769983768463135,-0.9066801071166992,0.17471294105052948
1758273178028320000,8.549320068359375,-0.40629100799560547,-1.4345234632492065,-0.49386194348335266
1758273178038278100,8.559278076171875,-0.619412362575531,-1.550039529800415,-1.2638921737670898
1758273178048236000,8.569236083984375,-0.8795938491821289,-1.9956176280975342,-1.9917601346969604
1758273178058193200,8.579193115234375,-1.0616251230239868,-2.855914831161499,-2.755460739135742
1758273178068151300,8.5891513671875,-0.8486698269844055,-3.1680045127868652,-3.1533408164978027
1758273178078109200,8.599109130859375,-0.3751744031906128,-2.6478993892669678,-3.0377113819122314
1758273178088066000,8.609066162109375,0.10392426699399948,-1.447751760482788,-2.605384349822998
1758273178098024200,8.619024169921875,0.3526569604873657,-0.36735886335372925,-2.228034019470215
1758273178107982000,8.628982177734375,0.4704456329345703,-0.10770250856876373,-2.219926118850708
1758273178117940200,8.638940185546875,0.703380823135376,-0.9177992343902588,-2.6508100032806396
1758273178127897300,8.6488974609375,1.0863710641860962,-2.899975061416626,-3.0695672035217285
1758273178137855000,8.65885498046875,1.6581578254699707,-4.781191825866699,-3.6839067935943604
1758273178147813000,8.668813232421876,2.1045429706573486,-5.32815408706665,-4.125439643859863
1758273178157770200,8.678770263671876,2.1911299228668213,-5.393590927124023,-4.76786994934082
1758273178167728000,8.68872802734375,1.8140515089035034,-6.105517864227295,-5.3788676261901855
1758273178177686300,8.698686279296876,1.2152104377746582,-7.511692523956299,-5.36241340637207
1758273178187644200,8.70864404296875,0.6120462417602539,-8.16433048248291,-4.738214015960693
1758273178197601000,8.71860107421875,0.8938199877738953,-6.65412712097168,-3.7880446910858154
1758273178207559200,8.72855908203125,1.6620862483978271,-3.246267080307007,-3.063037872314453
1758273178217517000,8.73851708984375,1.8192980289459229,-0.4236910939216614,-2.9633216857910156
1758273178227474200,8.74847412109375,1.5801857709884644,0.9260019063949585,-3.2159128189086914
1758273178237432300,8.758432373046874,1.2968122959136963,1.2102036476135254,-3.469846725463867
1758273178247390000,8.768389892578124,0.8516291975975037,-0.6529134511947632,-3.042029619216919
1758273178257348000,8.77834814453125,0.15319427847862244,-3.2408287525177,-1.9504576921463013
1758273178267305200,8.78830517578125,-0.6793050765991211,-4.8015618324279785,-1.0809587240219116
1758273178277263000,8.79826318359375,-1.282904863357544,-4.8978800773620605,-0.6078935861587524
1758273178287221200,8.80822119140625,-1.46867036819458,-4.0450615882873535,-0.42387154698371887
1758273178297178000,8.81817822265625,-1.2639821767807007,-2.9489223957061768,-0.2809063196182251
1758273178307136000,8.828135986328125,-1.0631604194641113,-2.3518943786621094,-0.12616491317749023
1758273178317094100,8.83809423828125,-1.235333800315857,-1.5498391389846802,0.32629477977752686
1758273178327052000,8.848052001953125,-1.701499581336975,-0.3578681945800781,1.078535795211792
1758273178337009200,8.858009033203125,-2.0520105361938477,0.7399173974990845,1.9161869287490845
1758273178346967300,8.86796728515625,-1.9124521017074585,1.2631676197052002,2.413817882537842
1758273178356924400,8.87792431640625,-1.6654020547866821,1.3439439535140991,2.218128204345703
1758273178366881500,8.887881591796875,-1.4827059507369995,1.436771035194397,1.8284599781036377
1758273178376839700,8.897839599609375,-1.4224458932876587,1.6553246974945068,1.5790092945098877
1758273178386797600,8.907797607421875,-1.4574636220932007,1.853158712387085,1.4402554035186768
1758273178396755700,8.917755615234375,-1.4765082597732544,2.279468059539795,1.4900492429733276
1758273178406712600,8.927712646484375,-1.3883006572723389,2.882324695587158,1.802014946937561
1758273178416670500,8.93767041015625,-1.1775256395339966,3.535757303237915,2.1114208698272705
1758273178426628600,8.947628662109375,-0.9374746680259705,4.640093803405762,2.042635202407837
1758273178436585700,8.957585693359375,-0.5297596454620361,5.386649131774902,1.3381850719451904
1758273178446543600,8.967543701171875,-0.11342181265354156,5.294534683227539,0.08076994866132736
1758273178456501800,8.977501708984375,0.29185548424720764,4.02260684967041,-1.2982745170593262
1758273178466458600,8.987458740234375,0.6672839522361755,1.9230294227600098,-2.3206987380981445
1758273178476416500,8.99741650390625,0.7864031195640564,-1.1487927436828613,-3.1528680324554443
1758273178486374700,9.007374755859376,0.7828030586242676,-4.352585792541504,-4.28551721572876
1758273178496332500,9.01733251953125,0.8211591839790344,-4.816483020782471,-4.501565456390381
1758273178506289700,9.02728955078125,1.362748146057129,-1.8480316400527954,-3.2479097843170166
1758273178516247800,9.037247802734376,2.0869953632354736,3.603407621383667,-1.1602115631103516
1758273178526205400,9.047205322265626,1.4857466220855713,4.602158069610596,0.10359765589237213
1758273178536162600,9.05716259765625,0.21872717142105103,1.9652413129806519,1.0862913131713867
1758273178546120700,9.06712060546875,-0.527470588684082,0.08790549635887146,1.875442385673523
1758273178556078600,9.07707861328125,-0.7214565277099609,-0.9134731888771057,2.2050070762634277
1758273178566036700,9.08703662109375,-0.04501626640558243,-0.23548297584056854,2.759141206741333
1758273178575993600,9.09699365234375,0.6815568208694458,1.8181746006011963,3.0069262981414795
1758273178585951500,9.106951416015624,0.9461016654968262,3.439845323562622,2.8714680671691895
1758273178595909600,9.11690966796875,0.9469961524009705,4.7635016441345215,2.8752782344818115
1758273178605866800,9.12686669921875,0.5256070494651794,5.590146064758301,3.5420145988464355
1758273178615824600,9.13682470703125,-0.40869805216789246,5.291953086853027,4.745344638824463
1758273178625782800,9.14678271484375,-0.9678673148155212,4.821259498596191,5.385260581970215
1758273178635740700,9.15674072265625,-1.23988676071167,3.95173978805542,5.124918460845947
1758273178645697500,9.166697509765624,-1.5091147422790527,2.927107095718384,4.758747577667236
1758273178655655700,9.17665576171875,-1.6707278490066528,2.3088879585266113,4.7313313484191895
1758273178665613600,9.186613525390625,-1.452316164970398,2.584523916244507,4.628103256225586
1758273178675570700,9.19657080078125,-1.041743278503418,3.2354021072387695,4.173600673675537
1758273178685528800,9.20652880859375,-0.7287251949310303,3.1943604946136475,3.38920521736145
1758273178695486500,9.216486572265625,-0.3949179947376251,1.828553318977356,2.842731475830078
1758273178705444600,9.226444580078125,0.04434298723936081,0.3265663981437683,2.7436678409576416
1758273178715401700,9.236401611328125,0.3771759271621704,-0.15298399329185486,2.582202911376953
1758273178725359600,9.246359619140625,0.6498103737831116,0.16304907202720642,2.11250901222229
1758273178735317800,9.25631787109375,0.9940001368522644,0.6829491257667542,1.3894766569137573
1758273178745274600,9.266274658203125,1.1684800386428833,1.253219485282898,0.5802235007286072
1758273178755232500,9.276232421875,1.0430481433868408,2.3517141342163086,0.33507412672042847
1758273178765190700,9.286190673828125,0.5294447541236877,3.2812740802764893,0.6022586822509766
1758273178775148500,9.2961484375,0.1433618664741516,3.7361490726470947,0.8473860621452332
1758273178785105700,9.306105712890625,-0.12306129187345505,2.8105275630950928,0.7044156193733215
1758273178795063800,9.316063720703125,-0.18400736153125763,0.8882666826248169,0.20402942597866058
1758273178805021700,9.326021728515625,-0.2955234944820404,0.15763001143932343,-0.3140387535095215
1758273178814978600,9.335978515625,-0.4766903817653656,0.4835505187511444,-0.8128490447998047
1758273178824936700,9.345936767578126,-0.7550653219223022,0.8531054258346558,-1.2384319305419922
1758273178834894600,9.35589453125,-1.1462106704711914,0.09049726277589798,-1.982743740081787
1758273178844852700,9.365852783203126,-1.5024691820144653,-1.6180305480957031,-3.0885305404663086
1758273178854809900,9.375809814453126,-1.2747383117675781,-2.4206795692443848,-3.4862914085388184
1758273178864767500,9.385767578125,-0.6617931127548218,-2.260988712310791,-3.1618266105651855
1758273178874725600,9.3957255859375,-0.06873487681150436,-1.748034954071045,-2.6545357704162598
1758273178884682800,9.405682861328126,0.42570123076438904,-1.8018829822540283,-2.5416064262390137
1758273178894640600,9.415640625,0.7738065123558044,-2.3335092067718506,-2.7477431297302246
1758273178904598800,9.425598876953124,0.9844151735305786,-3.5802032947540283,-2.9359092712402344
1758273178914555600,9.4355556640625,1.2065119743347168,-4.6546711921691895,-3.83071231842041
1758273178924513500,9.445513427734374,1.4208743572235107,-5.81741189956665,-4.817797660827637
1758273178934471700,9.4554716796875,1.4284073114395142,-7.051717281341553,-5.166076183319092
1758273178944429600,9.4654296875,0.546451210975647,-8.988258361816406,-4.930171966552734
1758273178954386700,9.47538671875,-0.18058626353740692,-10.87874698638916,-4.386258602142334
1758273178964344800,9.4853447265625,0.48756009340286255,-10.587454795837402,-3.7402589321136475
1758273178974302500,9.495302490234375,1.8173437118530273,-6.8749871253967285,-3.2213385105133057
1758273178984259600,9.505259521484374,2.6577398777008057,-1.449972152709961,-2.7130982875823975
1758273178994217700,9.5152177734375,2.5258588790893555,1.45168936252594,-2.58880352973938
1758273179004175600,9.525175537109375,1.9349374771118164,2.097085475921631,-2.4652323722839355
1758273179014133800,9.5351337890625,1.2381054162979126,0.6972571015357971,-2.2371301651000977
1758273179024090600,9.545090576171875,0.5523398518562317,-1.5922893285751343,-1.9413648843765259
1758273179034048500,9.555048583984375,0.062268126755952835,-4.297226905822754,-1.3117551803588867
1758273179044006700,9.565006591796875,-0.6344946622848511,-5.573585033416748,-0.9690670967102051
1758273179053963800,9.5749638671875,-1.1284364461898804,-5.614777088165283,-0.8227618336677551
1758273179063921700,9.584921630859375,-1.0648362636566162,-4.453528881072998,-0.8301015496253967
1758273179073879800,9.5948798828125,-0.7443203926086426,-3.2303755283355713,-0.9190645813941956
1758273179083837700,9.604837646484375,-0.5200220346450806,-1.9701268672943115,-0.8851876258850098
1758273179093794600,9.614794677734375,-0.6908038854598999,-0.6602980494499207,-0.43550431728363037
1758273179103752700,9.624752685546875,-1.4561095237731934,0.5495458841323853,0.4263513386249542
1758273179113710600,9.634710693359375,-1.763305902481079,1.2948112487792969,1.4072664976119995
1758273179123667700,9.644667724609375,-1.692846655845642,1.620126485824585,1.8200194835662842
1758273179133625900,9.6546259765625,-1.5545645952224731,1.6496601104736328,1.7003393173217773
1758273179143583500,9.66458349609375,-1.4246809482574463,1.8233954906463623,1.4611467123031616
1758273179153541600,9.674541748046876,-1.3877582550048828,2.0237162113189697,1.2461628913879395
1758273179163498800,9.684498779296876,-1.326467514038086,2.147918701171875,1.217742681503296
1758273179173456600,9.69445654296875,-1.1899151802062988,2.2704179286956787,1.5092008113861084
1758273179183414800,9.704414794921876,-1.0200799703598022,2.383556365966797,1.9247459173202515
1758273179193371600,9.71437158203125,-0.8962582349777222,2.5596768856048584,2.1952083110809326
1758273179203329500,9.72432958984375,-0.7219908237457275,3.1900434494018555,2.1786184310913086
1758273179213287700,9.73428759765625,-0.366603285074234,4.123623847961426,1.7165199518203735
1758273179223244500,9.74424462890625,0.0647590234875679,4.844964027404785,0.5676522254943848
1758273179233202700,9.75420263671875,0.5461628437042236,4.3675971031188965,-1.0388692617416382
1758273179243160800,9.764160888671874,1.0155080556869507,1.6818046569824219,-2.256319999694824
1758273179253118700,9.77411865234375,1.201236367225647,-2.8572702407836914,-3.615817070007324
1758273179263075600,9.78407568359375,1.407829999923706,-6.013204574584961,-4.988981246948242
1758273179273033700,9.79403369140625,1.5913922786712646,-5.942317962646484,-4.95100212097168
1758273179282991600,9.80399169921875,1.9791107177734375,-1.7785649299621582,-3.1484568119049072
1758273179292948700,9.81394873046875,2.4186978340148926,4.747918605804443,-0.4766251742839813
1758273179302906600,9.82390673828125,1.669044017791748,6.199191570281982,0.9475724101066589
1758273179312864500,9.833864501953125,0.13820156455039978,4.170989036560059,1.7702261209487915
1758273179322822700,9.84382275390625,-0.7681390047073364,2.282971143722534,2.5516717433929443
1758273179332779500,9.853779541015625,-1.11614990234375,-1.6294469833374023,1.790661334991455
1758273179342737700,9.863737548828125,-0.5694562792778015,-1.688952088356018,2.405210256576538
1758273179352695800,9.87369580078125,-0.2293822318315506,0.21364861726760864,2.8916633129119873
1758273179362653700,9.88365380859375,-0.3787408471107483,2.7696950435638428,2.676173686981201
1758273179372611800,9.89361181640625,-0.35301101207733154,4.610738277435303,2.8612117767333984
1758273179382569700,9.90356982421875,0.05079130083322525,5.936313629150391,3.333320379257202
1758273179392526800,9.91352685546875,0.33454009890556335,6.321722984313965,3.854659080505371
1758273179402484700,9.923484619140625,-0.13748523592948914,5.878365993499756,4.094491004943848
1758273179412442600,9.933442626953125,-0.993153989315033,4.465071678161621,4.141021251678467
1758273179422400800,9.94340087890625,-1.4829097986221313,2.4401652812957764,4.564213275909424
1758273179432358000,9.95335791015625,-1.5919150114059448,1.0163078308105469,5.1302490234375
1758273179442315800,9.963315673828125,-1.525608777999878,0.7341611385345459,4.828700065612793
1758273179452274000,9.97327392578125,-1.3015778064727783,1.3819993734359741,3.8917882442474365
1758273179462230800,9.983230712890625,-0.9168821573257446,2.0159475803375244,3.2542226314544678
1758273179472188700,9.993188720703126,-0.45036977529525757,2.177457571029663,3.104325532913208
1758273179482146800,10.003146728515626,-0.08569913357496262,1.9866048097610474,3.094414234161377
1758273179492104700,10.013104736328126,0.04944738373160362,1.6203118562698364,2.834047555923462
1758273179502061800,10.023061767578126,0.21941432356834412,1.7266151905059814,2.3343183994293213
1758273179512020000,10.03302001953125,0.5206044316291809,1.9670798778533936,1.6463099718093872
1758273179521977600,10.0429775390625,0.7237551212310791,2.784576654434204,1.0078959465026855
1758273179531934700,10.052934814453126,0.657728374004364,3.7343428134918213,0.5435217022895813
1758273179541892900,10.062892822265624,0.37502390146255493,3.9407992362976074,0.26117998361587524
1758273179551850800,10.072850830078124,0.0105013158172369,2.8731868267059326,0.3406335115432739
1758273179561809000,10.082808837890624,-0.2137048840522766,0.5462422370910645,0.7590569257736206
1758273179571765800,10.092765869140624,-0.30944177508354187,-1.2266147136688232,0.8364806175231934
1758273179581723600,10.1027236328125,-0.5428552627563477,-1.6092661619186401,0.16336821019649506
1758273179591681800,10.112681884765625,-0.8439908623695374,-1.7757877111434937,-0.8027179837226868
1758273179601639000,10.122638916015624,-1.1593583822250366,-2.5289764404296875,-1.9545633792877197
1758273179611596800,10.1325966796875,-1.2769138813018799,-3.6505768299102783,-3.1274032592773438
1758273179621555000,10.142554931640625,-0.9205935001373291,-4.108684062957764,-3.7735185623168945
1758273179631511800,10.15251171875,-0.25323987007141113,-3.319727659225464,-3.625335693359375
1758273179641469700,10.1624697265625,0.586350679397583,-1.9117209911346436,-3.041201591491699
1758273179651427800,10.172427734375,1.3033528327941895,-1.437907099723816,-2.6665618419647217
1758273179661385700,10.1823857421875,1.842311143875122,-2.0765883922576904,-2.681802749633789
1758273179671342800,10.1923427734375,2.158944845199585,-2.775148391723633,-2.9234073162078857
1758273179681301000,10.202301025390625,1.7108491659164429,-3.4144725799560547,-3.6138978004455566
1758273179691258600,10.212258544921875,0.6007270812988281,-4.009199619293213,-4.701719284057617
1758273179701215700,10.2222158203125,0.2499605268239975,-4.82728385925293,-5.457192897796631
1758273179711174000,10.232173828125,0.7069914937019348,-6.667502403259277,-5.73366117477417
1758273179721131800,10.2421318359375,1.380247950553894,-9.036972999572754,-5.113571643829346
1758273179731090000,10.25208984375,2.0185301303863525,-9.750235557556152,-3.9061896800994873
1758273179741046800,10.262046875,2.4167346954345703,-7.029378414154053,-3.0842502117156982
1758273179751004700,10.272004638671875,2.522291898727417,-2.1087634563446045,-2.725280523300171
1758273179760962800,10.281962890625,2.44319224357605,1.5298978090286255,-2.9593453407287598
1758273179770919700,10.291919677734375,2.376699447631836,2.9622714519500732,-3.0472583770751953
1758273179780877800,10.3018779296875,1.3702019453048706,2.2849342823028564,-2.742189407348633
1758273179790836000,10.3118359375,0.13505274057388306,-0.8934097290039062,-1.8843104839324951
1758273179800792600,10.32179248046875,-0.6658985018730164,-3.8052968978881836,-1.1367172002792358
1758273179810750700,10.331750732421876,-1.283697485923767,-5.338289737701416,-0.7033248543739319
1758273179820708900,10.341708984375,-1.525999665260315,-5.36842679977417,-0.6803193688392639
1758273179830666800,10.351666748046876,-1.3433482646942139,-4.867793083190918,-0.8338295817375183
1758273179840623900,10.361623779296876,-0.9909303188323975,-3.5696842670440674,-1.116191029548645
1758273179850581800,10.371581787109376,-0.9728788137435913,-1.9790573120117188,-1.2066899538040161
1758273179860539600,10.38153955078125,-1.3896714448928833,-0.9093291163444519,-0.9878165125846863
1758273179870496800,10.391496826171876,-1.9349673986434937,-0.03204462677240372,-0.28903308510780334
1758273179880454700,10.40145458984375,-2.1512391567230225,1.1383947134017944,1.0458787679672241
1758273179890412800,10.411412841796874,-2.2650623321533203,1.6542085409164429,1.8566287755966187
1758273179900371000,10.421370849609374,-2.069359540939331,1.458892822265625,1.9385300874710083
1758273179910327600,10.43132763671875,-1.788804292678833,1.421372652053833,1.7371021509170532
1758273179920285700,10.44128564453125,-1.630642056465149,1.5306389331817627,1.5422279834747314
1758273179930243800,10.451243896484375,-1.547171711921692,1.4749929904937744,1.3154958486557007
1758273179940200700,10.46120068359375,-1.4144458770751953,1.5104689598083496,1.2042409181594849
1758273179950158800,10.471158935546875,-1.079288125038147,1.3738826513290405,1.450141429901123
1758273179960116700,10.48111669921875,-0.6793816089630127,1.173348307609558,1.9297775030136108
1758273179970073600,10.491073486328125,-0.3207893669605255,1.2465169429779053,2.15537166595459
1758273179980031700,10.50103173828125,-0.15784892439842224,1.7606040239334106,1.7951760292053223
1758273179989989600,10.51098974609375,-0.010546296834945679,2.719010353088379,0.8146415948867798
1758273179999947800,10.52094775390625,0.21120020747184753,3.0583138465881348,-0.5289125442504883
1758273180009905000,10.53090478515625,0.6796973943710327,1.91038978099823,-1.8055976629257202
1758273180019862800,10.54086279296875,1.0301315784454346,-0.5464838743209839,-3.163271903991699
1758273180029820700,10.550820556640625,1.2470293045043945,-3.1611688137054443,-4.5226311683654785
1758273180039777800,10.56077783203125,1.4986377954483032,-3.785097599029541,-4.777510643005371
1758273180049735700,10.570735595703125,2.1389095783233643,-1.0306626558303833,-3.151099443435669
1758273180059693800,10.58069384765625,3.012176275253296,4.717828273773193,-0.3735395669937134
1758273180069652000,10.59065185546875,2.507021903991699,7.093823432922363,1.6621499061584473
1758273180079608600,10.600608642578125,0.8757697939872742,4.862137794494629,2.69423508644104
1758273180089566700,10.610566650390625,0.230721116065979,-2.051203966140747,0.549231767654419
1758273180099524900,10.62052490234375,-0.3747149705886841,-3.716376543045044,0.55520099401474
1758273180109481700,10.630481689453125,-0.33126965165138245,-1.319217562675476,1.4201314449310303
1758273180119440000,10.64043994140625,-0.3211680054664612,1.4769673347473145,1.7892884016036987
1758273180129397800,10.650397705078126,-0.6008949279785156,3.5153849124908447,1.8384625911712646
1758273180139354600,10.660354736328125,-0.7088238000869751,4.74549674987793,2.257678270339966
1758273180149312800,10.670312744140626,-0.43181055784225464,5.63875675201416,2.8468451499938965
1758273180159270700,10.680270751953126,0.2909700274467468,6.3703107833862305,3.443077802658081
1758273180169228800,10.690228759765626,0.8980206847190857,6.124602317810059,3.9803261756896973
1758273180179186000,10.70018603515625,0.3646278977394104,4.902954578399658,4.267204284667969
1758273180189143600,10.7101435546875,-0.8370657563209534,2.3607418537139893,4.327398300170898
1758273180199101700,10.720101806640624,-1.6009495258331299,0.02974003739655018,4.399648666381836
1758273180209058800,10.730058837890626,-2.0804898738861084,-0.9958449006080627,4.594900131225586
1758273180219016700,10.7400166015625,-2.152423620223999,0.047539252787828445,4.764741897583008
1758273180228974800,10.749974853515624,-1.7633187770843506,1.6432280540466309,4.680459022521973
1758273180238931700,10.759931640625,-1.2845715284347534,2.6347570419311523,4.299042701721191
1758273180248889600,10.7698896484375,-0.7476348280906677,2.9216718673706055,3.8500688076019287
1758273180258847700,10.77984765625,-0.25544753670692444,2.5372228622436523,3.4054908752441406
1758273180268805600,10.7898056640625,0.027253950014710426,1.5720117092132568,2.873566150665283
1758273180278762800,10.7997626953125,0.09809296578168869,0.6335963606834412,2.333678722381592
1758273180288721000,10.809720947265625,0.22051724791526794,0.04522690176963806,1.8128265142440796
1758273180298678800,10.8196787109375,0.38605985045433044,0.2230546921491623,1.3789666891098022
1758273180308635600,10.8296357421875,0.4034050405025482,1.60933518409729,1.113457202911377
1758273180318593800,10.83959375,0.31732234358787537,2.960066556930542,0.8812918663024902
1758273180328551700,10.8495517578125,0.2438274472951889,3.9155023097991943,0.4841518998146057
1758273180338509800,10.859509765625,0.06144006550312042,4.169956207275391,0.09641615301370621
1758273180348467000,10.869467041015625,-0.2646926939487457,3.7335782051086426,-0.20670880377292633
1758273180358424000,10.879424072265625,-0.6661756634712219,2.6862215995788574,-0.6866444945335388
1758273180368382000,10.8893818359375,-0.999419093132019,1.8792803287506104,-1.2321596145629883
1758273180378338800,10.8993388671875,-1.3319616317749023,1.1065443754196167,-1.7954727411270142
1758273180388297000,10.909296875,-1.6893997192382812,-0.23494037985801697,-2.530862808227539
1758273180398254800,10.9192548828125,-1.7106120586395264,-1.6604300737380981,-3.2553181648254395
1758273180408212000,10.9292119140625,-1.3616536855697632,-2.2063605785369873,-3.548919916152954
1758273180418169900,10.939169921875,-0.9479385018348694,-1.8637934923171997,-3.4294233322143555
1758273180428128000,10.9491279296875,-0.38289788365364075,-1.559605598449707,-3.1268038749694824
1758273180438086000,10.9590859375,0.30728691816329956,-2.118086338043213,-2.8816444873809814
1758273180448042800,10.969042724609375,0.8958680629730225,-3.3135123252868652,-2.9221343994140625
1758273180458001000,10.9790009765625,1.6643396615982056,-4.6964802742004395,-3.2696995735168457
1758273180467959000,10.988958984375,2.3230342864990234,-5.921077728271484,-3.84084153175354
1758273180477916000,10.998916015625,2.823153257369995,-6.529416084289551,-4.4302978515625
1758273180487873800,11.008873779296875,3.0322084426879883,-7.441854000091553,-4.717052936553955
1758273180497832000,11.01883203125,1.9272435903549194,-9.737736701965332,-4.574263095855713
1758273180507788800,11.028788818359375,0.7052111625671387,-11.758326530456543,-4.190699577331543
1758273180517747000,11.038746826171876,1.1421055793762207,-10.276350021362305,-3.5782995223999023
1758273180527704800,11.048704833984376,2.1480307579040527,-4.236267566680908,-3.0175604820251465
1758273180537663000,11.0586630859375,2.297311544418335,0.7758404016494751,-2.854642152786255
1758273180547619800,11.068619873046876,1.762609601020813,2.6566550731658936,-2.993802547454834
1758273180557577700,11.07857763671875,1.3695974349975586,2.015223503112793,-3.053955078125
1758273180567535900,11.088535888671874,1.0337687730789185,0.34710341691970825,-2.7218544483184814
1758273180577493000,11.098492919921876,0.392056941986084,-2.2159979343414307,-2.0618772506713867
1758273180587451000,11.108450927734374,-0.1641950011253357,-4.907643795013428,-1.158595085144043
1758273180597409000,11.118408935546874,-0.66463303565979,-6.04121732711792,-0.4843710958957672
1758273180607366000,11.128365966796874,-1.048532247543335,-5.569034576416016,-0.23504966497421265
1758273180617323800,11.13832373046875,-1.2357887029647827,-4.437841415405273,-0.08504524827003479
1758273180627282000,11.148281982421874,-0.9413568377494812,-2.6626687049865723,-0.02169126830995083
1758273180637239800,11.15823974609375,-0.7474023103713989,-1.0227432250976562,-0.1471858024597168
1758273180647197000,11.168197021484374,-1.2321664094924927,-0.17287035286426544,0.057929519563913345
1758273180657154800,11.17815478515625,-2.0752475261688232,0.15273438394069672,0.9510864019393921
1758273180667112700,11.18811279296875,-2.4067881107330322,0.9455979466438293,1.9351532459259033
1758273180677069800,11.19806982421875,-2.361847400665283,1.5664585828781128,1.969161868095398
1758273180687028000,11.208028076171875,-1.9850481748580933,1.7954025268554688,1.4975154399871826
1758273180696985900,11.21798583984375,-1.644425868988037,1.8292677402496338,1.0587663650512695
1758273180706944000,11.227944091796875,-1.4019290208816528,2.067322015762329,0.9023193717002869
1758273180716900900,11.23790087890625,-1.1490787267684937,2.27486515045166,0.9877349138259888
1758273180726858800,11.247858642578125,-0.8175864815711975,2.5013883113861084,1.2972126007080078
1758273180736817000,11.25781689453125,-0.5600740313529968,2.87713360786438,1.6466926336288452
1758273180746774000,11.26777392578125,-0.38026565313339233,3.2856478691101074,1.9009195566177368
1758273180756732000,11.27773193359375,-0.17507655918598175,3.7838544845581055,1.7321581840515137
1758273180766689800,11.287689697265625,0.035834431648254395,3.9900734424591064,1.0188803672790527
1758273180776647000,11.29764697265625,0.2923940420150757,3.5080580711364746,-0.10741360485553741
1758273180786604800,11.307604736328125,0.5884109139442444,2.182659864425659,-1.3032742738723755
1758273180796563000,11.31756298828125,0.8700159788131714,-0.1322537362575531,-2.268317937850952
1758273180806520800,11.327520751953125,1.235044240951538,-2.6285183429718018,-3.302031993865967
1758273180816478000,11.33747802734375,1.5198451280593872,-3.5700621604919434,-4.100915431976318
1758273180826435800,11.347435791015625,1.8075968027114868,-2.372554302215576,-3.770106554031372
1758273180836393700,11.357393798828125,2.351729393005371,1.981704831123352,-1.9633028507232666
1758273180846350800,11.367350830078125,2.2429141998291016,5.825920581817627,-0.01507900096476078
1758273180856309000,11.37730908203125,0.9243906736373901,4.820189952850342,0.7876490950584412
1758273180866267000,11.387266845703126,-0.1217629685997963,2.4578356742858887,1.700127363204956
1758273180876223700,11.3972236328125,-0.5073441863059998,-0.146609365940094,1.9757639169692993
1758273180886182000,11.407181884765626,-0.5964320302009583,-2.138615131378174,2.0239572525024414
1758273180896139800,11.417139892578126,0.08634519577026367,-0.41922658681869507,2.7512927055358887
1758273180906098000,11.427097900390624,0.4878472685813904,2.2488110065460205,2.930307149887085
1758273180916055000,11.437054931640626,0.46139994263648987,3.940048933029175,2.6261134147644043
1758273180926013000,11.447012939453124,0.3094096779823303,4.803966522216797,2.6003377437591553
1758273180935970800,11.456970703125,0.21262240409851074,5.230069160461426,2.935879707336426
1758273180945928000,11.466927978515624,-0.15873169898986816,5.183433532714844,3.45732045173645
1758273180955885800,11.4768857421875,-0.6477858424186707,4.480959415435791,3.8824076652526855
1758273180965844000,11.486843994140624,-1.1222854852676392,2.7447869777679443,4.418276786804199
1758273180975801000,11.496801025390624,-1.4189256429672241,1.434697151184082,4.991543769836426
1758273180985758700,11.5067587890625,-1.673793077468872,1.5118203163146973,5.014338970184326
1758273180995716900,11.516716796875,-1.8025413751602173,2.274852752685547,4.342328071594238
1758273181005674800,11.5266748046875,-1.5215834379196167,2.927506923675537,3.3586506843566895
1758273181015632000,11.5366318359375,-0.9565304517745972,2.406250238418579,2.587782144546509
1758273181025590000,11.546590087890625,-0.3424701988697052,1.0595630407333374,2.3359286785125732
1758273181035548000,11.5565478515625,0.14352649450302124,0.011371386237442493,2.3392744064331055
1758273181045504800,11.5665048828125,0.46656155586242676,-0.3007652163505554,2.2275335788726807
1758273181055463000,11.576462890625,0.6598454117774963,-0.19753846526145935,1.7809638977050781
1758273181065420800,11.5864208984375,0.8152384757995605,0.22348439693450928,1.110653281211853
1758273181075378000,11.5963779296875,0.8106833696365356,0.7784384489059448,0.66353440284729
1758273181085336000,11.606336181640625,0.36070260405540466,1.3551008701324463,0.679679811000824
1758273181095294000,11.6162939453125,-0.0698956623673439,2.0830790996551514,0.8238966464996338
1758273181105251800,11.626251953125,-0.45841342210769653,3.233875036239624,0.9617063999176025
1758273181115209000,11.636208984375,-0.7209199070930481,3.9220495223999023,0.9193365573883057
1758273181125166800,11.646166748046875,-0.941251814365387,3.63647723197937,0.9068019390106201
1758273181135125000,11.656125,-1.1190298795700073,2.4763007164001465,0.6879414916038513
1758273181145082000,11.66608203125,-1.2393282651901245,1.5519521236419678,0.14628079533576965
1758273181155039700,11.676039794921875,-1.3487026691436768,0.7445578575134277,-0.511527419090271
1758273181164998000,11.685997802734375,-1.494351863861084,-0.5104967355728149,-1.26246976852417
1758273181174955000,11.695955078125,-1.6789525747299194,-2.3206124305725098,-2.2532334327697754
1758273181184913000,11.705912841796875,-1.5646215677261353,-3.7383761405944824,-3.0551633834838867
1758273181194871000,11.71587109375,-1.1637095212936401,-4.027916431427002,-3.4087090492248535
1758273181204829000,11.725828857421876,-0.683354914188385,-3.4036500453948975,-3.504495143890381
1758273181214785800,11.735785888671876,-0.032131094485521317,-2.444869041442871,-3.343507766723633
1758273181224744000,11.745743896484376,0.6020243763923645,-2.0560572147369385,-3.1634230613708496
1758273181234701800,11.755701904296876,1.5169869661331177,-3.3088979721069336,-3.5132150650024414
1758273181244659000,11.765658935546876,2.489633321762085,-5.956048965454102,-4.471368789672852
1758273181254617000,11.7756171875,3.1407530307769775,-8.30000114440918,-5.206438064575195
1758273181264575000,11.785574951171874,2.644085168838501,-9.909757614135742,-5.027985572814941
1758273181274531800,11.79553173828125,1.0227476358413696,-11.545485496520996,-4.357180118560791
1758273181284490000,11.805489990234374,0.3276095986366272,-12.703875541687012,-3.928255081176758
1758273181294447900,11.81544775390625,1.055959939956665,-11.29783821105957,-3.4375078678131104
1758273181304406000,11.825406005859374,2.224367141723633,-5.454227447509766,-2.076531171798706
1758273181314363000,11.83536279296875,2.7350103855133057,0.5722224116325378,-2.0796382427215576
1758273181324320800,11.84532080078125,2.48402738571167,3.141815662384033,-2.5985536575317383
1758273181334279000,11.85527880859375,2.052589178085327,2.2221174240112305,-2.5802412033081055
1758273181344235800,11.86523583984375,1.4921644926071167,-0.30812540650367737,-2.1084554195404053
1758273181354194000,11.87519384765625,1.0939271450042725,-2.048961639404297,-1.733452558517456
1758273181364152600,11.885152587890625,0.528220534324646,-3.5577409267425537,-1.307505488395691
1758273181374109400,11.895109375,-0.3350974917411804,-4.01183557510376,-0.8069384694099426
1758273181384067600,11.905067626953125,-1.1232738494873047,-4.030289649963379,-0.3525846600532532
1758273181394025500,11.915025390625,-1.406296730041504,-3.655463933944702,-0.1503109335899353
1758273181403983600,11.924983642578125,-1.2159759998321533,-2.14129638671875,-0.38546013832092285
1758273181413940700,11.934940673828125,-0.984702467918396,-1.02256441116333,-0.5338671803474426
1758273181423898400,11.9448984375,-1.2948695421218872,-0.21840140223503113,-0.030160464346408844
1758273181433856500,11.9548564453125,-2.0112392902374268,0.7077762484550476,1.0795291662216187
1758273181443813600,11.964813720703125,-2.2201433181762695,1.648715853691101,2.2302708625793457
1758273181453771500,11.974771484375,-2.2060885429382324,1.8661152124404907,2.3508174419403076
1758273181463729700,11.984729736328125,-1.8916306495666504,1.4636919498443604,1.6785285472869873
1758273181473686500,11.9946865234375,-1.6405088901519775,1.546209692955017,1.081860899925232
1758273181483644400,12.00464453125,-1.47822105884552,1.7375240325927734,0.8013396263122559
1758273181493602600,12.0146025390625,-1.3013319969177246,1.8246065378189087,0.7533180713653564
1758273181503560400,12.024560546875,-1.084684133529663,2.1228725910186768,1.0044268369674683
1758273181513517600,12.034517578125,-0.8758081793785095,2.5676066875457764,1.3780931234359741
1758273181523475700,12.044475830078126,-0.6920145750045776,3.0949015617370605,1.6300687789916992
1758273181533433600,12.05443359375,-0.4394986927509308,3.80572509765625,1.6930240392684937
1758273181543390500,12.064390380859376,-0.0912170559167862,4.297143459320068,1.3945701122283936
1758273181553348600,12.0743486328125,0.2854766845703125,4.279874801635742,0.4858655333518982
1758273181563306500,12.084306396484376,0.5098540782928467,3.073176860809326,-0.8157384991645813
1758273181573263600,12.094263671875,0.6084517240524292,0.18862655758857727,-1.9059796333312988
1758273181583221800,12.1042216796875,0.7604488134384155,-3.1130521297454834,-3.2967066764831543
1758273181593179400,12.114179443359374,0.9290556907653809,-4.730646133422852,-4.714383125305176
1758273181603137500,12.124137451171874,1.1496530771255493,-3.745755672454834,-4.680872917175293
1758273181613094700,12.1340947265625,1.592325210571289,0.9452247619628906,-2.7125141620635986
1758273181623052500,12.144052490234374,1.4151932001113892,4.799225807189941,-0.4160993695259094
1758273181633010700,12.1540107421875,0.15270064771175385,3.838287115097046,0.6343032717704773
1758273181642967600,12.163967529296874,-0.7370320558547974,1.687859058380127,1.6659499406814575
1758273181652925400,12.173925537109374,-0.8065850734710693,0.599164605140686,2.7062270641326904
1758273181662883600,12.183883544921875,-0.5152183771133423,-1.3889528512954712,2.6090848445892334
1758273181672840700,12.1938408203125,0.06311207264661789,-1.561195731163025,2.5041887760162354
1758273181682798600,12.203798583984375,0.7608039975166321,1.0574771165847778,2.631244659423828
1758273181692756700,12.2137568359375,1.2216036319732666,3.641394853591919,2.6499974727630615
1758273181702714600,12.223714599609375,1.2959834337234497,5.2201714515686035,2.6776068210601807
1758273181712671500,12.23367138671875,0.7563112378120422,6.094614505767822,3.042205333709717
1758273181722629600,12.243629638671875,-0.1541573703289032,6.397830963134766,3.50559663772583
1758273181732587500,12.25358740234375,-0.933448076248169,6.1014533042907715,3.815279722213745
1758273181742544600,12.263544677734375,-1.2284988164901733,4.699288845062256,3.9724535942077637
1758273181752502800,12.273502685546875,-1.3281642198562622,2.7869551181793213,4.314982891082764
1758273181762460400,12.28346044921875,-1.4599910974502563,1.825272798538208,4.631213665008545
1758273181772417500,12.29341748046875,-1.522857427597046,1.8043614625930786,4.343551158905029
1758273181782375700,12.303375732421875,-1.4259713888168335,2.016232490539551,3.860273838043213
1758273181792333600,12.31333349609375,-1.2440344095230103,2.1521530151367188,3.3580880165100098
1758273181802291700,12.323291748046875,-0.9858782887458801,1.2170023918151855,2.921386957168579
1758273181812248600,12.33324853515625,-0.5526056885719299,-0.22479301691055298,2.599323034286499
1758273181822206500,12.34320654296875,-0.07701227813959122,-0.9694172143936157,2.296929359436035
1758273181832164600,12.35316455078125,0.31549134850502014,-0.613448977470398,1.742200493812561
1758273181842121700,12.363121826171875,0.6014822721481323,0.5252741575241089,1.0728614330291748
1758273181852079600,12.37307958984375,0.7326948642730713,1.743589997291565,0.6657964587211609
1758273181862037800,12.383037841796876,0.42450496554374695,2.5220885276794434,0.5350850820541382
1758273181871994400,12.392994384765625,0.013468149118125439,3.316962242126465,0.6049402952194214
1758273181881952500,12.402952392578126,-0.305711954832077,4.211280345916748,0.6287418007850647
1758273181891910700,12.41291064453125,-0.5317353010177612,4.231184482574463,0.7208716869354248
1758273181901867500,12.422867431640626,-0.6788588166236877,3.0676331520080566,0.5645446181297302
1758273181911825700,12.43282568359375,-0.8071086406707764,1.9413529634475708,-0.14030839502811432
1758273181921783600,12.442783447265626,-0.9595887064933777,1.141610860824585,-0.7706277370452881
1758273181931741400,12.452741455078124,-1.1351648569107056,0.10761256515979767,-1.2711375951766968
1758273181941698600,12.462698486328126,-1.33791983127594,-1.297647476196289,-1.9018388986587524
1758273181951656700,12.47265673828125,-1.308016300201416,-2.724543571472168,-2.632772207260132
1758273181961614600,12.482614501953124,-1.0160996913909912,-3.41245698928833,-3.1244122982025146
1758273181971571500,12.492571533203124,-0.6023629903793335,-2.9985177516937256,-3.1937572956085205
1758273181981529600,12.502529541015624,0.06919340044260025,-2.1640636920928955,-3.0466129779815674
1758273181991487500,12.512487548828124,0.8195416927337646,-2.2408556938171387,-3.0227108001708984
1758273182001444600,12.522444580078124,1.5205968618392944,-3.2676279544830322,-3.30329966545105
1758273182011402500,12.532402587890624,1.997021198272705,-4.600766181945801,-3.8250515460968018
1758273182021360600,12.542360595703125,2.1536381244659424,-5.720493316650391,-4.490022659301758
1758273182031318800,12.55231884765625,1.9499930143356323,-6.735457897186279,-4.855068683624268
1758273182041275400,12.562275390625,0.9211814403533936,-8.363348960876465,-4.74563455581665
1758273182051233500,12.572233642578125,-0.08363033831119537,-10.407668113708496,-4.38125467300415
1758273182061191700,12.582191650390625,0.09291806071996689,-11.740180969238281,-3.728616952896118
1758273182071148500,12.5921484375,1.1454298496246338,-9.417295455932617,-2.6496779918670654
