time,seconds_elapsed,z,y,x
1758972485682385000,0.050385009765625,0.8747750520706177,-1.7201652526855469,0.07563754916191101
1758972485692342000,0.060342041015625,0.8722150325775146,-1.9930497407913208,0.3066021502017975
1758972485702300000,0.0702998046875,1.039540410041809,-2.1971893310546875,0.664261519908905
1758972485712257000,0.080257080078125,1.4808692932128906,-2.027395248413086,0.9947185516357422
1758972485722215000,0.09021484375,1.9515957832336426,-1.8524221181869507,1.2305221557617188
1758972485732172000,0.100172119140625,2.290010690689087,-2.1395483016967773,1.5215051174163818
1758972485742130000,0.1101298828125,2.567966938018799,-2.4017601013183594,1.7134699821472168
1758972485752086800,0.120086669921875,2.8497209548950195,-2.7549662590026855,1.8222757577896118
1758972485762045000,0.130044921875,3.0436062812805176,-3.243557929992676,1.9449446201324463
1758972485772002800,0.1400029296875,3.106616735458374,-3.5933756828308105,2.033634901046753
1758972485781960000,0.1499599609375,3.0757603645324707,-3.660630464553833,1.9936645030975342
1758972485791918000,0.15991796875,3.127750873565674,-3.604222536087036,1.8031370639801025
1758972485801875000,0.169875,3.240640640258789,-3.6270320415496826,1.5661485195159912
1758972485811832800,0.179832763671875,3.5141847133636475,-3.768646240234375,1.4689754247665405
1758972485821790000,0.1897900390625,3.7691996097564697,-3.7508292198181152,1.525812029838562
1758972485831748000,0.199748046875,3.8191542625427246,-3.665302276611328,1.6320444345474243
1758972485841705000,0.209705078125,3.7501537799835205,-3.8325939178466797,1.733595848083496
1758972485851662800,0.219662841796875,3.7807180881500244,-4.368758678436279,1.8931504487991333
1758972485861621000,0.22962109375,4.118917465209961,-5.139326095581055,2.1124417781829834
1758972485871577900,0.239577880859375,4.5137505531311035,-5.89699649810791,2.3973450660705566
1758972485881536000,0.249535888671875,4.9349164962768555,-6.304833889007568,2.7744860649108887
1758972485891492900,0.259492919921875,5.308263778686523,-6.374256134033203,2.9799821376800537
1758972485901450800,0.26945068359375,5.425600051879883,-6.03945779800415,3.009544610977173
1758972485911407900,0.279407958984375,5.250011920928955,-5.421324253082275,3.0185303688049316
1758972485921366000,0.289365966796875,5.058867454528809,-4.937519550323486,3.076744556427002
1758972485931323100,0.2993232421875,5.11509895324707,-4.339266300201416,3.239226818084717
1758972485941280800,0.30928076171875,5.368936538696289,-3.630460739135742,3.323352336883545
1758972485951239000,0.319239013671875,5.599806308746338,-3.28529953956604,3.2500085830688477
1758972485961196000,0.329196044921875,5.521065711975098,-3.2683322429656982,3.1708545684814453
1758972485971154000,0.33915380859375,4.888790130615234,-3.5868117809295654,3.191333055496216
1758972485981111000,0.349111083984375,3.6743314266204834,-4.29831600189209,3.032973289489746
1758972485991069000,0.35906884765625,1.809454083442688,-5.476440906524658,1.9960277080535889
1758972486001025800,0.36902587890625,-0.23767824470996857,-6.232016086578369,-0.4225156307220459
1758972486010984000,0.37898388671875,-0.8260518312454224,-5.7339348793029785,-2.1059908866882324
1758972486020941000,0.388941162109375,-0.26102280616760254,-5.25062370300293,-2.6141884326934814
1758972486030899000,0.39889892578125,0.16583557426929474,-4.843352317810059,-2.1259312629699707
1758972486040856800,0.40885693359375,0.46649494767189026,-4.756038665771484,-1.0621609687805176
1758972486050814000,0.41881396484375,0.7889884114265442,-4.828492164611816,-0.0324876606464386
1758972486060771800,0.428771728515625,0.9733572006225586,-4.685692310333252,0.5743532776832581
1758972486070729000,0.43872900390625,1.13442862033844,-4.183435916900635,0.4911516010761261
1758972486080687000,0.44868701171875,1.3461946249008179,-3.059373617172241,-0.005315323825925589
1758972486090644000,0.45864404296875,1.8463242053985596,-1.0989649295806885,-0.24962306022644043
1758972486100601900,0.468601806640625,2.216120958328247,0.4251634478569031,-0.2960400879383087
1758972486110559000,0.47855908203125,1.767311692237854,1.1216845512390137,0.12345679849386215
1758972486120517000,0.48851708984375,1.6256922483444214,0.5020739436149597,0.7123435139656067
1758972486130475000,0.49847509765625,1.8253295421600342,-0.9317046999931335,0.9957084059715271
1758972486140432000,0.508431884765625,1.3085620403289795,-1.8516767024993896,1.208500623703003
1758972486150390000,0.51839013671875,1.2150723934173584,-2.5116798877716064,1.7338277101516724
1758972486160347000,0.528346923828125,0.8282762169837952,-2.7469234466552734,2.5136518478393555
1758972486170305000,0.538304931640625,0.6580451130867004,-3.020256280899048,2.8140666484832764
1758972486180262000,0.548261962890625,1.5040490627288818,-3.077143669128418,2.3354382514953613
1758972486190219800,0.5582197265625,1.8372400999069214,-1.8489845991134644,1.3953557014465332
1758972486200177000,0.568177001953125,1.8633623123168945,-0.29963499307632446,0.6474924683570862
1758972486210135000,0.578135009765625,2.306380271911621,-0.24943244457244873,0.084590844810009
1758972486220093000,0.588093017578125,2.1769464015960693,-0.6610794067382812,-1.0661383867263794
1758972486230049800,0.5980498046875,2.010179281234741,0.06698093563318253,-1.8452789783477783
1758972486240008000,0.608008056640625,1.7026333808898926,1.817430019378662,-1.7900985479354858
1758972486249965000,0.617965087890625,1.435825228691101,3.17724609375,-1.4922226667404175
1758972486259923000,0.6279228515625,1.0689451694488525,3.553730010986328,-1.2756800651550293
1758972486269880000,0.637880126953125,0.16369064152240753,1.6479766368865967,-0.3281193971633911
1758972486279838200,0.647838134765625,-0.7324110865592957,1.2200087308883667,0.0322028324007988
1758972486289795000,0.657795166015625,-0.8729983568191528,0.5408169627189636,0.0999072939157486
1758972486299753200,0.667753173828125,-0.6859959959983826,-0.03862668573856354,0.16248145699501038
1758972486309710000,0.6777099609375,-0.3231543004512787,-0.3268068730831146,0.3193848431110382
1758972486319668000,0.68766796875,0.20554466545581818,-0.38217639923095703,0.4904830753803253
1758972486329626000,0.697626220703125,0.4705202579498291,-0.42858371138572693,0.6309300661087036
1758972486339583200,0.707583251953125,0.29271405935287476,-1.2458809614181519,-0.09021557867527008
1758972486349541000,0.717541015625,0.2706233561038971,-1.533037543296814,-0.49699804186820984
1758972486359498000,0.727498046875,0.36847642064094543,-1.2570217847824097,-0.6871740818023682
1758972486369456000,0.7374560546875,0.3577093780040741,-0.6404470205307007,-0.6544957160949707
1758972486379413200,0.747413330078125,0.39148837327957153,-0.21653521060943604,-0.514680027961731
1758972486389371100,0.75737109375,0.46346646547317505,-0.07512802630662918,-0.30972179770469666
1758972486399328300,0.767328369140625,0.6292546987533569,0.10339431464672089,0.004146392922848463
1758972486409286100,0.7772861328125,0.8563191294670105,0.2757093906402588,0.2196175754070282
1758972486419244000,0.787244140625,1.297474980354309,0.3706856966018677,0.2831012010574341
1758972486429201200,0.797201171875,1.7603223323822021,0.6207422614097595,0.39179912209510803
1758972486439159000,0.807158935546875,1.8722686767578125,0.7851937413215637,0.49661314487457275
1758972486449116200,0.8171162109375,1.9922692775726318,0.748656690120697,0.4487954378128052
1758972486459074000,0.827073974609375,2.522463798522949,0.680657148361206,0.4887937307357788
1758972486469031200,0.83703125,3.1956796646118164,0.7934918999671936,0.6563107371330261
1758972486478989000,0.846989013671875,3.744121789932251,0.9115753769874573,0.6447216868400574
1758972486488946200,0.8569462890625,4.249056339263916,0.9601112008094788,0.4076005220413208
1758972486498904300,0.866904296875,4.632657527923584,0.6797948479652405,-0.12618643045425415
1758972486508861200,0.876861083984375,5.151236534118652,0.3598496913909912,-0.7026087045669556
1758972486518819000,0.886819091796875,5.468400478363037,0.011187831871211529,-0.9502184987068176
1758972486528777200,0.896777099609375,5.332154273986816,-0.05542316287755966,-0.7270832061767578
1758972486538734000,0.906734130859375,4.843189239501953,0.04983721673488617,-0.2706829011440277
1758972486548692200,0.916692138671875,4.1351752281188965,0.16122272610664368,0.08626231551170349
1758972486558649000,0.926649169921875,3.3179070949554443,0.15969380736351013,0.24366286396980286
1758972486568607000,0.93660693359375,2.4196090698242188,-0.06087439879775047,0.2906940281391144
1758972486578564000,0.946564208984375,1.5503050088882446,-0.46057814359664917,0.29661825299263
1758972486588522200,0.956522216796875,0.9864766597747803,-0.9184153079986572,0.21627193689346313
1758972486598479000,0.96647900390625,0.8310250639915466,-1.6097378730773926,0.151593878865242
1758972486608437000,0.97643701171875,0.9875473380088806,-2.327440023422241,0.3212854564189911
1758972486618394000,0.98639404296875,1.2848604917526245,-3.015728712081909,0.6045893430709839
1758972486628352300,0.996352294921875,1.558176040649414,-3.510897159576416,0.8666787147521973
1758972486638310100,1.00631005859375,1.8530572652816772,-3.6358022689819336,0.945906400680542
1758972486648267000,1.01626708984375,2.3530561923980713,-3.3136749267578125,0.7617291808128357
1758972486658225200,1.02622509765625,3.366945505142212,-3.059695243835449,0.5851408243179321
1758972486668182000,1.03618212890625,3.4491519927978516,-2.0381689071655273,0.5661621689796448
1758972486678140200,1.04614013671875,1.4244252443313599,-0.15130615234375,0.40694451332092285
1758972486688097000,1.056096923828125,0.4310413897037506,0.20041514933109283,0.6860479712486267
1758972486698055000,1.066054931640625,0.7081823945045471,-0.08031637221574783,0.8836537003517151
1758972486708012000,1.076011962890625,1.2382440567016602,-0.37112516164779663,1.017974853515625
1758972486717970200,1.08597021484375,1.462059497833252,-0.2228078544139862,0.9666306972503662
1758972486727927300,1.09592724609375,1.1974951028823853,-0.23134759068489075,0.7465956807136536
1758972486737885000,1.105885009765625,0.7611307501792908,-0.20697887241840363,0.3783244788646698
1758972486747843000,1.115843017578125,0.5722156167030334,-0.6556732058525085,0.03587668016552925
1758972486757800200,1.12580029296875,0.17774608731269836,-1.2027767896652222,-0.20568054914474487
1758972486767758000,1.135758056640625,-0.22346262633800507,-1.0000643730163574,-0.2361503541469574
1758972486777715200,1.145715087890625,-0.31506630778312683,-0.4153636395931244,-0.23664197325706482
1758972486787673000,1.155673095703125,-0.3056170344352722,0.22282443940639496,-0.2763881981372833
1758972486797630000,1.1656298828125,-0.2836829721927643,0.5017351508140564,-0.3317427933216095
1758972486807588000,1.175588134765625,-0.39554357528686523,0.6474879384040833,-0.39509469270706177
1758972486817545200,1.185545166015625,-0.4830513000488281,0.7433505654335022,-0.40744295716285706
1758972486827503000,1.195503173828125,-0.5121667385101318,0.6994431614875793,-0.3572576642036438
1758972486837460000,1.2054599609375,-0.47005441784858704,0.5674057602882385,-0.2826864719390869
1758972486847418000,1.215418212890625,-0.4066006541252136,0.40869441628456116,-0.2000952810049057
1758972486857375200,1.225375244140625,-0.31280118227005005,0.2345154583454132,-0.1377783715724945
1758972486867333000,1.2353330078125,-0.16722865402698517,0.13939465582370758,-0.04489535838365555
1758972486877291300,1.245291259765625,0.04373151808977127,0.19305816292762756,0.10510319471359253
1758972486887248100,1.255248046875,0.2936011552810669,0.2583392858505249,0.20760706067085266
1758972486897206000,1.2652060546875,0.46607786417007446,0.30514219403266907,0.20847871899604797
1758972486907163100,1.2751630859375,0.5615166425704956,0.34087690711021423,0.16827994585037231
1758972486917121300,1.285121337890625,0.5138229131698608,0.4648270905017853,0.15273374319076538
1758972486927078000,1.295077880859375,0.31932318210601807,0.6372696757316589,0.11270701140165329
1758972486937036000,1.3050361328125,-0.034209590405225754,0.675596296787262,0.051550980657339096
1758972486946993200,1.3149931640625,-0.364367812871933,0.3423810601234436,-0.1323511153459549
1758972486956951000,1.324950927734375,-0.709384024143219,-0.3152838945388794,-0.3730473518371582
1758972486966908200,1.334908203125,-0.8983762264251709,-1.1475849151611328,-0.6922008991241455
1758972486976866000,1.344865966796875,-0.9464449882507324,-2.1102888584136963,-1.038944125175476
1758972486986823200,1.3548232421875,-0.7176042199134827,-3.2013556957244873,-1.3313032388687134
1758972486996781000,1.364781005859375,-0.34712865948677063,-4.101005554199219,-1.5492442846298218
1758972487006739200,1.3747392578125,-0.13235369324684143,-4.599792957305908,-1.5794012546539307
1758972487016696300,1.3846962890625,0.02897687256336212,-4.13555383682251,-1.6220697164535522
1758972487026654000,1.394654052734375,0.25046512484550476,-3.06819486618042,-1.5338784456253052
1758972487036611000,1.404611083984375,0.43562567234039307,-1.8599646091461182,-1.1994175910949707
1758972487046569200,1.4145693359375,0.6824821829795837,-0.737928569316864,-0.5799753069877625
1758972487056526000,1.424526123046875,0.7837530970573425,0.1439497470855713,-0.15420645475387573
1758972487066484200,1.434484130859375,0.6971796154975891,-0.5500860214233398,0.4244785010814667
1758972487076441000,1.444441162109375,0.6539077758789062,-0.9245927929878235,0.6270276308059692
1758972487086399000,1.45439892578125,0.7430363297462463,-0.6091752052307129,0.28703418374061584
1758972487096356000,1.464356201171875,0.8118452429771423,-0.4369562864303589,-0.17545701563358307
1758972487106314200,1.474314208984375,0.8819155693054199,-0.4561932384967804,-0.5012196898460388
1758972487116272000,1.484272216796875,0.9666293859481812,-0.7873179316520691,-0.6573424339294434
1758972487126229000,1.49422900390625,1.0147385597229004,-1.2255998849868774,-0.6834463477134705
1758972487136187100,1.504187255859375,1.0047328472137451,-1.5694276094436646,-0.718143880367279
1758972487146144300,1.514144287109375,0.9316210746765137,-1.884653091430664,-0.7737587094306946
1758972487156102100,1.52410205078125,0.8090727925300598,-2.1372838020324707,-0.7869479656219482
1758972487166059000,1.53405908203125,0.4441845417022705,-2.2750375270843506,-0.8652215003967285
1758972487176017200,1.54401708984375,-0.14393863081932068,-1.9601460695266724,-1.1735426187515259
1758972487185974000,1.55397412109375,-0.43782907724380493,-1.1546127796173096,-1.458107829093933
1758972487195932200,1.56393212890625,-0.4577846825122833,-0.4941456913948059,-1.5524404048919678
1758972487205889300,1.57388916015625,-0.32383421063423157,-0.4862103760242462,-1.4723230600357056
1758972487215847000,1.583846923828125,-0.12319432199001312,-1.0141141414642334,-1.4454967975616455
1758972487225804000,1.593803955078125,0.011918369680643082,-1.624616026878357,-1.5589431524276733
1758972487235762200,1.60376220703125,0.09271334856748581,-1.904950737953186,-1.9348771572113037
1758972487245719300,1.61371923828125,0.13742955029010773,-1.9152506589889526,-2.353841781616211
1758972487255677200,1.62367724609375,0.15638619661331177,-1.6392345428466797,-2.412445545196533
1758972487265635000,1.633635009765625,0.11942854523658752,-1.1343640089035034,-2.0077922344207764
1758972487275592200,1.64359228515625,0.06402520835399628,-0.5548459887504578,-1.4346473217010498
1758972487285550000,1.653550048828125,-0.029988354071974754,-0.1441200226545334,-1.0527172088623047
1758972487295507000,1.6635068359375,-0.09026980400085449,-0.18479101359844208,-1.0094882249832153
1758972487305465000,1.673465087890625,-0.09264490753412247,-0.4555869698524475,-1.2062699794769287
1758972487315422000,1.683421875,-0.07108715176582336,-0.7451375722885132,-1.4689841270446777
1758972487325380000,1.693380126953125,-0.04770951345562935,-0.9253623485565186,-1.6811559200286865
1758972487335337200,1.703337158203125,0.07733787596225739,-0.9919949173927307,-1.7900699377059937
1758972487345294800,1.713294921875,0.11832402646541595,-0.9079930186271667,-1.7129658460617065
1758972487355252000,1.723251953125,0.1349213868379593,-0.7663629651069641,-1.50045645236969
1758972487365210000,1.733210205078125,0.13446678221225739,-0.5901186466217041,-1.2868996858596802
1758972487375167200,1.743167236328125,0.13215702772140503,-0.5297344326972961,-1.191798210144043
1758972487385125000,1.753125,0.120989590883255,-0.5436081886291504,-1.1696921586990356
1758972487395082000,1.76308203125,0.11639218032360077,-0.5552762746810913,-1.121711015701294
1758972487405040000,1.7730400390625,0.10155583918094635,-0.5027583241462708,-0.9831470251083374
1758972487414998000,1.782998046875,0.035377878695726395,-0.45445606112480164,-0.820817768573761
1758972487424955100,1.792955078125,-0.018632585182785988,-0.3791392147541046,-0.692643940448761
1758972487434913300,1.802913330078125,-0.06726829707622528,-0.34169596433639526,-0.5972667932510376
1758972487444870000,1.812869873046875,-0.09981003403663635,-0.3165442645549774,-0.5124610066413879
1758972487454828000,1.822828125,-0.10436456650495529,-0.3074093461036682,-0.4367747902870178
1758972487464785200,1.83278515625,-0.10991909354925156,-0.30521252751350403,-0.3410637676715851
1758972487474743000,1.842742919921875,-0.11898049712181091,-0.3027549684047699,-0.22308814525604248
1758972487484700000,1.852699951171875,-0.14829261600971222,-0.25103795528411865,-0.05378028005361557
1758972487494658000,1.862657958984375,-0.2027939409017563,-0.11806685477495193,0.15895462036132812
1758972487504615200,1.872615234375,-0.26868918538093567,0.14350521564483643,0.3883020877838135
1758972487514573000,1.882572998046875,-0.3279045820236206,0.5938172340393066,0.5887552499771118
1758972487524530200,1.8925302734375,-0.3332129120826721,1.2630817890167236,0.7230862379074097
1758972487534488000,1.902488037109375,-0.28894665837287903,1.8293180465698242,0.7920706272125244
1758972487544445000,1.91244482421875,-0.22503334283828735,2.043642044067383,0.8340930342674255
1758972487554403000,1.922403076171875,-0.1345234215259552,1.7367080450057983,0.8652903437614441
1758972487564361200,1.932361328125,-0.013238880783319473,0.9467058777809143,0.8191832304000854
1758972487574318000,1.942318115234375,0.13835197687149048,-0.13477155566215515,0.7210984826087952
1758972487584276000,1.95227587890625,0.38401883840560913,-1.1491286754608154,0.6775455474853516
1758972487594233000,1.962233154296875,0.6968177556991577,-1.5562093257904053,0.7182000279426575
1758972487604191000,1.97219091796875,0.9913026690483093,-1.0155932903289795,0.5567607879638672
1758972487614148000,1.982148193359375,0.8281043767929077,0.015547520481050014,0.49304306507110596
1758972487624106200,1.992106201171875,0.05811971426010132,0.4909879267215729,0.6643547415733337
1758972487634063000,2.00206298828125,-0.5572710633277893,1.3432626724243164,0.8055770993232727
1758972487644021000,2.01202099609375,-0.8433338403701782,2.6437289714813232,0.9411590099334717
1758972487653978000,2.02197802734375,-0.8909277319908142,3.840494394302368,1.0369422435760498
1758972487663936300,2.031936279296875,-0.6102535724639893,3.68715500831604,1.1187803745269775
1758972487673892900,2.041892822265625,-0.1285015493631363,2.2473437786102295,1.3604081869125366
1758972487683851000,2.05185107421875,0.09524562954902649,1.187178134918213,1.6924012899398804
1758972487693808000,2.06180810546875,0.058336611837148666,1.3180967569351196,1.9666194915771484
1758972487703766000,2.07176611328125,-0.06851904839277267,2.128779411315918,2.065032482147217
1758972487713723100,2.08172314453125,-0.22021616995334625,2.9816479682922363,1.9356060028076172
1758972487723681000,2.091680908203125,-0.3371855616569519,3.3666229248046875,1.8004149198532104
1758972487733639000,2.101638916015625,-0.3000653386116028,3.1948082447052,1.8337435722351074
1758972487743596000,2.111595947265625,-0.19307701289653778,2.8673555850982666,1.9888873100280762
1758972487753554200,2.12155419921875,-0.17901472747325897,2.6318795680999756,2.040511131286621
1758972487763511300,2.13151123046875,-0.24277420341968536,2.416656255722046,1.9300678968429565
1758972487773469000,2.141468994140625,-0.2989687919616699,2.268812656402588,1.7144477367401123
1758972487783426000,2.151426025390625,-0.2880455553531647,2.2215449810028076,1.55510413646698
1758972487793384200,2.16138427734375,-0.2222156822681427,2.0125036239624023,1.5826505422592163
1758972487803341000,2.171341064453125,-0.06416068971157074,1.7301408052444458,1.7923482656478882
1758972487813299200,2.18129931640625,0.14934413135051727,1.521868348121643,2.119070053100586
1758972487823256000,2.191256103515625,0.2726365625858307,1.5769959688186646,2.5405619144439697
1758972487833214000,2.2012138671875,0.28283700346946716,1.7858036756515503,2.9558026790618896
1758972487843171000,2.211171142578125,0.32457125186920166,2.0788328647613525,3.194016933441162
1758972487853129200,2.221129150390625,0.4040338695049286,2.2164902687072754,3.3700342178344727
1758972487863086000,2.231086181640625,0.44419658184051514,2.0669119358062744,3.6008708477020264
1758972487873044000,2.2410439453125,0.4338693916797638,1.7099995613098145,3.8638362884521484
1758972487883001000,2.2510009765625,0.2694283723831177,1.2956453561782837,4.040858268737793
1758972487892959200,2.260959228515625,-0.24227885901927948,0.6896374821662903,4.075235843658447
1758972487902917000,2.270917236328125,-0.8116807341575623,-0.20878638327121735,3.8457136154174805
1758972487912874000,2.2808740234375,-1.0496416091918945,-0.7189553380012512,3.3296308517456055
1758972487922832100,2.29083203125,-0.9277572631835938,-0.6621541380882263,2.7274181842803955
1758972487932789000,2.3007890625,-0.6604134440422058,-0.48485684394836426,2.3338751792907715
1758972487942747100,2.3107470703125,-0.7113590240478516,-0.3019430935382843,2.06372332572937
1758972487952704000,2.3207041015625,-0.9589959979057312,-0.1981692910194397,1.7942630052566528
1758972487962662000,2.330661865234375,-1.071165680885315,-0.4857136905193329,1.6435400247573853
1758972487972619000,2.340618896484375,-0.9775358438491821,-1.0965875387191772,1.5532060861587524
1758972487982577200,2.3505771484375,-0.8393419981002808,-1.636299729347229,1.3519797325134277
1758972487992534300,2.3605341796875,-0.692118763923645,-1.4959862232208252,0.928838312625885
1758972488002492200,2.3704921875,-0.5334709286689758,-0.42763379216194153,0.39539507031440735
1758972488012449000,2.380448974609375,-0.28625765442848206,1.06289541721344,-0.2483207881450653
1758972488022407200,2.3904072265625,0.10248889774084091,2.0986502170562744,-0.7660457491874695
1758972488032364000,2.400364013671875,0.27340126037597656,2.1181535720825195,-1.0242221355438232
1758972488042322200,2.410322265625,0.17432445287704468,1.565560221672058,-1.315582513809204
1758972488052279000,2.420279052734375,-0.061771977692842484,0.9966339468955994,-1.6459110975265503
1758972488062237000,2.43023681640625,-0.2903154790401459,0.5569238066673279,-2.287142038345337
1758972488072195000,2.440195068359375,-0.3526579439640045,0.31048473715782166,-3.025649070739746
1758972488082152200,2.450152099609375,-0.18072257936000824,0.06741897016763687,-3.6104488372802734
1758972488092110000,2.460110107421875,0.24535496532917023,-0.5145914554595947,-3.953371047973633
1758972488102067000,2.47006689453125,0.8643097877502441,-1.588391900062561,-4.115392684936523
1758972488112025000,2.480025146484375,1.5494651794433594,-2.403278350830078,-4.052947044372559
1758972488121982200,2.489982177734375,1.7402335405349731,-2.416749954223633,-4.001710414886475
1758972488131940000,2.499940185546875,1.7351734638214111,-2.2887301445007324,-4.197391510009766
1758972488141897000,2.50989697265625,1.7505662441253662,-2.526853322982788,-4.413656711578369
1758972488151855000,2.519855224609375,1.7818562984466553,-3.223257303237915,-4.383586406707764
1758972488161812000,2.52981201171875,1.7124370336532593,-3.880115270614624,-3.9393625259399414
1758972488171770000,2.53977001953125,1.6067543029785156,-2.8817272186279297,-3.6155922412872314
1758972488181727200,2.549727294921875,1.40690279006958,-0.9156574606895447,-3.456475257873535
1758972488191684900,2.559684814453125,1.3116894960403442,0.6674245595932007,-3.3540360927581787
1758972488201642000,2.56964208984375,1.3305048942565918,1.0862116813659668,-3.1692774295806885
1758972488211600100,2.57960009765625,1.2689895629882812,0.4151466190814972,-3.056960344314575
1758972488221558000,2.58955810546875,1.2579667568206787,-1.0002347230911255,-3.2718334197998047
1758972488231515100,2.59951513671875,1.115174412727356,-2.5824553966522217,-3.534090518951416
1758972488241473000,2.60947314453125,0.8716974854469299,-3.1663124561309814,-3.571589946746826
1758972488251430100,2.61943017578125,0.5068619847297668,-3.2036705017089844,-3.323948860168457
1758972488261388000,2.629387939453125,0.12333850562572479,-3.162716865539551,-2.900815963745117
1758972488271345200,2.63934521484375,-0.1926889568567276,-3.0937483310699463,-2.4268109798431396
1758972488281302500,2.649302490234375,-0.440240740776062,-3.0769150257110596,-2.056993246078491
1758972488291259600,2.659259765625,-0.6541569828987122,-3.1558573246002197,-1.877556562423706
1758972488301217500,2.669217529296875,-0.9076772928237915,-2.641202449798584,-1.7306865453720093
1758972488311174400,2.67917431640625,-1.1913057565689087,-1.9316028356552124,-1.4860714673995972
1758972488321132500,2.689132568359375,-1.442958950996399,-1.3854656219482422,-1.2002211809158325
1758972488331089400,2.69908935546875,-1.6502848863601685,-0.7733234167098999,-0.8405379056930542
1758972488341047600,2.709047607421875,-1.7677886486053467,0.06989744305610657,-0.36892378330230713
1758972488351004400,2.71900439453125,-1.9526939392089844,0.8463774919509888,0.1930713951587677
1758972488360962300,2.72896240234375,-2.1656055450439453,1.4416210651397705,0.9397369027137756
1758972488370919400,2.73891943359375,-2.341207981109619,2.0113627910614014,1.7819643020629883
1758972488380877600,2.748877685546875,-2.365734338760376,2.2938249111175537,2.433422327041626
1758972488390835500,2.75883544921875,-2.187337636947632,1.9968016147613525,2.592949628829956
1758972488400792300,2.768792236328125,-1.8357430696487427,1.8065907955169678,2.4202959537506104
1758972488410750500,2.77875048828125,-1.5136151313781738,2.0683298110961914,2.2845001220703125
1758972488420707600,2.78870751953125,-1.2565590143203735,2.998561143875122,2.534932851791382
1758972488430665500,2.79866552734375,-0.8573117852210999,4.192586898803711,2.897977113723755
1758972488440622300,2.808622314453125,-0.39878207445144653,4.7308573722839355,2.976480722427368
1758972488450580500,2.81858056640625,-0.04659794270992279,4.320903301239014,2.6133453845977783
1758972488460537300,2.828537353515625,0.2791982889175415,3.243911027908325,1.7863792181015015
1758972488470495500,2.83849560546875,0.5991837382316589,1.6618096828460693,0.4752751886844635
1758972488480452600,2.84845263671875,1.1265714168548584,-0.213123619556427,-1.743480920791626
1758972488490410200,2.85841015625,1.7062667608261108,-1.5287431478500366,-5.006307125091553
1758972488500367400,2.868367431640625,1.848603367805481,-0.9029814004898071,-6.20912504196167
1758972488510325500,2.878325439453125,1.694737195968628,1.1762772798538208,-3.657831907272339
1758972488520282600,2.88828271484375,1.279875636100769,2.4117677211761475,-0.45329180359840393
1758972488530240500,2.898240478515625,0.8244999051094055,2.787006139755249,1.8137861490249634
1758972488540198700,2.90819873046875,-0.3134417235851288,3.1050097942352295,3.169074296951294
1758972488550155500,2.918155517578125,-1.10847008228302,3.588639259338379,3.356858491897583
1758972488560113400,2.928113525390625,-0.952298104763031,3.19999361038208,2.9728119373321533
1758972488570070500,2.938070556640625,-0.5624017715454102,2.1218080520629883,2.6699905395507812
1758972488580028400,2.9480283203125,0.16132275760173798,1.2956974506378174,2.478395938873291
1758972488589985300,2.9579853515625,0.8791615962982178,0.9203680753707886,2.31381893157959
1758972488599943400,2.967943359375,1.1726843118667603,0.9585708379745483,2.795253276824951
1758972488609900500,2.977900634765625,1.0987162590026855,1.7598768472671509,3.354914426803589
1758972488619858400,2.9878583984375,0.8255123496055603,2.944870710372925,3.975803852081299
1758972488629815300,2.997815185546875,0.06270792335271835,2.861027240753174,4.536264896392822
1758972488639773400,3.0077734375,-0.3775011897087097,2.3635940551757812,4.7150702476501465
1758972488649730600,3.01773046875,-0.6318243145942688,1.4218393564224243,4.533234119415283
1758972488659688400,3.0276884765625,-0.8653691411018372,0.4922262132167816,4.058222770690918
1758972488669645600,3.0376455078125,-0.8393892049789429,-0.054215557873249054,3.5693860054016113
1758972488679603500,3.047603515625,-0.5730475187301636,-0.24491626024246216,3.715535879135132
1758972488689561300,3.057561279296875,-0.45211470127105713,-0.2588805556297302,3.943574905395508
1758972488699518500,3.0675185546875,-0.3651462197303772,-0.01445645373314619,3.6941030025482178
1758972488709476400,3.077476318359375,-0.3375217914581299,0.6404710412025452,3.138956069946289
1758972488719433500,3.08743359375,-0.3817620873451233,0.9138084650039673,2.705409049987793
1758972488729391400,3.097391357421875,-0.530102014541626,0.5226966142654419,2.513470411300659
1758972488739348500,3.107348388671875,-0.577963650226593,0.18569278717041016,2.3423678874969482
1758972488749306400,3.117306396484375,-0.39853739738464355,0.6333650946617126,2.036991596221924
1758972488759263500,3.127263427734375,0.018258271738886833,1.4476616382598877,1.5571024417877197
1758972488769221600,3.1372216796875,0.4791902005672455,2.2993557453155518,0.6786912083625793
1758972488779178500,3.147178466796875,0.6800196766853333,3.0845260620117188,0.11934849619865417
1758972488789136400,3.157136474609375,0.5419880151748657,2.982434034347534,0.08721186220645905
1758972488799093500,3.167093505859375,0.34497860074043274,1.1613026857376099,0.043661244213581085
1758972488809051400,3.177051513671875,0.4359167516231537,-1.4513790607452393,-0.40239185094833374
1758972488819008300,3.18700830078125,0.6431372165679932,-2.849602460861206,-1.0435051918029785
1758972488828966400,3.19696630859375,0.5175995230674744,-2.220048427581787,-1.6521376371383667
1758972488838924300,3.20692431640625,0.09099559485912323,-0.6055315732955933,-2.239562749862671
1758972488848881400,3.21688134765625,-0.3083856403827667,0.7499260902404785,-2.862488031387329
1758972488858839600,3.226839599609375,-0.08166181296110153,1.123726487159729,-3.549295425415039
1758972488868796400,3.23679638671875,0.4892171323299408,0.7643809914588928,-3.7959225177764893
1758972488878754300,3.24675439453125,1.1094093322753906,0.47082558274269104,-3.2385306358337402
1758972488888711400,3.25671142578125,1.289749264717102,-0.08719857037067413,-2.7179245948791504
1758972488898669600,3.266669677734375,0.8810943365097046,-1.0482393503189087,-2.9422616958618164
1758972488908626400,3.27662646484375,0.7217361330986023,-1.6393953561782837,-3.560666084289551
1758972488918584300,3.286584228515625,0.6824849843978882,-2.0030131340026855,-4.061627388000488
1758972488928541400,3.29654150390625,0.48830482363700867,-2.4712107181549072,-4.396727085113525
1758972488938499300,3.306499267578125,0.5227988362312317,-2.6716086864471436,-4.666282653808594
1758972488948456400,3.31645654296875,0.5507806539535522,-2.2566189765930176,-4.505372524261475
1758972488958414600,3.32641455078125,0.541461169719696,-1.1665886640548706,-3.948700189590454
1758972488968371500,3.336371337890625,0.4655964970588684,0.1354704648256302,-3.4920895099639893
1758972488978329300,3.346329345703125,0.3947578966617584,1.3629409074783325,-3.4095041751861572
1758972488988287500,3.35628759765625,0.3913716673851013,1.9967455863952637,-3.407454013824463
1758972488998244600,3.36624462890625,0.6942040920257568,1.283416748046875,-3.0549025535583496
1758972489008202500,3.376202392578125,0.8171409368515015,-1.1044057607650757,-2.7892203330993652
1758972489018159400,3.386159423828125,0.4444770812988281,-3.205709457397461,-2.988424062728882
1758972489028117500,3.396117431640625,0.04571374133229256,-4.093047618865967,-3.0473403930664062
1758972489038074400,3.406074462890625,-0.2667173147201538,-3.797325849533081,-2.8061749935150146
1758972489048032500,3.416032470703125,-0.6997345089912415,-3.2514851093292236,-2.368133544921875
1758972489057989400,3.4259892578125,-1.112287998199463,-3.4081196784973145,-1.8422486782073975
1758972489067947300,3.435947265625,-1.1798018217086792,-3.8880422115325928,-1.523017168045044
1758972489077904400,3.445904296875,-0.9065754413604736,-3.940072536468506,-1.4673303365707397
1758972489087862500,3.455862548828125,-0.8358917236328125,-3.3231589794158936,-1.3793970346450806
1758972489097819400,3.4658193359375,-0.7882895469665527,-2.4197864532470703,-1.1579614877700806
1758972489107777300,3.47577734375,-0.8856616616249084,-1.5435417890548706,-0.8741686344146729
1758972489117735400,3.4857353515625,-1.1435803174972534,-0.6542748808860779,-0.4440956115722656
1758972489127692500,3.495692626953125,-1.3996115922927856,-0.17204858362674713,0.1825869232416153
1758972489137650400,3.505650390625,-1.6258527040481567,0.03233250603079796,0.86655193567276
1758972489147607600,3.515607666015625,-1.9175772666931152,0.4088664650917053,1.5161983966827393
1758972489157565400,3.5255654296875,-1.9892833232879639,0.89368736743927,2.1559791564941406
1758972489167522300,3.535522216796875,-1.8339773416519165,1.1871980428695679,2.7305924892425537
1758972489177480400,3.54548046875,-1.6695725917816162,1.5925605297088623,3.1543121337890625
1758972489187437600,3.5554375,-1.5359455347061157,2.291085720062256,3.689927101135254
1758972489197395500,3.5653955078125,-1.336025595664978,3.0120937824249268,4.183146953582764
1758972489207352300,3.575352294921875,-0.9852766394615173,3.3643009662628174,4.2992262840271
1758972489217310500,3.585310546875,-0.5316537618637085,3.5318210124969482,3.750859498977661
1758972489227267600,3.595267578125,-0.05172229930758476,3.727961301803589,2.4364283084869385
1758972489237225500,3.6052255859375,0.4042944014072418,3.6084253787994385,0.34611254930496216
1758972489247182300,3.615182373046875,0.9498910903930664,2.4413387775421143,-2.8981049060821533
1758972489257140500,3.625140380859375,1.6628711223602295,-0.5267152190208435,-5.856136322021484
1758972489267098400,3.635098388671875,1.3476407527923584,-3.107726812362671,-7.5787224769592285
1758972489277056000,3.645055908203125,1.0794970989227295,-3.066443681716919,-6.596826076507568
1758972489287014000,3.655013916015625,0.7808302044868469,0.2669535279273987,-2.6348423957824707
1758972489296970800,3.664970703125,-0.43200433254241943,6.581242561340332,1.9673876762390137
1758972489306929000,3.674928955078125,-0.3685968518257141,6.951664924621582,3.8633811473846436
1758972489316886000,3.684885986328125,-0.1617506593465805,4.389484882354736,4.328935146331787
1758972489326844000,3.694843994140625,-0.41973772644996643,1.4109658002853394,4.356940746307373
1758972489336800800,3.70480078125,-0.7600108981132507,0.2645724415779114,4.43062686920166
1758972489346759000,3.714759033203125,-0.38958093523979187,0.4138799011707306,4.149968147277832
1758972489356716000,3.724716064453125,0.7675184607505798,0.5567074418067932,3.346428871154785
1758972489366674000,3.734673828125,2.0633034706115723,1.2995198965072632,1.4950696229934692
1758972489376630800,3.744630859375,2.8214454650878906,2.502351999282837,0.2952251732349396
1758972489386589000,3.7545888671875,2.7501280307769775,3.551957130432129,0.3698970079421997
1758972489396546800,3.764546875,1.6742887496948242,2.883232831954956,1.0436723232269287
1758972489406504000,3.77450390625,0.05594412982463837,-0.7369228601455688,3.400308847427368
1758972489416461800,3.7844619140625,-1.1787109375,-2.2905936241149902,5.4412055015563965
1758972489426418700,3.794418701171875,-1.5724347829818726,-1.9753764867782593,5.8708624839782715
1758972489436376800,3.804376953125,-1.2413541078567505,-0.09899726510047913,4.858705043792725
1758972489446334000,3.814333984375,-0.8603220582008362,1.3760653734207153,3.6303365230560303
1758972489456291800,3.824291748046875,-0.32568031549453735,1.942939281463623,3.0032870769500732
1758972489466248700,3.834248779296875,0.09342507272958755,1.932037115097046,3.152967929840088
1758972489476206800,3.844206787109375,0.1966630071401596,1.795384168624878,3.3375251293182373
1758972489486164000,3.8541640625,-0.0264840517193079,1.4938623905181885,3.2451884746551514
1758972489496121900,3.864121826171875,-0.17531508207321167,1.6094499826431274,2.8557307720184326
1758972489506079000,3.874078857421875,-0.020205076783895493,2.160778760910034,2.084171772003174
1758972489516036900,3.884036865234375,0.5102850794792175,2.2718729972839355,1.3883733749389648
1758972489525994800,3.893994873046875,0.9556910991668701,1.9158401489257812,0.7577455639839172
1758972489535952000,3.903951904296875,0.9577639698982239,1.7610852718353271,0.43748974800109863
1758972489545909800,3.91390966796875,0.7153580188751221,1.3866785764694214,0.35452908277511597
1758972489555867000,3.923866943359375,0.509223997592926,-0.03214447945356369,-0.027101684361696243
1758972489565824800,3.93382470703125,0.4657857120037079,-1.575315237045288,-0.6597057580947876
1758972489575782000,3.943781982421875,0.3548101484775543,-1.6900207996368408,-1.2712805271148682
1758972489585739800,3.95373974609375,0.04744621366262436,-0.34231406450271606,-1.692761778831482
1758972489595697000,3.96369677734375,-0.4948512017726898,1.4565095901489258,-2.073050022125244
1758972489605655000,3.973655029296875,-0.9452087879180908,2.4835901260375977,-2.581780433654785
1758972489615612000,3.98361181640625,-0.8729810118675232,1.990684986114502,-3.376018524169922
1758972489625569800,3.99356982421875,-0.41184213757514954,0.1568380892276764,-3.8205416202545166
1758972489635527000,4.00352685546875,0.052923157811164856,-1.3154643774032593,-3.4027440547943115
1758972489645484800,4.01348486328125,0.13367818295955658,-2.1631336212158203,-2.9771382808685303
1758972489655441700,4.023441650390625,0.14229151606559753,-2.9416518211364746,-3.0852348804473877
1758972489665399800,4.03339990234375,0.3753468990325928,-3.5649328231811523,-3.493330478668213
1758972489675357700,4.043357666015625,0.8011151552200317,-4.170949459075928,-4.107593059539795
1758972489685314800,4.053314697265625,1.298485279083252,-4.1842193603515625,-4.523122787475586
1758972489695273000,4.06327294921875,1.408237099647522,-3.627830982208252,-4.624587059020996
1758972489705229800,4.073229736328125,1.1151684522628784,-3.1711225509643555,-4.579475402832031
1758972489715187700,4.083187744140625,0.8046877384185791,-2.487802028656006,-4.472873210906982
1758972489725144800,4.093144775390625,0.5691272020339966,-0.8926234245300293,-4.3156657218933105
1758972489735103000,4.10310302734375,0.157815083861351,0.6531587839126587,-4.161305904388428
1758972489745059800,4.113059814453125,-0.006398355588316917,1.2662951946258545,-3.9260525703430176
1758972489755017700,4.123017822265625,0.17215076088905334,1.4152911901474,-3.567727565765381
1758972489764974800,4.132974853515625,0.3919859230518341,0.4876125454902649,-3.1358697414398193
1758972489774932700,4.1429326171875,0.5089092254638672,-1.1272709369659424,-3.0298454761505127
1758972489784891000,4.152890869140625,0.13905900716781616,-2.89988112449646,-2.964594602584839
1758972489794848000,4.162847900390625,-0.5050498247146606,-3.7655320167541504,-2.875279426574707
1758972489804805600,4.1728056640625,-1.0327932834625244,-4.443471431732178,-2.6337146759033203
1758972489814762800,4.1827626953125,-1.2044901847839355,-4.715610027313232,-2.378185987472534
1758972489824721000,4.192720947265625,-1.1180524826049805,-4.728941917419434,-2.1295223236083984
1758972489834678000,4.202677978515625,-0.9950795769691467,-4.740819454193115,-1.7946017980575562
1758972489844636000,4.212635986328125,-0.8277902007102966,-4.478041172027588,-1.4757848978042603
1758972489854592800,4.2225927734375,-0.7029234766960144,-3.2652008533477783,-1.1624951362609863
1758972489864551000,4.232551025390625,-0.9427592158317566,-2.1708269119262695,-0.7229806184768677
1758972489874508000,4.242508056640625,-1.1096539497375488,-1.1945600509643555,-0.10433593392372131
1758972489884466000,4.2524658203125,-1.2765390872955322,-0.3439485728740692,0.6849240660667419
1758972489894422800,4.2624228515625,-1.595954179763794,0.417742520570755,1.6579864025115967
1758972489904380700,4.272380615234375,-1.960129976272583,1.1538913249969482,2.4655444622039795
1758972489914338800,4.2823388671875,-2.1275413036346436,1.7804056406021118,2.9130849838256836
1758972489924296000,4.2922958984375,-1.9330155849456787,2.2864928245544434,3.063446521759033
1758972489934253800,4.30225390625,-1.6739329099655151,2.7277636528015137,3.054560422897339
1758972489944210700,4.312210693359375,-1.4375501871109009,3.1791810989379883,3.240713119506836
1758972489954168800,4.3221689453125,-1.1071549654006958,3.5240790843963623,3.770331621170044
1758972489964126000,4.3321259765625,-0.7504996657371521,3.6383771896362305,4.130899429321289
1758972489974083800,4.342083740234375,-0.48673924803733826,3.6265783309936523,4.0687575340271
1758972489984041000,4.352041015625,-0.3230818808078766,3.155872344970703,3.3331587314605713
1758972489993998800,4.361998779296875,-0.10502848774194717,2.1330714225769043,1.806847333908081
1758972490003956000,4.3719560546875,0.15075615048408508,0.5190033316612244,-0.3575782775878906
1758972490013913900,4.381913818359375,0.4733985960483551,-1.1454588174819946,-3.236234664916992
1758972490023871000,4.39187109375,0.7167233824729919,-2.68835186958313,-5.696567535400391
1758972490033828900,4.401828857421875,0.604755699634552,-2.67676043510437,-6.4333176612854
1758972490043786800,4.411786865234375,0.5265762209892273,-1.0648146867752075,-4.948970794677734
1758972490053743900,4.421743896484375,0.6295915842056274,1.5607492923736572,-2.018500328063965
1758972490063701800,4.43170166015625,0.31422004103660583,6.804943084716797,1.287274956703186
1758972490073659000,4.441658935546875,0.552413821220398,10.26500415802002,2.6394236087799072
1758972490083617000,4.451616943359375,0.9813222885131836,7.183993816375732,2.5976600646972656
1758972490093574000,4.461573974609375,1.070900797843933,-1.0105642080307007,2.723832368850708
1758972490103531800,4.47153173828125,-0.048841800540685654,-2.9616947174072266,5.647212028503418
1758972490113489000,4.481489013671875,-1.7447246313095093,0.9847984910011292,6.9896240234375
1758972490123447000,4.491447021484375,-1.4698415994644165,1.9511818885803223,4.849064350128174
1758972490133404000,4.50140380859375,-0.04747575521469116,1.1406046152114868,-0.060339611023664474
1758972490143361800,4.51136181640625,1.292189121246338,1.196422815322876,-1.222929835319519
1758972490153319000,4.52131884765625,2.094829559326172,1.602697491645813,-1.156548261642456
1758972490163276800,4.53127685546875,2.2580158710479736,2.6443192958831787,-0.3768489956855774
1758972490173233700,4.541233642578125,1.89176607131958,3.3667919635772705,1.1011826992034912
1758972490183191800,4.55119189453125,0.8402262926101685,1.8644801378250122,4.015342712402344
1758972490193149700,4.561149658203125,-0.34145620465278625,-0.5466972589492798,6.000796318054199
1758972490203106800,4.57110693359375,-0.9089316725730896,-1.584128737449646,6.006246089935303
1758972490213065000,4.58106494140625,-0.8051656484603882,-1.1637636423110962,4.613373756408691
1758972490223021800,4.591021728515625,-0.6075881719589233,-0.7451724410057068,3.278169631958008
1758972490232979700,4.600979736328125,-0.31002944707870483,-0.3402782082557678,2.8940768241882324
1758972490242936800,4.610936767578125,0.036342330276966095,0.3139640688896179,3.0938098430633545
1758972490252895000,4.62089501953125,0.09049200266599655,0.6853384971618652,3.2689263820648193
1758972490262851800,4.630851806640625,-0.06367040425539017,0.2802424430847168,3.1133313179016113
1758972490272809700,4.640809814453125,-0.19703955948352814,-0.2002236247062683,2.552938938140869
1758972490282767000,4.65076708984375,-0.08240272849798203,-0.13189463317394257,1.7490394115447998
1758972490292724700,4.660724853515625,0.3611038625240326,0.5847686529159546,1.2438571453094482
1758972490302683000,4.670682861328125,0.7899737358093262,1.4866065979003906,0.8978808522224426
1758972490312640000,4.680639892578125,0.9582288265228271,2.654900074005127,0.38684767484664917
1758972490322598000,4.690597900390625,0.8160786032676697,3.1842446327209473,0.12248233705759048
1758972490332555000,4.700554931640625,0.6861523389816284,1.9110149145126343,-0.06284163892269135
1758972490342513000,4.710512939453125,0.6602892875671387,-0.31339704990386963,-0.48721396923065186
1758972490352470000,4.720469970703125,0.663287878036499,-1.4878288507461548,-0.9498082995414734
1758972490362428000,4.730427978515625,0.3228304088115692,-0.7453835010528564,-1.2735456228256226
1758972490372385000,4.740385009765625,-0.386630654335022,0.804516077041626,-1.5756887197494507
1758972490382343200,4.75034326171875,-1.2720555067062378,1.8694674968719482,-2.0238163471221924
1758972490392299800,4.7602998046875,-1.8437429666519165,1.6825379133224487,-2.7235424518585205
1758972490402258000,4.7702578125,-1.434337854385376,0.026624031364917755,-3.2570512294769287
1758972490412215000,4.780215087890625,-0.5898642539978027,-1.8855797052383423,-3.0785036087036133
1758972490422173000,4.7901728515625,0.0034768832847476006,-2.6011457443237305,-2.5888845920562744
1758972490432129800,4.8001298828125,0.39364027976989746,-2.4853546619415283,-2.5738987922668457
1758972490442088000,4.810087890625,0.7050005793571472,-2.509371757507324,-3.278935670852661
1758972490452045800,4.8200458984375,1.0664080381393433,-2.615511417388916,-4.164430618286133
1758972490462003000,4.8300029296875,1.3287116289138794,-2.7650020122528076,-4.622889518737793
1758972490471961000,4.839961181640625,1.2316529750823975,-2.9083571434020996,-4.594658851623535
1758972490481918000,4.84991796875,0.9740877747535706,-2.70455002784729,-4.309849739074707
1758972490491875800,4.859875732421875,0.872759997844696,-1.8183180093765259,-4.133284568786621
1758972490501833000,4.8698330078125,0.7775730490684509,-0.6040981411933899,-4.087982654571533
1758972490511791000,4.879791015625,0.5687443017959595,0.3221355676651001,-4.115104675292969
1758972490521747700,4.889747802734375,0.39476239681243896,0.6363696455955505,-4.0924763679504395
1758972490531705900,4.899705810546875,0.45773014426231384,0.5617383122444153,-3.8255362510681152
1758972490541663000,4.9096630859375,0.5440905690193176,-0.6042508482933044,-3.487966537475586
1758972490551620900,4.919620849609375,0.3915271759033203,-3.0828046798706055,-3.222236156463623
1758972490561579000,4.9295791015625,0.08279916644096375,-4.206447124481201,-3.3144614696502686
1758972490571536100,4.9395361328125,-0.3063781261444092,-4.592552185058594,-3.1671979427337646
1758972490581493800,4.94949365234375,-0.7075923681259155,-4.237083911895752,-2.862849235534668
1758972490591451000,4.959450927734375,-0.8980680704116821,-3.961273193359375,-2.551469326019287
1758972490601409000,4.969408935546875,-0.7502394914627075,-4.16580057144165,-2.257110118865967
1758972490611366100,4.9793662109375,-0.626018762588501,-4.403707027435303,-1.9271955490112305
1758972490621324000,4.989323974609375,-0.5178834795951843,-4.039339065551758,-1.5936405658721924
1758972490631281000,4.999281005859375,-0.5440701842308044,-3.303920030593872,-1.2479480504989624
1758972490641239000,5.009239013671875,-0.77992182970047,-2.0914673805236816,-0.6783716678619385
1758972490651196000,5.01919580078125,-0.9899576306343079,-0.7525590062141418,-0.015446007251739502
1758972490661154000,5.029154052734375,-1.2118444442749023,0.22760412096977234,0.7128249406814575
1758972490671111000,5.03911083984375,-1.3498984575271606,0.5691083669662476,1.4806503057479858
1758972490681068800,5.04906884765625,-1.4216424226760864,0.7923744916915894,2.276693344116211
1758972490691026000,5.05902587890625,-1.520206093788147,1.1598495244979858,2.8956143856048584
1758972490700984000,5.068984130859375,-1.5637693405151367,1.7109829187393188,3.1799402236938477
1758972490710942000,5.07894189453125,-1.4902533292770386,2.0928337574005127,3.189034938812256
1758972490720898800,5.08889892578125,-1.293352723121643,2.367311477661133,3.1344969272613525
1758972490730857000,5.09885693359375,-1.0706944465637207,2.7792916297912598,3.3416147232055664
1758972490740814000,5.10881396484375,-0.742293119430542,3.260861873626709,3.6944186687469482
1758972490750772000,5.11877197265625,-0.3872869908809662,3.301605701446533,3.725393295288086
1758972490760728800,5.128728759765625,-0.1724705696105957,3.080706834793091,3.1205780506134033
1758972490770687000,5.13868701171875,0.04587258771061897,2.4899959564208984,1.8083226680755615
1758972490780643800,5.148643798828125,0.14518345892429352,1.3783388137817383,-0.2035301774740219
1758972490790602000,5.15860205078125,0.3179386854171753,-0.14204859733581543,-3.4262535572052
1758972490800559000,5.16855908203125,0.6123762130737305,-2.031627655029297,-6.439099311828613
1758972490810516700,5.178516845703125,0.5179073810577393,-2.7093560695648193,-7.382347106933594
1758972490820473900,5.188473876953125,0.8427733182907104,-2.7233989238739014,-5.1306939125061035
1758972490830432000,5.198431884765625,1.0359324216842651,0.529748260974884,-1.2204434871673584
1758972490840390000,5.208389892578125,0.684394359588623,7.122490406036377,2.301147222518921
1758972490850347000,5.218346923828125,0.6913813948631287,8.592618942260742,3.219576120376587
1758972490860305000,5.228304931640625,1.0676573514938354,5.578330993652344,2.925762176513672
1758972490870262000,5.238261962890625,0.7242606282234192,1.864905834197998,3.078946352005005
1758972490880220000,5.248219970703125,0.05434432998299599,-1.1676242351531982,4.757455825805664
1758972490890177000,5.258177001953125,-0.5303491950035095,-1.4064160585403442,6.742936134338379
1758972490900135200,5.26813525390625,-0.8653679490089417,0.7671623229980469,5.69968318939209
1758972490910091800,5.278091796875,-0.5138241052627563,2.1251864433288574,2.4923737049102783
1758972490920050000,5.2880498046875,0.2500620484352112,2.0908854007720947,0.21811434626579285
1758972490930007000,5.298007080078125,0.8531662225723267,1.5906010866165161,-0.5663115978240967
1758972490939965000,5.30796484375,1.1649055480957031,0.9033302664756775,-0.34632039070129395
1758972490949921800,5.317921875,1.3279637098312378,-0.26475387811660767,0.7415431141853333
1758972490959880000,5.3278798828125,0.8572670817375183,-2.6841037273406982,3.751875638961792
1758972490969837800,5.337837890625,-0.2998805642127991,-2.8381450176239014,5.528946399688721
1758972490979795000,5.347794921875,-0.8247656226158142,-1.0538978576660156,5.543987274169922
1758972490989753000,5.357753173828125,-0.5227805376052856,1.0790923833847046,4.379477500915527
1758972490999710000,5.3677099609375,-0.17245212197303772,1.9883688688278198,3.4090728759765625
1758972491009667800,5.377667724609375,-0.08377578854560852,1.4280431270599365,3.292445659637451
1758972491019625000,5.387625,-0.0815906673669815,0.6906229257583618,3.615692377090454
1758972491029583000,5.3975830078125,-0.16337807476520538,0.42072391510009766,3.557500123977661
1758972491039540000,5.4075400390625,-0.10999209433794022,0.21472413837909698,2.968175172805786
1758972491049497900,5.417497802734375,0.09444043040275574,0.3222000002861023,2.229160785675049
1758972491059455000,5.427455078125,0.4923483729362488,0.5592876672744751,1.6186723709106445
1758972491069412900,5.437412841796875,0.7540015578269958,0.7148780226707458,1.313942551612854
1758972491079370000,5.447369873046875,0.7177127599716187,0.7491864562034607,1.213673710823059
1758972491089328000,5.457328125,0.6243710517883301,1.0779569149017334,0.9351171255111694
1758972491099285000,5.467284912109375,0.47586336731910706,1.3608088493347168,0.43393179774284363
1758972491109243000,5.477242919921875,0.2703540623188019,0.5376163125038147,-0.10334797203540802
1758972491119201000,5.487200927734375,0.20775137841701508,-1.1603888273239136,-0.597072184085846
1758972491129158100,5.497158203125,0.14912843704223633,-2.0155038833618164,-1.0536454916000366
1758972491139116000,5.507115966796875,-0.09304691106081009,-1.4522621631622314,-1.3180131912231445
1758972491149073000,5.517072998046875,-0.5629923343658447,-0.3995741605758667,-1.573159098625183
1758972491159031000,5.527031005859375,-1.0086573362350464,0.04759081453084946,-2.233336925506592
1758972491168988000,5.53698779296875,-0.9135854840278625,-0.31465235352516174,-3.141184091567993
1758972491178946000,5.546946044921875,-0.4241303503513336,-0.7347950339317322,-3.5046441555023193
1758972491188903000,5.55690283203125,0.0817202478647232,-0.8493363857269287,-3.0344760417938232
1758972491198860800,5.56686083984375,0.4137437343597412,-1.2694242000579834,-2.5900461673736572
1758972491208818000,5.57681787109375,0.587013840675354,-2.2002851963043213,-2.8261077404022217
1758972491218776000,5.586776123046875,0.765882134437561,-2.7211902141571045,-3.437556743621826
1758972491228733200,5.596733154296875,0.923758864402771,-2.7094016075134277,-4.082334518432617
1758972491238690800,5.60669091796875,0.9696952104568481,-2.7132086753845215,-4.497895240783691
1758972491248648000,5.61664794921875,0.8780372142791748,-3.0917470455169678,-4.5640034675598145
1758972491258606000,5.626606201171875,0.8074607849121094,-3.2556614875793457,-4.459574222564697
1758972491268564000,5.63656396484375,0.8572506308555603,-2.1271448135375977,-4.246918678283691
1758972491278521000,5.64652099609375,0.734592080116272,-0.19663691520690918,-4.036429405212402
1758972491288479000,5.65647900390625,0.4938422441482544,1.338122844696045,-3.9421164989471436
1758972491298436000,5.66643603515625,0.43296319246292114,2.3662972450256348,-3.875472068786621
1758972491308394200,5.676394287109375,0.42373791337013245,2.0127787590026855,-3.5228395462036133
1758972491318351000,5.68635107421875,0.46046823263168335,-0.031174596399068832,-3.013821601867676
1758972491328309000,5.69630908203125,0.286881685256958,-2.7285382747650146,-2.81957745552063
1758972491338266000,5.70626611328125,-0.08225084096193314,-3.82444167137146,-3.054412603378296
1758972491348224300,5.716224365234375,-0.34545865654945374,-3.599365234375,-3.2311794757843018
1758972491358181000,5.72618115234375,-0.6455993056297302,-3.3699629306793213,-2.9677281379699707
1758972491368139000,5.736138916015625,-0.9590246677398682,-3.671339750289917,-2.4846115112304688
1758972491378096000,5.74609619140625,-1.1536990404129028,-4.176623821258545,-2.133563995361328
1758972491388054000,5.756053955078125,-1.1247520446777344,-4.305632591247559,-1.8707188367843628
1758972491398011100,5.76601123046875,-0.9361478686332703,-3.7947709560394287,-1.6058306694030762
1758972491407969000,5.775968994140625,-1.0714884996414185,-2.7572431564331055,-1.2415767908096313
1758972491417926100,5.785926025390625,-1.4354931116104126,-1.7355412244796753,-0.6739631295204163
1758972491427884000,5.795884033203125,-1.5511534214019775,-1.029252290725708,0.042141079902648926
1758972491437842200,5.80584228515625,-1.7103760242462158,-0.48594850301742554,0.9015820026397705
1758972491447799300,5.81579931640625,-1.8668856620788574,-0.0032842401415109634,1.753396987915039
1758972491457757000,5.8257568359375,-2.0611917972564697,0.2952702045440674,2.3736777305603027
1758972491467714000,5.835714111328125,-2.1116116046905518,0.7126960754394531,2.726034641265869
1758972491477672200,5.845672119140625,-1.9378694295883179,1.3501365184783936,2.8519785404205322
1758972491487629000,5.855629150390625,-1.6630127429962158,2.0473527908325195,2.8236820697784424
1758972491497587200,5.865587158203125,-1.333186388015747,2.4622204303741455,2.8667795658111572
1758972491507544000,5.8755439453125,-0.9947534203529358,2.803279161453247,3.27339243888855
1758972491517502000,5.885501953125,-0.6885514259338379,3.142582654953003,3.7690820693969727
1758972491527459000,5.895458984375,-0.3650631010532379,3.05621600151062,3.867351531982422
1758972491537417200,5.905417236328125,-0.15531866252422333,2.6536662578582764,3.1474082469940186
1758972491547374000,5.9153740234375,0.03265603631734848,1.9056531190872192,1.5012048482894897
1758972491557332000,5.92533203125,0.34868311882019043,0.47812485694885254,-1.2184326648712158
1758972491567289000,5.9352890625,0.9397488236427307,-2.5012013912200928,-4.314861297607422
1758972491577247200,5.945247314453125,0.8336706161499023,-4.612739562988281,-6.474956035614014
1758972491587204000,5.9552041015625,0.8347581028938293,-4.2965898513793945,-6.755343437194824
1758972491597162000,5.965161865234375,1.0929241180419922,-2.4642887115478516,-4.532482624053955
1758972491607119000,5.975119140625,0.6744247078895569,2.496612548828125,-0.9980711340904236
1758972491617077000,5.985076904296875,-0.2476561814546585,6.831353664398193,2.1679129600524902
1758972491627035100,5.99503515625,-0.6467639207839966,5.577523708343506,3.1055049896240234
1758972491636992300,6.0049921875,-1.005015254020691,2.0859317779541016,3.4327211380004883
1758972491646950000,6.014949951171875,-1.9249849319458008,-1.5850133895874023,4.260477066040039
1758972491656907000,6.024906982421875,-2.1904351711273193,0.061036959290504456,5.915064334869385
1758972491666865200,6.034865234375,-1.90863835811615,5.578899383544922,7.002969741821289
1758972491676822300,6.044822265625,-1.2191078662872314,7.627460956573486,5.557294845581055
1758972491686780200,6.0547802734375,-0.020327793434262276,5.703214168548584,1.7940479516983032
1758972491696737000,6.064737060546875,1.173701524734497,2.078509569168091,0.024693254381418228
1758972491706695200,6.074695068359375,1.8211877346038818,0.5388609170913696,0.01498271245509386
1758972491716652000,6.084652099609375,1.724395751953125,0.46607112884521484,0.38751420378685
1758972491726610200,6.094610107421875,0.7577661275863647,0.37064725160598755,1.017350673675537
1758972491736567000,6.104567138671875,0.05282524973154068,0.343157559633255,3.6089916229248047
1758972491746525000,6.11452490234375,0.206768199801445,0.894822359085083,5.409045696258545
1758972491756482000,6.12448193359375,0.6375887989997864,1.6297656297683716,5.3225908279418945
1758972491766440200,6.134440185546875,0.6808431148529053,2.4436514377593994,3.9122846126556396
1758972491776397300,6.144397216796875,0.497952938079834,2.9248132705688477,2.750758409500122
1758972491786355000,6.15435498046875,0.6725730299949646,3.0559957027435303,3.331328868865967
1758972491796312000,6.16431201171875,0.6195705533027649,2.0685789585113525,4.275495529174805
1758972491806270200,6.174270263671875,0.11223972588777542,1.0200144052505493,4.22096586227417
1758972491816227000,6.18422705078125,-0.278550386428833,1.3593271970748901,3.446275472640991
1758972491826185200,6.194185302734375,-0.386629581451416,2.1777143478393555,2.681321620941162
1758972491836142000,6.20414208984375,-0.11640556901693344,2.074730634689331,2.117727756500244
1758972491846100000,6.214099853515625,0.18360137939453125,1.1502448320388794,1.9582693576812744
1758972491856057000,6.22405712890625,0.5086205005645752,-0.1733529269695282,1.6060264110565186
1758972491866015200,6.23401513671875,0.7150692343711853,-1.2676255702972412,0.8833422660827637
1758972491875972000,6.24397216796875,0.9092970490455627,-2.230908155441284,0.15110981464385986
1758972491885930000,6.253929931640625,0.8081917762756348,-2.51193904876709,-0.45604556798934937
1758972491895887000,6.26388720703125,0.5055109858512878,-1.2774734497070312,-1.09640371799469
1758972491905845200,6.27384521484375,0.5138100385665894,0.8368193507194519,-1.5747144222259521
1758972491915803100,6.28380322265625,0.17000286281108856,3.117398977279663,-1.8424404859542847
1758972491925760000,6.293760009765625,-0.5219782590866089,4.706662178039551,-2.010784387588501
1758972491935718100,6.30371826171875,-1.2491765022277832,4.464696884155273,-2.5930182933807373
1758972491945675000,6.313675048828125,-1.4327954053878784,2.1935720443725586,-3.4979467391967773
1758972491955633200,6.323633056640625,-0.8600568175315857,-1.1592580080032349,-3.6267058849334717
1758972491965590000,6.333590087890625,-0.2886517643928528,-3.6868348121643066,-2.816619396209717
1758972491975548000,6.3435478515625,-0.21393172442913055,-4.399366855621338,-2.5879178047180176
1758972491985505000,6.353505126953125,0.03873860836029053,-3.9422659873962402,-3.1864705085754395
1758972491995463200,6.363463134765625,0.5615421533584595,-3.3853654861450195,-4.085902214050293
1758972492005420300,6.373420166015625,0.9519009590148926,-2.9133200645446777,-4.641058921813965
1758972492015378000,6.3833779296875,1.01142418384552,-2.59393048286438,-4.672919273376465
1758972492025335000,6.3933349609375,1.0186272859573364,-2.1565792560577393,-4.557747840881348
1758972492035293200,6.403293212890625,1.0319057703018188,-0.7583908438682556,-4.479659557342529
1758972492045250300,6.413250244140625,0.931574285030365,0.6444999575614929,-4.344027996063232
1758972492055208200,6.423208251953125,0.6083248853683472,1.3687995672225952,-4.365659236907959
1758972492065165000,6.4331650390625,0.321878582239151,1.409805178642273,-4.289610385894775
1758972492075123000,6.443123046875,0.4649055302143097,1.2112712860107422,-3.785489320755005
1758972492085080000,6.453080078125,0.8850590586662292,0.8888155817985535,-3.0859827995300293
1758972492095038200,6.4630380859375,0.6808667778968811,-1.2058436870574951,-2.909979820251465
1758972492104995000,6.4729951171875,0.1365572065114975,-3.3022232055664062,-3.4382574558258057
1758972492114953000,6.482952880859375,-0.33468037843704224,-4.083033084869385,-3.711573600769043
1758972492124910000,6.49291015625,-0.7587347030639648,-3.8623287677764893,-3.4805078506469727
1758972492134868200,6.5028681640625,-1.0579438209533691,-3.588721513748169,-2.998728036880493
1758972492144825300,6.512825439453125,-1.2533330917358398,-3.990018606185913,-2.4530110359191895
1758972492154783000,6.522782958984375,-1.045703411102295,-4.486109733581543,-2.107905387878418
1758972492164740000,6.532739990234375,-0.7171692848205566,-4.399269104003906,-1.8408913612365723
1758972492174698200,6.5426982421875,-0.6566910147666931,-3.907308340072632,-1.4479875564575195
1758972492184655000,6.552655029296875,-0.6026135683059692,-2.9345529079437256,-0.9042718410491943
1758972492194613200,6.56261328125,-0.675029456615448,-1.8822802305221558,-0.3179159462451935
1758972492204570000,6.572570068359375,-0.801384687423706,-1.2266919612884521,0.22288385033607483
1758972492214528000,6.582528076171875,-0.999310314655304,-0.8756903409957886,0.8758885860443115
1758972492224485000,6.592485107421875,-1.4234139919281006,-0.6948455572128296,1.6230900287628174
1758972492234443300,6.602443359375,-1.8300907611846924,-0.3287509083747864,2.2722668647766113
1758972492244400000,6.612400146484375,-2.014179229736328,0.17577826976776123,2.6614956855773926
1758972492254358000,6.62235791015625,-1.8782092332839966,0.8322104215621948,2.8625941276550293
1758972492264315100,6.632315185546875,-1.6093285083770752,1.537821650505066,2.9334161281585693
1758972492274273300,6.642273193359375,-1.332816481590271,1.9176627397537231,3.061281442642212
1758972492284229600,6.652229736328125,-1.0618711709976196,2.2034292221069336,3.5077691078186035
1758972492294187800,6.662187744140625,-0.7873640060424805,2.568985939025879,3.9547505378723145
1758972492304145000,6.672144775390625,-0.5631431341171265,2.7339601516723633,3.94746470451355
1758972492314102800,6.682102783203125,-0.3828907608985901,2.710878849029541,3.0658109188079834
1758972492324059600,6.6920595703125,-0.19384215772151947,2.329319477081299,1.129378318786621
1758972492334017800,6.702017822265625,0.16360199451446533,1.4064404964447021,-2.166520118713379
1758972492343975000,6.711974853515625,1.096218466758728,-1.2342764139175415,-5.194704532623291
1758972492353932800,6.721932861328125,0.9847878217697144,-3.8803415298461914,-6.6507487297058105
1758972492363890000,6.731889892578125,0.6073644161224365,-3.5196797847747803,-6.169416904449463
1758972492373847800,6.741847900390625,0.8675104975700378,-2.009310245513916,-3.742654800415039
1758972492383804700,6.7518046875,0.8464781641960144,3.387932300567627,-0.43719276785850525
1758972492393762800,6.7617626953125,0.3035387396812439,9.119779586791992,2.0844473838806152
1758972492403720000,6.771719970703125,0.21511605381965637,7.2596588134765625,2.4003522396087646
1758972492413677800,6.781677734375,0.03434654325246811,1.8479437828063965,1.9411273002624512
1758972492423634700,6.791634765625,-0.7501968741416931,-5.026515960693359,2.7159204483032227
1758972492433592800,6.8015927734375,-1.6265997886657715,-1.4982284307479858,6.2089715003967285
1758972492443550000,6.811550048828125,-1.6896655559539795,3.100675344467163,7.372459888458252
1758972492453507800,6.8215078125,-0.9876711964607239,5.288735389709473,5.515106678009033
1758972492463464700,6.831464599609375,0.27893564105033875,5.333990097045898,1.815436601638794
1758972492473422800,6.8414228515625,1.2024588584899902,3.840839147567749,0.03127342835068703
1758972492483380000,6.8513798828125,1.6430407762527466,2.140146255493164,-0.3692696690559387
1758972492493337900,6.861337890625,1.826147198677063,1.169031023979187,0.04472671076655388
1758972492503294700,6.871294677734375,1.6637623310089111,0.3141099214553833,1.1141676902770996
1758972492513252600,6.881252685546875,0.49568846821784973,-2.5627830028533936,4.349267482757568
1758972492523209700,6.891209716796875,-0.5259384512901306,-3.4058146476745605,5.77074670791626
1758972492533167900,6.90116796875,-0.5991261005401611,-2.4087204933166504,5.474720478057861
1758972492543125000,6.911125,-0.2883896827697754,-0.9009606838226318,3.9121034145355225
1758972492553082600,6.92108251953125,0.05203446373343468,0.4271167516708374,2.4680049419403076
1758972492563039700,6.931039794921875,0.2817077338695526,0.7956744432449341,2.4800331592559814
1758972492572998000,6.940997802734375,0.325272798538208,0.7581536769866943,3.2863645553588867
1758972492582955000,6.950955078125,0.02952369675040245,0.37449121475219727,3.759864091873169
1758972492592913000,6.960912841796875,-0.2968041002750397,0.40354445576667786,3.304777145385742
1758972492602869800,6.970869873046875,-0.28819116950035095,1.0193333625793457,2.335031032562256
1758972492612828000,6.980827880859375,0.1516788899898529,1.6579537391662598,1.329663634300232
1758972492622784800,6.99078466796875,0.6203650236129761,2.1703262329101562,0.9587311744689941
1758972492632743000,7.000742919921875,0.8599342107772827,2.352661371231079,0.9509411454200745
1758972492642699800,7.01069970703125,0.8006508946418762,2.315843105316162,0.9370906352996826
1758972492652657700,7.02065771484375,0.5893083214759827,1.3851350545883179,0.7230907678604126
1758972492662614800,7.03061474609375,0.4609698951244354,-0.6368974447250366,0.07924792170524597
1758972492672573000,7.040572998046875,0.5463761687278748,-2.0539042949676514,-0.6349650025367737
1758972492682530000,7.050530029296875,0.4521167576313019,-1.6509045362472534,-1.1114866733551025
1758972492692487700,7.06048779296875,0.05591534823179245,-0.15786054730415344,-1.4177634716033936
1758972492702444800,7.07044482421875,-0.6056057810783386,1.1691906452178955,-1.8079330921173096
1758972492712403000,7.08040283203125,-1.1508229970932007,1.5524895191192627,-2.507398843765259
1758972492722359800,7.09035986328125,-0.9323166012763977,0.844266951084137,-3.196302890777588
1758972492732318000,7.10031787109375,-0.3409118950366974,-0.5733919739723206,-3.1992347240448
1758972492742274800,7.11027490234375,0.10221748054027557,-1.8526737689971924,-2.759251356124878
1758972492752232700,7.120232666015625,0.35177749395370483,-2.5302295684814453,-2.801743745803833
1758972492762189800,7.13018994140625,0.5857741236686707,-2.6464524269104004,-3.36889910697937
1758972492772148000,7.14014794921875,0.7753065228462219,-2.625736713409424,-4.040534019470215
1758972492782104800,7.150104736328125,0.728571355342865,-2.940183639526367,-4.4239654541015625
1758972492792062700,7.160062744140625,0.5279461145401001,-3.522778034210205,-4.392605304718018
1758972492802019800,7.170019775390625,0.541582465171814,-3.575756549835205,-4.161470413208008
1758972492811978000,7.17997802734375,0.6083404421806335,-2.408600091934204,-4.078789234161377
1758972492821934800,7.189934814453125,0.4141842722892761,-0.33954939246177673,-4.105974197387695
1758972492831892700,7.199892822265625,0.12289625406265259,1.3045612573623657,-4.084291934967041
1758972492841849900,7.209849853515625,-0.0147433802485466,2.0980074405670166,-3.939795732498169
1758972492851807700,7.219807861328125,0.11240498721599579,2.3300576210021973,-3.608366012573242
1758972492861764900,7.229764892578125,0.47518959641456604,1.7221295833587646,-3.1840624809265137
1758972492871723000,7.239722900390625,0.5156952142715454,-1.0490394830703735,-2.770278215408325
1758972492881680000,7.249679931640625,0.17591340839862823,-3.975553512573242,-2.8501715660095215
1758972492891637800,7.2596376953125,-0.14869743585586548,-5.1480817794799805,-2.9829323291778564
1758972492901595000,7.269594970703125,-0.4470278024673462,-4.570600986480713,-2.7583391666412354
1758972492911553000,7.279552978515625,-0.8671960830688477,-3.7686407566070557,-2.280902147293091
1758972492921509600,7.289509521484375,-1.0208860635757446,-3.543581962585449,-1.9479601383209229
1758972492931467800,7.2994677734375,-0.9632530808448792,-3.5573344230651855,-1.6703330278396606
1758972492941425000,7.3094248046875,-0.7534946203231812,-3.3718106746673584,-1.4102182388305664
1758972492951382800,7.3193828125,-0.5952746272087097,-2.897313117980957,-1.075900912284851
1758972492961339600,7.329339599609375,-0.6452958583831787,-2.0715372562408447,-0.6828398108482361
1758972492971297800,7.3392978515625,-0.8294382691383362,-0.9461177587509155,-0.20965304970741272
1758972492981255000,7.3492548828125,-1.0320135354995728,-0.08945711702108383,0.38142064213752747
1758972492991212800,7.359212890625,-1.293078064918518,-0.04335460066795349,1.056347131729126
1758972493001170000,7.369169921875,-1.5518723726272583,0.0006232287269085646,1.7248635292053223
1758972493011127800,7.3791279296875,-1.7028981447219849,0.44610774517059326,2.256603717803955
1758972493021084700,7.389084716796875,-1.6435195207595825,0.911469042301178,2.623975992202759
1758972493031042800,7.399042724609375,-1.3708696365356445,1.268554449081421,2.937978982925415
1758972493041000000,7.409,-1.071783185005188,1.860863447189331,3.269038200378418
1758972493050957800,7.418957763671875,-0.8533509969711304,2.7651288509368896,3.6081182956695557
1758972493060914700,7.428914794921875,-0.9715647101402283,3.545229911804199,3.5879766941070557
1758972493070872800,7.438872802734375,-0.9509566426277161,3.9472007751464844,2.949997663497925
1758972493080830000,7.448829833984375,-0.6641754508018494,3.889225959777832,1.4304521083831787
1758972493090787800,7.458787841796875,-0.10167986899614334,2.919586181640625,-1.0021334886550903
1758972493100744700,7.46874462890625,0.7366783022880554,0.40082257986068726,-3.8540289402008057
1758972493110702800,7.478702880859375,0.8135802745819092,-2.7902462482452393,-6.081360816955566
1758972493120659700,7.48865966796875,0.4327775537967682,-3.5243966579437256,-6.620018005371094
1758972493130617900,7.498617919921875,0.7077609300613403,-2.5537710189819336,-4.4016313552856445
1758972493140575000,7.508574951171875,0.7641001343727112,2.446347951889038,-0.8141515851020813
1758972493150532600,7.51853271484375,0.2043672800064087,7.948113441467285,1.9202932119369507
1758972493160489700,7.52848974609375,0.39954423904418945,6.5161638259887695,2.543639659881592
1758972493170448000,7.53844775390625,0.3470570743083954,2.738569974899292,2.6653330326080322
1758972493180405000,7.548405029296875,-0.13261234760284424,-1.815794587135315,3.6002237796783447
1758972493190363000,7.55836279296875,-0.22984595596790314,0.2160002589225769,5.877942085266113
1758972493200319700,7.56831982421875,0.07481727749109268,2.9164412021636963,6.338375568389893
1758972493210278000,7.57827783203125,0.6984472870826721,3.3275110721588135,4.11485481262207
1758972493220234800,7.58823486328125,1.597457766532898,2.2575409412384033,0.7262539863586426
1758972493230193000,7.59819287109375,2.166367769241333,1.5171996355056763,-0.3661501705646515
1758972493240149800,7.608149658203125,1.925061821937561,1.0349719524383545,-0.39171773195266724
1758972493250107600,7.618107666015625,0.9859859943389893,0.5194356441497803,0.15716588497161865
1758972493260064800,7.628064697265625,0.040000174194574356,-1.2664090394973755,3.0724735260009766
1758972493270023000,7.63802294921875,-0.4129239022731781,-1.4722050428390503,5.527225494384766
1758972493279979800,7.647979736328125,-0.568225085735321,-0.3204970061779022,5.751457214355469
1758972493289937400,7.6579375,-0.4326869547367096,1.1536004543304443,4.383328437805176
1758972493299894300,7.667894287109375,-0.06801192462444305,1.9342786073684692,2.847273826599121
1758972493309852400,7.677852294921875,0.21274997293949127,1.3131988048553467,2.4694714546203613
1758972493319809500,7.6878095703125,0.1693148910999298,-0.21195600926876068,2.9712114334106445
1758972493329767400,7.697767333984375,0.011006740853190422,-1.0607677698135376,3.3523988723754883
1758972493339724500,7.707724609375,-0.10883432626724243,-0.8569284677505493,3.262302875518799
1758972493349682400,7.717682373046875,-0.13807131350040436,0.09397769719362259,2.7263283729553223
1758972493359639300,7.727639404296875,-0.14131395518779755,1.1521602869033813,2.1323282718658447
1758972493369597400,7.737597412109375,0.15409772098064423,1.5952863693237305,1.7736146450042725
1758972493379554600,7.747554443359375,0.4799545109272003,1.6224056482315063,1.5614649057388306
1758972493389512400,7.757512451171875,0.5306012034416199,1.6590555906295776,1.5324121713638306
1758972493399469300,7.76746923828125,0.3603297173976898,1.5645639896392822,1.4372413158416748
1758972493409427500,7.777427490234375,0.19445523619651794,0.4128185212612152,1.09891676902771
1758972493419384600,7.787384521484375,0.1843341737985611,-1.2358675003051758,0.4129892885684967
1758972493429342500,7.797342529296875,0.15606632828712463,-2.045339584350586,-0.2701040804386139
1758972493439299300,7.80729931640625,-0.05194280296564102,-1.5514284372329712,-0.6863767504692078
1758972493449257500,7.817257568359375,-0.4566972255706787,-0.48688143491744995,-1.0956779718399048
1758972493459214300,7.82721435546875,-0.9380401372909546,0.5088310241699219,-1.737306833267212
1758972493469172500,7.83717236328125,-1.0463862419128418,0.9245632886886597,-2.550529718399048
1758972493479129600,7.847129638671875,-0.61326003074646,0.4444577991962433,-3.144773244857788
1758972493489087200,7.857087158203125,-0.0865485891699791,-0.35461461544036865,-3.0943095684051514
1758972493499044400,7.86704443359375,0.22515617311000824,-0.9872313141822815,-2.7363009452819824
1758972493509002500,7.87700244140625,0.370182603597641,-1.9094665050506592,-2.899075746536255
1758972493518959600,7.886959716796875,0.597256600856781,-2.633307933807373,-3.470787763595581
1758972493528917500,7.89691748046875,0.8040385842323303,-2.807861804962158,-3.968172073364258
1758972493538874400,7.906874267578125,0.9055590033531189,-2.5618350505828857,-4.336841106414795
1758972493548832500,7.91683251953125,0.7847002744674683,-2.2355356216430664,-4.473923683166504
1758972493558789400,7.926789306640625,0.4768580496311188,-2.171262264251709,-4.447134494781494
1758972493568747500,7.93674755859375,0.37414631247520447,-1.4186965227127075,-4.419624328613281
1758972493578704400,7.946704345703125,0.26881298422813416,0.04344407469034195,-4.331753253936768
1758972493588662300,7.956662353515625,-0.005097670946270227,1.4619877338409424,-4.144402503967285
1758972493598619400,7.966619384765625,-0.18798014521598816,2.0783286094665527,-3.9496910572052
1758972493608577500,7.97657763671875,-0.16417361795902252,2.2540526390075684,-3.767199754714966
1758972493618534700,7.98653466796875,0.15755422413349152,1.8214900493621826,-3.235952138900757
1758972493628492300,7.9964921875,0.479419082403183,-0.7470920085906982,-2.6126182079315186
1758972493638449400,8.006449462890625,0.23169369995594025,-3.768493890762329,-2.75266170501709
1758972493648407600,8.016407470703125,-0.05332845449447632,-5.426113605499268,-3.1353461742401123
1758972493658364400,8.026364501953125,-0.2869018018245697,-5.097704887390137,-3.028069019317627
1758972493668322600,8.036322509765625,-0.7188041806221008,-4.384802341461182,-2.5369772911071777
1758972493678279400,8.046279541015625,-1.094460129737854,-4.002078056335449,-1.97793710231781
1758972493688237300,8.0562373046875,-1.211323618888855,-3.9432530403137207,-1.4274358749389648
1758972493698194400,8.0661943359375,-1.0177717208862305,-3.897754669189453,-1.0319844484329224
1758972493708152600,8.076152587890626,-0.883613646030426,-3.5940449237823486,-0.722069501876831
1758972493718109400,8.086109375,-0.8566223978996277,-2.5174503326416016,-0.30213573575019836
1758972493728067300,8.0960673828125,-0.8052108287811279,-1.5117453336715698,0.1068243458867073
1758972493738024400,8.1060244140625,-0.9497556686401367,-0.6394209265708923,0.5867913961410522
1758972493747982600,8.115982666015626,-1.331606149673462,0.03446084260940552,1.1751774549484253
1758972493757939500,8.125939453125,-1.8736627101898193,0.32471156120300293,1.715401291847229
1758972493767897300,8.1358974609375,-2.204808235168457,0.6849565505981445,2.1040456295013428
1758972493777854500,8.1458544921875,-2.2429006099700928,1.0287655591964722,2.2651519775390625
1758972493787812400,8.155812255859376,-1.990167498588562,1.7199426889419556,2.3524413108825684
1758972493797769500,8.16576953125,-1.571111798286438,2.60198712348938,2.6133596897125244
1758972493807727400,8.175727294921876,-1.0978164672851562,3.13145112991333,3.1782474517822266
1758972493817684500,8.1856845703125,-0.686366617679596,3.2338478565216064,3.5340323448181152
1758972493827642400,8.195642333984376,-0.44820573925971985,3.310292959213257,3.2772042751312256
1758972493837599500,8.205599609375,-0.2656725347042084,3.27489972114563,2.351557731628418
1758972493847557600,8.2155576171875,-0.10756545513868332,2.604839563369751,1.0551376342773438
1758972493857514500,8.225514404296876,0.10053528845310211,1.39608895778656,-0.40034520626068115
1758972493867472400,8.235472412109376,0.4618615210056305,-0.517554521560669,-2.401212453842163
1758972493877429500,8.245429443359376,0.6636611819267273,-3.0540051460266113,-4.537518501281738
1758972493887387400,8.255387451171876,0.49870502948760986,-3.450645923614502,-4.963226318359375
1758972493897344300,8.26534423828125,0.5462599992752075,-2.1662864685058594,-3.2618372440338135
1758972493907302400,8.275302490234376,0.48862722516059875,1.6376172304153442,-0.7778599262237549
1758972493917259500,8.285259521484376,0.1402018666267395,6.022937297821045,1.1661772727966309
1758972493927217400,8.295217529296876,-0.07368165254592896,6.144631862640381,2.069943904876709
1758972493937174500,8.305174560546876,-0.15128536522388458,3.728999137878418,2.823920726776123
1758972493947132400,8.31513232421875,-0.42922699451446533,0.19412240386009216,4.356786251068115
1758972493957089500,8.325089599609376,-0.1593582034111023,1.4681410789489746,6.888052463531494
1758972493967047400,8.33504736328125,0.01477375254034996,3.9333696365356445,7.797105312347412
1758972493977005600,8.345005615234374,-0.5012845396995544,5.134982109069824,4.244460105895996
1758972493986962400,8.35496240234375,-0.6002374887466431,3.524005174636841,0.639664351940155
1758972493996920300,8.36492041015625,0.38091152906417847,0.9700976610183716,-1.3562943935394287
1758972494006877400,8.37487744140625,1.3165857791900635,-0.4689664840698242,-2.0152063369750977
1758972494016834600,8.38483447265625,1.831547498703003,-1.590851902961731,-1.6146185398101807
1758972494026792400,8.39479248046875,1.5672715902328491,-3.7326526641845703,2.8492977619171143
1758972494036750600,8.40475048828125,0.7895074486732483,-3.1941094398498535,4.82237434387207
1758972494046707500,8.41470751953125,0.009787378832697868,-0.7678302526473999,4.612239837646484
1758972494056665300,8.424665283203124,-0.21740473806858063,1.6587626934051514,3.255634069442749
1758972494066622500,8.43462255859375,-0.023604365065693855,3.0232884883880615,2.087639331817627
1758972494076580600,8.44458056640625,0.2137296050786972,3.314788341522217,2.095834493637085
1758972494086537500,8.454537353515626,0.39307698607444763,2.570479393005371,2.9759740829467773
1758972494096495400,8.464495361328124,0.3025881052017212,1.6717485189437866,3.258190155029297
1758972494106452500,8.474452392578126,0.07332588732242584,1.508744716644287,2.4892590045928955
1758972494116410400,8.484410400390624,-0.03752153366804123,1.9518041610717773,1.8154277801513672
1758972494126367200,8.4943671875,0.1795274168252945,2.3350701332092285,1.6324374675750732
1758972494136325400,8.504325439453124,0.3261629343032837,2.122469902038574,1.7734112739562988
1758972494146282500,8.514282470703124,0.347771555185318,1.5944228172302246,1.811435341835022
1758972494156240400,8.524240478515624,0.35246992111206055,1.2155131101608276,1.612494945526123
1758972494166197500,8.534197509765624,0.284964919090271,0.943131685256958,1.37796950340271
1758972494176155400,8.5441552734375,0.16923415660858154,0.2543880045413971,0.7254582643508911
1758972494186112500,8.554112548828124,0.16250275075435638,-0.6232332587242126,-0.09795600175857544
1758972494196070400,8.5640703125,0.09698820114135742,-0.7193486094474792,-0.621783435344696
1758972494206027500,8.574027587890624,-0.16434167325496674,-0.1191597431898117,-1.0012255907058716
1758972494215985700,8.583985595703124,-0.6838309168815613,0.639224648475647,-1.4964169263839722
1758972494225942300,8.5939423828125,-1.1993646621704102,0.9033606648445129,-2.227902412414551
1758972494235900400,8.603900390625,-1.2333084344863892,0.3565061092376709,-2.9097018241882324
1758972494245857500,8.613857421875,-0.7861040234565735,-1.0213284492492676,-3.087109327316284
1758972494255815400,8.6238154296875,-0.2600369155406952,-2.0755035877227783,-2.8541831970214844
1758972494265772300,8.633772216796874,0.18617066740989685,-2.218311071395874,-2.812910318374634
1758972494275730400,8.64373046875,0.5185748338699341,-1.9941694736480713,-3.1587157249450684
1758972494285688300,8.653688232421874,0.7388723492622375,-1.6967288255691528,-3.66524338722229
1758972494295646500,8.663646484375,0.5487684607505798,-1.6769782304763794,-4.015566825866699
1758972494305603600,8.673603515625,0.14082597196102142,-2.104722499847412,-4.129403591156006
1758972494315561500,8.6835615234375,0.02667170763015747,-2.1437766551971436,-4.155323505401611
1758972494325518300,8.693518310546875,0.06597943603992462,-1.5760910511016846,-4.111756801605225
1758972494335476500,8.7034765625,-0.011202989146113396,-0.6255787014961243,-3.9901294708251953
1758972494345433600,8.71343359375,-0.2318514734506607,0.02904863841831684,-3.757627487182617
1758972494355391500,8.7233916015625,-0.20016811788082123,0.2854878604412079,-3.484105348587036
1758972494365348600,8.7333486328125,0.09453488886356354,0.8520416021347046,-3.343785047531128
1758972494375306500,8.743306396484375,0.4460875988006592,1.235756754875183,-2.941315174102783
1758972494385263400,8.753263427734375,0.5569512844085693,-0.0825846865773201,-2.5320847034454346
1758972494395221500,8.763221435546875,0.4485347867012024,-2.147169828414917,-2.721302032470703
1758972494405178600,8.7731787109375,0.3755466043949127,-3.7537155151367188,-2.849371910095215
1758972494415136500,8.783136474609375,0.19110338389873505,-4.241698265075684,-2.406036376953125
1758972494425093400,8.79309326171875,-0.10417485982179642,-3.646263599395752,-1.8243536949157715
1758972494435051500,8.803051513671875,-0.4740898311138153,-3.030893087387085,-1.286630630493164
1758972494445008600,8.813008544921875,-0.7571966648101807,-2.9000914096832275,-0.802395761013031
1758972494454966500,8.822966552734375,-1.0377117395401,-2.8998684883117676,-0.3313010036945343
1758972494464923400,8.83292333984375,-1.21532142162323,-2.793105363845825,0.027933331206440926
1758972494474881500,8.842881591796875,-1.29802668094635,-2.461228370666504,0.25231635570526123
1758972494484838400,8.85283837890625,-1.3351646661758423,-1.7005276679992676,0.24684832990169525
1758972494494796500,8.862796630859375,-1.3603025674819946,-0.7371754050254822,0.20166733860969543
1758972494504753700,8.872753662109375,-1.4053003787994385,0.10778086632490158,0.25935032963752747
1758972494514711300,8.882711181640625,-1.607435941696167,0.7298586368560791,0.5649003386497498
1758972494524668400,8.89266845703125,-1.8900299072265625,1.1312994956970215,1.1954612731933594
1758972494534626600,8.90262646484375,-1.9124176502227783,1.458518624305725,2.014009714126587
1758972494544583700,8.912583740234375,-1.5169405937194824,1.8274987936019897,2.7256338596343994
1758972494554541600,8.92254150390625,-0.9548583030700684,1.813596248626709,3.1197807788848877
1758972494564498400,8.93249853515625,-0.33905744552612305,1.283168077468872,3.1152713298797607
1758972494574456600,8.94245654296875,0.20851168036460876,0.5917978286743164,2.703111410140991
1758972494584413400,8.952413330078125,0.4752541482448578,0.39576923847198486,1.8805090188980103
1758972494594371600,8.96237158203125,0.6677191853523254,0.29726317524909973,0.5385560393333435
1758972494604328400,8.972328369140625,0.8119869232177734,-0.3231348395347595,-1.485329031944275
1758972494614286300,8.982286376953125,0.7904378175735474,-1.4795950651168823,-3.998595952987671
1758972494624243500,8.992243408203125,1.034487009048462,-2.710341215133667,-5.5262064933776855
1758972494634201600,9.00220166015625,1.0927222967147827,-3.743645668029785,-6.184658050537109
1758972494644158700,9.01215869140625,0.7051857709884644,-4.514142036437988,-5.545257568359375
1758972494654116400,9.022116455078125,0.7556755542755127,-2.028428077697754,-2.800358295440674
1758972494664073500,9.032073486328125,0.45162564516067505,3.6130011081695557,0.1975761204957962
1758972494674031600,9.042031494140625,-0.2875102162361145,6.039564609527588,2.1262967586517334
1758972494683989500,9.051989501953125,-0.07892798632383347,3.2069296836853027,2.1641414165496826
1758972494693946600,9.061946533203125,0.24876625835895538,-0.4448377192020416,1.7965569496154785
1758972494703904500,9.071904541015625,0.012182485312223434,-2.0479605197906494,1.6185050010681152
1758972494713861400,9.081861328125,-0.5259473919868469,1.3390792608261108,-0.07464494556188583
1758972494723819500,9.091819580078125,-0.03923582285642624,5.025901794433594,0.7079779505729675
1758972494733776600,9.101776611328125,0.22882080078125,4.0290727615356445,1.1916110515594482
1758972494743734500,9.111734619140625,0.08371954411268234,0.9295589923858643,0.6613777875900269
1758972494753691400,9.12169140625,0.29418957233428955,-1.720669150352478,-0.32361769676208496
1758972494763649500,9.1316494140625,0.9347836971282959,-3.6274638175964355,-0.4633529484272003
1758972494773606700,9.141606689453125,1.3923002481460571,-3.899867057800293,0.22117602825164795
1758972494783564500,9.151564453125,1.3376576900482178,-3.159848690032959,1.1717000007629395
1758972494793521400,9.161521484375,0.7506141662597656,-2.0424861907958984,1.8581141233444214
1758972494803479600,9.1714794921875,0.5921496748924255,-1.6927132606506348,2.0358502864837646
1758972494813436400,9.1814365234375,0.340036004781723,-2.388387441635132,1.5143758058547974
1758972494823394600,9.19139453125,-0.1319911777973175,-3.0035994052886963,1.370194673538208
1758972494833351400,9.201351318359375,-0.5451623797416687,-2.634181261062622,1.639831304550171
1758972494843309300,9.211309326171875,-0.9217541217803955,-1.7809540033340454,1.9619265794754028
1758972494853266400,9.221266357421875,-1.2965720891952515,-1.0632697343826294,2.1866183280944824
1758972494863224600,9.231224609375,-1.4721894264221191,-0.4757644534111023,2.2577085494995117
1758972494873181700,9.241181640625,-1.3954249620437622,-0.1363244652748108,2.1938722133636475
1758972494883139300,9.251139404296875,-1.1574454307556152,0.048870161175727844,2.082760810852051
1758972494893096400,9.261096435546875,-0.949685275554657,0.07752109318971634,1.9826258420944214
1758972494903054600,9.2710546875,-0.8286318182945251,0.14085187017917633,1.91848886013031
1758972494913011500,9.281011474609375,-0.7303205132484436,0.4943978190422058,1.8886363506317139
1758972494922969600,9.290969482421875,-0.6845394372940063,0.8219298720359802,1.9648669958114624
1758972494932926500,9.300926513671875,-0.668262243270874,1.0421258211135864,2.0815844535827637
1758972494942884400,9.31088427734375,-0.5039936900138855,1.2755777835845947,2.157463312149048
1758972494952841500,9.320841552734375,-0.23093830049037933,1.6043180227279663,2.068129301071167
1758972494962799600,9.330799560546875,0.038397833704948425,2.1077632904052734,1.8262702226638794
1758972494972756500,9.340756591796875,0.17066456377506256,2.8750240802764893,1.4936740398406982
1758972494982714400,9.35071435546875,0.10399579256772995,3.7271625995635986,1.1966935396194458
1758972494992671500,9.36067138671875,-0.26443037390708923,4.09761905670166,0.9075015783309937
1758972495002629600,9.370629638671875,-0.7514641880989075,4.029603481292725,0.6194149255752563
1758972495012586500,9.38058642578125,-1.0439077615737915,3.755117177963257,0.3688708543777466
1758972495022544400,9.39054443359375,-1.093945026397705,3.2143146991729736,0.07452848553657532
1758972495032501500,9.40050146484375,-1.02953040599823,2.3452844619750977,-0.3614642918109894
1758972495042459400,9.41045947265625,-0.7836070656776428,0.966701865196228,-1.0111031532287598
1758972495052416500,9.42041650390625,-0.22817112505435944,-0.5472111105918884,-1.682743787765503
1758972495062374700,9.430374755859376,0.6282039880752563,-1.5541104078292847,-2.0509254932403564
1758972495072331500,9.44033154296875,1.5430485010147095,-2.1824591159820557,-2.276144027709961
1758972495082289400,9.450289306640625,2.0769615173339844,-2.6088993549346924,-2.6217331886291504
1758972495092246500,9.46024658203125,1.7139487266540527,-2.4841325283050537,-2.9230573177337646
1758972495102204700,9.47020458984375,0.9353080987930298,-1.7379704713821411,-2.956932306289673
1758972495112161300,9.480161376953125,0.35110822319984436,-0.7306046485900879,-2.840662717819214
1758972495122119400,9.490119384765626,0.02663293667137623,0.3182680606842041,-2.706306219100952
1758972495132077600,9.50007763671875,-0.20688089728355408,1.5568737983703613,-2.541792869567871
1758972495142034400,9.510034423828126,-0.4471038579940796,2.7189276218414307,-2.4914515018463135
1758972495151992600,9.51999267578125,-0.4986073076725006,3.4009439945220947,-2.7388386726379395
1758972495161949400,9.529949462890626,-0.34386831521987915,4.130881309509277,-3.33599853515625
1758972495171907300,9.5399072265625,-0.3368036150932312,3.5455894470214844,-3.455021619796753
1758972495181864400,9.549864501953126,-0.213387131690979,1.8681495189666748,-2.9586877822875977
1758972495191822600,9.559822509765626,-0.09968200325965881,0.7085680365562439,-2.315746784210205
1758972495201779700,9.56977978515625,-0.13044658303260803,-0.019779609516263008,-1.6771880388259888
1758972495211737300,9.5797373046875,0.013838986866176128,-0.39585447311401367,-1.1376147270202637
1758972495221694500,9.589694580078126,0.4245738089084625,-0.5278212428092957,-1.0439255237579346
1758972495231652600,9.599652587890626,0.4558866620063782,-1.1032168865203857,-1.0638867616653442
1758972495241609500,9.609609375,0.3068300783634186,-1.763106346130371,-0.8785192966461182
1758972495251567600,9.619567626953126,0.24762697517871857,-2.417128324508667,-0.4988609850406647
1758972495261524500,9.6295244140625,0.20354020595550537,-2.6978776454925537,0.04620819166302681
1758972495271482400,9.639482421875,0.36919841170310974,-2.1291818618774414,0.8259411454200745
1758972495281439500,9.649439453125,-0.17556557059288025,-1.2761783599853516,0.7445477843284607
1758972495291396600,9.659396728515626,-0.35090628266334534,-0.7447167634963989,0.8290074467658997
1758972495301353700,9.669353759765626,-0.4995189309120178,-0.5961959958076477,1.0203696489334106
1758972495311311600,9.6793115234375,-0.5989495515823364,-0.49596959352493286,1.375267505645752
1758972495321268500,9.6892685546875,-0.6062735319137573,-0.32773905992507935,1.727552056312561
1758972495331226600,9.6992265625,-0.6268332004547119,-0.08943751454353333,2.059068202972412
1758972495341183700,9.709183837890626,-0.6218767762184143,0.1915166676044464,2.3028342723846436
1758972495351141600,9.7191416015625,-0.6817085146903992,0.5118881464004517,2.407466411590576
1758972495361098500,9.729098388671876,-0.7923988103866577,0.7560893297195435,2.38651967048645
1758972495371056600,9.739056640625,-1.0034555196762085,0.9310702085494995,2.22261381149292
1758972495381013500,9.749013427734376,-1.2681134939193726,1.1570988893508911,2.111032247543335
1758972495390971600,9.7589716796875,-1.4537514448165894,1.4780858755111694,2.028831958770752
1758972495400928500,9.768928466796876,-1.5100597143173218,1.6725739240646362,1.912643313407898
1758972495410886400,9.778886474609376,-1.5203603506088257,1.6725059747695923,1.7616615295410156
1758972495420843500,9.788843505859376,-1.4931899309158325,1.5829675197601318,1.6222807168960571
1758972495430801700,9.7988017578125,-1.5414336919784546,1.4135595560073853,1.3041822910308838
1758972495440758800,9.8087587890625,-1.8358458280563354,1.1734788417816162,0.9723226428031921
1758972495450716400,9.81871630859375,-2.2783048152923584,1.166690707206726,0.70045006275177
1758972495460673500,9.828673583984376,-2.5391550064086914,0.9573343396186829,0.3613832890987396
1758972495470631700,9.838631591796876,-2.726607322692871,0.8860123753547668,0.07061430811882019
1758972495480589600,9.848589599609374,-2.889997959136963,1.0698292255401611,-0.10933548212051392
1758972495490546700,9.858546630859376,-2.9991512298583984,1.302846908569336,-0.34252995252609253
1758972495500504800,9.8685048828125,-2.9217076301574707,1.4586360454559326,-0.8570795655250549
1758972495510461700,9.878461669921874,-2.5592973232269287,1.616686224937439,-1.2136222124099731
1758972495520419600,9.888419677734374,-2.086094617843628,1.5555860996246338,-1.1284003257751465
1758972495530376700,9.898376708984374,-1.6521766185760498,1.8758093118667603,-0.4593980312347412
1758972495540334600,9.90833447265625,-1.3233598470687866,2.684298515319824,0.7507194876670837
1758972495550291500,9.91829150390625,-1.1053413152694702,2.6108975410461426,1.7860841751098633
1758972495560249600,9.92824951171875,-1.2166616916656494,2.823446750640869,2.430241107940674
1758972495570206700,9.938206787109374,-1.2417072057724,3.27726411819458,2.690375804901123
1758972495580164600,9.94816455078125,-0.9558613896369934,3.947052240371704,2.806488275527954
1758972495590121500,9.95812158203125,-1.0552947521209717,4.695399284362793,3.232118606567383
1758972495600079600,9.96807958984375,-0.8802922964096069,5.056406497955322,3.372828245162964
1758972495610036700,9.97803662109375,-0.7139564752578735,4.48079776763916,3.3491036891937256
1758972495619994600,9.98799462890625,-0.7880916595458984,3.6525540351867676,3.93890380859375
1758972495629951700,9.99795166015625,-0.7624450922012329,3.290187358856201,3.5684449672698975
1758972495639909600,10.00790966796875,-0.818992018699646,3.6722660064697266,3.4684555530548096
1758972495649866500,10.017866455078124,-0.7360347509384155,4.72179651260376,3.8658382892608643
1758972495659824600,10.02782470703125,-0.5206350684165955,5.536035537719727,4.459603309631348
1758972495669781800,10.03778173828125,-0.224558025598526,5.577029228210449,4.6436896324157715
1758972495679739600,10.04773974609375,-0.07671371102333069,4.848407745361328,4.470051288604736
1758972495689696500,10.057696533203124,-0.04359930753707886,4.090214729309082,4.1370697021484375
1758972495699654700,10.067654541015624,-0.18892641365528107,3.521291971206665,3.8317534923553467
1758972495709611800,10.07761181640625,-0.3957130014896393,3.1471493244171143,3.6063995361328125
1758972495719569700,10.087569580078124,-0.6615875363349915,2.7548251152038574,3.4103915691375732
1758972495729526500,10.097526611328124,-1.0053293704986572,2.3218472003936768,3.120293140411377
1758972495739484700,10.107484619140624,-1.4676693677902222,2.411206007003784,3.0067594051361084
1758972495749441500,10.117441650390624,-1.9408625364303589,2.346381664276123,2.8926923274993896
1758972495759399700,10.127399658203124,-2.347912311553955,1.8688437938690186,2.781907081604004
1758972495769356800,10.137356689453124,-2.5650076866149902,1.2109180688858032,2.6890878677368164
1758972495779314400,10.147314453125,-2.5863702297210693,0.7697203159332275,2.600707769393921
1758972495789271600,10.157271484375,-2.4623239040374756,0.6340423822402954,2.5567705631256104
1758972495799229700,10.167229736328125,-2.241170883178711,0.6305810809135437,2.52258563041687
1758972495809187600,10.1771875,-1.9893935918807983,0.6252630352973938,2.539418935775757
1758972495819144700,10.187144775390625,-1.7415063381195068,0.5332332253456116,2.5532116889953613
1758972495829102600,10.1971025390625,-1.5718916654586792,0.36581987142562866,2.616861581802368
1758972495839059700,10.207059814453125,-1.4586095809936523,0.1522444784641266,2.747166633605957
1758972495849017600,10.217017578125,-1.366077184677124,-0.07389798760414124,2.730135679244995
1758972495858974700,10.226974609375,-1.290328860282898,-0.29869967699050903,2.4963884353637695
1758972495868932600,10.2369326171875,-1.2368948459625244,-0.5045694708824158,2.1459431648254395
1758972495878889500,10.246889404296875,-1.279128909111023,-0.5435344576835632,1.8584554195404053
1758972495888847600,10.25684765625,-1.465479850769043,-0.2562545835971832,1.840305209159851
1758972495898804700,10.2668046875,-1.7193360328674316,0.24884134531021118,1.9790701866149902
1758972495908762600,10.2767626953125,-1.9613128900527954,0.7466364502906799,2.1781256198883057
1758972495918719500,10.286719482421875,-2.1444902420043945,1.0373343229293823,2.380044460296631
1758972495928677600,10.296677734375,-2.22284197807312,1.1175717115402222,2.5598948001861572
1758972495938634800,10.306634765625,-2.1975810527801514,0.9578860998153687,2.691533327102661
1758972495948592600,10.316592529296875,-2.1246776580810547,0.6068202257156372,2.7489092350006104
1758972495958549500,10.326549560546875,-2.0521981716156006,0.07720193266868591,2.71209454536438
1758972495968507600,10.336507568359375,-1.979939341545105,-0.5366002321243286,2.594184398651123
1758972495978464500,10.346464599609375,-1.8681871891021729,-1.1883149147033691,2.4087257385253906
1758972495988422700,10.356422607421875,-1.6901031732559204,-1.7748106718063354,2.1826817989349365
1758972495998379800,10.3663798828125,-1.4062060117721558,-2.1315886974334717,1.8317177295684814
1758972496008337400,10.37633740234375,-0.9071064591407776,-1.9843928813934326,1.0214293003082275
1758972496018294500,10.38629443359375,-0.3114074170589447,-1.358389973640442,-0.01912612095475197
1758972496028252700,10.396252685546875,0.09711311012506485,-0.5784959197044373,-0.7683219313621521
1758972496038209800,10.406209716796875,0.30545780062675476,0.1522938758134842,-1.1654493808746338
1758972496048167700,10.416167724609375,0.46452784538269043,0.6544286608695984,-1.3792511224746704
1758972496058124500,10.42612451171875,0.6193810701370239,0.8277391791343689,-1.5304516553878784
1758972496068082700,10.436082763671875,0.7894107103347778,0.6279662251472473,-1.6893230676651
1758972496078039600,10.44603955078125,0.9959718585014343,0.3748256266117096,-1.6890265941619873
1758972496087997700,10.455997802734375,0.5109772086143494,4.060760498046875,0.8406838178634644
1758972496097955600,10.46595556640625,-0.10107550770044327,2.6086268424987793,1.4542161226272583
1758972496107912400,10.475912353515625,-0.36121436953544617,0.7936841249465942,1.4112294912338257
1758972496117870600,10.48587060546875,-0.460003525018692,-0.2922443151473999,1.3896328210830688
1758972496127827700,10.49582763671875,-0.31404075026512146,-0.8476271033287048,1.124581217765808
1758972496137785600,10.50578564453125,-0.17798839509487152,-0.8507392406463623,0.758541464805603
1758972496147742500,10.515742431640625,-0.10475759953260422,-0.2631279528141022,0.43723881244659424
1758972496157700600,10.52570068359375,-0.06376595795154572,0.3499618470668793,0.29280173778533936
1758972496167657700,10.53565771484375,-0.123884417116642,0.8292303681373596,0.4161854386329651
1758972496177615600,10.54561572265625,-0.388337641954422,1.1301360130310059,0.6531859636306763
1758972496187572700,10.55557275390625,-0.8436551690101624,1.131317377090454,0.8240197896957397
1758972496197530600,10.565530517578125,-1.1375350952148438,0.87825608253479,0.9113938212394714
1758972496207487500,10.575487548828125,-1.1304184198379517,0.4178503155708313,0.8760280609130859
1758972496217445600,10.585445556640625,-0.8793779015541077,0.18898597359657288,0.7263573408126831
1758972496227402800,10.59540283203125,-0.6958128809928894,-0.07758685201406479,0.5200952887535095
1758972496237360600,10.605360595703125,-0.7750182151794434,-0.2209586501121521,0.4834268093109131
1758972496247317500,10.6153173828125,-1.028257131576538,-0.10412633419036865,0.6347468495368958
1758972496257275600,10.625275634765625,-1.3190628290176392,0.2032000720500946,0.78574538230896
1758972496267232800,10.635232666015625,-1.5994181632995605,0.5800871253013611,0.8118758797645569
1758972496277190700,10.645190673828125,-1.7993229627609253,0.9534271359443665,0.6677203178405762
1758972496287148800,10.655148681640625,-1.8789020776748657,1.398349404335022,0.47477251291275024
1758972496297106400,10.6651064453125,-1.8308460712432861,1.604432225227356,0.34363260865211487
1758972496307063600,10.6750634765625,-1.761450171470642,1.2549293041229248,0.19359293580055237
1758972496317021700,10.685021728515625,-1.7440115213394165,0.7443219423294067,0.0265650674700737
1758972496326978600,10.694978515625,-1.792224645614624,0.458859384059906,-0.029505647718906403
1758972496336936700,10.704936767578126,-1.8520398139953613,0.29103630781173706,0.0040842690505087376
1758972496346893600,10.7148935546875,-1.9065256118774414,0.1925668716430664,0.06185385584831238
1758972496356851500,10.7248515625,-1.9280481338500977,0.2205905169248581,0.05736589804291725
1758972496366808600,10.73480859375,-1.9065827131271362,0.48802313208580017,-0.04214191064238548
1758972496376766700,10.7447666015625,-1.9004311561584473,0.8663984537124634,-0.28697535395622253
1758972496386724600,10.754724609375,-1.9027435779571533,1.3465899229049683,-0.5637060403823853
1758972496396681500,10.764681396484375,-1.846053957939148,1.7680708169937134,-0.7039228081703186
1758972496406639600,10.7746396484375,-1.7955312728881836,1.65494704246521,-0.6017717123031616
1758972496416596700,10.7845966796875,-1.834784746170044,0.9057844281196594,-0.2781737148761749
1758972496426554600,10.7945546875,-1.8155937194824219,0.40352877974510193,-0.0271537397056818
1758972496436511500,10.804511474609376,-1.7256771326065063,0.0517856739461422,0.23831282556056976
1758972496446469600,10.8144697265625,-1.5957016944885254,-0.28586921095848083,0.4739818572998047
1758972496456426500,10.824426513671876,-1.4499660730361938,-0.590513288974762,0.5896205902099609
1758972496466384600,10.834384521484376,-1.3069236278533936,-0.7968973517417908,0.6020612716674805
1758972496476341800,10.844341796875,-1.193752646446228,-0.8008497357368469,0.5296595096588135
1758972496486299400,10.85429931640625,-1.1175745725631714,-0.5892550349235535,0.3576778173446655
1758972496496256500,10.864256591796876,-1.0371761322021484,-0.3034907281398773,0.1705329567193985
1758972496506214700,10.874214599609376,-0.9950905442237854,-0.02745272032916546,0.06849618256092072
1758972496516171800,10.884171875,-1.001160979270935,0.1977684199810028,0.03188597783446312
1758972496526129700,10.894129638671876,-0.996577799320221,0.20358224213123322,0.002653607865795493
1758972496536086500,10.90408642578125,-0.9332196116447449,0.07262049615383148,0.014004000462591648
1758972496546044700,10.914044677734376,-0.8499917984008789,-0.00600612536072731,0.08697988092899323
1758972496556001500,10.92400146484375,-0.7555550336837769,-0.029090404510498047,0.1492307484149933
1758972496565959700,10.933959716796876,-0.6287139058113098,-0.022799896076321602,0.1877571940422058
1758972496575916500,10.94391650390625,-0.48721030354499817,0.009996400214731693,0.22326324880123138
1758972496585874400,10.95387451171875,-0.3523002862930298,0.04619474709033966,0.2550159990787506
1758972496595831600,10.96383154296875,-0.24456582963466644,0.10228145122528076,0.2738322913646698
1758972496605789700,10.973789794921874,-0.174952894449234,0.20766618847846985,0.28787046670913696
1758972496615746600,10.98374658203125,-0.1167452484369278,0.31777137517929077,0.29565754532814026
1758972496625704400,10.993704345703126,-0.0710468739271164,0.38732022047042847,0.301481693983078
1758972496635661600,11.00366162109375,-0.0381789430975914,0.4167119264602661,0.28675785660743713
1758972496645619700,11.01361962890625,-0.004622059874236584,0.4041846990585327,0.2598784267902374
1758972496655576800,11.023576904296876,0.043233878910541534,0.35764914751052856,0.24863748252391815
1758972496665534500,11.033534423828126,0.10300276428461075,0.3210063576698303,0.2543770670890808
1758972496675491600,11.04349169921875,0.14049367606639862,0.2950346767902374,0.25609079003334045
1758972496685449700,11.05344970703125,0.15139947831630707,0.29384300112724304,0.27242740988731384
1758972496695407600,11.06340771484375,0.1452222764492035,0.2618488669395447,0.303533673286438
1758972496705364700,11.07336474609375,0.11611034721136093,0.17941617965698242,0.2970333993434906
1758972496715322400,11.083322265625,0.08542859554290771,0.11043737828731537,0.26653701066970825
1758972496725279500,11.093279541015624,0.05321457237005234,0.0793917328119278,0.23429037630558014
1758972496735237600,11.103237548828124,-0.027727948501706123,0.2952291965484619,0.3793274760246277
1758972496745194800,11.11319482421875,-0.09071489423513412,0.05081707239151001,0.20974375307559967
1758972496755152600,11.123152587890624,-0.04761189594864845,-0.0718047097325325,-0.04265681654214859
1758972496765109500,11.133109619140624,0.0317964181303978,0.15198653936386108,-0.27202677726745605
1758972496775067600,11.143067626953124,0.0586373545229435,0.3034493029117584,-0.42327675223350525
