time,seconds_elapsed,z,y,x
1758972270257414400,0.058414306640625,9.393657812407612,2.565568865165114,1.160791937725991
1758972270267371500,0.06837158203125,9.387554819357394,2.5856577134698626,1.1655791720025241
1758972270277329400,0.078329345703125,9.377498704767227,2.619193487846851,1.1716321153659373
1758972270287287600,0.08828759765625,9.36509105861485,2.665380361743271,1.1667064955320208
1758972270297245400,0.098245361328125,9.351264777836203,2.722890301425755,1.1445945439018308
1758972270307203300,0.108203369140625,9.335917571100593,2.786908600088954,1.1154232483446598
1758972270317161200,0.1181611328125,9.318736719197034,2.8516452761545774,1.0952855924621223
1758972270327118300,0.128118408203125,9.299940248790383,2.913876106879115,1.091247203791514
1758972270337076500,0.138076416015625,9.280506649523973,2.9705192005991936,1.1038997646156699
1758972270347034400,0.148034423828125,9.262091871911286,3.017918665155768,1.129693035107106
1758972270356992500,0.157992431640625,9.24675694013536,3.0540467941135168,1.157871739430353
1758972270366950400,0.167950439453125,9.235687849110365,3.0793443169772625,1.1790219333563
1758972270376908300,0.177908203125,9.229441063675283,3.0947780329525467,1.1874983044743537
1758972270386866400,0.187866455078125,9.22789909493029,3.1015277994737027,1.181857960499823
1758972270396823300,0.1978232421875,9.23010098888874,3.1014234623163937,1.164815713349357
1758972270406781700,0.20778173828125,9.23502441676557,3.0949034128978847,1.1429263184286653
1758972270416739600,0.217739501953125,9.24209070188999,3.0826392668694256,1.1186959133397787
1758972270426697700,0.22769775390625,9.250901200333237,3.06703954667747,1.0883402303036303
1758972270436655900,0.23765576171875,9.260978942233324,3.0511320757105946,1.0465406315807253
1758972270446613500,0.247613525390625,9.27085385503769,3.0380732721731065,0.9958714246384799
1758972270456570600,0.257570556640625,9.278764189770817,3.027865474152565,0.9523428101658821
1758972270466528800,0.26752880859375,9.284787687844037,3.0181209097296,0.9241458395335823
1758972270476486700,0.277486572265625,9.289623437437415,3.0079870537281033,0.9084572720143943
1758972270486444800,0.28744482421875,9.294673122042417,2.995775806930661,0.8970862023681402
1758972270496402700,0.297402587890625,9.301928207737207,2.979380552446842,0.8762448551956563
1758972270506360600,0.307360595703125,9.312838308808207,2.9563980285272002,0.8373359364129602
1758972270516317700,0.317317626953125,9.327831879800558,2.9238308069214223,0.7830388943623751
1758972270526275600,0.327275634765625,9.346627181163429,2.8796070497915145,0.7202855010684579
1758972270536233700,0.337233642578125,9.368772961997985,2.8229224550172685,0.6538991580996661
1758972270546191600,0.347191650390625,9.394031321895122,2.752761708076298,0.5872509127916767
1758972270556149800,0.357149658203125,9.423232866460085,2.6637007380932567,0.5270326274659485
1758972270566107600,0.367107666015625,9.456673363769054,2.5517463837787506,0.4798965265532955
1758972270576065500,0.3770654296875,9.4932153342247,2.4192419933885336,0.44330125500783324
1758972270586022700,0.387022705078125,9.530743977630138,2.2718238192439077,0.41727808475065975
1758972270595980500,0.39698046875,9.567937105470895,2.1125592860914764,0.40256051768809553
1758972270605938700,0.406938720703125,9.603109541139006,1.9464770357482135,0.4023630954198539
1758972270615896600,0.416896484375,9.63490344028473,1.7815278810881077,0.4064250110965222
1758972270625854700,0.426854736328125,9.66280033199191,1.6239001553572714,0.4045050393519923
1758972270635812900,0.436812744140625,9.686553548023104,1.4773488271750508,0.39812381388228385
1758972270645769500,0.44676953125,9.706112234973906,1.3451095174618064,0.3904541195046156
1758972270655727600,0.4567275390625,9.721624276882409,1.2307605230957268,0.38162473369780925
1758972270665685800,0.466685791015625,9.733211838823557,1.1380216683175415,0.37400779242068527
1758972270675643600,0.4766435546875,9.7410023465693,1.0703908782456069,0.37084443301893766
1758972270685601800,0.486601806640625,9.74504957613349,1.0301342711810022,0.3784330249844119
1758972270695559700,0.4965595703125,9.744884156438708,1.0216367111444473,0.40482214247714726
1758972270705516500,0.5065166015625,9.738910927248,1.0524495633635669,0.46512989618461575
1758972270715474700,0.516474609375,9.724424721255899,1.1290203965425492,0.5755575889211147
1758972270725432600,0.5264326171875,9.697465402659773,1.2571537322416901,0.741025433693081
1758972270735390700,0.536390625,9.652346742516755,1.4318167639255523,0.9759570561178028
1758972270745348600,0.5463486328125,9.581758125552534,1.6351979405716062,1.2986240990102291
1758972270755306800,0.556306640625,9.48034650030136,1.8421026151686906,1.7029611248515546
1758972270765263600,0.566263671875,9.349638637939094,2.0399276189923286,2.143207083941996
1758972270775221500,0.576221435546875,9.189896988794207,2.2259598936915395,2.60024737983644
1758972270785179600,0.5861796875,8.991763357412815,2.4010408585265277,3.0908859939500686
1758972270795137500,0.596137451171875,8.734751420605182,2.557950791376829,3.6512177374929187
1758972270805095700,0.606095703125,8.40144008797109,2.6788842786997553,4.29066042715162
1758972270815053800,0.6160537109375,7.987509742745757,2.7488632393330334,4.981348150879144
1758972270825011700,0.62601171875,7.50301182334423,2.775274568657577,5.672129105848073
1758972270834968600,0.635968505859375,6.976692531779408,2.766512001009285,6.3120964039027685
1758972270844926700,0.6459267578125,6.436234824746847,2.7130881615966556,6.883634308853745
1758972270854884600,0.655884521484375,5.90061812800467,2.5819749333038926,7.395032510140537
1758972270864842800,0.6658427734375,5.391570873758196,2.351588553093374,7.846742843183875
1758972270874800600,0.675800537109375,4.928756378376484,2.0266532730080185,8.232279453095794
1758972270884758800,0.6857587890625,4.5292935344427825,1.6241070761062204,8.54506646861732
1758972270894715600,0.695715576171875,4.195578881704807,1.1646975668624042,8.786977866926788
1758972270904673500,0.705673583984375,3.9119104086399075,0.6696960082989185,8.96765533659458
1758972270914631700,0.715631591796875,3.6678503078639504,0.1548715223578736,9.09358414798677
1758972270924589600,0.725589599609375,3.456916816142201,-0.376319320766069,9.16943229291439
1758972270934547700,0.735547607421875,3.277005654671788,-0.9169042709074914,9.19733093818724
1758972270944505600,0.745505615234375,3.1202453594252466,-1.4550949097909032,9.182436151394247
1758972270954462500,0.75546240234375,2.975406972640753,-1.9848982440792022,9.131129158005118
1758972270964420600,0.765420654296875,2.8459306979000565,-2.5007243448108434,9.045300301811098
1758972270974378500,0.77537841796875,2.7283853917106984,-2.9979829615861178,8.929635110279918
1758972270984336600,0.785336669921875,2.62448253416568,-3.4728570203348994,8.78758986134529
1758972270994294500,0.79529443359375,2.5427032456234095,-3.914522636964917,8.624475520896912
1758972271004252700,0.805252685546875,2.497695936900377,-4.316546855819225,8.443892743775248
1758972271014209800,0.815209716796875,2.495460725194216,-4.671818675848842,8.253312304252386
1758972271024167400,0.82516748046875,2.527590139904618,-4.977727622294426,8.062500394061207
1758972271034125600,0.83512548828125,2.576011348724365,-5.235267382368445,7.882039197492599
1758972271044083700,0.845083740234375,2.6196596440538764,-5.425928485912085,7.7373811357110736
1758972271054041600,0.85504150390625,2.6522441090554,-5.541551591867208,7.643768786033988
1758972271063999700,0.864999755859375,2.673322552919388,-5.5966568084955215,7.596129667502641
1758972271073956600,0.87495654296875,2.6876334023445843,-5.604066792491078,7.585608273488282
1758972271083914800,0.884914794921875,2.6989778031796217,-5.5676189300596715,7.6083853379637
1758972271093872600,0.89487255859375,2.696675663717091,-5.495989279609918,7.661099860063195
1758972271103830500,0.90483056640625,2.672352831104398,-5.398997224366664,7.738200635400414
1758972271113788700,0.91478857421875,2.6238720010519025,-5.29717760283649,7.824677141848206
1758972271123746600,0.92474658203125,2.560181619168818,-5.192409068372846,7.915474434104562
1758972271133703700,0.93470361328125,2.4850395766839384,-5.076068169537186,8.014269154855608
1758972271143661800,0.944661865234375,2.357625933561474,-4.98430290903151,8.10979055302441
1758972271153619500,0.954619384765625,2.1142456317432226,-4.996205528271198,8.169349241930245
1758972271163577600,0.96457763671875,1.7982110126025974,-5.07096996961534,8.198907344847917
1758972271173535500,0.974535400390625,1.486330590531975,-5.110605229911208,8.236682656490803
1758972271183493600,0.98449365234375,1.2216365017239004,-5.072870834800601,8.303251516419648
1758972271193450800,0.99445068359375,1.096109987522289,-4.956712891316414,8.390466858536005
1758972271203408600,1.00440869140625,1.050738229401037,-4.848674249140918,8.459118954479694
1758972271213366800,1.01436669921875,0.9949538714021444,-4.780323474231362,8.504643272814155
1758972271223324400,1.024324462890625,0.8895726118676364,-4.741870409457385,8.537780987784267
1758972271233282600,1.034282470703125,0.7693756951909512,-4.745782614465058,8.547280637535453
1758972271243240700,1.04424072265625,0.6396385775569826,-4.808719839893281,8.522762866872549
1758972271253197600,1.054197509765625,0.4966811822135001,-4.921929162704944,8.467486385330558
1758972271263155700,1.06415576171875,0.38067700451891867,-5.062402632278204,8.39032598876059
1758972271273113600,1.074113525390625,0.3099590986192226,-5.180361487704515,8.32094791662991
1758972271283071700,1.08407177734375,0.23719355774102732,-5.230581854900717,8.29187262879312
1758972271293029600,1.094029541015625,0.08505352443996816,-5.220166259348392,8.301386891591548
1758972271302987500,1.103987548828125,-0.1932191539959982,-5.193423213851451,8.316333700832724
1758972271312944600,1.113944580078125,-0.5336177780099213,-5.190527492409944,8.303256192594766
1758972271322902800,1.12390283203125,-0.8204222110129893,-5.23151066018343,8.254004378169775
1758972271332860700,1.133860595703125,-0.9778901430722325,-5.315725651440024,8.182737131291628
1758972271342818800,1.14381884765625,-1.027932742548734,-5.431449295160174,8.100191534551978
1758972271352776400,1.1537763671875,-1.0506631183382122,-5.561598939117789,8.008440302571653
1758972271362734600,1.163734619140625,-1.1003179606061428,-5.700943112400174,7.9030971830904475
1758972271372691700,1.173691650390625,-1.1895561868522315,-5.856712935304642,7.775233019721507
1758972271382649600,1.183649658203125,-1.2915806102395058,-6.036759705853462,7.619692329397797
1758972271392607700,1.193607666015625,-1.3753231616787611,-6.24900077304244,7.431611889997124
1758972271402565000,1.203565185546875,-1.4302698267444967,-6.503019373252988,7.199684710085392
1758972271412523000,1.21352294921875,-1.4646071267627179,-6.811044873461127,6.9018106015354395
1758972271422481200,1.223481201171875,-1.5041156919389962,-7.163070843437314,6.526749208408594
1758972271432438000,1.23343798828125,-1.577365198675543,-7.508261998957395,6.108052671694756
1758972271442396200,1.243396240234375,-1.6592266125433146,-7.839302464050054,5.6535547537595034
1758972271452354000,1.25335400390625,-1.7346119622647762,-8.187157870343327,5.1119432005167
1758972271462312000,1.26331201171875,-1.8227172389581798,-8.560843298941851,4.422675864981114
1758972271472270000,1.27327001953125,-1.9150055004246531,-8.928429241621494,3.575792494152486
1758972271482228000,1.28322802734375,-1.9961764478102326,-9.239825095045566,2.60985165900588
1758972271492185000,1.29318505859375,-2.0568103647321463,-9.457550146603584,1.5794440507762133
1758972271502143200,1.303143310546875,-2.0831994822248814,-9.56858066407144,0.5224134432327002
1758972271512101000,1.31310107421875,-2.0743715942554175,-9.569396656629442,-0.5422322424244135
1758972271522059000,1.32305908203125,-2.042989783041924,-9.457112924230097,-1.5998796666920183
1758972271532017000,1.333016845703125,-1.9993429490171373,-9.232415695571898,-2.633530348496139
1758972271541975000,1.34297509765625,-1.922513976358622,-8.896034453973174,-3.651696460920572
1758972271551932200,1.35293212890625,-1.7813913952268658,-8.476932259067892,-4.597676458056271
1758972271561890000,1.36289013671875,-1.5555223463103174,-8.151010452163218,-5.226066423302888
1758972271571848200,1.37284814453125,-1.3568870490171014,-8.10041073026061,-5.358414454087614
1758972271581805800,1.382805908203125,-1.3674891070522368,-8.225302599820495,-5.161854355633259
1758972271591764000,1.392763916015625,-1.5013245999157427,-8.34349526400268,-4.929758833417296
1758972271601721000,1.40272119140625,-1.6617689905025064,-8.415535833340883,-4.75265045440793
1758972271611679000,1.412678955078125,-1.8125699389532208,-8.436403264802694,-4.6596261337518685
1758972271621637000,1.42263720703125,-1.9339241359062491,-8.395539339494706,-4.684571774438023
1758972271631595000,1.432594970703125,-2.0170146531775592,-8.373531505826115,-4.6889200327754015
1758972271641553200,1.44255322265625,-2.066571441898495,-8.414672494509816,-4.5927071452111
1758972271651511000,1.452510986328125,-2.0586320272013543,-8.520777830535174,-4.396447198747098
1758972271661468000,1.462468017578125,-1.998817902229726,-8.643716227939725,-4.178669832479954
1758972271671426000,1.472426025390625,-1.9080260168008505,-8.742341437342763,-4.012642234933376
1758972271681384200,1.48238427734375,-1.7760685927689075,-8.815662694141269,-3.911526962280273
1758972271691342000,1.492342041015625,-1.6195383068859577,-8.86493379778862,-3.867874867558479
1758972271701300200,1.50230029296875,-1.4627173674933611,-8.897691573530436,-3.8551159237504002
1758972271711258000,1.512258056640625,-1.3288817284993826,-8.923198939752579,-3.8446012517377732
1758972271721215000,1.522215087890625,-1.216046499697119,-8.947143878963589,-3.8262577857956286
1758972271731173000,1.532173095703125,-1.117403023985028,-8.983047551515698,-3.771823600296676
1758972271741131000,1.542131103515625,-1.0147088846426457,-9.013885757371783,-3.727010937362909
1758972271751089200,1.552089111328125,-0.9149139008078724,-9.028060413196682,-3.718525433090329
1758972271761047000,1.562047119140625,-0.8373159165382384,-9.030518327742815,-3.7308223123446105
1758972271771005200,1.572005126953125,-0.7904507780540734,-9.026116877913475,-3.751642105272412
1758972271780962000,1.581962158203125,-0.7720635460354387,-9.021245472484827,-3.767152101354301
1758972271790920000,1.591919921875,-0.7731054563038051,-9.018519846913218,-3.7734620151534672
1758972271800878000,1.601878173828125,-0.7903680682066827,-9.01776815176308,-3.7716798079118132
1758972271810836000,1.6118359375,-0.8271496195718645,-9.019396629747748,-3.759881818090379
1758972271820794000,1.621794189453125,-0.8881533196542412,-9.025893006029724,-3.730260002286732
1758972271830751000,1.6317509765625,-0.9728031951967626,-9.038576546514033,-3.6780651201471684
1758972271840708900,1.641708984375,-1.0687915532901882,-9.05708543215096,-3.605173779198527
1758972271850667000,1.6516669921875,-1.1783566743806004,-9.074770726445317,-3.5256793867230414
1758972271860625200,1.661625244140625,-1.3243658585101366,-9.080458708953858,-3.458573351177573
1758972271870583000,1.6715830078125,-1.5104182992145418,-9.073286625367402,-3.4006647675663233
1758972271880541200,1.681541259765625,-1.6551093864828348,-9.068169720745086,-3.3465339489281174
1758972271890498000,1.691498046875,-1.8025167469725012,-9.06001037968695,-3.29204335706681
1758972271900456000,1.7014560546875,-1.9653867572709918,-9.044803458204864,-3.2402403968542814
1758972271910414000,1.7114140625,-2.0935221387967466,-9.032811407116055,-3.193099290972948
1758972271920372000,1.7213720703125,-2.16287566100806,-9.030409606671332,-3.153419022491574
1758972271930330000,1.731330078125,-2.1531438099361955,-9.03989055172205,-3.1328552501514553
1758972271940288000,1.7412880859375,-2.0978518385641274,-9.061775635793804,-3.107029319499433
1758972271950245000,1.7512451171875,-2.026920545642078,-9.094633364778757,-3.0577146689713
1758972271960203300,1.761203369140625,-1.9540775738798082,-9.131905403074622,-2.9933661154404283
1758972271970161000,1.771160888671875,-1.8854912366487084,-9.16450886503756,-2.937186839839816
1758972271980119000,1.781119140625,-1.8233984992206096,-9.18892200628221,-2.899881483796239
1758972271990077000,1.791076904296875,-1.7640103445760904,-9.207232738998531,-2.878455541668832
1758972272000035000,1.80103515625,-1.6968613466717302,-9.22180077805519,-2.872186252140999
1758972272009992200,1.8109921875,-1.62631320784837,-9.229413591146468,-2.8885034729525447
1758972272019950000,1.8209501953125,-1.570620546720922,-9.223495307013392,-2.937798249736428
1758972272029908000,1.830907958984375,-1.5105629683822392,-9.20430603789687,-3.0280943144723773
1758972272039865900,1.840865966796875,-1.4361951251402496,-9.172533766061067,-3.15790347442925
1758972272049824000,1.850823974609375,-1.3642514403052628,-9.130287446483969,-3.3086335496008394
1758972272059781000,1.860781005859375,-1.3087225914373992,-9.086559948438406,-3.4484885950148105
1758972272069739000,1.870739013671875,-1.280064506099373,-9.04852394003272,-3.5575334916234014
1758972272079697200,1.880697265625,-1.2881266703933476,-9.016672173219918,-3.6346573555752633
1758972272089655000,1.890655029296875,-1.3454435717217623,-8.990465134295821,-3.6785447203576562
1758972272099613000,1.900613037109375,-1.468107243838161,-8.966503243950008,-3.690099549072981
1758972272109571000,1.910571044921875,-1.648669124302268,-8.942842966899276,-3.671220953340828
1758972272119528000,1.92052783203125,-1.8568407500952482,-8.916859215337038,-3.6348493710160255
1758972272129486000,1.930486083984375,-2.005753692842275,-8.894805788961053,-3.6096713828787204
1758972272139444200,1.9404443359375,-1.9837785923995077,-8.90038680396378,-3.6080636554211374
1758972272149402000,1.950402099609375,-1.8106768186829982,-8.948226413503289,-3.5806539627090093
1758972272159360300,1.9603603515625,-1.5391247537389396,-9.032475891551375,-3.4951229204177854
1758972272169317000,1.970317138671875,-1.202218684548512,-9.130091631650924,-3.3714266903832555
1758972272179275000,1.98027490234375,-0.8394463526956737,-9.217240338271855,-3.2416330202564594
1758972272189233200,1.990233154296875,-0.48915275947004555,-9.276742328554391,-3.14216229993999
1758972272199191000,2.00019091796875,-0.14193209828319958,-9.309985841986537,-3.078056322993338
1758972272209149200,2.010149169921875,0.1433909279225394,-9.32549613032937,-3.030666210786998
1758972272219107000,2.020107177734375,0.3105847562368959,-9.328225263032317,-3.0096713535532356
1758972272229064000,2.03006396484375,0.38625385480318214,-9.320661549779771,-3.024308658453822
1758972272239022000,2.04002197265625,0.4176816971154883,-9.305740459501743,-3.065795684096217
1758972272248980000,2.04997998046875,0.4241604646755382,-9.285215557867287,-3.126538614350557
1758972272258938000,2.059938232421875,0.41532731600906697,-9.256727130007743,-3.2110601873382922
1758972272268896000,2.06989599609375,0.39773236687928437,-9.222588713562487,-3.3099937320381403
1758972272278854100,2.079854248046875,0.37708683453984554,-9.186842277398705,-3.410297103786468
1758972272288811000,2.08981103515625,0.3578692161116749,-9.153100751316547,-3.501868303024769
1758972272298769000,2.099768798828125,0.34520101932696995,-9.125463971850275,-3.5745106376484035
1758972272308727000,2.10972705078125,0.346270548254624,-9.108537386968731,-3.617322774414718
1758972272318685000,2.119684814453125,0.3688539167888462,-9.10488412515819,-3.62428472238183
1758972272328643000,2.12964306640625,0.41622302273977546,-9.114332921504975,-3.595288052739203
1758972272338600200,2.13960009765625,0.48516697776950896,-9.136689714741706,-3.529292608784139
1758972272348557800,2.149557861328125,0.5728198345202953,-9.169783590570091,-3.4288942522287367
1758972272358516000,2.159515869140625,0.6749702223747969,-9.210231920814513,-3.2994577249765396
1758972272368474000,2.16947412109375,0.7870650080733,-9.252981513738632,-3.1517025739625093
1758972272378432000,2.179431884765625,0.9044129650596529,-9.29248408756554,-3.0003607966333625
1758972272388390100,2.18939013671875,1.023904948337376,-9.325325449937582,-2.856623941349983
1758972272398347300,2.19934716796875,1.142250318863243,-9.350707728475331,-2.725782223474979
1758972272408305700,2.2093056640625,1.2585394875116644,-9.366219185861945,-2.619234988901019
1758972272418263600,2.219263671875,1.3711765633933246,-9.369916286814211,-2.5485151467725635
1758972272428221700,2.2292216796875,1.4766992772251366,-9.364125428453088,-2.510558633343875
1758972272438179800,2.239179931640625,1.5706639474712312,-9.354302538096904,-2.490062373282015
1758972272448136400,2.249136474609375,1.6494442003279923,-9.345141326519846,-2.4734727652698756
1758972272458094600,2.259094482421875,1.712758150114119,-9.338511679247022,-2.455414253748953
1758972272468052700,2.269052734375,1.7722540029168128,-9.331952759122847,-2.4380624291926623
1758972272478010600,2.2790107421875,1.8506727289848028,-9.319370925447345,-2.4279054845765233
1758972272487968800,2.28896875,1.9501929875314234,-9.298299495846033,-2.4307962375819683
1758972272497926700,2.2989267578125,2.0063008053310214,-9.280203867185115,-2.4541733137771486
1758972272507883800,2.3088837890625,1.9483529126226902,-9.283529796737431,-2.4880478185892105
1758972272517841700,2.318841552734375,1.8041281276918946,-9.309710532176494,-2.4989599654868244
1758972272527799600,2.328799560546875,1.6341190592937171,-9.347374200138448,-2.475202073280513
1758972272537757700,2.3387578125,1.471385096465051,-9.386177685785293,-2.4300420582138003
1758972272547715600,2.348715576171875,1.3323280695609747,-9.422137472438811,-2.3703601813197133
1758972272557672700,2.358672607421875,1.2300137963816522,-9.453073293450474,-2.3014899125806987
1758972272567630800,2.368630859375,1.1553856217030436,-9.478438036331534,-2.2348789670757947
1758972272577588700,2.378588623046875,1.038913205442205,-9.503254497680068,-2.1861353944338857
1758972272587546600,2.388546630859375,0.8088708163637668,-9.531308041253686,-2.1610788407191635
1758972272597504500,2.39850439453125,0.4886393300551921,-9.555757422855496,-2.1492108544014394
1758972272607462700,2.408462646484375,0.14149122264790348,-9.56805927054584,-2.1453718607604504
1758972272617419800,2.418419677734375,-0.19134029971314592,-9.565512508672475,-2.1528499415561555
1758972272627377700,2.428377685546875,-0.49381823053043333,-9.54881213376224,-2.178693553995341
1758972272637335800,2.438335693359375,-0.7643778869036585,-9.520013909301161,-2.2260814742445945
1758972272647293400,2.44829345703125,-1.0091873447421937,-9.481917110618948,-2.2902362587690352
1758972272657251600,2.45825146484375,-1.2359228742949664,-9.439511216565966,-2.353401155473292
1758972272667208700,2.468208740234375,-1.4497804367698728,-9.398596437853573,-2.3947611937351523
1758972272677166600,2.47816650390625,-1.6528649685569106,-9.36294527875781,-2.4028432317733763
1758972272687124700,2.488124755859375,-1.8418318354032932,-9.333380746099353,-2.380347176196426
1758972272697083000,2.498082763671875,-2.006927266666293,-9.306959772163628,-2.3501385004155337
1758972272707040800,2.508040771484375,-2.1402035182118415,-9.278616305732726,-2.3446033703811464
1758972272716998700,2.51799853515625,-2.247800261838734,-9.244272722104192,-2.379324993541837
1758972272726955800,2.527955810546875,-2.345688389138877,-9.203754833754896,-2.4411099801950153
1758972272736913700,2.53791357421875,-2.4483963378109035,-9.16020035418868,-2.503289519123733
1758972272746871800,2.547871826171875,-2.5633678479894995,-9.11801599393189,-2.541913848811388
1758972272756829700,2.55782958984375,-2.688557239191234,-9.081843441310525,-2.542077807201445
1758972272766787800,2.567787841796875,-2.8122455781802533,-9.05466025083065,-2.504949561290443
1758972272776744700,2.57774462890625,-2.920549008771777,-9.037067895516753,-2.44381120197773
1758972272786702600,2.58770263671875,-3.002369213846326,-9.029005000570416,-2.3734495256371795
1758972272796660700,2.59766064453125,-3.051191112421453,-9.030653936821222,-2.3038892288073898
1758972272806618600,2.60761865234375,-3.0729297737598418,-9.040434741601347,-2.2356294931821523
1758972272816576800,2.61757666015625,-3.082237408070266,-9.054367405363918,-2.1653318219885227
1758972272826534700,2.62753466796875,-3.0888126948073507,-9.068751904547215,-2.0946121259905395
1758972272836491500,2.637491455078125,-3.0961028518155214,-9.08136471788287,-2.0281473109580577
1758972272846449700,2.64744970703125,-3.1068142154440284,-9.090219055467843,-1.971299050054699
1758972272856407600,2.657407470703125,-3.12195508595258,-9.094744423937797,-1.9259867670357227
1758972272866365700,2.66736572265625,-3.1384646144658324,-9.09677213037312,-1.889213618172705
1758972272876323600,2.677323486328125,-3.154309249329567,-9.097865770828724,-1.8573010610833762
1758972272886280700,2.68728076171875,-3.1677514992266893,-9.09865604442358,-1.8303544558383524
1758972272896238600,2.697238525390625,-3.176308022908866,-9.099659668508172,-1.8104365801863371
1758972272906196500,2.707196533203125,-3.176854843136668,-9.101718939125538,-1.7990813656963407
1758972272916154600,2.717154541015625,-3.1663390020802615,-9.106060767722129,-1.7956459844201802
1758972272926112800,2.72711279296875,-3.144293466749787,-9.112392308831215,-1.8022597034715115
1758972272936069600,2.737069580078125,-3.1121158289834856,-9.11948606648445,-1.8221091900624333
1758972272946027800,2.74702783203125,-3.0702906574279067,-9.126671009552478,-1.856765492901951
1758972272955985700,2.756985595703125,-3.0173826585829255,-9.13386530497074,-1.9074277586467563
1758972272965943600,2.766943603515625,-2.9518615541413427,-9.141537154772877,-1.972102329261601
1758972272975901700,2.776901611328125,-2.8756705871254202,-9.149397805145382,-2.0468072955034673
1758972272985859600,2.786859619140625,-2.7974858159437774,-9.15518632541895,-2.127676921854913
1758972272995816700,2.796816650390625,-2.7315637294858695,-9.154524062117934,-2.2144072569333018
1758972273005774800,2.80677490234375,-2.7012539314180612,-9.141413820654153,-2.303950311344862
1758972273015732700,2.816732666015625,-2.728322555607557,-9.113162124159931,-2.382623450565338
1758972273025691000,2.82669091796875,-2.8019842964068054,-9.076128570795058,-2.4378639840111136
1758972273035648500,2.8366484375,-2.887497803041339,-9.042103551596403,-2.4643752665787932
1758972273045605600,2.846605712890625,-2.9610721578180788,-9.021140843066572,-2.453858841000497
1758972273055563800,2.856563720703125,-3.0116818165928123,-9.01607479184866,-2.4105090902261432
1758972273065521700,2.866521728515625,-3.02508636482805,-9.027415101030469,-2.3505369982138276
1758972273075479800,2.876479736328125,-2.9869556638762353,-9.056511431655288,-2.2865017484158274
1758972273085437700,2.886437744140625,-2.8951299053549766,-9.101818892368673,-2.223843778320402
1758972273095394600,2.89639453125,-2.764354238453507,-9.157004773017764,-2.1628727383986113
1758972273105352700,2.906352783203125,-2.6187773082613943,-9.21219708340764,-2.108984350214153
1758972273115310600,2.916310546875,-2.4775799083277583,-9.260404357215762,-2.0680710328064857
1758972273125268700,2.926268798828125,-2.3377651949241756,-9.303556685721874,-2.0369328210905193
1758972273135226600,2.9362265625,-2.189957875331491,-9.347778104764222,-1.9983733733326194
1758972273145184800,2.946184814453125,-2.0391031508669255,-9.394853744193911,-1.9362718680761752
1758972273155141600,2.9561416015625,-1.8941271091774106,-9.4397473634094,-1.8638154114134609
1758972273165099500,2.966099609375,-1.765308129301667,-9.476241987591981,-1.804142156217247
1758972273175057700,2.9760576171875,-1.6813756082482636,-9.497569437780976,-1.7718682184696197
1758972273185015600,2.986015625,-1.699186136357486,-9.493785827589035,-1.775151039532572
1758972273194973700,2.9959736328125,-1.7934474514625967,-9.470089310181141,-1.8086837451696396
1758972273204930800,3.005930908203125,-1.8805844676457344,-9.443284889885783,-1.859618105854094
1758972273214888400,3.015888427734375,-1.914242260967195,-9.423387180238961,-1.925057377231121
1758972273224846600,3.0258466796875,-1.8798845026828348,-9.414733333662152,-1.9998060364842414
1758972273234804700,3.0358046875,-1.7883194409243761,-9.417567095783353,-2.069232770062238
1758972273244762600,3.0457626953125,-1.6553944870345294,-9.429256364533305,-2.1258386005118486
1758972273254719700,3.0557197265625,-1.4963326368473469,-9.446203992202877,-2.168089888525009
1758972273264678000,3.065677978515625,-1.3336243929818272,-9.465131980034709,-2.1916031583204862
1758972273274635800,3.0756357421875,-1.185478927475959,-9.483225855129957,-2.198505631185323
1758972273284593700,3.08559375,-1.060496603153646,-9.499006777107715,-2.1942260541699827
1758972273294551600,3.095551513671875,-0.967306716672331,-9.51089419877827,-2.1857686069481073
1758972273304509700,3.105509765625,-0.9100046475868672,-9.517282438510655,-2.1825660115145147
1758972273314466800,3.115466796875,-0.8812859181027859,-9.518987488862871,-2.1869116395033896
1758972273324424700,3.1254248046875,-0.8674412979498505,-9.518906240320206,-2.1927888609737156
1758972273334382800,3.1353828125,-0.8339104189436882,-9.519709957918524,-2.202295524987578
1758972273344340700,3.1453408203125,-0.7514889600403607,-9.5233725720793,-2.216085857670009
1758972273354298600,3.155298583984375,-0.6234167799439281,-9.53016179382801,-2.2265999451607463
1758972273364255700,3.165255859375,-0.47267676790021357,-9.539026652806998,-2.2257392366781827
1758972273374213600,3.175213623046875,-0.32349750236719843,-9.548060438612103,-2.213656000174582
1758972273384171800,3.185171875,-0.19174875264987348,-9.555630581605433,-2.1962604826070367
1758972273394129700,3.195129638671875,-0.0842830058583524,-9.56028337584734,-2.182720763684809
1758972273404087300,3.20508740234375,-0.0009756476625167123,-9.560821720507741,-2.1819931800626216
1758972273414044400,3.21504443359375,0.06478133262468036,-9.556898409584164,-2.198156963878125
1758972273424002300,3.225002197265625,0.12464621510258875,-9.54909153522551,-2.2292843619391323
1758972273433960400,3.23496044921875,0.18960538394562898,-9.538922023388743,-2.2679057690173385
1758972273443918600,3.244918701171875,0.2686211443250067,-9.528049916240573,-2.305317215783894
1758972273453876500,3.25487646484375,0.36774559022076425,-9.51755424118936,-2.3348078064233064
1758972273463833300,3.264833251953125,0.4847966466197744,-9.506932309409976,-2.356606965777278
1758972273473791500,3.27479150390625,0.6092035456743091,-9.495279281017183,-2.3746393199436366
1758972273483749400,3.284749267578125,0.7281722357302903,-9.482402263787389,-2.392530950465053
1758972273493707500,3.29470751953125,0.8326756164517253,-9.469030741038917,-2.411327859263122
1758972273503665400,3.30466552734375,0.9210282920349389,-9.455867892605065,-2.4307724183149633
1758972273513622300,3.314622314453125,0.9977244320940226,-9.442910211354494,-2.450792000775784
1758972273523580400,3.324580322265625,1.0718732988230883,-9.429388466480374,-2.471457333794236
1758972273533538300,3.334538330078125,1.1536170776605605,-9.414356317043303,-2.491877606010437
1758972273543496400,3.344496337890625,1.2501787786625325,-9.39703693345189,-2.510608025443554
1758972273553454300,3.354454345703125,1.3607247274838388,-9.377553649824858,-2.5259239602580665
1758972273563412500,3.36441259765625,1.4727562386877835,-9.3580037307024,-2.535574416656792
1758972273573369600,3.37436962890625,1.5692784844622014,-9.341904244294762,-2.537038351729512
1758972273583327200,3.3843271484375,1.6373799607858062,-9.33224677363336,-2.529535428753495
1758972273593285400,3.394285400390625,1.6738453588739037,-9.330314344266057,-2.51274094581902
1758972273603243300,3.4042431640625,1.685416846463084,-9.335110346370936,-2.487063483726978
1758972273613201400,3.414201416015625,1.6877844523772596,-9.342769336691498,-2.4565052638560534
1758972273623158500,3.424158447265625,1.7000754864126444,-9.348662486383319,-2.4254122064560653
1758972273633116400,3.434116455078125,1.7322766511850058,-9.351472283107041,-2.3915591828234493
1758972273643074300,3.44407421875,1.7764887178771196,-9.353281378355621,-2.3517244544327256
1758972273653032200,3.4540322265625,1.7948399287343024,-9.35900910835266,-2.314709021246433
1758972273662990300,3.463990234375,1.7285662523597478,-9.37696971245706,-2.2923542738363145
1758972273672947500,3.473947509765625,1.5784464180409907,-9.407950541654229,-2.2736231237508355
1758972273682905300,3.4839052734375,1.3907894647493957,-9.44368178024888,-2.2478736193358895
1758972273692863500,3.493863525390625,1.204321648177132,-9.476724802672862,-2.2162349107518793
1758972273702821400,3.5038212890625,1.0285608843844383,-9.50621451652944,-2.178143518897146
1758972273712779300,3.513779296875,0.8351453675661236,-9.535918749919533,-2.130531288372725
1758972273722736400,3.523736328125,0.5851179558835923,-9.56654769693911,-2.075858179551363
1758972273732694300,3.5336943359375,0.27652453786069525,-9.592091888040304,-2.02131235037148
1758972273742652400,3.54365234375,-0.05117801498090848,-9.607083705466986,-1.9676615703351794
1758972273752610600,3.553610595703125,-0.3564474396802485,-9.61138227944374,-1.9143245324231684
1758972273762568400,3.563568359375,-0.6252715409651398,-9.607009471186995,-1.8667603788241742
1758972273772525300,3.573525390625,-0.866491157618165,-9.595052491411566,-1.8315483417980372
1758972273782483500,3.5834833984375,-1.0895487293105572,-9.575689619293808,-1.813680092152208
1758972273792441300,3.59344140625,-1.292813513035327,-9.550001051285863,-1.8156255271315573
1758972273802399500,3.6033994140625,-1.4739035090267658,-9.51993967502117,-1.8354134927935897
1758972273812357400,3.613357421875,-1.6343129744306206,-9.488243975552916,-1.8634968469835818
1758972273822315500,3.6233154296875,-1.7816820487365126,-9.457209370341896,-1.886051500879973
1758972273832272400,3.6332724609375,-1.9260064946494995,-9.42766178881824,-1.8921027637429535
1758972273842230300,3.643230224609375,-2.071882407788187,-9.398730877888202,-1.8819084097258745
1758972273852188400,3.6531884765625,-2.2207044573813675,-9.367782781916857,-1.866415803170204
1758972273862146300,3.663146240234375,-2.3522205673865972,-9.33353447535634,-1.876855217989534
1758972273872104400,3.6731044921875,-2.456608139708638,-9.297422128489613,-1.9218223408326505
1758972273882061600,3.6830615234375,-2.5419644099548457,-9.26348478757441,-1.9739868278339503
1758972273892019500,3.69301953125,-2.6223589661404487,-9.233882845515012,-2.0072396936163304
1758972273901977300,3.702977294921875,-2.70401638186872,-9.210372790589927,-2.0069202524036167
1758972273911935200,3.712935302734375,-2.7847371012687683,-9.194782422748208,-1.9676418427214026
1758972273921893400,3.722893310546875,-2.8572125548928975,-9.187703278142214,-1.8954713633932172
1758972273931850500,3.7328505859375,-2.9143042691633103,-9.188021258050203,-1.8048432902239262
1758972273941808400,3.742808349609375,-2.9541984726563095,-9.19349004485011,-1.7096211672626436
1758972273951766500,3.7527666015625,-2.9781022030740973,-9.202006528782844,-1.6200022711358963
1758972273961724200,3.76272412109375,-2.9874288343459368,-9.212006529271601,-1.5442244149655102
1758972273971682300,3.772682373046875,-2.9801302017703653,-9.22385361893177,-1.486527136017382
1758972273981639400,3.782639404296875,-2.9578713159501553,-9.237044524416326,-1.448569891936332
1758972273991597300,3.792597412109375,-2.9245681812852617,-9.250727597332,-1.428750215961784
1758972274001555500,3.802555419921875,-2.8848224463522434,-9.26454744836986,-1.4199742043100296
1758972274011513300,3.812513427734375,-2.843925203296542,-9.277778101342916,-1.4160978012681007
1758972274021471500,3.822471435546875,-2.8059952856138346,-9.289861922368408,-1.412540693308413
1758972274031428400,3.832428466796875,-2.7729204067468642,-9.300890096861124,-1.4052569660410283
1758972274041386200,3.84238623046875,-2.745452846367657,-9.31048268559277,-1.39563047503978
1758972274051344400,3.852344482421875,-2.7243010450065133,-9.318060427370668,-1.3864933749906718
1758972274061302500,3.862302490234375,-2.709260712262988,-9.322778103542328,-1.3842252839282154
1758972274071260400,3.872260498046875,-2.698127908352017,-9.323729120656848,-1.3994890501640735
1758972274081217300,3.88221728515625,-2.6874840570017695,-9.320907633495331,-1.4382367139704524
1758972274091175400,3.892175537109375,-2.674607332032919,-9.314355727633833,-1.5032206427954136
1758972274101133300,3.90213330078125,-2.657145617361367,-9.304278570255637,-1.5938485698342322
1758972274111091500,3.912091552734375,-2.628112707361579,-9.291261852294205,-1.7134323961138724
1758972274121049300,3.92204931640625,-2.5888138394132256,-9.274574921387433,-1.8576117344677447
1758972274131007500,3.932007568359375,-2.5641411704495547,-9.25011268030405,-2.007732007177919
1758972274140964600,3.941964599609375,-2.6052850817427036,-9.211005243274569,-2.1307835095681247
1758972274150922200,3.951922119140625,-2.730741599448025,-9.158459648001193,-2.1991009667299686
1758972274160880400,3.96188037109375,-2.8783038582384584,-9.10818492026925,-2.2196241147987545
1758972274170838300,3.97183837890625,-2.9896535246580838,-9.075638156929612,-2.205703579865396
1758972274180796400,3.98179638671875,-3.055351739232242,-9.065162940144539,-2.158246978294104
1758972274190753500,3.99175341796875,-3.07862184792161,-9.072363665303588,-2.093971051608026
1758972274200711400,4.00171142578125,-3.0538731911122796,-9.096133832469581,-2.0259766889207063
1758972274210669300,4.01166943359375,-2.9781080482929942,-9.135331285870075,-1.9613726993240415
1758972274220627200,4.021627197265625,-2.860049531884491,-9.18481807809472,-1.9051523610606789
1758972274230585300,4.03158544921875,-2.7241689430594445,-9.235791894006729,-1.8572621903777122
1758972274240542500,4.04154248046875,-2.600305539764464,-9.278879340583085,-1.81966749599874
1758972274250500400,4.051500244140625,-2.491604342027008,-9.314300782576202,-1.790557575239986
1758972274260458500,4.06145849609375,-2.370473724696785,-9.353260335567594,-1.751499676440656
1758972274270416400,4.07141650390625,-2.2299575850255784,-9.400128469726443,-1.683821540095657
1758972274280374300,4.081374267578125,-2.0797296141572295,-9.44791605681777,-1.6068674797527491
1758972274290331400,4.091331298828125,-1.9331842773243784,-9.489098546555638,-1.5460269343428312
1758972274300289300,4.101289306640625,-1.8092746968001125,-9.51910205515325,-1.5111561119697987
1758972274310247400,4.111247314453125,-1.7354367226511238,-9.534252278012037,-1.5022262249305844
1758972274320205600,4.12120556640625,-1.6997955004274845,-9.539036589679121,-1.5125667094200848
1758972274330163500,4.13116357421875,-1.659056224412471,-9.54144365082085,-1.5423260339982807
1758972274340120300,4.141120361328125,-1.5941510599121451,-9.54392728433013,-1.5945283687919378
1758972274350078500,4.151078369140625,-1.5054044165752827,-9.545314939296246,-1.6706557690523565
1758972274360036400,4.161036376953125,-1.4001966139115392,-9.544573181018233,-1.7637831116914748
1758972274369994500,4.170994384765625,-1.288837595141679,-9.542982112434506,-1.8549279022112488
1758972274379952400,4.180952392578125,-1.1869852403856813,-9.541481060221791,-1.9291421623267233
1758972274389909500,4.190909423828125,-1.1048947670023888,-9.540068855336308,-1.9841076782234013
1758972274399867400,4.200867431640625,-1.0452456963993608,-9.538027704897523,-2.025802939788997
1758972274409825500,4.210825439453125,-1.0063478835325688,-9.534017300212383,-2.0640170812405643
1758972274419783700,4.22078369140625,-0.9835125860638916,-9.52753202984631,-2.10457004090324
1758972274429741600,4.230741455078125,-0.972209978543967,-9.519224220228194,-2.146987771524489
1758972274439698400,4.240698486328125,-0.9687249129071831,-9.509153492590784,-2.192707320170104
1758972274449656600,4.250656494140625,-0.9365610114052891,-9.500892444723844,-2.2419361921109258
1758972274459614500,4.260614501953125,-0.8203234998788684,-9.49953752298355,-2.292648288346827
1758972274469572600,4.270572509765625,-0.6339789443600923,-9.503744327023625,-2.3339469518102702
1758972274479530500,4.280530517578125,-0.4294194446496665,-9.51061655088067,-2.352478633800894
1758972274489487600,4.290487548828125,-0.24629849081989377,-9.518983397209643,-2.344925149681419
1758972274499445800,4.30044580078125,-0.1056071224459447,-9.528177926534413,-2.3179915500484407
1758972274509403400,4.3104033203125,-0.012346483699802775,-9.536773905444145,-2.2847747784927486
1758972274519361500,4.320361572265625,0.04099601812190376,-9.542409865504503,-2.260779424268752
1758972274529319400,4.3303193359375,0.0686190019582631,-9.543201308143137,-2.2567715038016436
1758972274539276500,4.340276611328125,0.08737523625264874,-9.538726793077588,-2.2749610943563283
1758972274549234700,4.350234619140625,0.11405069640609435,-9.530679680222272,-2.3072705418087542
1758972274559192600,4.360192626953125,0.16063370261378584,-9.521637126588821,-2.3415865067780017
1758972274569150500,4.370150390625,0.23003203208120537,-9.512664715582131,-2.372060993888229
1758972274579108400,4.3801083984375,0.31661607229039074,-9.503877013492584,-2.3971778994880615
1758972274589065500,4.3900654296875,0.41115050524845714,-9.495144840982556,-2.417349603770673
1758972274599023600,4.400023681640625,0.5049762054152787,-9.486324990189075,-2.4341376569643614
1758972274608981500,4.4099814453125,0.5926784907983615,-9.477695109009742,-2.447940702997893
1758972274618939600,4.419939697265625,0.6720148797005414,-9.469580776137112,-2.458825815758109
1758972274628897800,4.429897705078125,0.7439614871449768,-9.46173356976807,-2.468301500111818
1758972274638854400,4.4398544921875,0.8124230289526283,-9.453706915178895,-2.4774513135120273
1758972274648812500,4.4498125,0.8852688502591103,-9.444847901418804,-2.486266780391335
1758972274658770700,4.459770751953125,0.972287281563878,-9.434290267047286,-2.4938342930361626
1758972274668728600,4.469728515625,1.0794833354353903,-9.42139688320458,-2.4984727664917705
1758972274678686700,4.479686767578125,1.2019344607796518,-9.406290499487518,-2.4994912958845497
1758972274688643300,4.489643310546875,1.3264319972597063,-9.390535296472907,-2.495764092054963
1758972274698601500,4.4996015625,1.4395219314754009,-9.375951475325227,-2.487909286901355
1758972274708559600,4.5095595703125,1.5340059494204819,-9.36331586563587,-2.479014032784104
1758972274718517500,4.519517578125,1.6118180878974497,-9.352194167640805,-2.471614277921617
1758972274728475600,4.5294755859375,1.6817627078697084,-9.340928677260875,-2.4676097184553742
1758972274738432800,4.539432861328125,1.7533403358712791,-9.327784533527494,-2.4675083039075134
1758972274748390700,4.549390625,1.8292017786718904,-9.312853506377339,-2.4688383834674954
1758972274758348500,4.5593486328125,1.900313542727381,-9.299453926578163,-2.4656337422072885
1758972274768306400,4.569306396484375,1.9417291105687617,-9.292947613424062,-2.4578812283843754
1758972274778264600,4.5792646484375,1.9150220131680369,-9.299826851543784,-2.4528192688196895
1758972274788221700,4.5892216796875,1.8090261288665235,-9.32239816431403,-2.4475927663430572
1758972274798179600,4.5991796875,1.6570133204080164,-9.357075509941577,-2.4227752820812163
1758972274808137700,4.6091376953125,1.5004302814245223,-9.39796866134405,-2.365857316942513
1758972274818095400,4.619095458984375,1.357865246399492,-9.438443295073508,-2.2896252872638403
1758972274828053500,4.629053466796875,1.233952451004833,-9.47479178878367,-2.2081873595051467
1758972274838010600,4.6390107421875,1.1053321355063468,-9.508184939819573,-2.1314453344777227
1758972274847968500,4.648968505859375,0.9252142724826932,-9.54137175462842,-2.067989638133347
1758972274857926700,4.6589267578125,0.655980932809785,-9.574373860520124,-2.0177859298110006
1758972274867884500,4.668884521484375,0.3152909976990893,-9.600663901552558,-1.9743948241129516
1758972274877842700,4.6788427734375,-0.04316226537823677,-9.613250411403179,-1.9375119312651454
1758972274887799600,4.688799560546875,-0.3787557906653732,-9.611414428147674,-1.9098770514950154
1758972274897757400,4.69875732421875,-0.6769296128142624,-9.597778116983175,-1.8959924646578727
1758972274907715600,4.708715576171875,-0.9412059876669198,-9.574908698049187,-1.8988453698709606
1758972274917673500,4.718673583984375,-1.1817992160499096,-9.545241874060034,-1.913656862294674
1758972274927631600,4.728631591796875,-1.4006667156413197,-9.511340188980101,-1.9346620947919786
1758972274937588500,4.73858837890625,-1.5960403807900845,-9.477388235017656,-1.9499140244595705
1758972274947546400,4.74854638671875,-1.775191225412488,-9.446482809144259,-1.9449992182806133
1758972274957504500,4.75850439453125,-1.950063954324275,-9.419334105455874,-1.9088760577589272
1758972274967462700,4.768462646484375,-2.1250389745667575,-9.394634548485278,-1.8426693091407418
1758972274977419500,4.77841943359375,-2.29463317855373,-9.3700302685827,-1.762830779402703
1758972274987377700,4.788377685546875,-2.4260442207492887,-9.346830594781041,-1.7092179932892322
1758972274997335600,4.79833544921875,-2.502578740505874,-9.326122737795114,-1.711985996697843
1758972275007293400,4.80829345703125,-2.5596710392981765,-9.304428792381286,-1.7453044750623403
1758972275017251600,4.81825146484375,-2.625763513886928,-9.280335384610295,-1.7751421255737543
1758972275027208400,4.82820849609375,-2.70701907081604,-9.256448313066363,-1.777805791825056
1758972275037166600,4.83816650390625,-2.798556660045683,-9.235856191414594,-1.7428265406414865
1758972275047124700,4.848124755859375,-2.890891537132859,-9.220481512150167,-1.672079372114688
1758972275057082600,4.85808251953125,-2.977159369266033,-9.208663064062595,-1.5834871886871755
1758972275067040500,4.86804052734375,-3.05350932623595,-9.197962806349992,-1.4979733897916971
1758972275076997600,4.87799755859375,-3.116800479668379,-9.187657100912928,-1.4292952826239167
1758972275086955500,4.88795556640625,-3.1661370497673746,-9.178504072642326,-1.3787733021326363
1758972275096913700,4.89791357421875,-3.2035254079192876,-9.170928084430098,-1.3423352304428815
1758972275106871600,4.90787158203125,-3.2286595569148657,-9.165540546172856,-1.3187090017922223
1758972275116829700,4.91782958984375,-3.238390969595313,-9.1639114836663,-1.306118692549318
1758972275126786600,4.92778662109375,-3.2348668871223927,-9.165265820884704,-1.3053423013493417
1758972275136744400,4.937744384765625,-3.222146814019978,-9.168439190223813,-1.31448904600963
1758972275146702600,4.94770263671875,-3.2043066214248537,-9.17267580488026,-1.3284560504332183
1758972275156660500,4.957660400390625,-3.1842937609657644,-9.177086022537946,-1.3460164031736552
1758972275166618600,4.96761865234375,-3.16372180531919,-9.1809766002357,-1.367824330355972
1758972275176575700,4.97757568359375,-3.141419372618198,-9.18474501285851,-1.3936724728398024
1758972275186533400,4.987533447265625,-3.114534288302064,-9.189227126708627,-1.4241447679929435
1758972275196491500,4.997491455078125,-3.077928897221386,-9.195184573808312,-1.464703134483099
1758972275206449400,5.007449462890625,-3.0248133931055663,-9.203663063818215,-1.521012027812749
1758972275216407600,5.017407470703125,-2.952688652615249,-9.214133019906281,-1.597419852449745
1758972275226364700,5.02736474609375,-2.8646371519356966,-9.223562527030706,-1.7000372002288697
1758972275236322600,5.037322509765625,-2.7689193544119597,-9.227224556669592,-1.8335225644804536
1758972275246280700,5.04728076171875,-2.6827801170945165,-9.219143541544675,-1.9951079417958855
1758972275256238300,5.05723828125,-2.650414263279736,-9.190789553719759,-2.1622003920949995
1758972275266196500,5.067196533203125,-2.726442733210325,-9.136856888002157,-2.2923189102619883
1758972275276153600,5.077153564453125,-2.880759434697032,-9.071132662203908,-2.3634987711176274
1758972275286111500,5.087111572265625,-3.0320269777461886,-9.01538037984371,-2.387489303036034
1758972275296069600,5.097069580078125,-3.140019150431454,-8.983928426003455,-2.366369650378823
1758972275306027800,5.10702783203125,-3.2030791254565116,-8.979378507614134,-2.298136948890984
1758972275315984400,5.116984375,-3.2176921726986762,-8.998028263026475,-2.202801428683102
1758972275325942500,5.126942626953125,-3.172620858828723,-9.039616995477676,-2.095276581248641
1758972275335900700,5.136900634765625,-3.0604853027284142,-9.102909610214828,-1.9851605482771992
1758972275345858600,5.146858642578125,-2.893254759132862,-9.179543937084079,-1.8802713100433348
1758972275355816700,5.156816650390625,-2.712860198059678,-9.25339593975842,-1.7847759230986235
1758972275365773300,5.166773193359375,-2.5658164101853966,-9.310123789152502,-1.7054596636690198
1758972275375731500,5.1767314453125,-2.4575319765552877,-9.349289093849062,-1.6497725554995237
1758972275385689600,5.186689697265625,-2.361940435759723,-9.380348248979448,-1.6126738279439508
1758972275395647500,5.1966474609375,-2.2776336745664474,-9.406153136843443,-1.583368823004514
1758972275405604900,5.20660498046875,-2.206784214708954,-9.427495784601568,-1.556535907267034
1758972275415562000,5.21656201171875,-2.141077378436923,-9.445895364645123,-1.5366308910965918
1758972275425519900,5.226519775390625,-2.079546366544813,-9.459994617146252,-1.5343977252170442
1758972275435478000,5.23647802734375,-2.0277795005589723,-9.468556109264492,-1.5507790973059832
1758972275445436000,5.246435791015625,-1.9871691116206347,-9.472692186155914,-1.577853566714376
1758972275455394000,5.25639404296875,-1.9523523575223982,-9.474573762118816,-1.6097108864851295
1758972275465351000,5.266350830078125,-1.9137670446708797,-9.475857956710458,-1.6480230814836918
1758972275475308800,5.276308837890625,-1.8627061349973082,-9.476969717344641,-1.699330659394711
1758972275485267000,5.286266845703125,-1.7948929740957915,-9.478263264286518,-1.7638760506719349
1758972275495224800,5.296224853515625,-1.7152417836233973,-9.479880636355281,-1.8330790584966539
1758972275505182000,5.306181884765625,-1.6320013364873827,-9.481562890353798,-1.8991846848279237
1758972275515139800,5.316139892578125,-1.5490418982498346,-9.484005607330799,-1.9556341556720434
1758972275525097700,5.32609765625,-1.4712432037763297,-9.488063942810893,-1.9956183755360541
1758972275535056000,5.336055908203125,-1.4025406928196549,-9.493052837139368,-2.0211896007746457
1758972275545014000,5.346013916015625,-1.3434279941156506,-9.498575399953125,-2.03534584416002
1758972275554971000,5.355970947265625,-1.270164312723279,-9.506544771397113,-2.045164788993448
1758972275564929000,5.365928955078125,-1.1156386446610091,-9.52324163917601,-2.0575740425810216
1758972275574887000,5.375886962890625,-0.8811294123668223,-9.546529575783014,-2.0634334361337126
1758972275584844800,5.3858447265625,-0.6189077050216496,-9.569359831750392,-2.0529791160061954
1758972275594803000,5.395802978515625,-0.37515878908671435,-9.587879823303222,-2.0253917286396024
1758972275604759800,5.405759765625,-0.17681251960163935,-9.601258944836259,-1.9887110803656278
1758972275614718000,5.415718017578125,-0.03111435819963226,-9.60990928428173,-1.954245623923093
1758972275624676000,5.425676025390625,0.0667784475589171,-9.614369770821929,-1.9312725984841583
1758972275634634000,5.435634033203125,0.12721880553695372,-9.61470353282094,-1.9265655898369847
1758972275644592000,5.445592041015625,0.16155520137287677,-9.6109140774101,-1.94284174798578
1758972275654549000,5.455549072265625,0.1829558263959363,-9.603581834825873,-1.9769028614111244
1758972275664507000,5.4655068359375,0.20837248212732373,-9.5938489608407,-2.0211499994166195
1758972275674465000,5.475465087890625,0.25006093035964294,-9.582888590887189,-2.0678800402790305
1758972275684423000,5.4854228515625,0.3120976450178772,-9.571033317920564,-2.113828867635876
1758972275694381000,5.495381103515625,0.3967012702658772,-9.558598783761262,-2.155511415850371
1758972275704338000,5.505337890625,0.49993057593088597,-9.545777880632876,-2.1905692852281033
1758972275714295800,5.5152958984375,0.6117961559833959,-9.532817861294745,-2.218437681493163
1758972275724254000,5.52525390625,0.7218149025928229,-9.520380989047885,-2.2386828894034028
1758972275734211800,5.5352119140625,0.8226943206634372,-9.50948024032712,-2.2501893489323557
1758972275744169000,5.5451689453125,0.9110898124750703,-9.50080768904984,-2.2527692824229595
1758972275754127000,5.555127197265625,0.9886242299892007,-9.493901562923192,-2.24918309449926
1758972275764084700,5.565084716796875,1.0621645363658665,-9.487204111111163,-2.243908953488618
1758972275774043000,5.57504296875,1.1419250324316321,-9.47863209759891,-2.240966178034991
1758972275784000800,5.585000732421875,1.2354130250766873,-9.466936983630061,-2.2408139100827276
1758972275793958000,5.5949580078125,1.3404339268662036,-9.452136889383196,-2.2429291486710308
1758972275803916000,5.604916015625,1.4462396954230963,-9.435967844870685,-2.2452825799293814
1758972275813874000,5.6148740234375,1.540574514155835,-9.421389868941903,-2.243754055187851
1758972275823832000,5.62483203125,1.6166630437105893,-9.410481521436571,-2.2359821060121057
1758972275833790000,5.6347900390625,1.6766360125057398,-9.402865785735845,-2.2238250736199316
1758972275843746800,5.644746826171875,1.7290969982355833,-9.396434291383624,-2.210795350046456
1758972275853705000,5.654705078125,1.7826894722133875,-9.389046519219875,-2.1995938648134468
1758972275863662800,5.664662841796875,1.8397146971188485,-9.380258232608437,-2.190112481371313
1758972275873621000,5.67462109375,1.8959904188312589,-9.371504432788491,-2.179564930002391
1758972275883577900,5.684577880859375,1.945266637045145,-9.364794706016779,-2.164933908712119
1758972275893535700,5.69453564453125,1.9785610038816928,-9.36158217371106,-2.1486009058095514
1758972275903494000,5.704493896484375,1.9700695082597433,-9.364704105123877,-2.142788420138508
1758972275913452000,5.7144521484375,1.8978597198344767,-9.37786578451395,-2.150386912443489
1758972275923410000,5.724409912109375,1.7739599300518631,-9.401113973632455,-2.1546448621489107
1758972275933367000,5.734366943359375,1.6312696612119675,-9.432176635894178,-2.1315210300624368
1758972275943325000,5.744324951171875,1.4896952446594833,-9.467548393526673,-2.077670489670336
1758972275953282800,5.75428271484375,1.3553332437038421,-9.503033548405766,-2.0064448899768292
1758972275963241000,5.764240966796875,1.2133153942327946,-9.537996725237369,-1.9299938107199965
1758972275973198800,5.77419873046875,1.030655080184713,-9.573633855807781,-1.8584028848454355
1758972275983156000,5.784156005859375,0.7840276862040162,-9.608368484580517,-1.798586567916721
1758972275993114000,5.794114013671875,0.4828882557151839,-9.6381469522506,-1.7445169779464602
1758972276003072000,5.804072021484375,0.16411190011836588,-9.659130703568458,-1.686610440161824
1758972276013030100,5.814030029296875,-0.13875451855985446,-9.670040804639457,-1.6252553693585097
1758972276022987000,5.823987060546875,-0.41102735379282385,-9.67197615661621,-1.5666292851276695
1758972276032945000,5.83394482421875,-0.6574176145493984,-9.66572820213735,-1.5204915110699833
1758972276042903000,5.843903076171875,-0.8886158225994557,-9.651395140880346,-1.49375796405375
1758972276052861000,5.85386083984375,-1.1057815597742795,-9.629368017989396,-1.4909380843274294
1758972276062819000,5.863819091796875,-1.3030346089288591,-9.601340777900814,-1.5122048903703689
1758972276072776000,5.87377587890625,-1.475385564278066,-9.571142038992047,-1.5449498066306113
1758972276082733800,5.88373388671875,-1.6269053285226225,-9.54237830132246,-1.570526000305265
1758972276092692000,5.89369189453125,-1.7725113386787472,-9.51589419902265,-1.5736410635858773
1758972276102649900,5.90364990234375,-1.9249657534249125,-9.490423073157668,-1.548153424977511
1758972276112608000,5.91360791015625,-2.0880425383418797,-9.462954635995626,-1.5043180826433002
1758972276122565000,5.923565185546875,-2.2405460529267787,-9.42987946486771,-1.492554287352413
1758972276132522800,5.933522705078125,-2.359718960317969,-9.393554936555027,-1.5372813178293405
1758972276142481000,5.94348095703125,-2.4478769901119173,-9.356886709371208,-1.6207978054277599
1758972276152438800,5.953438720703125,-2.5209634152412415,-9.321810135293006,-1.7085083837151527
1758972276162396000,5.96339599609375,-2.5953096311733126,-9.289778920260071,-1.7705195803396403
1758972276172354000,5.97335400390625,-2.679582490096986,-9.26195567831099,-1.7906392621740699
1758972276182312000,5.98331201171875,-2.7716625156402586,-9.239783009469509,-1.7648463570088146
1758972276192270000,5.99327001953125,-2.8585981640323994,-9.225299141564964,-1.7007918179884551
1758972276202227700,6.003227783203125,-2.9293527852132915,-9.218983967068791,-1.6123225302882491
1758972276212184800,6.013184814453125,-2.9810706974908707,-9.218624486106634,-1.516764453370869
1758972276222143000,6.02314306640625,-3.0138413327142595,-9.221914175301789,-1.429482914150506
1758972276232100900,6.033100830078125,-3.026800475269556,-9.228245131888984,-1.359535371568799
1758972276242059000,6.04305908203125,-3.022225714699924,-9.236688550585507,-1.311534580118209
1758972276252017000,6.053016845703125,-3.0051518303021787,-9.246143776673078,-1.2838492853350936
1758972276261973800,6.062973876953125,-2.9808193530783056,-9.256069542881846,-1.2689625357180834
1758972276271932000,6.072931884765625,-2.954898145358264,-9.265660962569713,-1.2595705841250717
1758972276281889800,6.082889892578125,-2.9336422991007565,-9.273323460021615,-1.252831631258875
1758972276291848000,6.092847900390625,-2.9204508090943095,-9.2781247228235,-1.2480993420399724
1758972276301805000,6.10280517578125,-2.915002772821486,-9.280470993688702,-1.2433853191301225
1758972276311763000,6.112762939453125,-2.9151828055635094,-9.2808450876981,-1.2401549589067697
1758972276321720800,6.122720947265625,-2.919128036057949,-9.2791505587399,-1.243566374785453
1758972276331679000,6.132678955078125,-2.9231267503052947,-9.27530966540277,-1.2626629971824586
1758972276341636900,6.142636962890625,-2.922195314674079,-9.269652078032493,-1.3056481524281203
1758972276351594000,6.152593994140625,-2.913652819517255,-9.262275411784648,-1.3752422053970397
1758972276361552100,6.16255224609375,-2.8970366157591343,-9.252416865593194,-1.4732123118922114
1758972276371510000,6.172510009765625,-2.870445545953512,-9.23856837298274,-1.6061679531812667
1758972276381468000,6.182468017578125,-2.858229915241897,-9.21238529945612,-1.76999336450845
1758972276391424800,6.1924248046875,-2.9224221091672775,-9.160404936850071,-1.9278937697008252
1758972276401383000,6.2023828125,-3.0700232386633752,-9.08839826978147,-2.036262812874466
1758972276411341300,6.21234130859375,-3.2268887478500603,-9.02427680300474,-2.0784538951329887
1758972276421299500,6.222299560546875,-3.3246450654640793,-8.99370981530547,-2.0567716401569545
1758972276431257600,6.232257568359375,-3.363790204155445,-8.994842034205794,-1.9869918553575872
1758972276441214200,6.242214111328125,-3.366660206633806,-9.01327317843139,-1.8965517059758303
1758972276451172400,6.25217236328125,-3.3361496252968905,-9.045744538447261,-1.7930485152728854
1758972276461130500,6.262130615234375,-3.268472804126143,-9.092769908994436,-1.676018465129286
1758972276471088400,6.27208837890625,-3.171353030849993,-9.148050482189655,-1.5575987141929566
1758972276481046500,6.282046630859375,-3.07856514929831,-9.196671597495675,-1.4539819801129399
1758972276491003400,6.29200341796875,-3.001943389649689,-9.234527573159337,-1.3719519316799937
1758972276500961300,6.301961181640625,-2.9127333665847774,-9.271595028793811,-1.3129571602672339
1758972276510919400,6.31191943359375,-2.8050372542366384,-9.310582638835907,-1.2709047558270394
1758972276520877300,6.321877197265625,-2.6923569237351415,-9.349790613630413,-1.225985856039822
1758972276530834400,6.33183447265625,-2.5809049659848213,-9.386673360347748,-1.1830780038140714
1758972276540792600,6.34179248046875,-2.472350775502622,-9.418461414274573,-1.16210163208507
1758972276550750500,6.35175048828125,-2.365892826647311,-9.444676051983237,-1.1709185602691023
1758972276560708400,6.361708251953125,-2.2604173129580913,-9.466161907604336,-1.2052751495096832
1758972276570666200,6.371666259765625,-2.1517675531469282,-9.484940842354296,-1.255460664588213
1758972276580623400,6.381623291015625,-2.0348025310635567,-9.502736611285805,-1.3145283551067113
1758972276590581500,6.39158154296875,-1.90757944207713,-9.520121461328863,-1.3779687077514826
1758972276600539400,6.401539306640625,-1.7736138930931686,-9.536480475455521,-1.442292126841098
1758972276610497500,6.41149755859375,-1.6376403652876614,-9.551140868970752,-1.5047313396193087
1758972276620454400,6.421454345703125,-1.5065448187820611,-9.56356312817037,-1.5617201780371368
1758972276630412300,6.431412353515625,-1.3866006347574293,-9.573214753612875,-1.612845092857629
1758972276640370400,6.441370361328125,-1.2824850112445652,-9.579524082890153,-1.6608216266497968
1758972276650328300,6.451328369140625,-1.1995051147408782,-9.582800328081845,-1.7033805193074048
1758972276660286500,6.461286376953125,-1.1487653267804532,-9.583883447143435,-1.7320185847707092
1758972276670243600,6.47124365234375,-1.1466810678523034,-9.5812443308115,-1.7479256173461675
1758972276680201200,6.481201171875,-1.1861889754414559,-9.573743745923041,-1.7626053000837563
1758972276690159400,6.491159423828125,-1.2054326050937174,-9.567718494284152,-1.7821522965967653
1758972276700117200,6.5011171875,-1.1478001350101084,-9.571410334539413,-1.8002943947479129
1758972276710074400,6.511074462890625,-1.013475616520643,-9.584363924136758,-1.8119699272334575
1758972276720032500,6.521032470703125,-0.8404871669854969,-9.600014497733115,-1.8176007727272807
1758972276729990400,6.530990478515625,-0.6646603522192687,-9.613514615297317,-1.8190508254051208
1758972276739948300,6.5409482421875,-0.5078226808875799,-9.623028878095745,-1.8192868261180817
1758972276749906200,6.55090625,-0.3789106159009039,-9.628114803057908,-1.823783406884968
1758972276759863300,6.56086328125,-0.2796766269497573,-9.628733811739087,-1.8383783339485524
1758972276769821400,6.570821533203125,-0.2076897970927879,-9.625571548315882,-1.8643029026694595
1758972276779779300,6.580779296875,-0.15553826090460643,-9.619840311187506,-1.8986442943409083
1758972276789737500,6.590737548828125,-0.10980248264339752,-9.612548985135554,-1.9383548118300735
1758972276799694300,6.6006943359375,-0.0585814779041335,-9.604036008334159,-1.9822817779704927
1758972276809652200,6.61065234375,0.007482710734228021,-9.59455973945856,-2.0284810729570686
1758972276819610400,6.6206103515625,0.09578103548567742,-9.584392565709352,-2.073793940497935
1758972276829568500,6.630568603515625,0.21005075407046822,-9.57350467647016,-2.1152504248715935
1758972276839526400,6.6405263671875,0.3457162753727287,-9.561663432028888,-2.150686772172898
1758972276849483500,6.6504833984375,0.49080688335262235,-9.548880522823334,-2.1790726164408025
1758972276859441400,6.66044140625,0.631913974654302,-9.5354219063133,-2.201546167925
1758972276869399300,6.6703994140625,0.7603077148552984,-9.521782088017464,-2.2199108227856454
1758972276879357400,6.680357421875,0.8752563556149602,-9.508046408131719,-2.2363773889400065
1758972276889314300,6.690314208984375,0.9820729086495935,-9.49385070951879,-2.252266885858774
1758972276899272400,6.7002724609375,1.089763175778836,-9.478350942569971,-2.2679601295530794
1758972276909230600,6.710230712890625,1.2051551033265888,-9.460487369099258,-2.284110177104175
1758972276919188500,6.7201884765625,1.3280433779790997,-9.440012736347317,-2.3006201440088447
1758972276929146400,6.730146484375,1.4520797997534274,-9.417878061428665,-2.3163391066662964
1758972276939103500,6.740103515625,1.5690164725251494,-9.395700716412067,-2.3301025513418017
1758972276949061400,6.750061279296875,1.67241620285362,-9.375252387145162,-2.340522969199717
1758972276959019500,6.76001953125,1.759937688309699,-9.357564754763246,-2.347126166857034
1758972276968977400,6.769977294921875,1.836407910658419,-9.34190541333854,-2.350916352920234
1758972276978934300,6.779934326171875,1.9078408694922924,-9.32683702354431,-2.3538575209386647
1758972276988892400,6.789892333984375,1.9716757744126021,-9.312548385950922,-2.3578274474829435
1758972276998850300,6.799850341796875,2.0159999231770636,-9.302000103929638,-2.3619800371177493
1758972277008808400,6.809808349609375,2.031489460992813,-9.298438612055778,-2.3627231105700135
1758972277018766300,6.819766357421875,2.0226523668035865,-9.302045696637034,-2.356101354342699
1758972277028723500,6.829723388671875,2.0051830533474684,-9.30973800470531,-2.340599249306321
1758972277038681600,6.839681640625,1.994322782767564,-9.317824280527233,-2.3175905680321156
1758972277048639200,6.84963916015625,1.9916620391257107,-9.324923298877478,-2.29117427027151
1758972277058597400,6.859597412109375,1.975370537277311,-9.334239993277192,-2.2672157409265634
1758972277068554500,6.869554443359375,1.9148674071282148,-9.351825334328412,-2.2465634135201573
1758972277078512400,6.879512451171875,1.8023127488330006,-9.379828024497627,-2.22281238944605
1758972277088470500,6.889470458984375,1.65726758743003,-9.413083228367567,-2.1949315720908342
1758972277098428400,6.899428466796875,1.5023077657341957,-9.445367541378737,-2.167596259789169
1758972277108386300,6.90938623046875,1.3327766901113092,-9.476649983870983,-2.141773105616122
1758972277118343400,6.919343505859375,1.119139346258342,-9.510627656796574,-2.1132642194904387
1758972277128301300,6.92930126953125,0.8473302378132939,-9.54636824774146,-2.0782909596562384
1758972277138259500,6.939259521484375,0.5339582985432818,-9.578588263344765,-2.0336990998663005
1758972277148217300,6.94921728515625,0.2097217047791928,-9.602501638373733,-1.9794879094682634
1758972277158174200,6.95917431640625,-0.09942242419533431,-9.616002924981712,-1.9217136197611688
1758972277168132400,6.96913232421875,-0.3808378941690549,-9.619614101216197,-1.8677134417653083
1758972277178090200,6.97909033203125,-0.6349821300532669,-9.614797640845179,-1.8228715527370571
1758972277188048400,6.98904833984375,-0.8704676600337028,-9.602212300038337,-1.7917052839703858
1758972277198005500,6.999005615234375,-1.0926519560229033,-9.582441431641579,-1.7757647875167428
1758972277207963400,7.00896337890625,-1.302451256082952,-9.556834696698187,-1.7722578023090958
1758972277217921500,7.018921630859375,-1.4953145458459853,-9.527986787876486,-1.775356937368214
1758972277227879200,7.028879150390625,-1.6669104450441896,-9.499565580034256,-1.774833936407417
1758972277237837300,7.03883740234375,-1.8213202316418289,-9.474328262925148,-1.7579190419636666
1758972277247794400,7.04879443359375,-1.9690311051227152,-9.451592114982008,-1.7206668774120508
1758972277257752300,7.05875244140625,-2.1141652599833907,-9.428565459659696,-1.6741652384780346
1758972277267710500,7.06871044921875,-2.2587521562248467,-9.401658163511753,-1.6362304984897373
1758972277277668400,7.07866845703125,-2.3926493161477147,-9.372276586204766,-1.614323202586174
1758972277287625200,7.088625244140625,-2.51952052295655,-9.33987536881566,-1.609082087062299
1758972277297583400,7.098583251953125,-2.6384526073291896,-9.305255306333303,-1.6190018619216977
1758972277307541200,7.108541259765625,-2.7449273611888287,-9.271531900429725,-1.635381918836385
1758972277317499400,7.11849951171875,-2.8371321821555493,-9.241812469470501,-1.6461971812307834
1758972277327456500,7.12845654296875,-2.918648143586516,-9.21795930019617,-1.6374151782296598
1758972277337414400,7.138414306640625,-2.9892341302022336,-9.20240634175539,-1.5970691393159329
1758972277347372300,7.148372314453125,-3.042314855265617,-9.196794931614399,-1.5276258929945528
1758972277357330400,7.158330322265625,-3.0732115133106706,-9.200230166760086,-1.4427495152197778
1758972277367288300,7.168288330078125,-3.080905574944615,-9.210501969927549,-1.3583229270391166
1758972277377245400,7.178245361328125,-3.0665690065562723,-9.22543825777471,-1.287576050773263
1758972277387203300,7.188203369140625,-3.03549260803014,-9.242513895738124,-1.2377863300792873
1758972277397161500,7.198161376953125,-2.9950638592690226,-9.259556215953827,-1.2085432113949208
1758972277407120000,7.208119873046875,-2.9511475606530904,-9.275404357948899,-1.1949872719902543
1758972277417076500,7.218076416015625,-2.907752947823703,-9.289806392788886,-1.1894858250297606
1758972277427034600,7.22803466796875,-2.8681331773579117,-9.302240926948189,-1.1884990790147334
1758972277436992800,7.23799267578125,-2.837054440744221,-9.311635947281122,-1.1895104480143637
1758972277446950700,7.24795068359375,-2.8169074325114485,-9.317529096972942,-1.1912408520035445
1758972277456908800,7.25790869140625,-2.8077202097103,-9.32007176719308,-1.1930463670555502
1758972277466865700,7.26786572265625,-2.807795905295014,-9.319425870504976,-1.1979203297674654
1758972277476823600,7.277823486328125,-2.813158309110999,-9.315901203510165,-1.2126388832107187
1758972277486781700,7.28778173828125,-2.8167174628973006,-9.310885421174763,-1.2425281177788972
1758972277496739600,7.297739501953125,-2.81027457036823,-9.306404476368426,-1.289798695258796
1758972277506696700,7.30769677734375,-2.789925902083516,-9.30287454867661,-1.3576470736041664
1758972277516654800,7.31765478515625,-2.7472742165759203,-9.300324279671907,-1.458376854071021
1758972277526612700,7.32761279296875,-2.6620298822715878,-9.300771438917517,-1.6061154923416674
1758972277536570600,7.337570556640625,-2.5434067177176476,-9.301071883168817,-1.786482580886036
1758972277546527700,7.34752783203125,-2.4471071747832,-9.291396876850724,-1.962651048696786
1758972277556485600,7.357485595703125,-2.482561203871667,-9.256310365900397,-2.0803763876281676
1758972277566443800,7.36744384765625,-2.6703631185919043,-9.192862268340587,-2.128573870694637
1758972277576401700,7.377401611328125,-2.883051052765548,-9.122444916290045,-2.1539257540941237
1758972277586359800,7.38735986328125,-3.049138563805818,-9.067604488077759,-2.1567842122651637
1758972277596316700,7.397316650390625,-3.1490283863171933,-9.044454498636721,-2.1099485190711915
1758972277606274600,7.407274658203125,-3.18447876214385,-9.05162015248239,-2.0242633091315625
1758972277616232700,7.417232666015625,-3.1549668364554644,-9.085947954019904,-1.9136644610792397
1758972277626190600,7.427190673828125,-3.0685660255923866,-9.142423289957643,-1.780552021793276
1758972277636147700,7.437147705078125,-2.9520556154087183,-9.208435100525618,-1.6311019034296272
1758972277646105600,7.447105712890625,-2.828343311022222,-9.271231456178427,-1.4883300937861204
1758972277656063500,7.4570634765625,-2.6974033934697506,-9.327441419178246,-1.3759518149711192
1758972277666021600,7.467021728515625,-2.5449247210651635,-9.381574575904011,-1.2960842052690684
1758972277675978800,7.476978759765625,-2.378709638122469,-9.434531090065837,-1.225456279207766
1758972277685936600,7.4869365234375,-2.215028749832511,-9.48282721120119,-1.1576099466890095
1758972277695894800,7.496894775390625,-2.064494927885383,-9.522128124976158,-1.112355458271876
1758972277705852700,7.506852783203125,-1.9542410938784478,-9.54605260592103,-1.1064487184461205
1758972277715810600,7.516810546875,-1.9490180985331533,-9.54274888820052,-1.1435321023020892
1758972277725767700,7.526767578125,-2.0316189325913787,-9.516904837369918,-1.2130263481583445
1758972277735725600,7.5367255859375,-2.1290273135505617,-9.484650334975123,-1.295779084842652
1758972277745683700,7.54668359375,-2.2082849746607245,-9.455081126141547,-1.3766997107289731
1758972277755641600,7.5566416015625,-2.253554295320809,-9.432526179984212,-1.45580013545081
1758972277765598500,7.566598388671875,-2.254150215387344,-9.420391505554317,-1.5314672247231005
1758972277775556600,7.576556640625,-2.2072176376901567,-9.419580189171432,-1.6031562041446565
1758972277785514500,7.586514404296875,-2.1205837487235666,-9.426755195367337,-1.6762492051452398
1758972277795472600,7.59647265625,-2.0088959363907573,-9.438948906508088,-1.7438452161647378
1758972277805429800,7.6064296875,-1.888600162449479,-9.453301256987451,-1.7996401686228811
1758972277815387600,7.6163876953125,-1.7690904243193566,-9.46785234490931,-1.8440420587986706
1758972277825345800,7.626345703125,-1.6427179608128963,-9.48327670853436,-1.881313804833591
1758972277835303400,7.636303466796875,-1.4896221794232725,-9.501196396106481,-1.917994599238038
1758972277845261600,7.646261474609375,-1.3078127831161022,-9.520525365954636,-1.9543824020452796
1758972277855218700,7.65621875,-1.1187100149303675,-9.538557866251468,-1.9836222327940165
1758972277865176600,7.666176513671875,-0.9465935989893972,-9.553507598102092,-2.001204358974844
1758972277875134700,7.676134765625,-0.800864400845021,-9.565405541166662,-2.007991242635995
1758972277885092600,7.686092529296875,-0.6727611680231989,-9.575245967179537,-2.0080957259237766
1758972277895049500,7.696049560546875,-0.547481248993799,-9.584459785726667,-2.002195123577863
1758972277905007600,7.706007568359375,-0.4185086859915405,-9.593502923882006,-1.9899568426430225
1758972277914965500,7.715965576171875,-0.2930818145058118,-9.60174000635147,-1.972575061339885
1758972277924923600,7.725923583984375,-0.1830824301839806,-9.607906712287663,-1.9557596817478538
1758972277934880800,7.735880859375,-0.09305878918124362,-9.610535307225584,-1.9491893634468316
1758972277944838400,7.74583837890625,-0.017714862882136365,-9.609038931187987,-1.9586850676752625
1758972277954796500,7.755796630859375,0.051200697170174676,-9.604026071462034,-1.9825408672980962
1758972277964754700,7.765754638671875,0.11922704873122274,-9.59679845829606,-2.014361946711689
1758972277974711600,7.775711669921875,0.19173541824426502,-9.589054127779603,-2.045402251011133
1758972277984669700,7.785669677734375,0.27241195144271474,-9.581964461779593,-2.069335353653878
1758972277994627800,7.7956279296875,0.3605877178227529,-9.575559270912409,-2.085434693931043
1758972278004585700,7.805585693359375,0.4514089754765853,-9.569758475679158,-2.094361658360809
1758972278014543600,7.815543701171875,0.5395008812317624,-9.564343464893103,-2.0982507747538386
1758972278024500700,7.825500732421875,0.6221374807231128,-9.558704582223296,-2.101067439609766
1758972278034458600,7.835458740234375,0.699154377169162,-9.55257996186316,-2.104707257416844
1758972278044416800,7.845416748046875,0.7718385781731456,-9.54598012520671,-2.1092494308911265
1758972278054374700,7.855374755859375,0.8420829117443412,-9.538971707749367,-2.114070129045844
1758972278064331500,7.86533154296875,0.9123826287645846,-9.531583935585617,-2.1182187731578943
1758972278074289700,7.87528955078125,0.9869796045873314,-9.523564295259117,-2.1208431303121147
1758972278084247600,7.88524755859375,1.0728498887702822,-9.514203761717676,-2.121155849523097
1758972278094205700,7.895205810546875,1.178566517738998,-9.502424476596712,-2.117854469890147
1758972278104162800,7.905162841796875,1.3083015895463526,-9.48696854878962,-2.110966610072553
1758972278114120700,7.91512060546875,1.4575855575628578,-9.466819494730233,-2.1036035339586436
1758972278124078800,7.925078857421875,1.617167924492806,-9.442026414257288,-2.0983995355747638
1758972278134036500,7.935036376953125,1.7819120581001042,-9.413057509404421,-2.0951177374251184
1758972278143993600,7.94499365234375,1.9513646616593001,-9.380072354647517,-2.0920796849034726
1758972278153951700,7.95495166015625,2.1098452048271894,-9.346156641042231,-2.09005139394626
1758972278163909600,7.96490966796875,2.1666965344704687,-9.329143546921014,-2.107819690348953
1758972278173867800,7.97486767578125,2.091326090057194,-9.338878758993744,-2.140586087788641
1758972278183825700,7.98482568359375,1.968572547700256,-9.36290670031309,-2.1519966857276858
1758972278193782500,7.994782470703125,1.8590598874494433,-9.391907169348,-2.1228164762116966
1758972278203740700,8.00474072265625,1.7694425987578928,-9.422945866212249,-2.060956232365221
1758972278213698600,8.014698486328125,1.6816105860479176,-9.455354097864031,-1.9846558136254548
1758972278223656700,8.02465673828125,1.583139836554229,-9.488307103917002,-1.9068566807605325
1758972278233613800,8.03461376953125,1.4749227690719067,-9.51984907412827,-1.8350687710091471
1758972278243571700,8.04457177734375,1.3500364524699746,-9.549694177293777,-1.7751463633574545
1758972278253529600,8.054529541015626,1.1831012385591864,-9.58034708971083,-1.7284684910736976
1758972278263487500,8.064487548828126,0.9536864067945628,-9.612263738453388,-1.6927097799502313
1758972278273444600,8.074444580078126,0.664564855955541,-9.641948682621122,-1.6617887181162834
1758972278283402800,8.08440283203125,0.34283418059777465,-9.66347019407749,-1.634064698757976
1758972278293360600,8.094360595703124,0.022326432347798252,-9.673329324790835,-1.6113979627892374
1758972278303318800,8.10431884765625,-0.2752956353865564,-9.672077278903126,-1.59546564964205
1758972278313275600,8.114275634765624,-0.5446785761306062,-9.661938746726513,-1.5876502997159958
1758972278323233500,8.124233642578124,-0.78990688043572,-9.644913377645612,-1.5881034503109752
1758972278333191700,8.134191650390624,-1.0171679682325572,-9.622322191131115,-1.5958337523020802
1758972278343149600,8.144149658203125,-1.227362112829089,-9.596223288756608,-1.605140802090615
1758972278353106700,8.154106689453124,-1.4220850589841603,-9.569728080540894,-1.6026223895289002
1758972278363064600,8.164064697265625,-1.6084455427244304,-9.545222584837674,-1.572269921363145
1758972278373022500,8.1740224609375,-1.7908154955238103,-9.523628592666983,-1.5046099051967263
1758972278382980600,8.183980712890625,-1.9625132476612925,-9.504418865284324,-1.4088855318017304
1758972278392938500,8.1939384765625,-2.0949699995175,-9.486732401946186,-1.33544210992828
1758972278402895600,8.2038955078125,-2.1918749609991908,-9.46608124358356,-1.326423667822778
1758972278412854000,8.21385400390625,-2.27665021648705,-9.439006189653277,-1.3756578004606068
1758972278422812000,8.22381201171875,-2.364008474205434,-9.405476260495185,-1.4556339851036666
1758972278432770000,8.23377001953125,-2.4620418551951646,-9.367090707999468,-1.538302477570623
1758972278442727000,8.243726806640625,-2.5736849516034126,-9.327223977035283,-1.5967010366559027
1758972278452684800,8.253684814453125,-2.692503930990398,-9.290776699125766,-1.613165703114122
1758972278462643000,8.263642822265625,-2.8053821221515536,-9.262496945580839,-1.583146996947378
1758972278472600800,8.273600830078125,-2.896506454405188,-9.245452287277578,-1.5173232562974095
1758972278482558000,8.283557861328125,-2.9576559196338055,-9.239254017159341,-1.4348648994497955
1758972278492516000,8.29351611328125,-2.994263064280152,-9.239477304521202,-1.3552980262599885
1758972278502473700,8.3034736328125,-3.0182723008990284,-9.240817613214254,-1.2913957551918922
1758972278512431900,8.313431884765626,-3.036041474084556,-9.241628345075249,-1.2430331446915863
1758972278522389000,8.323388916015626,-3.0471561578169464,-9.243282542023062,-1.2028892042212187
1758972278532347000,8.333346923828126,-3.049851972772181,-9.247176042330265,-1.1655671893037856
1758972278542305000,8.343304931640626,-3.0446380375161763,-9.253086143156885,-1.1317911764301358
1758972278552263000,8.353262939453124,-3.034416795492172,-9.259766643834114,-1.104277292691171
1758972278562219800,8.3632197265625,-3.022686610209942,-9.265918152201175,-1.0846567194852976
1758972278572178000,8.373177978515624,-3.013368162244558,-9.270250628447531,-1.073529103206098
1758972278582135800,8.3831357421875,-3.008817659333348,-9.272692176380753,-1.0651819114256649
1758972278592094000,8.393093994140624,-3.0108234461978074,-9.272942936271429,-1.057286628131196
1758972278602051000,8.403051025390624,-3.018710400055349,-9.270418970751761,-1.056935622736439
1758972278612009000,8.413009033203124,-3.0283079572230576,-9.26564518047869,-1.0712450108569114
1758972278621966800,8.422966796875,-3.0330209572196005,-9.259852568551898,-1.1073816153820604
1758972278631925000,8.432925048828125,-3.028308541744947,-9.253647284170984,-1.1703766354121268
1758972278641881900,8.4428818359375,-3.012974779012799,-9.246298674973845,-1.2642524583309889
1758972278651840000,8.452840087890625,-2.9763638349741695,-9.238590584814547,-1.4000300251729785
1758972278661798000,8.4627978515625,-2.912562393932044,-9.230502555426956,-1.5764415079593657
1758972278671756000,8.472756103515625,-2.8542949138805267,-9.21439605475664,-1.7658682474024592
1758972278681714000,8.4827138671875,-2.8702000467598436,-9.178004306426644,-1.92264841639325
1758972278691670800,8.4926708984375,-2.9866479131013155,-9.121618986859916,-2.011567932078987
1758972278701629000,8.50262890625,-3.1327795545667407,-9.065759152472019,-2.0415863459847867
1758972278711587000,8.512587158203125,-3.2395436467617746,-9.02895940786302,-2.038053934074938
1758972278721545000,8.522544921875,-3.3005010965496298,-9.01541720472276,-1.9998333628825842
1758972278731501800,8.532501708984375,-3.326879984909296,-9.021782648101448,-1.9260618780985475
1758972278741460000,8.5424599609375,-3.3089807556033133,-9.048681760942936,-1.8282228506371379
1758972278751417900,8.55241796875,-3.2283345627442,-9.100438836187124,-1.7117920815609395
1758972278761376000,8.5623759765625,-3.1025872453987597,-9.167777511444687,-1.579945424427092
1758972278771332900,8.572332763671875,-2.9800132973924276,-9.229639801117777,-1.4504071903660893
1758972278781291000,8.582291015625,-2.8826252285689113,-9.277848243969679,-1.3350605632647872
1758972278791249200,8.592249267578126,-2.786226170782745,-9.321931131324172,-1.228374797002971
1758972278801206800,8.602206787109376,-2.6876079756423827,-9.363968192064762,-1.1239288455571979
1758972278811164000,8.612163818359376,-2.596711022403836,-9.401197560262679,-1.0222273705139755
1758972278821122000,8.6221220703125,-2.515743342505395,-9.43222982738614,-0.9351296634279191
1758972278831080000,8.632079833984376,-2.443332332419604,-9.456974392542243,-0.8753034826923162
1758972278841038000,8.6420380859375,-2.378410216784477,-9.475855618622898,-0.8495524439074098
1758972278850995000,8.651994873046876,-2.31745203634426,-9.489907524850963,-0.8610850607909262
1758972278860952800,8.661952880859374,-2.2521523195683955,-9.501171846187114,-0.9088134650409221
1758972278870911000,8.671910888671874,-2.177507559081167,-9.511059033951163,-0.984188877890259
1758972278880868900,8.681868896484374,-2.0907032819837332,-9.520403200879693,-1.0776305471755563
1758972278890826000,8.691825927734374,-1.9906882256574927,-9.529590131419896,-1.1808777172908187
1758972278900784000,8.7017841796875,-1.8868682240903376,-9.536787933969498,-1.2883270152710378
1758972278910742000,8.711741943359375,-1.79061091286242,-9.541244913378357,-1.388797414149344
1758972278920700000,8.721699951171875,-1.7145535090982913,-9.542288284951448,-1.4749414737723767
1758972278930657000,8.731656982421875,-1.6664331829212604,-9.538922607910633,-1.5499522910930215
1758972278940615000,8.741614990234375,-1.6454378872960804,-9.530803598862885,-1.6207064738824963
1758972278950573000,8.751572998046875,-1.6500635012701153,-9.518267942416667,-1.6882719436332583
1758972278960531000,8.761531005859375,-1.6581318030439316,-9.508664832291007,-1.733861582288891
1758972278970487800,8.77148779296875,-1.614946010659635,-9.514131281003355,-1.7446131317973135
1758972278980446000,8.781446044921875,-1.491428352062404,-9.53555050112903,-1.737620788691938
1758972278990403800,8.79140380859375,-1.3146739010572432,-9.56464566271007,-1.7203507972002028
1758972279000362000,8.801362060546875,-1.126364913597703,-9.59360872234404,-1.6924449915342032
1758972279010320000,8.81131982421875,-0.9573320698205381,-9.617550738945603,-1.660309439343959
1758972279020277000,8.821277099609375,-0.8180710447769611,-9.635147770434617,-1.6325069479219614
1758972279030235100,8.831235107421875,-0.7031110058404505,-9.646675711143017,-1.6179149434678255
1758972279040192800,8.84119287109375,-0.6029818216152489,-9.652783964890242,-1.6219048898868262
1758972279050151000,8.85115087890625,-0.5097711846068501,-9.654505966377258,-1.643487191619724
1758972279060108000,8.86110791015625,-0.41689346934724597,-9.652819620725513,-1.6791783904649316
1758972279070066000,8.87106591796875,-0.3178338505823165,-9.64888754197359,-1.7228857225053011
1758972279080024000,8.881024169921876,-0.20872511322358622,-9.643435706308484,-1.7694576501965522
1758972279089982000,8.89098193359375,-0.08901460095751099,-9.636891399231553,-1.8146059748254715
1758972279099938800,8.900938720703126,0.040891023377468805,-9.629532853162289,-1.8549439765632152
1758972279109897000,8.91089697265625,0.17942330488823352,-9.6213594835788,-1.8888186275057492
1758972279119854800,8.920854736328126,0.31992899623066184,-9.612125791287422,-1.9170514731690287
1758972279129813000,8.93081298828125,0.45236569167952984,-9.60170142790675,-1.9424460266664623
1758972279139770000,8.94077001953125,0.5679765957402065,-9.59034358306825,-1.9680248506896196
1758972279149727700,8.950727783203124,0.6623872927207499,-9.578657821449637,-1.9952334678716956
1758972279159686000,8.960685791015624,0.7367050132106989,-9.56757528642118,-2.022172474332154
1758972279169643800,8.970643798828124,0.7961275085162371,-9.55765419638753,-2.0464144967935978
1758972279179601000,8.980600830078124,0.8491912824448198,-9.548694060340523,-2.0668065658286214
1758972279189559000,8.99055908203125,0.9057380031183362,-9.540106264737247,-2.0823992717579007
1758972279199517000,9.000516845703125,0.9744158180251717,-9.531053189709782,-2.0928261193566025
1758972279209475000,9.01047509765625,1.0605134081579743,-9.520695461824536,-2.098106105586141
1758972279219432000,9.020431884765625,1.1640226632755248,-9.508660156115889,-2.0978148675546047
1758972279229389800,9.030389892578125,1.2800937321938572,-9.494804064720869,-2.092952522215247
1758972279239348000,9.040347900390625,1.4005398743912576,-9.479165181562305,-2.086698576387018
1758972279249305900,9.050305908203125,1.5177582867138086,-9.461851643189787,-2.083308203296363
1758972279259263000,9.060262939453125,1.6287110627703367,-9.442850590121745,-2.0857310465291143
1758972279269220900,9.070220947265625,1.7345843436054884,-9.42217605088353,-2.093850493968278
1758972279279178800,9.0801787109375,1.8350678942263126,-9.400679089346527,-2.104795227961242
1758972279289137000,9.090136962890625,1.9115720188446341,-9.382248529642819,-2.1188903888091444
1758972279299094000,9.100093994140625,1.9103399928316473,-9.37691418287754,-2.143467780704796
1758972279309052000,9.110052001953125,1.8195124515675007,-9.389676633816958,-2.1664975047670305
1758972279319010000,9.120010009765625,1.6787340076982975,-9.417001863116026,-2.161553180232644
1758972279328968000,9.129968017578125,1.5291720995232463,-9.452669973346591,-2.116375921770185
1758972279338924800,9.1399248046875,1.4084715441733597,-9.490669156873226,-2.0282503329411146
1758972279348883000,9.149883056640626,1.3395200268916785,-9.52551776741445,-1.908027916496992
1758972279358840800,9.1598408203125,1.3065974159769713,-9.553406475815176,-1.7876251750499008
1758972279368799000,9.169799072265626,1.2755499512843786,-9.574799392455816,-1.693091618874669
1758972279378756000,9.179756103515626,1.1854088579144328,-9.595907646936178,-1.6382177267841993
1758972279388713700,9.189713623046876,0.9840175399113446,-9.62337549957633,-1.6102023232638836
1758972279398672000,9.199671875,0.6913591201830654,-9.651081252625584,-1.5965730263620614
1758972279408629800,9.209629638671874,0.3643019160402938,-9.669078681609035,-1.5958023342505097
1758972279418586600,9.219586669921876,0.0477463417654857,-9.674111415079235,-1.606134781564027
1758972279428544800,9.229544677734374,-0.23869440902434289,-9.668281393751501,-1.6241165745869277
1758972279438503000,9.2395029296875,-0.49562710658330467,-9.654605919620394,-1.6472184871025382
1758972279448460800,9.249460693359374,-0.7333702427648008,-9.635414896938205,-1.6707310262456536
1758972279458417700,9.259417724609374,-0.9611523587610572,-9.612924248188733,-1.6847119130641222
1758972279468375800,9.269375732421874,-1.1797111577294765,-9.589753215959668,-1.6778947803951798
1758972279478333700,9.279333740234375,-1.3852084497466683,-9.568453238299488,-1.6420460529007017
1758972279488291800,9.289291748046875,-1.577486486967653,-9.55007879269719,-1.5741513511955738
1758972279498248700,9.299248779296875,-1.7561963098242879,-9.533940727844834,-1.4799147321403026
1758972279508206800,9.309206787109375,-1.9138563303895293,-9.51891676171422,-1.3775943214811384
1758972279518165000,9.3191650390625,-2.049112503705919,-9.500700721544026,-1.3069877304688096
1758972279528122600,9.32912255859375,-2.1782557470999655,-9.473820897924899,-1.2931803005211056
1758972279538079700,9.339079833984375,-2.300743185866624,-9.439750870540738,-1.3296870535328984
1758972279548038000,9.349037841796875,-2.4128397251307963,-9.402220473569631,-1.395298028215021
1758972279557995800,9.358995849609375,-2.5173098611697555,-9.36406288461089,-1.465555367398262
1758972279567954000,9.368953857421875,-2.6191820896700024,-9.327388227686285,-1.5198976368300616
1758972279577910800,9.378910888671875,-2.7178090526387093,-9.29494726280868,-1.5452661791034041
1758972279587868700,9.38886865234375,-2.807971554122865,-9.267973331165313,-1.5460741344854234
1758972279597826800,9.398826904296875,-2.8852605455085634,-9.246596781137585,-1.5317064403064549
1758972279607784700,9.40878466796875,-2.9521953161403536,-9.229669027212262,-1.5060491442196071
1758972279617741800,9.418741943359375,-3.018636750297248,-9.21397110734284,-1.4700193610697985
1758972279627700000,9.428699951171875,-3.0806507234007117,-9.199790606299041,-1.4296150160975754
1758972279637657900,9.438657958984376,-3.1299653739288447,-9.188981627514957,-1.3915164638496935
1758972279647615700,9.44861572265625,-3.1640660887122154,-9.182166102281212,-1.3589996572569012
1758972279657572900,9.45857275390625,-3.1825846189603206,-9.1795597191751,-1.3331142515026033
1758972279667530800,9.46853076171875,-3.185877815286815,-9.18183526289165,-1.3093749178662895
1758972279677489000,9.478489013671876,-3.1772537793263793,-9.188132317209243,-1.2859560483559966
1758972279687446800,9.48844677734375,-3.161761026640236,-9.196470521965622,-1.2643420363105833
1758972279697403600,9.498403564453126,-3.1424601138427852,-9.205925748053193,-1.2434874643303453
1758972279707361800,9.50836181640625,-3.120371616153419,-9.21648630503416,-1.2206737941715866
1758972279717319700,9.518319580078124,-3.09563026586771,-9.228155115517973,-1.1952347439453006
1758972279727277800,9.52827783203125,-3.0689725605666633,-9.240047213363647,-1.1718902548454702
1758972279737235000,9.53823486328125,-3.0405911002129313,-9.250870220673084,-1.1604266115449369
1758972279747192800,9.54819287109375,-3.0068600955247877,-9.260819952279329,-1.1689292130827904
1758972279757150700,9.558150634765624,-2.9618261910557746,-9.27116657424867,-1.2014428778704256
1758972279767108600,9.568108642578125,-2.9030303032159805,-9.281980229207873,-1.2600284108951687
1758972279777065700,9.578065673828124,-2.8294202926039693,-9.292424466332793,-1.3474468743681907
1758972279787024000,9.58802392578125,-2.739065191157162,-9.301360636982322,-1.4671746391631661
1758972279796981800,9.597981689453125,-2.6413082890212536,-9.306056101322174,-1.6097088406585156
1758972279806940000,9.60793994140625,-2.5734435440629717,-9.300048385339975,-1.7483976187720893
1758972279816896800,9.617896728515625,-2.598983058989048,-9.273595847222209,-1.8482615761898458
1758972279826854700,9.627854736328125,-2.727418007983267,-9.227436738115548,-1.8936663597978651
1758972279836812800,9.637812744140625,-2.8885929048016665,-9.175369866269826,-1.9076153901733457
1758972279846770700,9.647770751953125,-3.0373382358968257,-9.128413469305634,-1.9018490817315876
1758972279856727800,9.657727783203125,-3.1483477105766533,-9.097934159889817,-1.8670459177672862
1758972279866686000,9.66768603515625,-3.201971456475556,-9.09322817415595,-1.7974911738954484
1758972279876643600,9.6776435546875,-3.188276400861144,-9.117527918154,-1.6958673671983182
1758972279886601700,9.687601806640625,-3.1092785597309467,-9.168085554480552,-1.56491254433766
1758972279896558800,9.697558837890625,-2.9872289278596638,-9.232913123700023,-1.4142653251439332
1758972279906516700,9.707516845703125,-2.8655659572184082,-9.292043942582607,-1.2715478760361671
1758972279916475000,9.717474853515625,-2.7739436123147607,-9.334344038173557,-1.16002431435436
1758972279926432800,9.727432861328126,-2.6986849577128886,-9.366081238695978,-1.0788916531525552
1758972279936389600,9.7373896484375,-2.6345994390323755,-9.391664008241891,-1.012880134845525
1758972279946347800,9.74734765625,-2.5817829178631304,-9.412608012071251,-0.9526801523614674
1758972279956305700,9.7573056640625,-2.533518653170764,-9.430857369989155,-0.9003184622876346
1758972279966263800,9.767263916015626,-2.4878438204497098,-9.446374672594667,-0.8643003695756196
1758972279976221000,9.777220947265626,-2.4500366523638366,-9.45742681248486,-0.8513455378692597
1758972279986178800,9.7871787109375,-2.4140461783111093,-9.465026181572675,-0.8695214652247727
1758972279996136700,9.79713671875,-2.351123273669183,-9.47529330856502,-0.928142069562897
1758972280006094600,9.807094482421874,-2.2558315926030277,-9.489827445352077,-1.0123041615884751
1758972280016051700,9.8170517578125,-2.1335097196616233,-9.50777986615002,-1.104821409505233
1758972280026009900,9.827009765625,-1.9920992614991961,-9.528170327749848,-1.1899087996821849
1758972280035967700,9.8369677734375,-1.8461553976908325,-9.548749589920043,-1.2583771365568042
1758972280045926000,9.84692578125,-1.715407057187706,-9.565896539554,-1.3120206100694833
1758972280055883800,9.8568837890625,-1.6174153233826158,-9.576685060071945,-1.3570055608302354
1758972280065840600,9.866840576171874,-1.5593478959478437,-9.57958545768857,-1.4036894244633613
1758972280075798800,9.876798828125,-1.534588279353082,-9.575038461908697,-1.4608420751407742
1758972280085756700,9.886756591796875,-1.5327799147568641,-9.564468552577495,-1.5303228769935666
1758972280095713800,9.8967138671875,-1.5457444641396403,-9.549741523566842,-1.6073269139580428
1758972280105672000,9.906671875,-1.5356424645811317,-9.541777412819862,-1.6633360936887562
1758972280115629600,9.916629638671875,-1.4294171554379165,-9.557218727579713,-1.6693530158907175
1758972280125587700,9.926587646484375,-1.2286667656868695,-9.589539865469932,-1.643627915264666
1758972280135545900,9.9365458984375,-0.9883603914212435,-9.622933601027727,-1.6101820111282168
1758972280145502700,9.946502685546875,-0.7603215241849423,-9.648618661904335,-1.5800162977062164
1758972280155460900,9.9564609375,-0.5770096874255687,-9.665352354562282,-1.5551329086013137
1758972280165418800,9.966418701171875,-0.44913361442312594,-9.674835053178667,-1.5382598074726759
1758972280175375600,9.976375732421875,-0.36575127459838985,-9.678386608180404,-1.5380024717107414
1758972280185333800,9.986333740234375,-0.3051636079709977,-9.67656465345025,-1.5624777184061704
1758972280195291600,9.996291748046875,-0.2464551609526388,-9.670236034950614,-1.6112763822361826
1758972280205249800,10.006249755859375,-0.17595776593582704,-9.661276483425498,-1.6730770048499106
1758972280215207000,10.01620703125,-0.08964245966542511,-9.651771572977303,-1.73368651798293
1758972280225164500,10.02616455078125,0.012431256498472066,-9.642455463099479,-1.7869779631875455
1758972280235122700,10.036122802734376,0.1281125760389026,-9.633393620243668,-1.830767858944833
1758972280245080800,10.046080810546876,0.25204083386417475,-9.624274494242668,-1.8655328828558324
1758972280255037700,10.05603759765625,0.3760750271487981,-9.614690673339366,-1.8938573523253202
1758972280264995800,10.065995849609376,0.49220020087454464,-9.604711131116748,-1.9177214813850818
1758972280274953700,10.07595361328125,0.5944669085850939,-9.594880057454109,-1.9378544610925017
1758972280284911900,10.085911865234374,0.6805720609698445,-9.58594564037025,-1.9536825832128524
1758972280294868700,10.09586865234375,0.7523831324011087,-9.578238134732842,-1.9651161236360668
1758972280304826600,10.10582666015625,0.8155792279612273,-9.571551788836716,-1.972466632529348
1758972280314784800,10.11578466796875,0.8782633554112166,-9.565451718395948,-1.9751396511308847
1758972280324743000,10.125742919921874,0.9498374762814491,-9.559077507188915,-1.9728696603722868
1758972280334699800,10.13569970703125,1.0366198338080197,-9.551605563873052,-1.9653600153945385
1758972280344657700,10.14565771484375,1.140774035765603,-9.542399344110489,-1.952345343259722
1758972280354615800,10.15561572265625,1.2586333032749593,-9.53133609830439,-1.9338671450220046
1758972280364573700,10.16557373046875,1.3807169835463164,-9.518821484646201,-1.912080699019134
1758972280374530800,10.17553076171875,1.494129135453701,-9.505865556961297,-1.8911608067177235
1758972280384488700,10.18548876953125,1.5904033978164196,-9.493400043141841,-1.8751988290846346
1758972280394446800,10.19544677734375,1.6713877365887164,-9.481436633625625,-1.8652664870046078
1758972280404405000,10.205405029296875,1.7475407096818087,-9.46865489346385,-1.8603965428806841
1758972280414361300,10.215361328125,1.8240574015207587,-9.454281500196457,-1.8600456836163997
1758972280424319000,10.225319091796875,1.8637259795643388,-9.44401671129167,-1.872818655949831
1758972280434277000,10.235277099609375,1.8146870772376655,-9.447781616783141,-1.9017669564060866
1758972280444235000,10.245235107421875,1.693442039747536,-9.466157231429218,-1.9221118252985179
1758972280454192000,10.255192138671875,1.5440062421701848,-9.493959430590271,-1.910802203515917
1758972280464150300,10.265150390625,1.3914046740382908,-9.52617009384334,-1.8672059306345878
1758972280474108200,10.275108154296875,1.2497715130358933,-9.558186111307144,-1.8026489950500428
1758972280484066300,10.28506640625,1.132241404415667,-9.586209259742498,-1.73003091808483
1758972280494023200,10.295023193359375,1.031525725539401,-9.610698973354697,-1.6555349184185266
1758972280503981000,10.30498095703125,0.9022985301889479,-9.635474518170952,-1.585512410904467
1758972280513939200,10.314939208984375,0.6899870281122624,-9.661519644531607,-1.5327546341851352
1758972280523897000,10.32489697265625,0.3919281375799328,-9.683826168885826,-1.4967569997392594
1758972280533854200,10.334854248046875,0.05563448749969247,-9.69650152606368,-1.4646347454220057
1758972280543812000,10.34481201171875,-0.26946521220002323,-9.697164958408475,-1.4362408639781177
1758972280553770000,10.35477001953125,-0.55788632315211,-9.68794061846733,-1.4152566742688417
1758972280563728100,10.36472802734375,-0.8076780263826251,-9.672046299242973,-1.4034220056988298
1758972280573686000,10.37468603515625,-1.0305765350557863,-9.651376436179875,-1.3997256353989243
1758972280583643100,10.38464306640625,-1.2346911405429244,-9.626942252147197,-1.4028274008065462
1758972280593601300,10.394601318359374,-1.4229006131507456,-9.60036287277937,-1.4067019041523336
1758972280603559200,10.40455908203125,-1.596684816173464,-9.574365677213668,-1.3973250039979814
1758972280613516000,10.41451611328125,-1.7601356950998306,-9.55101285867691,-1.3603218457713722
1758972280623474200,10.42447412109375,-1.9210577862009406,-9.52999228248,-1.2880991978645324
1758972280633432000,10.43443212890625,-2.082748085195571,-9.509190317469836,-1.1865305554207413
1758972280643390200,10.44439013671875,-2.242637764509022,-9.484889988949895,-1.0852842037338764
1758972280653347300,10.454347412109374,-2.399060352233797,-9.450875491145252,-1.0468456058766693
1758972280663305000,10.464304931640624,-2.539934657692909,-9.4090289845407,-1.0905538146998732
1758972280673263000,10.47426318359375,-2.6581343361377714,-9.36439840017557,-1.188604292954877
1758972280683221000,10.484220947265625,-2.758215005046129,-9.320300899773835,-1.3017913308694957
1758972280693178000,10.49417822265625,-2.8517425990492105,-9.278591755813359,-1.3948814102381466
1758972280703136300,10.50413623046875,-2.9448642425999045,-9.24184870982766,-1.4444478435702621
1758972280713094100,10.51409423828125,-3.030081396636367,-9.213535638535022,-1.4490624977588653
1758972280723052000,10.524052001953125,-3.0953195924833414,-9.196303348705172,-1.4203550203211606
1758972280733009200,10.534009033203125,-3.1381802445665,-9.188954739508032,-1.3730739214472472
1758972280742967000,10.543967041015625,-3.1626708349615336,-9.188069773367047,-1.3218543140806256
1758972280752925200,10.55392529296875,-3.174330000834167,-9.190511905822158,-1.2761261437371372
1758972280762883000,10.563883056640625,-3.17643135702759,-9.194910433042049,-1.2386565370425582
1758972280772840000,10.57383984375,-3.169592743179202,-9.201350695222615,-1.207983166359365
1758972280782798000,10.583798095703125,-3.1546117394074797,-9.209981745445727,-1.181134614661336
1758972280792756000,10.593755859375,-3.13281871753335,-9.220808844408392,-1.1543507256973533
1758972280802714000,10.603714111328125,-3.1070889407321807,-9.23284181202948,-1.1273869501218199
1758972280812671200,10.613671142578125,-3.080417206905782,-9.244904590266943,-1.1014260679785162
1758972280822629000,10.623629150390625,-3.054670478969812,-9.25658509118855,-1.0747173631425946
1758972280832587300,10.633587158203126,-3.0319688178181647,-9.26747824112475,-1.0447190421767532
1758972280842545200,10.643545166015626,-3.013938655608892,-9.276792012915015,-1.013740331871435
1758972280852502000,10.653501953125,-3.000800357094407,-9.283640271374583,-0.9897453429736196
1758972280862460200,10.663460205078126,-2.9911744506150484,-9.287582871520518,-0.9818709563367068
1758972280872418000,10.67341796875,-2.980603372240066,-9.28924116012156,-0.9981742216881364
1758972280882376200,10.683376220703124,-2.963106001733243,-9.2898736128062,-1.0433835557892919
1758972280892333000,10.6933330078125,-2.935231906379759,-9.289952523261308,-1.1187529042240232
1758972280902291000,10.703291015625,-2.895714427244663,-9.288786986613273,-1.2262490370206534
1758972280912249000,10.7132490234375,-2.835670877431333,-9.286821824020146,-1.3727055265262722
1758972280922207200,10.723207275390624,-2.7556667818680403,-9.282985606858134,-1.5501204872667789
1758972280932164000,10.7331640625,-2.6960201224178073,-9.270512494254112,-1.7203145568430422
1758972280942122200,10.743122314453124,-2.724545667417347,-9.239338772833348,-1.838983314104378
1758972280952080100,10.753080078125,-2.8500217666059733,-9.192475314849615,-1.8831155935585497
1758972280962038000,10.7630380859375,-2.9931679625198244,-9.150393245923519,-1.8659155985631048
1758972280971995100,10.7729951171875,-3.0919694052726028,-9.127323335981368,-1.817165888441354
1758972280981953000,10.782953125,-3.1419872356340286,-9.123339819303155,-1.7501453392222523
1758972280991911200,10.7929111328125,-3.1512779188096522,-9.134681882050632,-1.6725550268024205
1758972281001869300,10.802869384765625,-3.1136367549404502,-9.162707953095435,-1.5875849793948231
1758972281011826000,10.812825927734375,-3.0245088572010395,-9.208417564868926,-1.4925629090502857
1758972281021784000,10.8227841796875,-2.8951369196176526,-9.2663191342175,-1.3870444330021738
1758972281031742200,10.8327421875,-2.749813087403774,-9.32471053290963,-1.287890815810859
1758972281041700000,10.8427001953125,-2.614882346649468,-9.3738390132159,-1.20990843533352
1758972281051657200,10.8526572265625,-2.5033830426260826,-9.412138056471944,-1.1467788291383534
1758972281061615000,10.862614990234375,-2.3955859541215,-9.447357838413119,-1.0858141458921133
1758972281071573200,10.8725732421875,-2.2835918523184953,-9.48139045639634,-1.028987731494382
1758972281081531100,10.88253125,-2.1735241885334253,-9.5123321226269,-0.9806667681787162
1758972281091488000,10.892488037109375,-2.066372996716946,-9.539606498521566,-0.9467639871202409
1758972281101446100,10.902446044921875,-1.9623105646960437,-9.562932429051399,-0.9327557008381933
1758972281111404300,10.912404296875,-1.8669823510117827,-9.581659925875067,-0.9362533336956054
1758972281121362200,10.922362060546876,-1.784252776007354,-9.596176527005433,-0.9487993654053658
1758972281131319000,10.932319091796876,-1.7098808411121367,-9.60817559235692,-0.9641896806303412
1758972281141277200,10.942277099609376,-1.6368388396464286,-9.618899815467,-0.9838289585366845
1758972281151235000,10.952235107421876,-1.5625335402466356,-9.62824047526419,-1.0128615762755273
1758972281161193200,10.962193115234374,-1.4891460863441228,-9.635372226840257,-1.0547228420577943
1758972281171151000,10.972151123046874,-1.417752144346386,-9.640284548801183,-1.1069180164583026
1758972281181108200,10.982108154296874,-1.3589860671229659,-9.642055650126933,-1.1637441385950893
1758972281191066000,10.992066162109374,-1.3222716627098619,-9.64038274847865,-1.2186204418383537
1758972281201024000,11.00202392578125,-1.3088754439115524,-9.635696636489033,-1.2690845546625553
1758972281210982100,11.011982177734374,-1.3142397474236787,-9.628414662787318,-1.3178779577955604
1758972281220939300,11.021939208984374,-1.3314029175400732,-9.61893839391172,-1.3688679941900073
1758972281230897200,11.031897216796875,-1.3560130426615475,-9.60802420118749,-1.4203938910268246
1758972281240855300,11.041855224609375,-1.3439825592584906,-9.603632103708385,-1.460935598643124
1758972281250813200,11.051813232421875,-1.238465544515103,-9.615421325701474,-1.476572582105547
1758972281260770000,11.06177001953125,-1.0586891884054987,-9.638395958575606,-1.466582956880331
1758972281270728200,11.071728271484375,-0.8538527714498341,-9.662699794226885,-1.4399762511141598
1758972281280686000,11.08168603515625,-0.6618032092224806,-9.682585813435912,-1.4071094620399176
1758972281290644200,11.091644287109375,-0.50416708098948,-9.696867436766624,-1.373675832863152
1758972281300601300,11.101601318359375,-0.38670620168056336,-9.706116911149024,-1.3461495280340312
1758972281310559000,11.11155908203125,-0.30180613250294697,-9.710686703282594,-1.3348613874308763
1758972281320517000,11.12151708984375,-0.23844050732851027,-9.711024556934833,-1.3451850669160486
1758972281330475000,11.13147509765625,-0.18338196111982688,-9.708393039387463,-1.3725320696555077
1758972281340432100,11.14143212890625,-0.1267015401971992,-9.703736738014221,-1.4113229880817233
1758972281350390300,11.151390380859375,-0.06268258851345163,-9.697568863034247,-1.4572710847862065
1758972281360348200,11.16134814453125,0.014079850255983182,-9.690426590064167,-1.5052688074968754
1758972281370306300,11.171306396484376,0.10776835560044273,-9.682871644639969,-1.5494358660034835
1758972281380263200,11.18126318359375,0.21779482885859905,-9.675169984221458,-1.5855805077046154
1758972281390221000,11.191220947265625,0.33800982918124645,-9.66705097517371,-1.6137730213575063
1758972281400179200,11.20117919921875,0.45799149567205455,-9.658279055175184,-1.6365430715702474
1758972281410137000,11.21113720703125,0.5668838320674374,-9.64920552188158,-1.655859474197775
1758972281420094200,11.22109423828125,0.6579723988879471,-9.640520111122727,-1.6726787993125616
1758972281430052400,11.23105224609375,0.7303381085272878,-9.632548401591182,-1.6884918699942528
1758972281440010200,11.24101025390625,0.7879426676906645,-9.625330140775441,-1.7036879778213798
1758972281449968400,11.250968505859374,0.8378663169626146,-9.61850643223524,-1.7183502710327505
1758972281459925200,11.26092529296875,0.8894505198579281,-9.611485155296325,-1.7316529663287101
1758972281469883100,11.270883056640624,0.9512408402733504,-9.603826164975763,-1.7412825260698794
1758972281479841300,11.28084130859375,1.027922001959011,-9.595284546601771,-1.7447867347985504
1758972281489799200,11.290799072265624,1.1182459045499562,-9.586063713791965,-1.7399100686728954
1758972281499756300,11.30075634765625,1.2160030258815735,-9.576261866223811,-1.7282666848912833
1758972281509714400,11.31071435546875,1.3124904195383191,-9.5660438390702,-1.7142285149276255
1758972281519672000,11.320672119140625,1.4010669670052827,-9.555463408344984,-1.7030955648861825
1758972281529630200,11.330630126953125,1.480598330490291,-9.544357492440938,-1.698077736724168
1758972281539587300,11.34058740234375,1.554323053523153,-9.532508064693213,-1.6987532978981732
1758972281549545200,11.350545166015625,1.6260802758753299,-9.519702359133959,-1.7033927942670881
1758972281559503400,11.36050341796875,1.6957289816409349,-9.50640214805603,-1.7097369025968014
1758972281569461200,11.370461181640625,1.760324349539727,-9.493784074023365,-1.7145517555326222
1758972281579419400,11.38041943359375,1.8189460498563945,-9.483041146212816,-1.7128142642155288
1758972281589376300,11.390376220703125,1.8608721975684164,-9.4760765678972,-1.7063186185859143
1758972281599334100,11.400334228515625,1.8455542169272898,-9.478959429857134,-1.706939234702289
1758972281609292300,11.410292236328125,1.7519589645154774,-9.495426580533385,-1.7140319694422184
1758972281619250200,11.420250244140625,1.6078896624073384,-9.52158335057497,-1.7101276554800569
1758972281629207300,11.430207275390625,1.4529676885038614,-9.551336683803797,-1.6826336454853414
1758972281639165200,11.440165283203125,1.3152476092919707,-9.580060673984885,-1.6318595899291335
1758972281649123000,11.450123046875,1.200486892319843,-9.606204584544896,-1.5652631113409996
1758972281659081200,11.460081298828126,1.0802351036507636,-9.632356093889474,-1.4903734361819923
1758972281669038300,11.470038330078125,0.9045270929586142,-9.660687869882583,-1.4224420557282864
1758972281678996200,11.479996337890626,0.6458031646013259,-9.688094347724318,-1.376283092752099
1758972281688954400,11.489954345703126,0.32917788609117266,-9.707994979980587,-1.3479036782249807
1758972281698912300,11.499912353515626,-0.00045621658781874427,-9.716733582231402,-1.3249423432238399
1758972281708869000,11.509869140625,-0.3096510921159759,-9.714696523445845,-1.303528091534227
1758972281718827300,11.5198271484375,-0.5845326302763074,-9.704602414932847,-1.2842919145360587
1758972281728785200,11.52978515625,-0.8294117923501878,-9.68855670453906,-1.2705546272151171
1758972281738743300,11.539743408203124,-1.0534979033727199,-9.667440851274133,-1.2653506288312375
1758972281748700400,11.549700439453124,-1.260115504656732,-9.642493457022308,-1.2668027273356914
1758972281758658000,11.559657958984374,-1.4478183429166673,-9.616068391433357,-1.2670578711405396
1758972281768616200,11.5696162109375,-1.6147545797407625,-9.591486323362588,-1.2515395456217229
1758972281778574300,11.57957421875,-1.7630901609912513,-9.570602525287866,-1.2105625883933155
1758972281788531200,11.58953125,-1.9022363274835048,-9.55252384776175,-1.1406965135499834
1758972281798489300,11.5994892578125,-2.049533359466493,-9.531849308523535,-1.0553069255560636
1758972281808447500,11.609447509765625,-2.222837523887306,-9.498491813322902,-1.0040281353481113
1758972281818405000,11.619405029296875,-2.393539396855235,-9.455094570145011,-1.0210583267346023
1758972281828363300,11.62936328125,-2.534425246621668,-9.409694170451164,-1.097607094212249
1758972281838320000,11.639320068359375,-2.6434192898258564,-9.366631858316063,-1.2037133070204407
1758972281848278300,11.6492783203125,-2.737174262844026,-9.325947965750098,-1.3057431372351944
1758972281858236400,11.659236328125,-2.8354090116247535,-9.28619813916385,-1.3774591507941483
1758972281868194300,11.6691943359375,-2.9436715256839987,-9.247718478643893,-1.4088602512300015
1758972281878151200,11.679151123046875,-3.0530174510657786,-9.212973912999033,-1.4037686271794139
1758972281888109300,11.689109375,-3.145026457199454,-9.186376997974515,-1.3746702507279813
1758972281898067200,11.699067138671875,-3.2101550551921125,-9.16978709770143,-1.334283879803866
1758972281908025300,11.709025390625,-3.2489135326534506,-9.161899559321999,-1.2940402783513067
1758972281917982500,11.718982421875,-3.2672353712856768,-9.159908093243837,-1.2615988750822842
1758972281927940400,11.7289404296875,-3.275086377047002,-9.160371034580468,-1.2376654801785945
1758972281937898200,11.738898193359375,-3.277762902779877,-9.161889622449875,-1.2192092015117406
1758972281947856100,11.748856201171876,-3.2773835480734705,-9.164242323055863,-1.202429696950689
1758972281957813200,11.758813232421875,-3.2751457060188054,-9.167332105764746,-1.1848320809397845
1758972281967771400,11.768771484375,-3.271679198952019,-9.17126067738533,-1.1638239988982677
1758972281977729300,11.778729248046876,-3.267484377610683,-9.175894182404875,-1.1388287469167262
1758972281987687400,11.7886875,-3.2620635216057297,-9.181124484273791,-1.111866432645917
1758972281997644300,11.798644287109376,-3.2546821791827676,-9.186953336557746,-1.0850457918681204
1758972282007602200,11.808602294921876,-3.2457840024560687,-9.19261501558125,-1.0635166085619479
1758972282017560300,11.818560302734374,-3.23503026099056,-9.19744433543384,-1.0544957553036511
1758972282027518200,11.828518310546874,-3.2199861288547513,-9.201576905193924,-1.064459661565721
1758972282037476400,11.838476318359374,-3.1949335206627842,-9.20658450422287,-1.096182029845193
1758972282047433500,11.84843359375,-3.1517677481532096,-9.214344032308459,-1.154390400120616
1758972282057391000,11.85839111328125,-3.080804744918644,-9.226380507060885,-1.246174657587707
1758972282067349200,11.868349365234375,-2.974750554558635,-9.242723739096522,-1.3759699351496995
1758972282077307100,11.87830712890625,-2.844520538841188,-9.258940129882097,-1.5333298037245868
1758972282087264300,11.88826416015625,-2.7286498878657817,-9.266416749373079,-1.69067915090546
1758972282097222400,11.898222412109375,-2.693574482831359,-9.25449776352048,-1.8081293261572717
1758972282107180300,11.90818017578125,-2.76884395108819,-9.221789672139286,-1.8607772127613424
1758972282117138200,11.91813818359375,-2.883597580732405,-9.185973093348741,-1.8636438542388378
1758972282127095300,11.92809521484375,-2.9737866779625413,-9.16180428225398,-1.8407463782541453
1758972282137053200,11.93805322265625,-3.031127398557961,-9.151724202266335,-1.7968422084674238
1758972282147011300,11.94801123046875,-3.0640327660769224,-9.154036570861935,-1.7279191866278647
1758972282156969200,11.95796923828125,-3.0597657562822103,-9.171860396844147,-1.6386555336795747
1758972282166926300,11.96792626953125,-2.9967993047595023,-9.210878986546396,-1.5327351988323032
1758972282176884200,11.97788427734375,-2.887250550282001,-9.26439956433177,-1.4160096845932304
1758972282186842000,11.987842041015625,-2.7686045893743634,-9.31747649000287,-1.2999373735658823
1758972282196800300,11.99780029296875,-2.674106981295347,-9.358348014095425,-1.2003687458328902
1758972282206757400,12.00775732421875,-2.5883511903375385,-9.392727253559231,-1.1169179438818246
1758972282216715300,12.01771533203125,-2.4944649921551347,-9.426530154439806,-1.0433405934303999
1758972282226673400,12.02767333984375,-2.39893380324468,-9.458514607721566,-0.9756981129206717
1758972282236631000,12.037631103515626,-2.30540328663215,-9.488434529688954,-0.908366378860548
1758972282246589200,12.047589111328126,-2.2124241202920674,-9.515953820255397,-0.8498236620642244
1758972282256546300,12.05754638671875,-2.1220231338769198,-9.539780686044692,-0.8123869347259401
1758972282266504200,12.067504150390626,-2.0349062836989757,-9.559653845772146,-0.8015981950122862
1758972282276462300,12.07746240234375,-1.9497252238892018,-9.576236731782554,-0.8152687007073313
1758972282286420200,12.087420166015624,-1.86852636558339,-9.589393734997511,-0.8500251759856938
1758972282296377000,12.097377197265626,-1.7968715806923805,-9.5983661460042,-0.9016834670305252
1758972282306335200,12.107335205078124,-1.7377487989857792,-9.603211832469702,-0.9637971011161803
1758972282316293000,12.117293212890624,-1.6914244163148104,-9.60451940793693,-1.0308622201293707
1758972282326251300,12.127251220703124,-1.6585267937108874,-9.602161446633934,-1.1037180513732134
1758972282336208400,12.13720849609375,-1.638923536965996,-9.595506664919853,-1.1876784102816134
1758972282346166300,12.147166259765624,-1.6275696376502513,-9.585490297818183,-1.2805394301347435
1758972282356124200,12.157124267578125,-1.621054995059222,-9.573556114396453,-1.3746325490660964
1758972282366082300,12.167082275390625,-1.6195801002010701,-9.560928688013552,-1.4614936709173023
1758972282376039200,12.1770390625,-1.6236914810426533,-9.549263384661078,-1.5315205623455346
1758972282385997300,12.186997314453125,-1.6032126105070112,-9.545257071629166,-1.577382149810344
1758972282395955200,12.196955078125,-1.4764578696846962,-9.564360416027903,-1.5853953603960573
1758972282405913300,12.206913330078125,-1.2754388921253383,-9.598053426793218,-1.5559693594254553
1758972282415871700,12.216871826171875,-1.0631272439181805,-9.632185413497686,-1.5037199706196784
1758972282425828400,12.226828369140625,-0.8749588339731097,-9.66026350699067,-1.4436588851496577
1758972282435786500,12.236786376953125,-0.7245812255010008,-9.68156348465085,-1.383015323616564
1758972282445744600,12.24674462890625,-0.6126483158333227,-9.697074357515573,-1.3273384445801377
1758972282455702500,12.25670263671875,-0.5275148214923218,-9.707788059231639,-1.2849042012155054
1758972282465659600,12.26665966796875,-0.4544225146114826,-9.714793554079533,-1.259642480317503
1758972282475617500,12.276617431640625,-0.3813337879272178,-9.718352707865833,-1.2564181114435196
1758972282485575400,12.286575439453125,-0.30269913581991564,-9.718463767024874,-1.2767968826055527
1758972282495533600,12.296533447265626,-0.22053247366156428,-9.715210318186879,-1.3177365034982562
1758972282505490400,12.306490478515625,-0.1359947532566264,-9.70910732513666,-1.3730053862556815
1758972282515448600,12.316448486328126,-0.04263348769720178,-9.701420277765394,-1.432137228051573
1758972282525406700,12.32640673828125,0.06961335589101073,-9.693246908181905,-1.4854425556510686
1758972282535364600,12.336364501953126,0.2023199771553278,-9.685002226927876,-1.5265039032272993
1758972282545322500,12.346322509765624,0.3447356303049251,-9.676765728980302,-1.5529836216129362
1758972282555279600,12.356279541015626,0.47957452805731443,-9.668626846188307,-1.5678215636521577
1758972282565237500,12.366237548828124,0.5932342249849811,-9.660923432204127,-1.5763976688176393
1758972282575195600,12.376195556640624,0.6793260064315051,-9.653997432333231,-1.5840566591382026
1758972282585153500,12.386153564453124,0.7380470024041831,-9.647757076638936,-1.5957609793268144
1758972282595110400,12.3961103515625,0.7750472380213439,-9.64193231600821,-1.6133239624157547
1758972282605068500,12.406068603515624,0.7982503458891064,-9.636294602382183,-1.6355502611406147
1758972282615026400,12.4160263671875,0.8150663830682635,-9.63101987684965,-1.6581734502285719
1758972282624984600,12.425984619140625,0.8318762097023427,-9.626400400355458,-1.676546288395673
1758972282634941700,12.435941650390625,0.8539004099838435,-9.622475335866213,-1.6879618547707795
1758972282644899600,12.445899658203125,0.8860978484291583,-9.61876771351993,-1.6924914610244333
1758972282654857700,12.455857666015625,0.9324332639507948,-9.61453519051671,-1.691650187894702
1758972282664815400,12.4658154296875,0.9946274159267544,-9.609026071706413,-1.6875192255698144
1758972282674773500,12.4757734375,1.0705598781369625,-9.60168389225006,-1.6828426120609044
1758972282684730600,12.485730712890625,1.1528494542889296,-9.592574118599295,-1.6804361354410646
1758972282694688500,12.4956884765625,1.2316589332401753,-9.582539046797155,-1.6817656304791568
1758972282704646700,12.505646728515625,1.2989650214023887,-9.572954641371965,-1.6857095457993447
1758972282714604500,12.5156044921875,1.3532178589850663,-9.564968903315068,-1.6883561147853732
1758972282724561400,12.5255615234375,1.3999600286766887,-9.558681785869599,-1.6858493926614522
1758972282734519600,12.53551953125,1.449465087210387,-9.552898526293038,-1.6767733751498162
1758972282744477400,12.5454775390625,1.5111324388332663,-9.545766190195083,-1.6628918570525943
1758972282754435600,12.555435546875,1.575081325522065,-9.537930674263835,-1.6484440833747387
1758972282764392700,12.565392822265625,1.5604783612824975,-9.541157819616794,-1.643657433620095
1758972282774350300,12.575350341796875,1.4133331588603555,-9.565105096915364,-1.6375772369235753
1758972282784308500,12.58530859375,1.1917157760389148,-9.600537644824385,-1.6061977637976408
1758972282794266400,12.595266357421876,0.9731200060609727,-9.635324880567193,-1.5439995201684533
1758972282804223500,12.605223388671876,0.7975271461810917,-9.665071199533342,-1.4562678990930318
1758972282814181600,12.615181640625,0.6299771613728254,-9.691249596884846,-1.3613199168980121
1758972282824139500,12.625139404296876,0.3984750384727493,-9.714567344108223,-1.2801475082077085
