time,seconds_elapsed,z,y,x
1758972509759707400,0.039707275390625,8.896853369140624,-0.14948796615600585,1.2885294059753418
1758972509769664500,0.04966455078125,9.561244329833984,0.5360018966674804,2.4091654205322266
1758972509779622700,0.05962255859375,10.99312656021118,0.8997709114074707,4.451419436645508
1758972509789579300,0.069579345703125,11.533617584991454,0.6860884132385253,5.765985785675048
1758972509799537400,0.079537353515625,10.154258153533934,-0.356885684967041,5.655553234100341
1758972509809494500,0.08949462890625,9.217077841186523,-1.0562918449401855,4.645200133514404
1758972509819451600,0.09945166015625,8.550891229248046,-1.5559318038940428,3.5057097808837887
1758972509829409500,0.109409423828125,8.954463846588133,-1.1993453941345213,3.359962754821777
1758972509839366400,0.119366455078125,8.468889822387695,-0.8011597305297851,3.7530607398986815
1758972509849324500,0.129324462890625,7.694664860534668,-0.488417138671875,3.258658097076416
1758972509859281700,0.13928173828125,7.519888139343261,-0.24301146850585936,2.5923218475341794
1758972509869239600,0.149239501953125,7.857171298217773,-1.181688156890869,2.3294085777282714
1758972509879196400,0.159196533203125,7.990947315979003,-2.2786814300537106,2.452410688018799
1758972509889153500,0.169153564453125,7.940519443511962,-2.0843021827697754,3.188926973724365
1758972509899111400,0.179111328125,7.651718868255615,-1.261444999694824,3.906588921356201
1758972509909068500,0.189068603515625,7.6101196144104,-0.9687538467407226,4.153790242767334
1758972509919026400,0.1990263671875,6.909965266418457,-0.7998129920959473,4.414758223724365
1758972509928983600,0.208983642578125,6.177040283203125,-0.6530185028076172,4.492719415283203
1758972509938941400,0.21894140625,5.540332279205322,-1.1454758567810057,4.400393013763427
1758972509948898600,0.228898681640625,5.625176800537109,-1.6684592819213866,5.86130493927002
1758972509958856700,0.238856689453125,6.06496171798706,-2.3677158042907713,7.639149309539794
1758972509968813300,0.248813232421875,6.778583450317383,-1.9699790534973143,7.025934409332275
1758972509978770400,0.2587705078125,7.468412803649902,-1.4007576087951659,5.351339985656738
1758972509988728600,0.268728515625,8.443900342559814,-2.098368117523193,5.480177962493896
1758972509998685700,0.278685791015625,10.178499445343016,-2.7736826232910157,5.220706357574462
1758972510008643300,0.288643310546875,10.699088668823242,-3.426401850891113,3.9757214942932126
1758972510018600400,0.298600341796875,9.711630121612549,-3.815908533477783,2.8368296920776364
1758972510028558600,0.30855859375,9.699210200500488,-3.456030096435547,2.526481301879883
1758972510038515500,0.318515380859375,9.11667100906372,-1.7747019805908202,1.6768389877319334
1758972510048473600,0.3284736328125,6.293607976531982,-2.309357138824463,2.4295161346435545
1758972510058430500,0.338430419921875,2.971653173065185,-3.988440690612793,4.215440935516357
1758972510068387600,0.3483876953125,1.9834464378356933,-4.354603907012939,6.2122051200866695
1758972510078345500,0.358345458984375,3.4754829849243163,-4.665999760437011,8.66296979446411
1758972510088302300,0.36830224609375,4.921431150054931,-4.1745898696899415,10.191368279266356
1758972510098260500,0.378260498046875,5.326500143432617,-3.3668460845947266,10.767173778533936
1758972510108217600,0.388217529296875,4.678120406341552,-3.162890030670166,10.525060135650634
1758972510118175500,0.398175537109375,3.4612674125671385,-2.455253802490234,10.262446141052246
1758972510128132600,0.408132568359375,1.9039888702392578,-0.9909002120971679,9.47400560684204
1758972510138090500,0.418090576171875,0.5901707092285156,-0.1623568000793457,9.113827894592285
1758972510148047400,0.42804736328125,-0.4827309097290039,0.8913912055969238,10.427795693206786
1758972510158005500,0.438005615234375,-1.4820108276367188,1.6784850013732908,11.935544188690185
1758972510167962600,0.447962646484375,-2.1256021614074707,1.2876315803527831,13.504045551300049
1758972510177919500,0.45791943359375,-2.1124340522766114,2.390311082458496,14.524723646545409
1758972510187877400,0.46787744140625,-1.737142942047119,2.0670938583374023,14.325107083129883
1758972510197834500,0.47783447265625,-0.19692308654785154,1.023371572113037,13.84177762298584
1758972510207792600,0.487792724609375,2.6988638214111327,0.2702455123901367,12.419621836853027
1758972510217749500,0.49774951171875,4.471620513153076,-0.5954080253601074,11.84321778717041
1758972510227707400,0.507707275390625,3.9426515838623044,-0.24705168380737302,12.46750587005615
1758972510237664500,0.51766455078125,-4.424035755157471,-1.4531307701110838,14.444368253326415
1758972510247622400,0.527622314453125,-18.1055515045166,-2.3588871856689453,13.140575811767578
1758972510257579500,0.53757958984375,-12.458677251434326,0.7540238853454589,14.346804535675048
1758972510267537700,0.54753759765625,-5.011064074707031,-0.7013514488220215,11.79174245147705
1758972510277494500,0.55749462890625,-1.5928922920227049,-3.1693244476318356,8.38898334197998
1758972510287451400,0.567451416015625,0.6615478462219238,-4.9917608238220215,7.733121724700927
1758972510297409500,0.577409423828125,1.1339537612915038,-7.870040132141113,8.804078054809569
1758972510307367000,0.587366943359375,2.2188263885498047,-6.328623175811767,9.695319622802733
1758972510317324800,0.59732470703125,3.1637878562927244,-5.813271268463135,11.551125184631347
1758972510327282000,0.607281982421875,2.30471837310791,-4.746804066467285,13.147908054351806
1758972510337240000,0.617239990234375,1.0482114143371581,-4.968267720031738,12.35976679534912
1758972510347197000,0.627197021484375,-0.728435855102539,-6.489782875061035,9.99833577041626
1758972510357154800,0.63715478515625,-2.001702225494385,-8.3762641456604,8.637531401824951
1758972510367112000,0.64711181640625,-2.545634915161133,-11.056123991394042,8.243086678314208
1758972510377069800,0.65706982421875,-3.2501287536621093,-13.210755847930907,8.234258059692383
1758972510387026700,0.667026611328125,-0.5161000953674316,-10.207529140472412,5.787383963012695
1758972510396983800,0.67698388671875,0.5987000526428222,-8.794800523376464,4.80755693359375
1758972510406942000,0.68694189453125,0.13257891693115234,-3.9906852546691893,5.702240166473389
1758972510416899000,0.696899169921875,1.4282909278869629,-4.907664490509033,5.341912816619873
1758972510426857000,0.70685693359375,0.30630817489624024,-8.31177033843994,4.071040647888183
1758972510436813800,0.716813720703125,-3.1639374938964844,-9.329156406402587,4.970811559295654
1758972510446772000,0.72677197265625,-0.4352957893371582,-11.088445713806152,6.1261634979248045
1758972510456728800,0.736728759765625,-2.5245360130310055,-16.08319928970337,6.297498554229736
1758972510466687000,0.74668701171875,-3.7011364913940428,-16.963816587829587,8.320898232269286
1758972510476643800,0.756643798828125,0.63206923828125,-11.391611499023437,10.294318950653075
1758972510486601700,0.766601806640625,2.99424845123291,-6.89500150604248,9.488819729614256
1758972510496558800,0.776558837890625,-2.8980314720153806,-3.4056022239685055,6.631639323425293
1758972510506516000,0.786515869140625,-4.698022207641602,-3.6468180412292477,6.510881777191162
1758972510516474000,0.79647412109375,-2.965667668914795,-5.672911196136474,7.087136189270019
1758972510526430700,0.8064306640625,-2.2547394134521483,-7.289296591949462,7.539490665435791
1758972510536388900,0.816388916015625,-1.0398317085266113,-6.35870033416748,9.172934748077392
1758972510546346000,0.826345947265625,-1.463306127166748,-4.30941335067749,8.681075944519042
1758972510556304000,0.836303955078125,-2.114080065917969,-5.9479451118469235,7.012766300201416
1758972510566260700,0.8462607421875,-1.5752350547790526,-5.615749631500244,7.273883918762206
1758972510576219000,0.856218994140625,-2.3395839347839353,-3.963002297973633,6.895450418853759
1758972510586176000,0.866176025390625,-2.23468797454834,-3.5507506996154783,6.21848989944458
1758972510596134000,0.8761337890625,-1.5351321769714354,-3.2881367050170898,5.38874938659668
1758972510606090800,0.8860908203125,-1.0839748016357422,-2.839523168945312,3.9662943252563476
1758972510616049000,0.896048828125,-0.6651391487121582,-3.283946852111816,2.4774001678466795
1758972510626005800,0.906005859375,-0.8590694831848144,-6.894552593231201,1.9315221893310546
1758972510635963000,0.915962890625,-1.5836147605895996,-7.465270413970947,3.7804444213867185
1758972510645921000,0.925921142578125,-1.6838719551086425,-8.122628407287598,3.9158664527893063
1758972510655878000,0.9358779296875,-1.3884873252868652,-7.922413293457031,4.444536106872558
1758972510665835800,0.945835693359375,0.2825157958984375,-7.428309925842285,5.744437970733642
1758972510675793000,0.95579296875,-0.9421183532714843,-10.070910008239746,4.968866270446777
1758972510685751000,0.9657509765625,-2.45794727935791,-7.332242584228515,8.03763424835205
1758972510695708000,0.9757080078125,-1.6690578323364256,-8.426392742919921,11.28791263961792
1758972510705665800,0.985665771484375,-1.8885761970520019,-10.605116253662109,11.300781473541258
1758972510715623000,0.995622802734375,-1.627308940887451,-11.632827316284178,9.092728992462158
1758972510725581000,1.0055810546875,-4.288314448547363,-11.19214457321167,7.271340079498291
1758972510735538000,1.015537841796875,-5.477185210418701,-9.139415924835205,6.289717398834228
1758972510745495800,1.025495849609375,-4.770297170257568,-7.120505374908447,5.083039762115479
1758972510755453000,1.035452880859375,-3.6104561035156246,-6.433070223236084,3.810970492553711
1758972510765410000,1.04541015625,-1.3195043899536132,-6.176292095184325,2.6575638427734374
1758972510775368000,1.055367919921875,-0.19916765060424804,-5.3467012199401855,1.4217068733215332
1758972510785324800,1.06532470703125,-0.7589619262695312,-3.9644986740112302,0.13407529296874998
1758972510795283000,1.075282958984375,-1.3106757713317871,-1.4718354705810546,-0.30526071166992186
1758972510805239800,1.08523974609375,-0.898274535369873,-0.7442974411010742,0.5093664031982421
1758972510815198000,1.095197998046875,-0.4234744186401367,-3.3550247138977047,0.946757118988037
1758972510825154800,1.10515478515625,-0.1475426773071289,-6.994809787750244,2.7250504020690918
1758972510835112700,1.11511279296875,2.3039701850891112,-9.551517885589599,5.416133068084717
1758972510845069800,1.12506982421875,-0.8162731285095214,-10.683227082824706,4.543745838165283
1758972510855028000,1.135028076171875,-2.079364141845703,-11.23568911590576,2.73881706161499
1758972510864985000,1.144985107421875,-0.02289455337524414,-10.829722296905517,1.5397709426879882
1758972510874942700,1.154942626953125,-0.26650457229614255,-10.403105488586425,1.3013982398986816
1758972510884899800,1.16489990234375,-1.268029054260254,-8.308777586364746,1.0784382102966308
1758972510894858000,1.17485791015625,-0.5122095176696777,-7.295282096099853,1.85146607131958
1758972510904814800,1.18481494140625,-0.996586441040039,-8.365639875793457,1.990030492401123
1758972510914771700,1.194771728515625,-0.421978042602539,-11.795483391571045,0.5916670852661132
1758972510924729900,1.204729736328125,-0.5244798011779784,-13.443143046569823,-0.08140285644531249
1758972510934687000,1.21468701171875,-0.6079775840759277,-11.631031665039062,-0.12315174789428711
1758972510944644900,1.224644775390625,-2.525733113861084,-12.5134446144104,-1.6941969497680662
1758972510954602000,1.23460205078125,-4.617217901611328,-17.591845610809326,0.5240308883666992
1758972510964560000,1.244559814453125,-4.210951807403564,-18.297985462951658,3.162141842651367
1758972510974517000,1.25451708984375,-1.7067665084838866,-18.643349052429198,1.5774796188354492
1758972510984475000,1.264474853515625,-1.2184990074157713,-17.164031701660154,2.009034468078613
1758972510994432000,1.274431884765625,-1.5508441253662109,-13.844770375061035,1.4661492416381836
1758972511004390000,1.284389892578125,-2.8107927490234372,-12.286294731903075,-0.45055882492065424
1758972511014346800,1.2943466796875,-3.327940307617187,-11.989114450836182,-1.5873557006835937
1758972511024305000,1.304304931640625,-2.442235330963135,-11.713781259918212,-2.0765210273742674
1758972511034262000,1.314261962890625,-2.231994497680664,-10.896311030578612,-2.2330419609069825
1758972511044220000,1.324219970703125,-2.2278046447753903,-10.773009645080565,-2.039111626434326
1758972511054176800,1.3341767578125,-2.4998458084106443,-11.140968512725829,-1.2972083869934081
1758972511064134000,1.3441337890625,-2.931251020050049,-11.79817686843872,-0.9246107536315917
1758972511074092000,1.354092041015625,-3.47323842086792,-12.300809579467773,-0.7743745994567871
1758972511084049000,1.364048828125,-3.9878421401977535,-13.068151211547852,-0.8143278396606445
1758972511094007000,1.374007080078125,-4.196586597442627,-14.036306507873535,-1.2048819854736328
1758972511103964000,1.3839638671875,-3.3446997192382812,-14.758906496429443,-1.921047557067871
1758972511113921800,1.393921875,0.02319382858276367,-13.051840712738036,-4.2785880043029785
1758972511123879000,1.40387890625,0.6153098266601562,-13.17708738708496,-5.414487054443359
1758972511133837000,1.413837158203125,0.7600093894958496,-11.06420442199707,-4.82656090927124
1758972511143794000,1.4237939453125,-0.9576806640625,-7.582735932922363,-3.5474586723327635
1758972511153751800,1.433751708984375,-2.288707149505615,-4.856638067626953,-2.5993548149108885
1758972511163709000,1.443708984375,-2.4506150367736814,-2.860622071075439,-1.8405425262451172
1758972511173667000,1.4536669921875,-3.637540509796142,-1.7827824111938475,-0.5790975265502929
1758972511183623700,1.463623779296875,-3.9223008697509765,-2.007238816833496,1.0033201332092285
1758972511193581800,1.473581787109375,-1.2782044113159179,-3.1471780822753903,2.7883471084594724
1758972511203539000,1.4835390625,0.4203320289611816,-3.208679137420654,4.8772880569458
1758972511213496800,1.493496826171875,-1.9508254402160643,-2.897283283996582,6.850858412933349
1758972511223454000,1.503453857421875,0.27099370040893556,-6.846219647216796,7.190086860656738
1758972511233411800,1.513411865234375,-1.3322235862731933,-9.59610989151001,6.565200227355956
1758972511243369000,1.523368896484375,-6.321739846038818,-10.366294638061524,5.216965417480468
1758972511253325800,1.533325927734375,-7.001842755126953,-13.033884200286865,2.7557261108398436
1758972511263284000,1.543283935546875,-8.744223013305664,-12.945149101257323,1.2675801414489745
1758972511273240800,1.55324072265625,-7.707832969665527,-12.633304335021972,-0.2929904281616211
1758972511283198700,1.56319873046875,-4.029441394042968,-13.681216474151611,-0.7848492317199707
1758972511293155800,1.57315576171875,-1.9955670837402342,-13.849708415985107,-0.5621884773254394
1758972511303114000,1.583114013671875,-0.9807248550415039,-13.205817807006834,-0.14215572357177733
1758972511313070800,1.59307080078125,-1.4538789581298828,-13.09373924179077,-0.860565859222412
1758972511323028700,1.60302880859375,-2.1742343826293946,-12.816011849212646,-2.116324629974365
1758972511332985900,1.61298583984375,-3.363254782104492,-11.826009462738037,-2.7192145355224606
1758972511342944000,1.622944091796875,-4.362983612823486,-11.387720921325682,-3.333476898956299
1758972511352900900,1.63290087890625,-4.288314448547363,-10.86638350982666,-3.277063522338867
1758972511362858800,1.642858642578125,-2.5444378143310544,-9.929801747894286,-2.1766285842895505
1758972511372816000,1.65281591796875,-0.09786299285888671,-9.206603208923338,-1.2122142280578612
1758972511382773800,1.662773681640625,0.020051438903808592,-8.639925603485107,-1.440261936187744
1758972511392731000,1.67273095703125,-1.455674609375,-7.997232095336914,-3.0443770484924313
1758972511402688800,1.682688720703125,-0.47016135101318357,-6.785317142486572,-4.096179765319824
1758972511412646000,1.69264599609375,-2.1766285842895505,-6.085910982513427,-3.831171569061279
1758972511422603800,1.702603759765625,-5.016301390838623,-6.762422589111328,-2.831293100738525
1758972511432561000,1.712560791015625,-6.22477467880249,-7.990049490356445,-1.5288473976135253
1758972511442519000,1.72251904296875,-5.138555313110351,-8.86153889465332,-0.6159083770751953
1758972511452476000,1.732475830078125,-3.7102643852233883,-9.00174932937622,-0.6655880615234374
1758972511462432800,1.742432861328125,-3.2947207595825194,-8.836848690032959,-1.710357810974121
1758972511472391000,1.752390869140625,-3.6739024475097652,-8.547299926757812,-3.158849815368652
1758972511482348000,1.76234814453125,-3.575889817047119,-8.298452591705322,-4.062212029266357
1758972511492305700,1.7723056640625,-3.864989667510986,-8.013093681335448,-4.293851039886475
1758972511502262800,1.7822626953125,-3.8902784225463867,-7.569118910980224,-3.8679824195861814
1758972511512221000,1.792220947265625,-3.7280712600708004,-7.088931840515136,-3.510049271392822
1758972511522178000,1.802177978515625,-4.065952969360351,-6.612934622955322,-3.4220623603820797
1758972511532136000,1.812135986328125,-4.22636448059082,-6.044012453460693,-3.277063522338867
1758972511542092800,1.8220927734375,-4.135534455108642,-5.601085146331787,-3.16004691619873
1758972511552051000,1.832051025390625,-4.094683389282227,-5.429151539611816,-3.2308255027770993
1758972511562007800,1.8420078125,-4.291307200622558,-5.468955142211914,-3.39018955078125
1758972511571966000,1.851966064453125,-4.483441883850097,-4.790797521972656,-3.1376012756347653
1758972511581922800,1.8619228515625,-4.260781129455566,-4.929361943054199,-3.453186981964111
1758972511591880700,1.871880615234375,-4.212148908233642,-4.939537300109863,-3.601926760101318
1758972511601837800,1.881837890625,-4.438400965118408,-4.868010525512695,-3.7300165489196777
1758972511611796000,1.8917958984375,-4.816086277008056,-4.953154322052002,-3.9715316413879393
1758972511621752800,1.9017529296875,-5.198410354614258,-4.9917608238220215,-4.28367568283081
1758972511631710700,1.911710693359375,-5.639990923309326,-5.057900644683838,-4.332307904052734
1758972511641667800,1.921667724609375,-5.470301880645752,-5.282656325531006,-4.521000922393799
1758972511651626000,1.9316259765625,-5.664531490325928,-5.4789808616638185,-4.4859857231140134
1758972511661582800,1.941582763671875,-5.852027407836914,-5.633406868743896,-4.183717763519287
1758972511671540700,1.951540771484375,-6.241983003234863,-5.822099887084961,-3.791667241668701
1758972511681497900,1.961497802734375,-6.6777277053833,-6.0036103004455565,-3.6426281883239744
1758972511691455700,1.971455810546875,-6.654533876800537,-5.962609597015381,-3.7630864593505855
1758972511701412900,1.981412841796875,-6.465391945648193,-5.680243438720702,-4.3439796371459956
1758972511711369700,1.99136962890625,-6.6139820861816405,-5.323507391357421,-5.539733728790283
1758972511721327900,2.001327880859375,-6.991817035675048,-4.774786298370361,-6.88871672668457
1758972511731284700,2.01128466796875,-7.2057988090515135,-3.9070378341674803,-7.879467301177978
1758972511741243000,2.021242919921875,-7.130830369567871,-2.9940988136291504,-8.118588191986083
1758972511751200000,2.031199951171875,-6.377704309844971,-2.4164976631164548,-7.6765587104797355
1758972511761157600,2.04115771484375,-4.627243621063232,-2.188599592590332,-7.084592350006103
1758972511771114800,2.05111474609375,-3.047968350982666,-1.9825486122131346,-6.489782875061035
1758972511781073000,2.061072998046875,-2.55371534576416,-2.586037068176269,-6.7836711288452145
1758972511791030000,2.071030029296875,-0.5942109245300292,-6.864774710083007,-7.251887191009521
1758972511800988000,2.08098779296875,-2.941276739501953,-15.618574530029296,-7.614608742523193
1758972511810944800,2.09094482421875,-6.803572930145263,-21.901707874298094,-6.357203958129882
1758972511820903000,2.10090283203125,-7.921964380645751,-20.821324375152585,-0.946158568572998
1758972511830859800,2.11085986328125,-6.265326469421386,-13.241730831909178,-0.7300818687438965
1758972511840818000,2.12081787109375,-0.13976152191162108,-6.140827983093262,-1.858499038696289
1758972511850774800,2.13077490234375,5.615151081085204,-1.9011457557678222,1.0586860466003418
1758972511860732700,2.140732666015625,1.601271997833252,-1.1155483360290526,0.5374982727050781
1758972511870689800,2.150689697265625,-4.390965844726562,-3.7377977043151853,-2.6747721672058105
1758972511880648000,2.16064794921875,-4.633229125213623,-6.438606814575195,-2.855085479736328
1758972511890605000,2.17060498046875,-1.458068811035156,-8.181585623168944,-0.3576338729858398
1758972511900562700,2.180562744140625,1.077540384674072,-9.389759635925293,2.267757884979248
1758972511910519800,2.190519775390625,1.4264952766418457,-10.309731623840332,3.8920740737915036
1758972511920478000,2.20047802734375,0.9044096771240234,-11.657068608093262,3.6625299896240233
1758972511930434800,2.210434814453125,-1.2452841384887694,-13.09373924179077,1.3795090690612792
1758972511940393000,2.22039306640625,-3.6816836029052733,-13.937695326995849,-1.311872872161865
1758972511950349800,2.230349853515625,-4.564545465087891,-13.255198216247559,-3.6159926948547363
1758972511960307700,2.2403076171875,-4.361487236785888,-11.07737253112793,-4.708796115112304
1758972511970264800,2.250264892578125,-2.9695582466125487,-8.905681987762451,-5.0303673255920405
1758972511980223000,2.260222900390625,-1.7898153785705566,-7.440280934143066,-5.166986457824707
1758972511990179800,2.270179931640625,-0.9496002334594726,-7.280168698120117,-4.978293439483642
1758972512000137700,2.2801376953125,0.3082534637451172,-8.405144203186035,-3.988291053009033
1758972512010094800,2.2900947265625,0.8885480911254883,-9.075221392822264,-2.433257074737549
1758972512020053000,2.300052978515625,1.7329530891418456,-10.07345384750366,-0.5063736511230469
1758972512030009900,2.310009765625,3.389591000366211,-11.99629705581665,1.0420762725830077
1758972512039967700,2.3199677734375,5.360467879486084,-14.283208554077147,2.2884078742980956
1758972512049924900,2.3299248046875,5.507112731170654,-15.826421161651611,3.8111201301574704
1758972512059882800,2.3398828125,3.2199019577026364,-17.303942861175535,5.0769046203613275
1758972512069840000,2.34983984375,0.4038718925476074,-18.24621085205078,6.67817661819458
1758972512079797800,2.3597978515625,-3.229179489135742,-19.79795280303955,8.079083864593505
1758972512089755000,2.3697548828125,-5.538686265563965,-22.961591021728513,8.126518984985351
1758972512103447800,2.38344775390625,-6.289118848419189,-26.37407657546997,7.773972790527344
1758972512113404700,2.39340478515625,-6.452373474121093,-24.26029578475952,6.6891001632690426
1758972512123362800,2.40336279296875,-7.147889056396484,-20.60883897781372,4.281880031585693
1758972512133320000,2.41331982421875,-8.353668867492676,-17.520618111419676,2.5375544845581053
1758972512143277000,2.423277099609375,-8.911966767120362,-15.480608659362792,1.0678139404296874
1758972512153235000,2.43323486328125,-8.735095119476318,-15.286528687286376,-0.723946726989746
1758972512163191800,2.44319189453125,-8.751405618286132,-13.978097480010986,-2.187851404571533
1758972512173150000,2.45314990234375,-8.151807740020752,-12.530204026031493,-3.3809120193481443
1758972512183106800,2.46310693359375,-6.523750611114502,-11.406575259399414,-3.984250837707519
1758972512193065000,2.47306494140625,-6.4463879699707025,-8.989628683471679,-4.4279263328552245
1758972512203021800,2.483021728515625,-8.346037349700927,-6.5026517089843745,-5.219359619140625
1758972512212979700,2.492979736328125,-10.206481677246094,-3.7934628929138183,-6.235398948669433
1758972512222936800,2.502936767578125,-10.995670399475097,-2.335842994689941,-6.322039121246338
1758972512232895000,2.51289501953125,-9.093926093292236,-2.952499559783935,-5.83526799621582
1758972512242852000,2.52285205078125,-6.833350813293457,-2.3790882621765137,-3.2698809173583983
1758972512252809700,2.532809814453125,-6.26338118057251,0.09412205276489258,3.0994436866760253
1758972512262766800,2.542766845703125,-2.429815409851074,0.6847416748046875,7.250839727783203
1758972512272725000,2.55272509765625,1.6310498809814453,0.1680430290222168,9.132532595062255
1758972512282681900,2.562681884765625,1.0645219131469725,-0.0848445213317871,9.766247846984863
1758972512292640000,2.572639892578125,-4.726602989959717,-1.0438719238281249,7.850287968444824
1758972512302596900,2.582596923828125,-10.30494322052002,-2.9236195022583007,3.444358363342285
1758972512312555000,2.592554931640625,-9.70369932861328,-4.713584518432617,-0.6763619689941406
1758972512322512000,2.602511962890625,-1.1207856521606445,-6.7936968482971185,-3.890428060150146
1758972512332470000,2.612469970703125,4.021061688232422,-9.721805478668212,-4.075978688812255
1758972512342427100,2.62242724609375,1.8812439544677733,-12.660388741302489,-3.2417490478515623
1758972512352385000,2.632385009765625,-0.8369231178283691,-16.63715769882202,-1.8463783927917479
1758972512362342100,2.642342041015625,-3.582174596405029,-22.40793188781738,0.37409400939941406
1758972512372300000,2.652300048828125,-4.567089304351806,-25.81173846054077,-0.5057751007080078
1758972512382257000,2.6622568359375,-5.355829113769531,-26.385449033355712,-3.231124777984619
1758972512392215000,2.672215087890625,-5.43977580947876,-26.242844396972654,-6.0428153526306145
1758972512402172200,2.682172119140625,-3.2556653450012205,-26.824485762786864,-9.137769911193848
1758972512412130000,2.692130126953125,-2.0644003814697265,-26.32903565673828,-8.620921627807617
1758972512422087000,2.7020869140625,-1.4372691841125487,-23.78280219116211,-4.046649718475342
1758972512432045000,2.712045166015625,-0.6413467697143554,-22.717831365203857,0.28655601119995117
1758972512442002200,2.722002197265625,-0.7029974624633789,-23.610868584442137,2.6216508178710938
1758972512451960000,2.7319599609375,-2.129941651916504,-23.958027825164795,2.310404602050781
1758972512461917000,2.7419169921875,-3.2104747886657714,-22.911462424468994,1.4936825607299804
1758972512471875000,2.751875,-3.431489529418945,-20.427178926849365,0.524779076385498
1758972512481832000,2.76183203125,-3.256563170623779,-17.649905001068113,0.07152677459716797
1758972512491790000,2.7717900390625,-2.69437469329834,-15.229816035461425,-0.5819406410217285
1758972512501747200,2.781747314453125,-1.802384937286377,-12.598289135742187,-2.090287686920166
1758972512511704800,2.791704833984375,-0.7757213378906249,-8.919598284912109,-3.585316986083984
1758972512521662000,2.801661865234375,0.867598826599121,-4.977096338653564,-5.212775564575195
1758972512531620000,2.8116201171875,1.1236287666320801,-1.8234838394165038,-5.588814862823486
1758972512541577200,2.8215771484375,1.4459481651306152,1.103876602935791,-5.231330627441406
1758972512551535000,2.83153515625,2.092831526184082,4.002057712554931,-5.4996308509826655
1758972512561492000,2.841491943359375,3.2282816635131835,6.229263806915283,-6.011241818237305
1758972512571450000,2.8514501953125,3.2781109855651853,7.716511950683593,-4.999242704010009
1758972512581407000,2.861406982421875,3.397821068572998,8.704419410705565,-3.3659482589721677
1758972512591365000,2.871365234375,2.8344354904174804,8.378658347320556,-2.6976667205810547
1758972512601322000,2.881322021484375,3.69036258392334,6.936451122283935,-3.7146038757324216
1758972512611280000,2.89127978515625,4.346523476409912,5.585223560333252,-4.208856880950927
1758972512621237000,2.901237060546875,3.900004866790771,5.248090039062499,-2.385373041534424
1758972512631195100,2.911195068359375,3.7538089279174804,3.801393685913086,-1.1414356414794922
1758972512641152000,2.921152099609375,3.9080852973937987,0.4462193344116211,-3.363254782104492
1758972512651110000,2.93110986328125,3.2953193099975584,-1.9409493583679198,-5.659743087005615
1758972512661067000,2.94106689453125,2.1088427497863766,-3.9643490364074703,-6.018574060821533
1758972512671025200,2.951025146484375,-0.25423428878784177,-7.885752080535888,-4.251653235626221
1758972512680982000,2.96098193359375,-5.840954225158691,-14.072668445587157,-1.588403163909912
1758972512690940000,2.97093994140625,-15.542259352111815,-19.054403549957275,-2.264016944885254
1758972512700897000,2.98089697265625,-32.57894945297241,-20.310760871124266,-3.2814030128479
1758972512710855000,2.99085498046875,-29.04196541290283,-15.046360333251952,3.356820365142822
1758972512720812000,3.00081201171875,7.006780796051025,-4.790198971557617,7.56537797088623
1758972512730770200,3.010770263671875,24.06322306060791,6.85654464187622,9.332149158477783
1758972512740727000,3.02072705078125,35.00502392272949,12.30200668029785,15.223381618499754
1758972512750685000,3.030684814453125,34.86421493759155,0.9617208793640136,9.526079492950439
1758972512760642000,3.04064208984375,18.48308717880249,-7.6170029441833496,1.3364134391784668
1758972512770600200,3.05060009765625,9.95898108062744,-13.24098264389038,-0.9901520240783691
1758972512780556800,3.060556884765625,-6.175244631958008,-26.38694540939331,-5.9299885993957515
1758972512790515000,3.070514892578125,-6.088754096984863,-36.23684067687988,-12.875268340301513
1758972512800472000,3.08047216796875,-5.133617272186279,-32.59959944229126,-7.975833917999267
1758972512810430000,3.090429931640625,-3.4084453384399414,-25.85079387512207,-1.1749544647216796
1758972512820387000,3.100386962890625,-3.0985458610534664,-20.6468469291687,-3.060837184906006
1758972512830345000,3.110344970703125,-1.534084713745117,-14.815768785858154,-2.803909419250488
1758972512840302000,3.120302001953125,1.5282488471984863,-11.904419567108153,-1.2382511711120605
1758972512850260000,3.130260009765625,3.8582559753417964,-11.88766015548706,0.9425672660827636
1758972512860217000,3.140217041015625,4.880131171417236,-14.37688169403076,3.5782840187072753
1758972512870175200,3.15017529296875,2.358438272857666,-20.164265657043455,6.983138054656982
1758972512880131800,3.1601318359375,-2.5191490592956542,-27.791443958282468,10.898705232238768
1758972512890090000,3.170090087890625,-8.540117321777343,-32.313342706298826,13.333757958221435
1758972512900048100,3.180048095703125,-9.728539170837402,-31.510985874938964,12.208483177947997
1758972512910005000,3.1900048828125,-7.116016246795654,-27.947515979003903,8.586056066131592
1758972512919963100,3.199963134765625,-6.764218240356445,-22.309919257354736,6.263830093383788
1758972512929920000,3.209919921875,-8.180987072753906,-16.858920627593992,5.728277109527587
1758972512939878000,3.2198779296875,-10.490942761993407,-13.512425257110595,3.2116718894958494
1758972512949835000,3.2298349609375,-11.761216380310058,-12.157606392669678,-0.9442132797241211
1758972512959793200,3.239793212890625,-8.949226530456542,-10.175207418060301,-3.3994670822143553
1758972512969750000,3.24975,-4.498555281829834,-8.1341505027771,-4.552873731994628
1758972512979708000,3.2597080078125,-4.49466470413208,-7.946804222869873,-6.571933919525146
1758972512989665000,3.2696650390625,-2.514809568786621,-7.046883673858642,-6.65857409210205
1758972512999623200,3.279623046875,-1.7565958305358886,-2.4301146850585935,-5.478831224060058
1758972513009580000,3.289580078125,-9.013271424865723,2.4383447532653806,-5.090372004699707
1758972513019538000,3.299537841796875,-15.714043321228026,4.759523262786865,-4.895094931793213
1758972513029495000,3.3094951171875,-15.253309139251709,3.545812658691406,-4.075380138397216
1758972513039453000,3.319452880859375,-9.732878661346435,1.7817349479675293,-0.5693710823059082
1758972513049410000,3.32941015625,-6.078728377532959,1.3103764961242674,3.484012328338623
1758972513059368200,3.3393681640625,-2.45794727935791,0.748936206817627,5.259013584136962
1758972513069325000,3.349324951171875,1.4443021514892578,0.032172084808349606,5.250184965515136
1758972513079283000,3.359282958984375,1.4540285957336425,-0.9084498924255371,5.382464607238769
1758972513089240000,3.369239990234375,-2.4857798736572265,-2.1492449028015135,4.331110803222656
1758972513099198200,3.3791982421875,-5.520879390716552,-3.5697546752929687,2.476502342224121
1758972513109154800,3.38915478515625,-2.69422505569458,-5.536292063903808,0.0796072052001953
1758972513119113000,3.399113037109375,0.42796354675292964,-6.282684431457519,-1.9211971946716306
1758972513129070000,3.409070068359375,-1.023371572113037,-8.020425923919678,-3.0110078628540036
1758972513139028000,3.419028076171875,-1.818246523284912,-12.918962520599365,-3.7894226776123046
1758972513148984800,3.42898486328125,-1.4065934753417968,-20.062362448883057,-3.1000422370910643
1758972513158943000,3.43894287109375,-3.8687306076049803,-25.416246273803708,-1.0245686729431152
1758972513168900000,3.448900146484375,-5.964854161071777,-27.493964402008054,-1.4954782119750976
1758972513178858000,3.45885791015625,-5.251531703948975,-29.346178661346435,-2.8106431114196777
1758972513188815000,3.468815185546875,-4.313752841186523,-29.784616840362546,-2.823212670135498
1758972513198773000,3.47877294921875,-2.8272528854370114,-28.72907318344116,-2.037914525604248
1758972513208729900,3.488729736328125,0.9014169250488281,-28.698996025085446,-3.9221512321472165
1758972513218688000,3.49868798828125,1.1546037506103515,-29.032388606262206,-5.8828527542114255
1758972513228645000,3.50864501953125,-4.463540082550049,-26.74323254394531,-2.0133739585876462
1758972513238603000,3.51860302734375,-8.046911779785155,-23.6102700340271,5.782745197296142
1758972513248559900,3.528559814453125,-5.967846913146972,-24.290522580718992,9.385420145416258
1758972513258518000,3.53851806640625,-1.392976453399658,-23.73042902984619,9.700556938934326
1758972513268475100,3.54847509765625,-0.642244595336914,-20.809951917266844,7.644386625671387
1758972513278433000,3.55843310546875,-1.4559738845825194,-17.460164519500733,5.1900306488037105
1758972513288390000,3.568389892578125,-0.0282815071105957,-14.891036500549315,3.487603630828857
1758972513298348000,3.57834814453125,2.7430069145202634,-12.380716059875487,1.6795324645996093
1758972513308304400,3.588304443359375,4.606593631744384,-8.776993648529052,-0.14634557647705076
1758972513318262300,3.59826220703125,5.571756175994873,-4.895843119812011,-1.4565724349975586
1758972513328219400,3.608219482421875,6.334907955169677,-1.025316860961914,-3.282001563262939
1758972513338177500,3.618177490234375,6.38443800201416,3.376722166442871,-5.615749631500244
1758972513348134400,3.628134521484375,6.2964510910034175,6.582857464599609,-9.590423662567138
1758972513358092300,3.63809228515625,6.488585774230956,9.4879219039917,-12.083086865997315
1758972513368049400,3.64804931640625,5.7906759902954095,12.591405805969238,-11.290905391693114
1758972513378007300,3.65800732421875,3.5977369071960448,14.90719736175537,-8.358307633209227
1758972513387964200,3.667964111328125,4.0069957534790035,15.396213050842285,-4.6830584472656245
1758972513397922300,3.67792236328125,6.920290261077881,15.060126992797851,-0.3272574394226074
1758972513407879400,3.68787939453125,8.602067289733887,11.777975791931151,4.703708436584472
1758972513417837300,3.69783740234375,9.406967960357665,5.751620575714111,4.356100283050536
1758972513427794400,3.70779443359375,9.699958388519287,1.9545663803100586,2.685246799468994
1758972513437752300,3.71775244140625,6.294056889343262,-1.6349404586791991,1.5505448501586914
1758972513447709400,3.72770947265625,-0.730979694366455,-8.009951291656494,1.0046668716430665
1758972513457667300,3.737667236328125,-8.858845417785645,-17.51163985519409,0.22969372177124023
1758972513467624400,3.74762451171875,-22.036082442474363,-32.488717977905274,-3.95192911529541
1758972513477582300,3.757582275390625,-29.429826081848145,-43.410617038726805,-10.156353079986571
1758972513487539200,3.767539306640625,-33.335517177581785,-30.90659959335327,-1.7135002006530762
1758972513497497300,3.777497314453125,-18.176779003906248,-15.605705696105955,4.9337014335632325
1758972513507454500,3.787454345703125,3.2673370780944824,-8.04361975250244,3.153163586425781
1758972513517412400,3.797412353515625,42.23925387649536,3.161543292236328,5.3287447074890135
1758972513527370500,3.80737060546875,42.91920714797973,7.051971352386474,1.0794856735229492
1758972513537327400,3.817327392578125,13.933355836486816,-4.299836544036865,-6.881234846496581
1758972513547285200,3.82728515625,11.334300296783447,-9.8825162651062,-7.975833917999267
1758972513557242400,3.837242431640625,12.94679511489868,-12.701239807128905,-4.777180500030517
1758972513567200500,3.847200439453125,16.429311067199706,-14.759056134033202,-3.7199908294677733
1758972513577157400,3.857157470703125,6.445190869140625,-15.124920075225829,-0.9648632690429687
1758972513587115300,3.867115234375,2.856432218170166,-15.39845761489868,-3.250278391265869
1758972513597072400,3.877072265625,-2.13862063293457,-14.142100293731689,-2.5884312698364256
1758972513607030300,3.8870302734375,1.8498200576782224,-15.726313604736328,1.8631378044128417
1758972513616987400,3.8969873046875,6.2110080192565915,-19.470096813201902,2.4802432823181153
1758972513626945300,3.9069453125,4.77553448638916,-22.840384562683106,2.7118822929382325
1758972513636902400,3.91690234375,-6.6611179313659665,-30.00548194351196,2.2008698760986327
1758972513646860300,3.9268603515625,-12.581679361724852,-35.68392973098754,2.2330419609069825
1758972513656817400,3.9368173828125,-10.462361979675292,-31.516372828674314,7.455843244934082
1758972513666775600,3.946775634765625,-6.957550024414062,-27.09503055038452,10.201244361114501
1758972513676732400,3.956732421875,-3.321206615447998,-23.102400006866453,9.83852280960083
1758972513686690300,3.966690185546875,-2.4254759193420408,-19.74707601776123,8.869020774841308
1758972513696647400,3.9766474609375,-7.276427758026123,-17.165528077697754,6.725312463378906
1758972513706605300,3.986605224609375,-13.543998791503906,-13.970914875030516,3.624970951080322
1758972513716562200,3.996562255859375,-16.264260790252685,-11.870900743865967,0.7333738960266113
1758972513726520300,4.006520263671875,-11.652429842376709,-11.073332315826415,-1.5352818145751952
1758972513736477400,4.0164775390625,-5.882703116607666,-10.318560242462157,-0.48063598327636714
1758972513746435300,4.026435302734375,-3.7199908294677733,-9.673173257446289,0.2609679809570312
1758972513756392200,4.03639208984375,-4.545840764617919,-7.864204265594482,-0.08274959487915039
1758972513766350300,4.046350341796875,-5.776011505126953,-5.130774157714844,0.7408557762145995
1758972513776307500,4.056307373046875,-8.067262493896484,-3.2486323776245114,0.712424631500244
1758972513786265300,4.066265380859375,-8.842834194183348,-1.2997522262573242,1.0127473022460938
1758972513796222500,4.076222412109375,-9.185803582000732,-1.2455834136962889,1.929427262878418
1758972513806180400,4.086180419921875,-9.04649097290039,-2.1984756744384764,1.76841720123291
1758972513816137200,4.09613720703125,-7.389553786468506,-0.49455228042602534,1.6844705055236815
1758972513826095400,4.106095458984375,-6.349422802734375,1.7937059562683104,3.1151556350708005
1758972513836052500,4.116052490234375,-5.247042575836181,2.4513632247924804,5.124938291168212
1758972513846010400,4.12601025390625,-2.070385885620117,1.8276736923217773,5.60542463684082
1758972513855967200,4.13596728515625,1.1991957565307616,0.4198831161499023,5.1134161956787105
1758972513865925400,4.14592529296875,-0.4429273071289062,-0.6123170745849609,4.455010739135742
1758972513875883300,4.15588330078125,-2.8419173706054686,-2.0210054763793943,3.2281320259094235
1758972513885840400,4.16584033203125,-1.8344073844909667,-4.046200805664062,1.17480482711792
1758972513895798500,4.175798583984375,-0.9491513206481933,-4.847360536193848,-1.5453075340270994
1758972513905755400,4.18575537109375,-1.360505093383789,-5.846790091705322,-4.482843333435058
1758972513915713300,4.19571337890625,-1.3144167114257812,-9.450063590240479,-7.491606632232665
1758972513925670400,4.20567041015625,-1.9009961181640624,-15.11743819503784,-7.968352037811279
1758972513935628300,4.215628173828125,-4.351461517333984,-21.227440831756592,-5.324255579376221
1758972513945585200,4.225585205078125,-6.293009426116943,-26.216957091522215,-3.001131781005859
1758972513955543300,4.235543212890625,-5.952883152770996,-30.73361852340698,-2.433107437133789
1758972513965500400,4.24550048828125,-4.404283591461182,-34.20655766906738,-4.417302062988281
1758972513975458300,4.255458251953125,-2.624493932342529,-32.480637547302244,-5.528211633300781
1758972513985415400,4.26541552734375,-0.07870937957763671,-28.394633139038085,-7.1495350700378415
1758972513995373300,4.275373291015625,0.06254851837158203,-26.73754631500244,-7.8238021125793455
1758972514005330400,4.285330322265625,-5.682936915588378,-25.334693779754637,-1.394323191833496
1758972514015288300,4.295288330078125,-8.487893798065185,-24.276905558776853,6.868665287780761
1758972514025245400,4.305245361328125,-5.447856240081787,-24.857948374176026,10.651653548431396
1758972514035203600,4.31520361328125,-3.3295863212585446,-23.438037152099607,11.713930897521973
1758972514045160200,4.32516015625,-2.8021137680053707,-20.121768577575683,10.223091451263427
1758972514055118300,4.335118408203125,-2.0311808334350583,-16.339079592132567,7.653664157104492
1758972514065075500,4.345075439453125,0.7234978141784667,-12.336423329162598,6.077381639099121
1758972514075033300,4.355033447265625,3.8352117843627926,-9.707739543914794,5.228188237762451
1758972514084990200,4.364990234375,4.9832314804077145,-7.938274879455566,1.867477294921875
1758972514094948400,4.3749482421875,5.622333686065674,-6.265176831817627,-2.403778466796875
1758972514104905500,4.384905517578125,6.071994685363769,-3.3605613052368164,-4.888211602020263
1758972514114863400,4.39486328125,6.885723974609375,0.15876549758911132,-6.9545572723388664
1758972514124820500,4.404820556640625,6.367379315185547,4.5890860321044915,-9.386168333435059
1758972514134778400,4.4147783203125,4.582651615142822,8.917054445648192,-10.704625260162352
1758972514144735200,4.4247353515625,4.874145667266846,10.9428483253479,-9.425822298431395
1758972514154693400,4.434693359375,5.783792660522461,12.66053837890625,-5.058499195098877
1758972514164650500,4.444650390625,5.419724370574951,12.75615680770874,-1.2476783401489258
1758972514174608400,4.4546083984375,5.997175883483886,11.527183168029785,1.4118307914733885
1758972514184566300,4.464566162109375,6.672191114044189,7.970746239471435,2.7539304595947263
1758972514194523400,4.4745234375,6.930465618133544,3.3283892204284666,1.6633716033935546
1758972514204481300,4.484481201171875,5.7237879814147945,-0.09457096557617187,-0.15233108062744138
1758972514214438400,4.4944384765625,1.7069161460876463,-3.5422213562011717,-2.0214543891906738
1758972514224396500,4.504396484375,-5.02423218383789,-8.114996889495849,-3.816507083892822
1758972514234353400,4.514353515625,-14.553454066467284,-14.120702116394042,-4.453364725494384
1758972514244311300,4.524311279296875,-21.81027929840088,-23.37384262008667,-5.349394696807861
1758972514254268400,4.534268310546875,-21.227440831756592,-28.87646622314453,-6.170905141448975
1758972514264226600,4.5442265625,-22.225822924041747,-21.715109782409666,-1.6186299598693847
1758972514274183200,4.55418310546875,-16.92476117324829,-12.34121173248291,0.7191583236694336
1758972514284141300,4.564141357421875,0.6748655929565429,-5.93073678741455,0.2629132698059082
1758972514294098400,4.574098388671875,25.972299609375,1.4446014266967773,0.9914987625122069
1758972514304056300,4.584056396484375,43.80461284942627,9.76190835647583,5.446359864044189
1758972514314013400,4.594013427734375,23.241712615966797,0.13108254089355467,0.36750995483398435
1758972514323971600,4.6039716796875,12.331784563446044,-10.52191774597168,-3.2626983123779296
1758972514333928700,4.6139287109375,11.501445500183104,-15.266926161193847,-2.398541150665283
1758972514343886300,4.62388623046875,18.281525326538084,-21.320665058898925,1.0109516510009764
1758972514353843500,4.633843505859375,7.317278823852539,-24.752154588317868,3.6008792968749996
1758972514363801600,4.643801513671875,-9.757119953155517,-21.18838541717529,-1.690007096862793
1758972514373758500,4.653758544921875,-5.007772047424316,-17.86239039840698,-0.4752490295410156
1758972514383716600,4.663716552734375,2.9845220069885254,-16.809689855957032,1.4634557647705078
1758972514393673500,4.673673583984375,4.517708895111084,-18.15852321624756,2.412158172607422
1758972514403631400,4.68363134765625,3.8934208122253415,-22.176741790008542,2.7883471084594724
1758972514413588500,4.69358837890625,-4.519205271148682,-26.191817974090576,3.730764736938476
1758972514423546600,4.703546630859375,-6.4743702018737785,-26.413730540466307,7.4880153297424314
1758972514433504500,4.71350439453125,-4.136432280731201,-26.906636807250976,10.122534981536864
1758972514443461400,4.72346142578125,-3.8545150352478026,-26.62726340103149,11.219528254699707
1758972514453419500,4.73341943359375,-2.072181536865234,-25.874137341308593,7.904905693817138
1758972514463376600,4.743376708984375,-3.7768531188964842,-23.600842864990234,5.815216557312011
1758972514473334500,4.75333447265625,-9.680206224822998,-20.113089596557614,5.341014990997314
1758972514483291400,4.76329150390625,-15.866823314666748,-14.904803160095215,4.573523721313476
1758972514493249500,4.77324951171875,-16.859519178009034,-12.103886492919921,1.2927192588806151
1758972514503206400,4.783206298828125,-11.226261946868895,-11.618312468719482,-2.356492984008789
1758972514513164500,4.79316455078125,-4.79483773727417,-9.789292037963866,-3.9921816307067868
1758972514523121700,4.80312158203125,-4.26452206954956,-7.959822694396972,-4.359990860748291
1758972514533079300,4.813079345703125,-6.334459042358398,-7.203554244995117,-6.663811408233642
1758972514543036400,4.823036376953125,-7.390750887298584,-5.774066216278076,-7.314286071777343
1758972514552994600,4.83299462890625,-6.758532011413574,-2.1199159324645995,-3.6731542594909667
1758972514562951700,4.84295166015625,-7.802403935241699,-0.4578910675048828,0.7920318367004394
1758972514572909600,4.85290966796875,-9.456348369598388,-0.5924152732849121,3.716249889373779
1758972514582866400,4.862866455078125,-7.857620211029052,0.847846662902832,7.369502347564697
1758972514592824600,4.872824462890625,-4.0732852119445795,2.260575279998779,10.134206714630126
1758972514602781400,4.882781494140625,-1.8914193115234375,2.3828292022705075,10.997615688323974
1758972514612739600,4.892739501953125,-3.769820151519775,2.4634838706970212,9.996689756774902
1758972514622696400,4.902696533203125,-8.151508464813231,1.690605647277832,6.741323686981201
1758972514632654300,4.912654296875,-7.489212430572509,-1.0507552536010742,1.9476830505371092
1758972514642612500,4.922612548828125,-2.1689970664978024,-3.4293946029663083,-1.7007810043334959
1758972514652569600,4.932569580078125,1.5981296081542968,-4.44363828125,-2.5602994003295896
1758972514662527500,4.942527587890625,-0.612915625,-4.8904561660766594,-2.694823606109619
1758972514672484400,4.952484375,-3.227982388305664,-5.691765534210205,-4.600308852386474
1758972514682442500,4.9624423828125,-4.320486533355712,-7.403619721221923,-5.7794531700134275
1758972514692399600,4.972399658203125,-3.783437173461914,-11.340734713745116,-5.7140615371704095
1758972514702357500,4.982357421875,-3.8474820678710935,-17.25022296142578,-4.051288484191894
1758972514712314400,4.992314453125,-5.408800825500488,-23.025635916137695,-2.6473884857177734
1758972514722272500,5.0022724609375,-5.647622441101074,-27.6064918800354,-1.9844939010620115
1758972514732229400,5.0122294921875,-3.679887951660156,-31.752201692199705,-0.06209960556030273
1758972514742187500,5.0221875,-2.1815666252136228,-34.97958553009033,-0.8503905021667479
1758972514752144600,5.03214453125,-1.5070003074645995,-35.35667229156494,-2.757222486877441
1758972514762102300,5.042102294921875,-0.03815758895874023,-31.540913395690914,-4.752041382598876
1758972514772059400,5.052059326171875,-2.081907981109619,-28.21850967941284,-5.677699599456787
1758972514782017500,5.062017578125,-6.151302615356445,-25.833735188293456,-1.285087741088867
1758972514791974700,5.071974609375,-5.543175393676758,-23.37429153289795,3.4706945816040036
1758972514801932500,5.0819326171875,-3.0603882720947264,-21.84215210800171,5.045630361175537
1758972514811889400,5.091889404296875,-1.7069161460876463,-20.494964761352538,5.576694216918945
1758972514821847600,5.10184765625,-1.2538134819030762,-19.2823016204834,4.297591979980469
1758972514831804400,5.111804443359375,-0.17776947326660156,-16.22984414138794,2.218078200531006
1758972514841762600,5.121762451171875,1.313967798614502,-12.623877165985107,2.3843255783081054
1758972514851720400,5.131720458984375,2.692878317260742,-9.317185398101806,1.5023615417480467
1758972514861677300,5.14167724609375,3.952527665710449,-5.8083332275390624,-0.42975919799804685
1758972514871635500,5.151635498046875,4.848258361816406,-1.588403163909912,-2.8139351387023925
1758972514881592600,5.161592529296875,4.841375032043457,2.381781739044189,-4.497058905792236
1758972514891550500,5.171550537109375,4.394856422424316,6.221781926727295,-6.298396379852295
1758972514901507300,5.18150732421875,4.73079284286499,9.408913249206542,-8.279448616027832
1758972514911465500,5.191465576171875,5.052812966156005,11.752238124084473,-8.333916703796387
1758972514921422600,5.201422607421875,4.287715898132324,12.345700860595702,-6.559364360809326
1758972514931380500,5.21138037109375,3.273172944641113,11.298536909484863,-3.6745009979248047
1758972514941337600,5.221337646484375,3.2350153556823726,10.002525623321533,-0.6067804832458495
1758972514951295500,5.23129541015625,3.659387599945068,8.33077431411743,2.0477906074523924
1758972514961252400,5.24125244140625,3.9119758750915525,5.531354022979736,3.5085528953552245
1758972514971210500,5.25121044921875,3.9420530334472654,2.371007831573486,2.424877368927002
1758972514981167600,5.261167724609375,2.2138883476257325,-0.5615899269104003,0.9581295768737792
1758972514991125500,5.27112548828125,-1.9173066169738768,-5.054758255004883,-0.502483073425293
1758972515001082400,5.281082275390625,-7.090727491760253,-10.81535708694458,-3.3515830490112304
1758972515011040500,5.29104052734375,-15.166968241882323,-16.53330920181274,-6.349273165130615
1758972515020997600,5.30099755859375,-21.725135501861573,-22.902184893035887,-9.284115487670897
1758972515030955500,5.31095556640625,-23.46886249847412,-23.941866963958738,-9.971101726531982
1758972515040912400,5.320912353515625,-17.956961363983154,-16.744148585510253,-3.999813148498535
1758972515050870500,5.33087060546875,0.14200608596801756,-8.487744160461425,-0.4976946701049804
1758972515060828400,5.340828369140625,22.986879776763914,-0.6453869850158691,0.9699509475708007
1758972515070785500,5.35078564453125,39.073670368957515,9.632022916412353,8.091503785705566
1758972515080743400,5.360743408203125,23.630920023345947,4.8138417129516595,5.050119489288329
1758972515090700300,5.3707001953125,14.94026727218628,-7.715314849853515,0.8209118942260741
1758972515100658400,5.380658447265625,15.950470735168457,-13.448978913116454,1.9015946685791014
1758972515110615600,5.390615478515625,10.933121881103515,-23.135170642089843,5.060444483947753
1758972515120573400,5.400573486328125,15.717484986114501,-32.77931420440674,5.352387448883056
1758972515130530600,5.410530517578125,7.845200289916992,-29.383588062286375,3.1166520111083984
1758972515140488400,5.420488525390625,-3.623025662231445,-22.81180378036499,3.6462194908142087
1758972515150445600,5.430445556640625,-0.5259761772155761,-19.50451346206665,1.1688193229675292
1758972515160403500,5.440403564453125,-1.3497311859130858,-18.989011917114258,-1.2026374214172362
1758972515170360600,5.450360595703125,-1.9243395843505857,-19.933674109649658,-1.7690157516479492
1758972515180318700,5.460318603515625,-5.6863785804748535,-21.896769833374023,-2.050035171508789
1758972515190275300,5.470275390625,-12.145186471557617,-23.593211347198483,-2.310703877258301
1758972515200233500,5.4802333984375,-1.3949217422485352,-24.127866505432127,0.4171896392822265
1758972515210190600,5.490190673828125,5.719149215698242,-23.459734604644773,6.017825872802734
1758972515220148500,5.5001484375,2.9331963088989257,-25.302521694946286,7.25248574142456
1758972515230105300,5.510105224609375,-2.1877017669677734,-26.428245388031005,6.8870707130432125
1758972515240063500,5.5200634765625,-12.872275588226318,-24.2362041305542,6.898892083740234
1758972515250021400,5.530021484375,-22.189161711120605,-19.190573769378663,6.105812783813477
1758972515259978500,5.539978515625,-19.02537385482788,-13.097779457092285,3.679439038848877
1758972515269936600,5.5499365234375,-11.77827506713867,-10.159944382476805,1.3724761016845701
1758972515279893500,5.5598935546875,-5.159354940032959,-9.451559966278076,-0.4381389038085937
1758972515289851400,5.569851318359375,-3.1543606872558594,-8.35696089477539,-1.393724641418457
1758972515299808500,5.57980859375,-3.7536592903137205,-5.84828646774292,-1.148468608856201
1758972515309766700,5.5897666015625,-5.042188696289062,-3.1578023521423337,-2.4525603256225583
1758972515319723800,5.599723876953125,-6.2852282707214355,-1.2029366966247559,-3.236212456512451
1758972515329682000,5.609681884765625,-8.507047411346434,-0.6060322952270507,-1.8186954360961913
1758972515339639000,5.61963916015625,-12.975675172424316,-2.9144916084289547,0.4676175117492676
1758972515349596700,5.6295966796875,-12.075455348205566,-3.215712104797363,3.3351229125976563
1758972515359553800,5.6395537109375,-5.2447980117797846,-0.4703109886169433,7.4208280456542965
1758972515369512000,5.649511962890625,-1.6862661567687987,-0.1788169364929199,9.6273841506958
1758972515379468800,5.65946875,-6.071994685363769,-0.4134486991882324,10.109217234802246
1758972515389427000,5.669427001953125,-12.733411891937255,-1.4065934753417968,5.863250228118896
1758972515399383800,5.6793837890625,-11.552920835876463,-3.3646015205383297,-1.403899998474121
1758972515409341700,5.689341796875,-0.20171148986816406,-2.015468885040283,-3.968538889312744
1758972515419298800,5.699298828125,2.625691033172607,-0.9139864837646484,-3.435978657531738
1758972515429257000,5.709257080078125,-2.5405472366333006,-2.384624853515625,-2.99439808883667
1758972515439214800,5.71921484375,-2.8954876327514647,-4.5322237426757805,-3.4856583419799803
1758972515449171700,5.729171630859375,-0.7537246101379395,-9.980828170776366,-3.6144963188171384
1758972515459129900,5.7391298828125,0.7902361854553223,-19.177405660247803,-2.4946084922790526
1758972515469087000,5.7490869140625,-0.0757166275024414,-24.583961921691895,1.2898761444091795
1758972515479044900,5.759044921875,-4.265120619964599,-25.959430775451658,2.0611083541870117
1758972515489001700,5.769001708984375,-5.0480245628356935,-26.511593533325193,-1.2638392013549804
1758972515498960000,5.7789599609375,-3.4880525436401366,-25.85064423751831,-2.0866963844299313
1758972515508916700,5.788916748046875,-3.0086136611938477,-24.578126055145262,-1.5958850440979002
1758972515518875000,5.798875,-2.4358009140014647,-24.545654695129393,-2.8685528640747067
1758972515528832000,5.80883203125,0.4745008415222168,-25.672725126647947,-4.936544548034668
1758972515538789600,5.81878955078125,3.384204046630859,-26.836606408691406,-6.12930588760376
1758972515548746800,5.828746826171875,-2.701856573486328,-25.68604287338257,-1.274912384033203
1758972515558705000,5.838704833984375,-6.586748042297363,-23.759758000183105,3.261052298736572
1758972515568662000,5.848662109375,-3.3378163894653317,-22.327726132202148,6.1188312553405755
1758972515578620000,5.858619873046875,-0.5849333930969238,-21.02812354354858,8.540266959381103
1758972515588576800,5.86857666015625,0.517746109008789,-19.573646035003662,9.025092795562744
1758972515598535000,5.878534912109375,0.9558850128173828,-17.996465691375732,6.504596997833252
1758972515608491800,5.88849169921875,3.244292887115478,-15.15649360961914,3.4639608894348144
1758972515618450000,5.898449951171875,4.010736693572998,-11.654075856018066,1.7636287979125975
1758972515628406800,5.90840673828125,4.250755410003662,-7.456292157745361,0.04519055633544922
1758972515638364700,5.91836474609375,6.023063188934326,-2.702604761505127,-2.621501180267334
1758972515648322800,5.92832275390625,6.331167015075684,0.8999205490112304,-5.034856453704833
1758972515658280000,5.938280029296875,6.1465142120361325,4.11144280090332,-6.546495526885986
1758972515668237800,5.94823779296875,5.795464393615722,8.730007440948485,-8.109909210968016
1758972515678194700,5.958194580078125,4.815038813781738,13.305775726318359,-8.942792113494873
1758972515688152800,5.96815283203125,3.801992236328125,15.614683952331543,-8.214954808807372
1758972515698110000,5.97810986328125,2.54099614944458,15.493627130889891,-5.869834282684326
1758972515708067800,5.98806787109375,3.136703450012207,14.172027814483641,-1.35975690536499
1758972515718025000,5.99802490234375,4.94193150177002,10.831218672943114,2.3419781364440917
1758972515727982800,6.00798291015625,5.316923336791992,6.2110080192565915,2.701706935882568
1758972515737939700,6.017939697265625,3.5392286041259764,1.661875227355957,0.7320271575927734
1758972515747897900,6.02789794921875,-0.5499181938171387,-3.5896564765930172,-1.2243348739624023
1758972515757855000,6.03785498046875,-8.053046921539305,-10.967239254760742,-2.666841374206543
1758972515767812900,6.047812744140625,-20.01956609420776,-23.93558218460083,-3.062034285736084
1758972515777769700,6.057769775390625,-24.743774882507324,-42.89002781524658,-7.78893655090332
1758972515787728000,6.067727783203125,-23.74314822616577,-39.992594893646235,-5.519532652282715
1758972515797685000,6.07768505859375,-29.563901374816894,-24.071303491210937,4.227411943817138
1758972515807643000,6.087642822265625,-11.865813065338134,-12.740444859313964,7.761552869415283
1758972515817599700,6.097599853515625,24.456470683288572,-4.533271205902099,8.410082244110107
1758972515827558000,6.107557861328125,59.4122638343811,8.015637520599364,14.894029252624511
1758972515837515800,6.117515869140625,33.13006474761963,5.696254662322998,7.236175242614745
1758972515847473000,6.127472900390625,10.445602568054198,-1.6102502540588377,-1.6711527587890624
1758972515857431000,6.13743115234375,10.48256305618286,-5.988197627258301,-1.853411360168457
1758972515867387600,6.1473876953125,12.069170568847655,-11.526434980010986,-5.302707764434814
1758972515877345800,6.157345703125,11.104905850219726,-15.166220053863524,-9.216479290771483
1758972515887303000,6.167302978515625,-2.6138696624755857,-19.009212993621826,-9.13642317276001
1758972515897260800,6.1772607421875,-9.268553176879882,-22.796391107177733,-10.19495958175659
1758972515907217700,6.1872177734375,-1.0925041450500488,-20.830152993774412,-2.2671593345642087
1758972515917175800,6.19717578125,6.613233898162841,-17.401207303619383,1.341950030517578
1758972515927133000,6.2071328125,8.373271393585204,-16.836325349426268,2.7666496559143066
1758972515937090800,6.2170908203125,2.447023734283447,-22.908320034790037,4.523694399261474
1758972515947048000,6.2270478515625,-6.841730519104003,-30.400525217437742,4.543596200561523
1758972515957005800,6.237005859375,-8.307730123138427,-28.510003731536862,6.852803701782226
1758972515966962700,6.246962646484375,-5.056703543853759,-26.6105039894104,9.239224206542968
1758972515976920800,6.2569208984375,-4.645200133514404,-24.567801060485838,11.983877134704588
1758972515986878000,6.2668779296875,-3.883544730377197,-21.37378640823364,11.877484798431396
1758972515996835800,6.2768359375,-4.345176737976074,-18.408118739318848,9.78076269454956
1758972516006792700,6.286792724609375,-8.954014933776856,-14.96480783920288,8.079383139801024
1758972516016750800,6.296750732421875,-13.845518563079834,-11.195137325286865,5.949291850280761
1758972516026708700,6.306708740234375,-13.850755879211425,-10.471489873504638,3.0850784767150876
1758972516036665900,6.316665771484375,-8.118438554382324,-9.625738137054443,0.2527379127502441
1758972516046624000,6.3266240234375,-3.323151904296875,-9.297133959197998,-2.1609166358947753
1758972516056580900,6.336580810546875,-0.7275380294799805,-7.600093894958496,-2.867804676055908
1758972516066538800,6.346538818359375,-2.371606381988525,-5.2822074127197265,-5.235520480346679
1758972516076496000,6.356495849609375,-5.93717120437622,-4.0547301490783685,-7.169137596130371
1758972516086454000,6.3664541015625,-7.398681680297851,-2.991704611968994,-7.14384884109497
1758972516096410600,6.37641064453125,-12.056301734924316,-3.189525524139404,-4.648641798400878
1758972516106368800,6.38636865234375,-13.364882579803465,-2.851943090057373,-0.8119336380004882
1758972516116326000,6.396325927734375,-8.72716432647705,0.9451111053466796,3.5797803947448728
1758972516126283800,6.40628369140625,-3.3197102394104,2.439392216491699,7.990947315979003
1758972516136241000,6.416240966796875,-0.900818374633789,1.3236942428588867,10.606014079284668
1758972516146198800,6.42619873046875,-6.255300749969482,0.7646481552124023,10.580575686645508
1758972516156156000,6.436156005859375,-12.880954569244384,-1.9987094734191893,5.20334839553833
1758972516166113800,6.44611376953125,-7.329998020172119,-4.966621706390381,-1.1629834564208983
1758972516176071000,6.45607080078125,1.9384055191040037,-4.285172058868408,-2.351854218292236
1758972516186029000,6.466029052734375,0.5623381149291992,-3.5977369071960448,-0.9689034843444824
1758972516195986000,6.47598583984375,-2.3451205261230466,-5.510255120849609,-2.2890064247131345
1758972516205943800,6.48594384765625,-3.3125276344299315,-10.519822819519042,-3.6742017227172847
1758972516215901000,6.49590087890625,-3.0406361083984375,-17.792060724639892,-2.4488193855285645
1758972516225858800,6.50585888671875,-1.9258359603881834,-23.580492150878904,0.7278373046875
1758972516235817000,6.51581689453125,-2.4697686500549314,-26.08048759689331,1.3136685234069823
1758972516245773800,6.52577392578125,-2.8459575859069823,-28.29018609161377,-1.8468273056030273
1758972516255731700,6.535731689453125,-2.3540987823486326,-31.07883247528076,-4.646546871948242
1758972516265688800,6.545688720703125,-2.2457611572265623,-32.3833731048584,-6.064063892364501
1758972516275647000,6.55564697265625,0.9413701652526855,-29.91824322052002,-7.6467808273315425
1758972516285603800,6.565603759765625,4.848707274627685,-26.236260342407224,-9.731531922912596
1758972516295561700,6.575561767578125,1.3637971206665038,-24.739884304809568,-8.91226604232788
1758972516305518800,6.585518798828125,-5.633406868743896,-21.39189255828857,-2.5936685859680173
1758972516315477000,6.59547705078125,-5.4418707359313965,-19.10243722076416,2.5028385604858396
1758972516325433900,6.605433837890625,-1.9156606033325194,-18.96701518936157,3.674800273132324
1758972516335391700,6.615391845703125,-0.6826467483520507,-18.732981977081298,5.157708926391601
1758972516345348900,6.625348876953125,-0.10324994659423828,-17.548301068115233,5.023035083007812
1758972516355306800,6.635306640625,-0.11806406936645507,-15.73708751220703,4.403535403442382
1758972516365264000,6.645263916015625,1.101931314086914,-14.010718477630615,3.6150948692321774
1758972516375222000,6.655221923828125,2.5802012016296385,-10.915763919067382,2.8561329429626463
1758972516385179000,6.665178955078125,3.650708618927002,-6.4463879699707025,1.268627604675293
1758972516395136800,6.67513671875,4.998045603179931,-1.8282722427368163,-0.9264064048767089
1758972516405094000,6.685093994140625,5.042936884307861,2.014720697021484,-2.94292275314331
1758972516415052000,6.695052001953125,5.2648494506835934,5.399972206878662,-5.322011015319824
1758972516425009000,6.7050087890625,5.561730456542969,9.753528650665283,-6.367229677581787
1758972516434966800,6.714966796875,5.487959117889404,13.85389826889038,-5.695955387115478
1758972516444924000,6.724923828125,5.733664063262939,15.978452967071533,-4.487182823944091
1758972516454881800,6.7348818359375,6.925976490020751,15.558120938110351,-1.926733786010742
1758972516464840000,6.74483984375,8.055590760803222,13.133692481994629,2.015468885040283
1758972516474796800,6.754796875,8.085518281555176,7.730128972625732,3.464858715057373
1758972516484754700,6.764754638671875,8.155698317718505,2.811690574645996,2.2198738517761227
1758972516494711800,6.7747119140625,4.949413381958007,-1.089212117767334,-0.15816694717407226
1758972516504670000,6.784669921875,-0.6082768592834472,-6.4381579017639154,-2.5821464904785154
1758972516514626800,6.794626708984375,-10.39337904434204,-13.097330544281006,-3.29427184677124
1758972516524584700,6.804584716796875,-24.972121865844723,-25.955839472961426,-3.2959178604125974
1758972516534541800,6.814541748046875,-33.439216036987304,-41.390210112762446,-6.115239952850342
1758972516544500000,6.8245,-33.984794740295406,-33.483209492492676,0.054767362976074214
1758972516554456800,6.834456787109375,-25.856180828857422,-14.700248555755614,7.6939166725158685
1758972516564414700,6.844414794921875,0.7231985389709472,-6.7179802207946775,4.732289218902587
1758972516574371800,6.854371826171875,42.25556437530518,3.7856817375183103,6.953210533905029
1758972516584329700,6.864329833984375,49.39462481307983,13.616124116516113,9.743652568817138
1758972516594286800,6.874286865234375,17.673398104858396,4.757129061126709,-1.6787842765808105
1758972516604245000,6.884244873046875,7.955333566284179,-5.721992330169678,-6.942586264038085
1758972516614201900,6.894201904296875,7.621791347503661,-11.241973895263671,-6.380248149108886
1758972516624159700,6.90415966796875,14.800505750274658,-18.09986527557373,-5.966649812316894
1758972516634116900,6.914116943359375,17.9653410697937,-21.80189959259033,-1.1848305465698241
1758972516644075000,6.924074951171875,0.8304887008666991,-22.0772327835083,0.25647885284423827
1758972516654032000,6.934031982421875,-11.831695691680908,-21.270686099243164,-1.2611457244873046
1758972516663989800,6.94398974609375,-4.30282929611206,-19.48625767440796,-2.8387749809265137
1758972516673948000,6.953947998046875,1.0103531005859374,-18.042853348541257,-2.2560861518859863
1758972516683904800,6.96390478515625,0.535702621459961,-20.006697260284422,0.23523031311035156
1758972516693863000,6.97386279296875,-3.4460043769836424,-23.501932408905027,1.898003366088867
1758972516703819800,6.98381982421875,-2.0931308013916015,-24.302493589019775,1.5423147819519043
1758972516713777700,6.993777587890625,-0.6232406196594238,-24.287380191040036,4.11174207611084
1758972516723734800,7.00373486328125,-2.915539071655273,-22.783821548461912,9.651775080108642
1758972516733693000,7.01369287109375,-4.675875842285156,-21.34445743789673,12.588413053894042
1758972516743650000,7.023650146484375,-5.350741435241699,-21.17701295928955,12.023231824493408
1758972516753607700,7.033607666015625,-7.723844193267822,-19.971532423400877,10.623970591735839
1758972516763564800,7.043564697265625,-11.841571773529052,-16.61037256774902,9.42402664718628
1758972516773523000,7.05352294921875,-14.717456880187987,-13.308918115997313,6.892158391571044
1758972516783479800,7.063479736328125,-13.590386448669433,-11.963376782989501,3.2359131813049316
1758972516793438000,7.07343798828125,-9.357138638305663,-11.742212404632568,-0.9750386260986328
1758972516803394800,7.083394775390625,-4.735581246185302,-11.942427518463134,-4.910507604980468
1758972516813352700,7.093352783203125,-0.19797054977416992,-9.783905084228515,-4.846462710571289
1758972516823309800,7.103309814453125,1.2933178092956543,-7.291840431213378,-4.343829999542236
1758972516833268000,7.11326806640625,-2.267608247375488,-4.9251720901489255,-3.5851673484802244
1758972516843224800,7.123224853515625,-12.818705326080321,-1.2788029617309569,-2.961627453613281
1758972516853182700,7.1331826171875,-19.71460465774536,1.3058873680114744,-1.3959692054748534
1758972516863139800,7.143139892578125,-13.168707681274414,1.1736077262878417,2.7181670722961426
1758972516873098000,7.153097900390625,-3.482067039489746,0.0326209976196289,5.703287629699707
1758972516883054800,7.163054931640625,-1.2336124053955078,-0.82360537109375,6.167912389373779
1758972516893012700,7.1730126953125,-6.5309332160949705,-1.3159130874633789,2.855235117340088
1758972516902969900,7.182969970703125,-8.694842604064942,-1.7384896804809569,-2.195632559967041
1758972516912927700,7.192927734375,-2.391358545684814,-1.5122376235961914,-4.53955598526001
1758972516922886000,7.202885986328125,0.4346972389221191,-1.921047557067871,-4.273949238586425
1758972516932843000,7.212843017578125,-0.6063315704345703,-3.463511976623535,-3.5329438247680662
1758972516942800600,7.222800537109375,-1.159990704345703,-5.580135881805419,-3.331381972503662
1758972516952757800,7.2327578125,-1.7718588661193846,-9.258826732635498,-3.330633784484863
1758972516962716000,7.2427158203125,-1.1028291397094725,-14.966453852844237,-3.021033582305908
1758972516972673000,7.252673095703125,-0.7824550300598144,-21.22160496520996,-2.2637176696777344
1758972516982631000,7.262630859375,-3.5797803947448728,-27.546786476135253,-0.44846389846801754
1758972516992587800,7.272587890625,-4.421491915893554,-29.218687422943113,-0.3586813362121582
1758972517002546000,7.2825458984375,-2.3127988037109373,-27.43291225967407,-2.7416601760864254
1758972517012502800,7.292502685546875,-0.9187748870849609,-26.64117969818115,-5.072265854644775
1758972517022461000,7.3024609375,1.4037503608703612,-25.309255387115478,-7.151779634094238
1758972517032417800,7.312417724609375,1.659181750488281,-23.945607904052732,-7.819013709259033
1758972517042375700,7.322375732421875,-2.439990766906738,-22.611289391326903,-4.781370352935791
1758972517052332800,7.332332763671875,-4.9166427467346185,-19.526061277008054,1.3358148887634276
1758972517062291000,7.342291015625,-3.2775124351501463,-19.06427963180542,4.400393013763427
1758972517072247800,7.352247802734375,-1.3967173934936523,-18.90311993255615,5.5078609191894525
1758972517082205700,7.362205810546875,-1.0513538040161132,-17.169119380187986,6.9606924140930175
1758972517092162800,7.372162841796875,-0.38322190322875976,-16.28191802749634,6.2584431396484375
1758972517102121000,7.382120849609375,-0.13811550827026367,-15.400702178955077,5.268740028381347
1758972517112077800,7.392077880859375,-0.3667617668151855,-13.929614896392822,4.2606314918518065
1758972517122035700,7.40203564453125,0.7413046890258789,-11.305869152069091,2.538901222991943
1758972517131992800,7.411992919921875,1.976563108062744,-7.665186252593994,0.02289455337524414
1758972517141950700,7.42195068359375,3.058592620849609,-2.8953379951477047,-3.0386908195495606
1758972517151908900,7.431908935546875,2.7578210372924805,1.196352642059326,-5.361216067504882
1758972517161866000,7.441865966796875,2.7199627235412596,4.957942725372314,-6.327725350189208
1758972517171823600,7.45182373046875,3.4669536415100097,8.986037380981445,-6.071994685363769
1758972517181780700,7.46178076171875,3.789721952819824,12.745981450653076,-5.4239142234802245
1758972517191739000,7.47173876953125,4.115483016204834,14.854824200439452,-4.629188909912109
1758972517201696000,7.481696044921875,3.8353614219665526,13.958345316314697,-2.5119664543151856
1758972517211654000,7.49165380859375,3.025073797607422,11.478251671600342,1.0959458099365234
1758972517221610800,7.50161083984375,3.207332398986816,7.10539197692871,4.043357691192627
1758972517231569000,7.51156884765625,4.740519287109374,2.359635373687744,4.074183037567138
1758972517241526000,7.521526123046875,4.123413809204101,-1.2458826889038086,2.1773767723083495
1758972517251484000,7.53148388671875,0.9931447761535644,-4.993406837463379,0.05461772537231445
1758972517261440800,7.541440673828125,-4.439298790740967,-10.206182402038573,-1.772906329345703
1758972517271398700,7.551398681640625,-13.377003225708007,-16.556652667999266,-2.9315502952575683
1758972517281355800,7.561355712890625,-24.10063246154785,-27.689840025329588,-4.934599259185791
1758972517291314000,7.57131396484375,-27.737724058532713,-33.54246598358154,-6.0139352951049805
1758972517301271000,7.58127099609375,-19.58112791519165,-21.409250520324704,1.1297639083862303
1758972517311228400,7.591228515625,-4.528183527374267,-11.148300755310059,4.078821803283692
1758972517321185500,7.601185546875,18.017414955902098,-4.313303928375244,3.0823849998474118
1758972517331143700,7.611143798828125,42.27561581420898,5.900360353851318,5.201403106689453
1758972517341100800,7.621100830078125,27.418846324920654,8.330624676513672,0.607827946472168
1758972517351058700,7.63105859375,-2.0569185012817384,-1.8412907142639159,-7.357232064056396
1758972517361015600,7.641015625,-15.25256095123291,-10.473884075164793,-13.04346100692749
1758972517370973700,7.6509736328125,13.405284732818602,-20.61437556915283,-11.725153717803954
1758972517380931600,7.660931640625,40.82832091064453,-25.580847637939453,-0.2353799507141113
1758972517390888700,7.670888671875,13.04301209411621,-22.88632330703735,4.671087438964843
1758972517400846600,7.6808466796875,-4.584746541595459,-20.009241099548337,2.2096984947204588
1758972517410803500,7.690803466796875,-11.202170292663574,-18.30382132949829,1.6226701751708983
1758972517420761600,7.70076171875,-4.983081842803955,-18.786701876831053,2.6752210800170895
1758972517430718700,7.71071875,3.400364907836914,-19.75904702606201,4.454711463928223
1758972517440676600,7.720676513671875,6.504148085021972,-21.499182720184326,6.668450173950195
1758972517450633500,7.730633544921875,0.30780455093383785,-22.828263916778564,8.439261576843261
1758972517460591600,7.740591552734375,-6.0811225791931145,-24.82772157821655,7.157615500640869
1758972517470548700,7.750548828125,-6.166565650939941,-26.331130583190916,7.407959211730956
1758972517480506600,7.760506591796875,-6.720224784851074,-25.629779134368896,6.745663177490234
1758972517490463500,7.77046337890625,-7.778611556243896,-24.07354805526733,5.476437022399902
1758972517500421600,7.780421630859375,-7.185597732543945,-22.159383827972412,4.740968199920654
1758972517510378500,7.79037841796875,-9.067290599822998,-18.019509882354736,4.39874700012207
1758972517520336600,7.800336669921875,-13.81559104232788,-12.754061881256103,3.169025172424316
1758972517530293800,7.810293701171875,-14.452448683929443,-10.73185930404663,-0.09038111267089843
1758972517540251400,7.82025146484375,-10.091410359954834,-9.794828629302978,-2.843563384246826
1758972517550208500,7.83020849609375,-5.641636936950683,-8.673294789123535,-4.797980126953124
1758972517560166700,7.840166748046875,-2.2164321868896484,-8.460959029388427,-5.659593449401855
1758972517570123800,7.850123779296875,-1.1692682357788085,-6.812551186370849,-5.642085849761963
1758972517580081700,7.86008154296875,-1.2862848419189452,-5.2186114311218255,-5.441421823120117
1758972517590039600,7.87003955078125,-0.953790086364746,-3.4171243194580074,-3.2704794677734372
1758972517599996700,7.87999658203125,-7.119457911682129,-0.03950432739257812,-1.446097802734375
1758972517609954600,7.88995458984375,-15.709853468322754,2.1838111892700196,-1.3024457031249999
1758972517619911700,7.89991162109375,-12.450896096038818,0.9458592933654785,1.4110826034545898
1758972517629869800,7.909869873046875,-4.199728987121582,0.5466261665344238,6.2015808502197265
1758972517639826400,7.919826416015625,-2.206406467437744,0.3598784370422363,8.485649234008788
1758972517649784600,7.92978466796875,-6.149506964111327,-1.331774673461914,6.054487085723877
1758972517659741700,7.93974169921875,-10.109965422821045,-3.2230443473815917,-0.4629787460327148
1758972517669699600,7.949699462890625,-6.279841316986084,-2.5272294898986813,-4.137928656768799
1758972517679656400,7.959656494140625,0.4198831161499023,-0.9681552963256835,-3.165583507537842
1758972517689614600,7.969614501953125,0.23582886352539062,-2.2656629585266113,-0.5819406410217285
1758972517699571700,7.97957177734375,-0.6892308029174804,-4.66091208190918,-0.13347674255371092
1758972517709529600,7.989529541015625,-0.8562263687133789,-6.069001933288574,-0.23552958831787107
1758972517719486700,7.99948681640625,-1.7953519699096678,-9.27603505706787,-0.7549217109680175
1758972517729444600,8.009444580078124,-1.9604022468566893,-14.3138842628479,-1.5415665939331054
1758972517739401500,8.0194013671875,-2.107944924163818,-19.862446610260008,-1.458218448638916
1758972517749359600,8.029359619140624,-3.9173628288269042,-24.270171866607665,1.2131120536804199
1758972517759316700,8.039316650390624,-4.7955859252929685,-26.012701762390137,2.946364418029785
1758972517769274600,8.049274658203124,-3.0201357566833495,-26.44365806121826,1.4522329444885254
1758972517779232500,8.059232421875,-1.223137773132324,-27.449522033691405,-1.7598878578186035
1758972517789189600,8.069189697265625,-0.7193079612731933,-27.794735985565183,-4.911555068206787
1758972517799147500,8.0791474609375,0.7031471000671387,-27.54095060958862,-6.741323686981201
1758972517809104600,8.089104736328125,-2.2246622550964354,-26.357017888641355,-4.888810152435302
1758972517819062800,8.099062744140625,-6.777236711883544,-23.29064411239624,0.5611410140991211
1758972517829019600,8.10901953125,-5.447856240081787,-20.522797355651853,4.18820689163208
1758972517838977500,8.1189775390625,-2.3855226791381834,-19.417873289489744,4.76924970703125
1758972517848934700,8.1289345703125,0.3206733848571777,-18.524836070251464,5.133916547393799
1758972517858892800,8.138892822265625,1.7648258987426757,-17.643769859313963,4.604349067687988
1758972517868849400,8.148849365234375,1.4155717315673828,-16.428413241577147,3.5036148544311523
1758972517878807600,8.1588076171875,1.445349614715576,-15.594033963012695,1.6813281158447264
1758972517888764700,8.1687646484375,2.3745991340637205,-13.998448194122314,0.2507926239013672
1758972517898722600,8.17872265625,2.179022785949707,-10.973972946929932,-1.501014803314209
1758972517908679700,8.1886796875,3.10931976852417,-6.259789878082275,-2.58558815536499
1758972517918637600,8.198637451171875,3.3852515098571776,-1.3281833709716797,-4.15618444442749
1758972517928594700,8.2085947265625,3.106626291656494,3.3668460845947266,-6.245873580932617
1758972517938552600,8.218552490234375,2.4343045379638673,8.768165029907227,-7.690175732421874
1758972517948509700,8.228509765625,1.3639467582702636,12.938864321899413,-7.959822694396972
1758972517958467800,8.2384677734375,1.3678373359680176,14.610017080688475,-7.263858199310302
1758972517968424400,8.248424560546875,1.4236521621704101,13.615824841308592,-5.297620085906982
1758972517978382600,8.258382568359375,0.7866448829650878,11.332504645538329,-1.9547160179138183
1758972517988339700,8.268339599609375,0.44906244888305663,7.841908262634277,0.0674865592956543
1758972517998297600,8.278297607421875,1.0446201118469238,4.033331971740722,-0.7480383811950683
1758972518008255700,8.288255859375,0.7755717002868652,0.5680243438720702,-2.249053184509277
1758972518018212600,8.298212646484375,-0.6905775413513183,-3.9906852546691893,-3.349039209747314
1758972518028170500,8.30817041015625,-4.151695316314697,-9.434501279449462,-2.089539498901367
1758972518038127600,8.318127685546875,-9.420435344696044,-15.292963104248045,-0.6928221054077148
1758972518048085800,8.328085693359375,-15.353416696166992,-20.863671817016602,-0.7143699203491211
1758972518058042600,8.338042724609375,-18.82875004348755,-22.681020514678952,-0.814627114868164
1758972518068000500,8.34800048828125,-16.8934869140625,-17.399112377166748,0.9898527488708495
1758972518077957600,8.35795751953125,-10.92324579925537,-9.814880068206786,3.08358210067749
1758972518087915800,8.367915771484375,1.5369278282165526,-2.639457692718506,3.967192150878906
1758972518097872400,8.377872314453125,29.011888254547117,5.748029273223876,6.392668070220947
1758972518107830500,8.38783056640625,35.345000558471675,10.924442900085449,8.259397177124024
1758972518117787600,8.39778759765625,15.374216323089598,2.721608737182617,0.1714846939086914
1758972518127745500,8.40774560546875,11.812990991210937,-5.876268699645996,-3.93277550201416
1758972518137702700,8.41770263671875,13.210007659912108,-10.975618960571289,-2.9427731155395507
1758972518147660500,8.42766064453125,9.855880771636963,-18.55177083892822,-6.876745718383789
1758972518157617700,8.43761767578125,-2.392106733703613,-31.3483297996521,-5.791723453521728
1758972518167575600,8.447575439453125,-7.676259435272216,-38.66366333465576,-0.7416039642333984
1758972518177533700,8.45753369140625,-3.9077860221862792,-30.576050126647946,3.7383962547302243
1758972518187490800,8.46749072265625,-1.638232485961914,-19.17336544494629,3.7600937072753906
1758972518197448400,8.477448486328125,-2.6797102081298827,-14.471303022003173,2.0458453186035155
1758972518207405600,8.487405517578125,0.5695207199096679,-12.000636546325683,1.1819874320983885
1758972518217363700,8.49736376953125,3.821894037628174,-11.58733748474121,0.7977180656433105
1758972518227320600,8.507320556640625,2.991554974365234,-14.389151977539061,0.3917512466430664
1758972518237278700,8.51727880859375,1.9847931762695312,-19.480870720672606,0.4198831161499023
1758972518247235600,8.527235595703125,0.8824129493713379,-24.058584294891357,2.191741982269287
1758972518257193500,8.537193359375,-2.0401590896606443,-26.792762590789792,4.863970310211181
1758972518267150600,8.547150634765625,-8.320150044250488,-26.747572034454343,8.417264849090575
1758972518277108700,8.557108642578125,-12.687473147583008,-24.390779775238034,9.30252091293335
1758972518287065600,8.567065673828125,-10.966191791534424,-21.074211925506592,7.712621372985839
1758972518297023500,8.5770234375,-9.441534246826171,-17.006164029693604,5.53524460067749
1758972518306980600,8.586980712890625,-9.054272128295898,-13.173047171783447,2.5335142692565915
1758972518316938800,8.596938720703125,-6.899191358947753,-10.544812299346923,-0.9979331794738769
1758972518326895600,8.6068955078125,-7.621641709899902,-8.973018909454344,-4.216488398742675
1758972518336853800,8.616853759765625,-9.384372682189941,-8.375067044830322,-5.9564744552612305
1758972518346810600,8.626810546875,-7.04149672012329,-7.97418790435791,-6.9989996406555175
1758972518356768500,8.6367685546875,-4.202123188781738,-7.046584398651123,-6.137685593414306
1758972518366725600,8.6467255859375,-3.7716158027648925,-5.013607913970947,-3.183390382385254
1758972518376683800,8.656683837890625,-3.7796962333679196,-3.1898247993469235,-0.4999392341613769
1758972518386641700,8.6666416015625,-6.416909362030029,-1.191264963531494,1.3676876983642576
1758972518396598500,8.6765986328125,-8.975862023925782,1.6719009468078612,2.7645547294616697
1758972518406556700,8.686556640625,-6.631639323425293,2.328510752105713,5.640439836120605
1758972518416513800,8.696513671875,-2.8118402122497557,1.6713023963928222,8.313117076873779
1758972518426471700,8.7064716796875,-2.895188357543945,1.119738188934326,9.364470880889892
1758972518436428500,8.716428466796875,-6.828562409973144,0.2498947982788086,7.388356685638428
1758972518446386700,8.72638671875,-10.99402438583374,-2.064101106262207,1.751208876800537
1758972518456343600,8.736343505859375,-7.673117045593261,-3.3837551338195797,-3.144334967803955
1758972518466301700,8.7463017578125,-1.0800842239379882,-3.489100006866455,-4.631882386779785
1758972518476258800,8.7562587890625,-0.2059013427734375,-4.352808255767822,-4.696076918792724
1758972518486216400,8.766216552734376,-0.7876923461914062,-6.248567057800293,-4.8329953262329095
1758972518496173600,8.776173583984376,-1.867477294921875,-10.058340449523925,-4.732289218902587
1758972518506131700,8.786131591796876,-2.7870003700256345,-14.74768367614746,-3.2459389007568356
1758972518516088800,8.7960888671875,-3.8706758964538572,-19.981109230041504,-1.4636054023742675
1758972518526046700,8.806046630859376,-5.0966567840576165,-24.723573805999756,0.6265326469421386
1758972518536003600,8.816003662109376,-5.035754279327392,-27.1345348777771,2.0952257278442383
1758972518545961700,8.825961669921876,-3.793612530517578,-27.035624421691892,1.6385317611694334
1758972518555918600,8.835918701171876,-2.7002105598449706,-26.286538577270505,-1.1568483146667479
1758972518565876700,8.845876708984376,-2.671031227111816,-24.633043055725096,-4.637718253326415
1758972518575834600,8.855834716796876,-2.2432173179626465,-23.78669276885986,-6.699874070739746
1758972518585791500,8.86579150390625,-2.890848867034912,-23.49355270309448,-2.079813054656982
1758972518595749600,8.87574951171875,-3.9655461372375487,-20.62095962371826,3.4925416717529294
1758972518605706800,8.885706787109376,-3.1386487388610838,-19.58037972717285,4.217835137176514
1758972518615664600,8.89566455078125,-2.025045691680908,-19.144635025024414,3.397072880554199
1758972518625621500,8.90562158203125,-1.62162271194458,-17.503559424591064,3.5076550697326656
1758972518635579600,8.91557958984375,-1.1067197174072265,-16.28116983947754,2.1583727966308595
1758972518645536800,8.925536865234376,-1.1189900009155274,-14.55704536895752,0.18136077575683593
1758972518655494700,8.93549462890625,0.5289689292907714,-12.632705784606934,-1.3172598258972168
1758972518665451800,8.94545166015625,1.6909049224853514,-10.36255369796753,-1.6244658264160154
1758972518675409700,8.95540966796875,2.198924587249756,-7.2720882675170895,-1.5544354278564452
1758972518685366500,8.965366455078126,3.0918121688842772,-3.9802106224060054,-2.690933028411865
1758972518695324700,8.97532470703125,2.9981390289306638,-1.3142670738220215,-4.500350933074951
1758972518705281800,8.98528173828125,2.800168479156494,2.0856489212036133,-5.2456958374023435
1758972518715239700,8.99523974609375,2.610577635192871,5.6283191902160645,-5.411494302368164
1758972518725196500,9.005196533203126,2.9040169761657713,8.860042518615723,-5.110273805999755
1758972518735154700,9.01515478515625,2.550572956085205,10.742633211517333,-4.778377600860596
1758972518745111800,9.02511181640625,1.9672855766296387,11.12809967880249,-4.0158243721008295
1758972518755069700,9.035069580078124,1.142183829498291,10.449942058563233,-1.7600374954223632
1758972518765026600,9.045026611328124,1.0461164878845215,8.36968009109497,1.5432126075744628
1758972518774984700,9.054984619140624,2.704550050354004,4.542399099731445,2.609829447174072
1758972518784942600,9.064942626953124,3.6745009979248047,1.2144587921142578,1.3952210174560546
1758972518794899700,9.074899658203124,2.7486931434631345,-1.4182652084350584,0.4933551795959472
1758972518804857900,9.08485791015625,0.14036007232666015,-5.118204598999023,0.06539163284301758
1758972518814814500,9.094814453125,-3.9755718566894527,-10.567407577514647,-0.009726444244384765
1758972518824772600,9.104772705078124,-9.366715444946289,-17.318756983947754,0.10758943710327148
1758972518834729700,9.114729736328124,-19.687520251464843,-25.688586712646483,-1.99826056060791
1758972518844687600,9.1246875,-28.79236988983154,-28.266393712615965,-3.990834892272949
1758972518854644500,9.13464453125,-21.877466582489014,-19.136704232025146,1.831713907623291
1758972518864602600,9.1446025390625,-0.5663783302307128,-12.353332378387451,3.4853590667724608
1758972518874559700,9.154559814453124,24.02521510925293,-4.885967037963867,2.3211785095214843
1758972518884517600,9.164517578125,40.8485219871521,4.364180713653564,3.60072965927124
1758972518894474800,9.174474853515624,19.08403179550171,0.4590881683349609,-1.479317350769043
1758972518904432600,9.1844326171875,1.6629226905822754,-6.283731894683838,-6.503998447418213
1758972518914389500,9.194389404296874,-1.3446435073852538,-11.02574755783081,-9.671527243804931
1758972518924347600,9.20434765625,5.150227046203613,-17.222988917541503,-12.897713980865477
1758972518934304800,9.2143046875,21.682937697601318,-19.392434896850585,-6.484844834136963
1758972518944262700,9.2242626953125,8.855852665710449,-18.116923962402343,-3.463362339019775
1758972518954219500,9.234219482421874,-3.7562031295776364,-15.635782854461668,-0.82360537109375
1758972518964177700,9.244177734375,-4.087351146697998,-16.557700131225584,0.9751882637023925
1758972518974134800,9.254134765625,4.078522528076172,-19.189077393341062,2.005892078399658
1758972518984092700,9.2640927734375,6.358251421356201,-21.56008522491455,5.396680179595947
1758972518994049500,9.274049560546874,1.4348749824523925,-25.43315532302856,9.019855479431152
1758972519004007700,9.284007568359375,-2.854636566925049,-28.196662589263916,8.67568899078369
1758972519013965600,9.293965576171875,-2.591424021911621,-27.876737392425536,6.661267568969726
1758972519023922700,9.303922607421875,-5.348646508789062,-26.357616439056393,7.315932085418701
1758972519033880800,9.313880859375,-7.378630241394043,-23.46272735671997,6.9992989158630365
1758972519043837400,9.32383740234375,-5.700294877624511,-21.213374897003174,5.451746817779541
1758972519053795600,9.333795654296875,-6.223427940368652,-19.10797381210327,3.4180221450805663
1758972519063752700,9.343752685546875,-9.43569838027954,-15.345336265563963,2.242918042755127
1758972519073710600,9.353710693359375,-12.64632280654907,-11.898434062957763,0.546476528930664
1758972519083667700,9.363667724609375,-14.101398865509033,-10.701183595275879,-3.201047619628906
1758972519093625600,9.37362548828125,-11.297788721466064,-11.064802972412108,-5.287444728851318
1758972519103582700,9.383582763671875,-8.600870188903809,-10.57249525604248,-4.257489102172851
1758972519113540600,9.39354052734375,-7.045088022613525,-8.792555959320067,-1.5707459266662598
1758972519123497700,9.403497802734375,-4.996249951934814,-6.872555865478515,1.3016975151062011
1758972519133456000,9.413455810546875,-4.530128816223145,-5.086331789398193,2.5516204193115235
1758972519143412500,9.42341259765625,-5.137657487487792,-3.244442524719238,3.3720834007263183
1758972519153370600,9.43337060546875,-7.0178539787292475,-1.3401543792724608,3.769071963500976
1758972519163327700,9.44332763671875,-9.860669174957275,-0.15771803436279297,3.2110733390808104
1758972519173285600,9.45328564453125,-7.726687307739257,-0.7486369316101074,2.778471026611328
1758972519183242500,9.463242431640625,-2.93678761138916,-0.2305915473937988,4.559757061767578
1758972519193200600,9.47320068359375,-0.4870704002380371,0.550965657043457,6.6899979888916015
1758972519203157800,9.48315771484375,-2.6038439430236813,1.1411363662719727,7.485022577667236
1758972519213115600,9.49311572265625,-7.160458615112304,0.3520972816467285,5.18359623184204
1758972519223072500,9.503072509765625,-7.358728440093993,-1.8761562759399413,0.4875193130493164
1758972519233030700,9.51303076171875,-3.6355952209472653,-2.564040340423584,-1.9608511596679685
1758972519242988500,9.522988525390625,-0.1714846939086914,-2.936189060974121,-2.448969023132324
1758972519252945700,9.532945556640625,0.5994482406616211,-3.8221933128356933,-2.579752288818359
1758972519262903800,9.54290380859375,-0.49365445480346676,-4.634575863647461,-3.923348332977295
1758972519272860700,9.552860595703125,-2.5694272941589356,-6.431873122406006,-5.511452221679687
1758972519282818600,9.562818603515625,-3.279008811187744,-10.810269408416747,-5.912480999755859
1758972519292775700,9.572775634765625,-2.6505308753967283,-16.878074240875243,-4.06041637802124
1758972519302733600,9.582733642578125,-3.2646436012268065,-22.57417926559448,-1.1923124267578125
1758972519312690700,9.592690673828125,-4.619163190460204,-27.520001345062255,3.0138509773254394
1758972519322648800,9.60264892578125,-4.529679903411865,-29.830854859924315,6.540210747528076
1758972519332606000,9.61260595703125,-2.538901222991943,-29.696031378936766,3.2679356285095214
1758972519342563600,9.6225634765625,-0.9168295982360839,-28.92016040344238,-3.091363256072998
1758972519352520700,9.632520751953125,-0.4121019607543945,-26.60810978775024,-6.714987468719482
1758972519362478800,9.642478759765625,-0.3408744613647461,-24.01668576583862,-7.300369774627685
1758972519372435700,9.652435791015625,-4.448127409362793,-22.221932346343994,-3.594893792724609
1758972519382393900,9.662393798828125,-6.5306339408874505,-21.516690319824217,0.6482300994873047
1758972519392350700,9.672350830078125,-4.918438397979736,-21.08887641067505,3.029862200927734
1758972519402308600,9.68230859375,-2.5911247467041014,-19.86858175201416,4.227711219024658
1758972519412265700,9.692265625,-1.5141829124450683,-18.382530709075926,4.327369863128662
1758972519422224000,9.702223876953125,-2.02384859085083,-16.321123079681396,3.2137668159484862
1758972519432180700,9.7121806640625,-1.3555670524597168,-13.901931939697265,2.1715409057617188
1758972519442138600,9.722138671875,1.092953057861328,-12.204442962646484,1.4781202499389647
1758972519452095700,9.732095703125,2.6478373985290524,-10.05534769744873,0.6989572471618652
1758972519462054000,9.742053955078125,3.1649849571228024,-7.2331824905395505,-0.11611878051757812
1758972519472010500,9.752010498046875,3.1637878562927244,-3.7377977043151853,-2.806602896118164
1758972519481968600,9.76196875,2.7358243095397947,-0.5508160194396973,-5.470002605438232
1758972519491925800,9.77192578125,2.295740116882324,2.942324202728271,-6.5505357421875
1758972519501883600,9.781883544921875,2.5851392425537107,6.880785933685302,-7.001244204711914
1758972519511840800,9.7918408203125,3.1221886024475096,10.033350969696045,-6.71019906539917
1758972519521799000,9.801798828125,2.6874913635253903,11.742212404632568,-5.869535007476807
1758972519531756500,9.811756591796875,2.805854708099365,12.246042216491698,-4.624550144195556
1758972519541713700,9.821713623046875,3.0123546012878415,11.317391247558593,-2.20909994430542
1758972519551671800,9.831671875,4.404582866668701,8.071751622009277,-0.15562310791015624
1758972519561629000,9.84162890625,6.158934133148193,3.716998077392578,-0.1322796417236328
1758972519571586800,9.8515869140625,6.820930892181396,0.3618237258911133,-0.7832032180786133
1758972519581543700,9.861543701171875,5.358672228240967,-2.953397385406494,-1.4414590370178222
1758972519591501800,9.871501708984376,1.9518729034423827,-8.205976552581786,-1.6207248863220214
1758972519601458700,9.881458740234375,-4.368969116973877,-14.619294612121582,-1.1161468864440918
1758972519611416800,9.891416748046876,-15.421352168273925,-23.236475299835202,-0.8476970252990722
1758972519621373700,9.901373779296875,-28.53110263366699,-33.814507147216794,-1.8632874420166015
1758972519631331600,9.91133154296875,-27.593922321319578,-29.81663928756714,-0.2528875503540039
1758972519641288700,9.921288818359375,-12.757653183746337,-17.297358806610106,3.1166520111083984
1758972519651246800,9.931246826171876,14.764143812561034,-8.495076403045653,1.1507131729125977
1758972519661203700,9.94120361328125,40.49492832946777,3.2990602500915527,3.5206735412597654
1758972519671161600,9.95116162109375,34.55446509780884,8.327332649230957,0.5686228942871093
1758972519681118700,9.96111865234375,4.719869297790527,2.9884125846862792,-3.3159692993164063
1758972519691076900,9.971076904296876,-12.32086101837158,-2.4525603256225583,-9.192537274169922
1758972519701033700,9.98103369140625,-9.210344149017333,-10.367940651702881,-13.927220694732664
1758972519710991600,9.99099169921875,27.190050428771972,-21.149030727386474,-8.524854286193847
1758972519720948700,10.00094873046875,19.55329532089233,-23.762002564239502,-1.7963994331359863
1758972519730906600,10.01090673828125,-0.5889736083984375,-21.90529917678833,2.382679564666748
1758972519740863700,10.02086376953125,-15.219939953613281,-25.335441967773438,5.5461681457519525
1758972519750822000,10.03082177734375,-2.344372338104248,-26.28369546279907,6.0796262031555175
1758972519760778800,10.04077880859375,2.627636322021484,-23.036260186004636,8.231265307617187
1758972519770736600,10.050736572265626,1.8376994117736816,-20.127454806518553,9.140762663269042
1758972519780693800,10.06069384765625,-1.0417769973754882,-19.333178405761718,7.860164050292968
1758972519790652000,10.07065185546875,-2.1452046874999997,-20.535815827178954,6.349273165130615
1758972519800608500,10.0806083984375,-4.734982695770263,-22.670246607208252,5.137807125091553
1758972519810566700,10.090566650390626,-7.9755346427917475,-22.948722187805174,3.9012019676208496
1758972519820523800,10.100523681640626,-8.604162216186523,-21.755212660217286,3.2728736694335936
1758972519830481700,10.110481689453126,-6.605901655578613,-19.56736125564575,1.8300678939819335
1758972519840439800,10.120439697265626,-6.079775840759277,-15.865775851440429,1.8598457771301269
1758972519850396700,10.130396728515626,-9.355342987060546,-10.834959613037109,2.224961530303955
1758972519860354600,10.1403544921875,-12.55833589553833,-7.641244235992431,-1.020229182434082
1758972519870311700,10.150311767578126,-11.507879917144775,-7.3846157455444335,-5.95048895111084
1758972519880269800,10.160269775390624,-6.623858168029785,-8.162581647491455,-8.635586112976073
1758972519890227000,10.17022705078125,-3.2990602500915527,-8.020874836730956,-8.564059338378906
1758972519900184600,10.1801845703125,-3.6502597061157225,-6.37815322265625,-6.401347051239013
1758972519910141700,10.1901416015625,-4.861725746154785,-5.039944132232666,-2.884564087677002
1758972519920099800,10.200099853515624,-4.48808064956665,-3.4816181266784665,0.8307879760742187
1758972519930056700,10.210056640625,-4.835539165496826,-1.5924433792114256,3.827430628967285
1758972519940014800,10.220014892578124,-6.185270351409912,0.366462491607666,5.9974751586914055
1758972519949971700,10.2299716796875,-5.5072623687744136,1.5318401496887206,8.673594064331054
1758972519959929600,10.2399296875,-3.0240263343811034,1.1767501159667968,10.063428128051758
1758972519969886700,10.24988671875,-1.7296610618591308,0.4912602531433105,9.92755718383789
1758972519979844900,10.259844970703124,-4.112639901733398,-0.13691840744018555,8.264784130859374
1758972519989801700,10.2698017578125,-7.528866395568847,-2.118120281219482,4.5869911056518555
1758972519999759600,10.279759521484374,-6.477662229156493,-3.161393654632568,0.5078700271606446
1758972520009716700,10.289716796875,-2.9810803421020506,-2.4314614234924314,-2.4459762710571287
1758972520019675000,10.2996748046875,-1.1982979309082031,-1.5409680435180664,-4.364928901672363
1758972520029631500,10.309631591796874,-1.3623007446289062,-2.346317626953125,-5.243151998138427
1758972520039589600,10.319589599609374,-1.328632283782959,-5.91846650390625,-5.433491030120849
1758972520049546800,10.329546630859374,-0.9834183319091796,-11.296441983032226,-4.8795326210021965
1758972520059504600,10.339504638671874,-1.477372061920166,-17.130662516021726,-2.3843255783081054
1758972520069461800,10.349461669921874,-2.5384523101806638,-21.573253334045408,0.8725368675231933
1758972520079419600,10.359419677734374,-2.5499744056701656,-25.501390070343017,1.402553260040283
1758972520089376800,10.369376708984374,-2.0883423980712887,-27.729344352722165,1.235408056640625
1758972520099334700,10.379334716796874,-1.3404536544799803,-27.309161961364744,-0.1274912384033203
1758972520109291800,10.389291748046874,-1.7118541870117185,-25.68424722213745,-2.574365335083008
1758972520119250000,10.39925,-2.4679729988098145,-23.370700230407714,-3.9662943252563476
1758972520129206800,10.409206787109374,-1.3410522048950195,-22.592435053253173,-4.18192211227417
1758972520139164700,10.41916455078125,-0.4611830947875976,-21.205893016815185,-3.354875076293945
1758972520149121800,10.429121826171874,-0.06643909606933593,-19.04542529373169,-0.1541267318725586
1758972520159079700,10.43907958984375,-2.6946739685058594,-17.578378226470946,2.696319982147217
1758972520169036500,10.44903662109375,-5.206640422821045,-17.29466532974243,3.183839295196533
1758972520178994700,10.45899462890625,-2.9019220497131344,-17.397616001129148,4.074183037567138
1758972520188951800,10.468951904296874,0.20425532913208005,-16.24211442489624,4.435258575439453
1758972520198909700,10.47890966796875,0.7835024932861328,-15.270667101287842,4.113537727355957
1758972520208866800,10.48886669921875,1.1979986557006834,-14.631265620422363,2.3020248962402343
1758972520218824700,10.49882470703125,1.6719009468078612,-13.640664683532714,0.9853636207580566
1758972520228781800,10.50878173828125,2.2340894241333005,-12.058845574188231,0.16041151123046873
1758972520238739700,10.51873974609375,2.893392706298828,-9.066542411804198,-1.141585279083252
1758972520248696800,10.52869677734375,3.2390555709838864,-5.685929667663574,-2.3458687141418455
1758972520258654700,10.53865478515625,2.8190228172302243,-2.2385785522460937,-3.8308722938537594
1758972520268612600,10.548612548828125,2.5104700782775877,0.951844797515869,-5.023483995819092
1758972520278569700,10.55856982421875,2.2284031951904297,3.8419454765319823,-5.418227994537353
1758972520288527600,10.568527587890625,1.6054618507385252,5.562927557373047,-5.124788653564453
1758972520298484700,10.578484619140625,0.9382277755737304,5.842300963592529,-4.890007253265381
1758972520308443000,10.58844287109375,0.1541267318725586,5.049221663665771,-4.904522100830078
1758972520318399500,10.5983994140625,-1.513733999633789,4.129100038146972,-4.655525128173828
1758972520328357400,10.608357421875,-2.573467509460449,3.7796962333679196,-3.7128082244873046
1758972520338314200,10.618314208984375,-2.2649147705078123,2.1817162628173827,-2.9091046546936035
1758972520348272400,10.6282724609375,-3.1215900520324706,-0.7595604766845703,-2.9083564666748045
1758972520358229500,10.6382294921875,-6.890662015533447,-4.493168328094482,-2.1402666465759275
1758972520368187400,10.6481875,-11.716325099182129,-8.15255592803955,-0.012419921112060545
1758972520378144300,10.658144287109375,-14.740650708770751,-12.983456327819823,1.403899998474121
1758972520388102400,10.668102294921875,-15.602114393615722,-15.020772303009032,1.7904139289855956
1758972520398059300,10.678059326171875,-17.07694261627197,-12.401665324401854,2.6044424934387207
1758972520408017400,10.688017333984375,-7.310994044494628,-10.206780952453613,2.018611274719238
1758972520417974500,10.697974609375,18.930503614044188,-7.197119828033447,1.9457377616882323
1758972520427932200,10.70793212890625,25.041852989196776,-1.3582605293273926,3.912125512695312
1758972520437889300,10.71788916015625,12.19411796798706,-1.9641431869506836,1.1909656883239745
1758972520447847400,10.727847412109375,8.794950160980225,-6.9716159591674804,-3.381809844970703
1758972520457804500,10.737804443359375,7.697807250213622,-10.716745906066894,-3.6750995483398436
1758972520467762400,10.747762451171875,7.621492072296142,-16.24121659927368,-4.824615620422363
1758972520477719300,10.75771923828125,6.871508402252197,-26.553043149566648,-3.6475662292480466
1758972520487677400,10.767677490234375,-5.006425308990479,-41.52099337844848,3.153313224029541
1758972520497634300,10.77763427734375,-10.485705445861816,-35.448849055480956,2.959083614349365
1758972520507592400,10.787592529296875,-3.840898013305664,-18.68644468231201,0.3612251754760742
1758972520517549300,10.79754931640625,2.1716905433654783,-11.692233444976806,-0.41793782730102536
1758972520527507200,10.807507080078125,2.154033306121826,-8.541015147399902,-1.6449661781311034
1758972520537464300,10.81746435546875,0.34237083740234375,-8.743474825286865,-3.464858715057373
1758972520547422500,10.82742236328125,0.6461351730346679,-10.75804588470459,-4.542698374938965
1758972520557379300,10.83737939453125,-0.02693476867675781,-13.664756337738035,-4.1569326324462885
1758972520567337200,10.847337158203125,-1.0483610519409179,-15.479112283325195,-1.8251298530578612
1758972520577294300,10.85729443359375,-2.250399922943115,-16.767791326904295,0.9060556907653808
1758972520587252500,10.86725244140625,-3.6679169433593746,-17.508946378326414,2.7913398605346678
1758972520597209300,10.877209228515625,-4.286369159698486,-16.41449694442749,4.5973161003112795
1758972520607167200,10.887167236328125,-4.412364022064208,-13.501950624847412,5.545120682525634
1758972520617124400,10.897124267578125,-4.667795411682128,-10.439617063903809,4.921880062866211
1758972520627082200,10.907082275390625,-5.1517234222412105,-8.364891687774657,3.3152211112976073
1758972520637039400,10.917039306640625,-5.117755686187744,-7.29079296798706,2.0287866317749024
1758972520646997500,10.92699755859375,-4.761019638824463,-6.587645867919922,1.1555015762329102
1758972520656954400,10.936954345703125,-4.767603693389892,-6.205321790313721,0.48557402420043944
1758972520666912300,10.946912353515625,-5.3107881950378415,-5.971138940429687,-0.430956298828125
1758972520676869400,10.956869384765625,-5.690718070983887,-5.724087256622314,-1.6416741508483885
1758972520686827500,10.96682763671875,-5.4984337501525875,-5.82239916229248,-2.897732196807861
1758972520696784400,10.976784423828125,-4.122665621185303,-6.705111386871337,-4.354454269409179
1758972520706742300,10.9867421875,-3.0232781463623044,-7.396287478637695,-4.783315641784668
1758972520716699400,10.996699462890625,-4.629338547515869,-5.914875201416015,-2.5827450408935544
1758972520726657300,11.0066572265625,-5.294477696228027,-2.8745383682250973,0.17657237243652343
1758972520736615400,11.016615478515625,-3.5365351272583005,-1.431433317565918,0.6489782875061034
1758972520746572300,11.026572265625,-3.1980548675537106,-1.865382368469238,-1.005564697265625
1758972520756530200,11.0365302734375,-2.9200281997680664,-2.6122236488342283,-1.8472762184143066
1758972520766487300,11.0464873046875,-2.722805838012695,-2.707991715240478,-1.587804613494873
1758972520776445400,11.056445556640625,-2.5279776779174803,-3.2704794677734372,-0.9395745140075683
1758972520786402600,11.066402587890625,-1.3325228614807128,-4.8014217918396,-0.4644751220703125
1758972520796360200,11.076360107421875,-0.6976105087280273,-7.543530880737304,-0.5491700057983399
1758972520806317300,11.0863173828125,-2.0094833808898924,-10.535684405517577,-1.147870058441162
1758972520816275500,11.096275390625,-4.6897921394348145,-13.232602938079832,-2.468122636413574
1758972520826232300,11.106232421875,-4.003703726196289,-14.355483516693115,-2.9945477264404294
1758972520836190500,11.1161904296875,-1.025915411376953,-13.940388803863524,-1.2018892333984375
1758972520846147300,11.126147216796875,0.9094973556518554,-14.04004744796753,0.9953893402099608
1758972520856105200,11.136105224609375,2.013972509002685,-16.425869402313232,2.099116305541992
1758972520866062300,11.146062255859375,2.9650691184997555,-19.68377931137085,2.2055086418151855
1758972520876020500,11.1560205078125,2.7645547294616697,-21.653010176849364,0.9308955329895019
1758972520885977300,11.165977294921875,0.9810241302490234,-21.22235315322876,-2.351255667877197
1758972520895935200,11.175935302734375,-0.8747814315795898,-17.957111001586913,-4.722413137054443
1758972520905892400,11.185892333984375,-2.316240468597412,-16.8038539894104,-5.365405920410156
1758972520915850500,11.1958505859375,-2.8371289672851563,-16.46372771606445,-4.399195912933349
1758972520925807400,11.205807373046875,-1.9324200149536133,-15.29730259475708,-3.1310172210693357
1758972520935765200,11.21576513671875,-2.344372338104248,-14.071471344757079,-1.313219610595703
1758972520945722400,11.225722412109375,-3.2064345733642576,-13.17723702468872,1.281346800994873
1758972520955680300,11.23568017578125,-2.8727427169799804,-12.273425897979736,3.3707366622924804
1758972520965637400,11.245637451171875,-1.1613374427795409,-11.802815634155273,3.939808469390869
1758972520975595500,11.255595458984375,-0.2262520568847656,-11.731737772369383,3.633500294494629
1758972520985552400,11.265552490234375,0.20036475143432617,-11.139921049499511,2.8661586624145508
1758972520995510300,11.27551025390625,0.426467170715332,-10.140491493988037,1.9002479301452635
1758972521005467400,11.28546728515625,0.6593032821655274,-9.16784706954956,0.32486323776245113
1758972521015425500,11.295425537109375,1.3848960227966307,-8.07668966293335,-0.9644143562316894
1758972521025382400,11.30538232421875,1.8269255043029784,-7.113771682739257,-1.8694225837707519
1758972521035340300,11.31534033203125,1.2170026313781737,-6.840084505462646,-2.506429862976074
1758972521045297400,11.32529736328125,0.7525275093078613,-6.714837831115722,-2.666093186187744
1758972521055255300,11.33525537109375,1.1595417915344237,-5.4266077003479,-2.2403742034912106
1758972521065212200,11.345212158203125,1.0369885940551757,-3.957465706634521,-3.1290719322204588
1758972521075170300,11.35517041015625,0.5406406623840332,-3.705475981903076,-3.6361937713623043
1758972521085127400,11.36512744140625,-0.14784195251464843,-2.9185318237304685,-3.4298435157775877
1758972521095085300,11.375085205078125,-0.618601853942871,-2.3487118286132813,-2.7902923973083493
1758972521105042400,11.38504248046875,-0.17462708358764648,-2.133682592010498,-2.13233585357666
1758972521115000300,11.395000244140626,1.1798925056457519,-0.8354267417907715,-0.9229647399902343
1758972521124957400,11.40495751953125,2.949057894897461,-0.5431845016479492,0.47195700225830073
1758972521134915300,11.414915283203126,1.2183493698120116,-5.324704492187499,-0.42227731781005856
1758972521144872400,11.42487255859375,-0.6254851837158203,-9.139715200042724,-1.5973814201354979
1758972521154830300,11.434830322265626,-1.031751277923584,-10.873117201995848,-2.546083827972412
1758972521164788200,11.444788330078126,-0.9475053070068359,-11.013926187133789,-3.800046947479248
1758972521174745300,11.454745361328126,-2.9759926635742184,-11.816881568908691,-5.070021290588379
1758972521184703200,11.464703125,-8.597278886413573,-11.870002918243408,-4.028094655609131
1758972521194660400,11.474660400390626,-18.378041580963135,-12.292878786468505,-2.0192098251342774
1758972521204618500,11.484618408203126,-20.62664585266113,-12.140846981048583,-0.618601853942871
1758972521214575400,11.494575439453126,-12.845340819549559,-9.83747534637451,-0.9292495193481445
1758972521224533200,11.504533203125,-6.570886456298828,-7.19502490158081,-0.9193734375
1758972521234490400,11.514490478515626,-3.2083798622131345,-6.321889483642578,0.04668693237304687
1758972521244448500,11.524448486328126,1.7555483673095702,-5.983858136749268,2.6153660385131836
1758972521254405400,11.5344052734375,7.798812632751464,-6.159831958770751,5.440075084686279
1758972521264363300,11.54436328125,10.947187815856934,-8.903138148498535,5.542726480865478
1758972521274320400,11.5543203125,9.491513206481933,-14.26839443130493,3.6462194908142087
1758972521284278300,11.5642783203125,4.168005815124512,-20.05368346786499,0.3311480171203613
1758972521294235400,11.5742353515625,-1.0558429321289062,-22.420052533721922,-2.3157915557861326
1758972521304193300,11.584193359375,-2.4206875160217285,-16.03202322921753,-0.9947907897949219
1758972521314150400,11.594150390625,-0.6607996582031249,-8.507047411346434,0.5514145698547362
1758972521324108000,11.60410791015625,0.06628945846557617,-5.0182466796875,-0.15786767196655271
1758972521334066200,11.614066162109374,-2.589478733062744,-6.538864009094238,-0.39668928756713867
1758972521344023300,11.624023193359376,-2.109291662597656,-11.834987718963623,0.7818564796447753
1758972521353981200,11.633981201171874,-1.0947487091064452,-15.215750100708007,-0.10025719451904297
1758972521363938300,11.643938232421876,-0.5059247383117675,-14.260014725494385,-0.1714846939086914
1758972521373896200,11.653896240234374,2.756025386047363,-14.414590370178221,1.2044330726623536
1758972521383853300,11.663853271484374,4.988917709350585,-14.189685051727293,2.2445640563964844
1758972521393811200,11.673811279296874,5.80354482421875,-12.153117264556885,1.900696842956543
1758972521403768300,11.683768310546874,1.99826056060791,-11.533916860198975,-0.5862801315307616
1758972521413726200,11.693726318359374,-9.789591313171385,-12.070966220092773,-3.4220623603820797
1758972521423683000,11.70368310546875,-9.73676923904419,-10.324695384216309,-3.7339071266174315
1758972521433641200,11.71364111328125,-1.7197849800109861,-10.320056618499756,-2.8616695343017575
1758972521443598300,11.723598388671874,0.25094226150512694,-11.398943741607665,-1.9496283393859861
1758972521453556200,11.73355615234375,-0.42497079467773435,-11.619659207153319,-0.8403647827148437
1758972521463513000,11.74351318359375,-1.2437877624511717,-12.113463299560546,0.12734160079956053
1758972521473471200,11.75347119140625,-1.4272434646606444,-12.764536513519287,0.87463179397583
1758972521483428400,11.763428466796874,-1.1284171699523926,-13.40663147125244,1.6617255897521972
1758972521493386200,11.77338623046875,-0.637156916809082,-13.24816524887085,2.716521058654785
1758972521503344400,11.783344482421874,-0.5581482620239258,-12.754959706878662,2.2168810997009274
1758972521513301200,11.79330126953125,-0.8924386688232422,-12.36635084991455,0.7529764221191406
1758972521523259100,11.803259033203124,-1.369333712005615,-11.985223873138427,-0.3924994346618652
1758972521533216300,11.81321630859375,-1.9524714538574217,-11.32008472442627,-0.838269856262207
1758972521543174100,11.823174072265624,-1.9620482604980467,-10.730063652801514,-0.7266402038574218
1758972521553131300,11.83313134765625,-0.48078562088012694,-10.537180781555175,-0.7519289588928222
1758972521563089200,11.843089111328124,1.4519336692810059,-10.64910970916748,-0.4632780212402344
1758972521573046300,11.85304638671875,1.5578770927429197,-11.15952357559204,0.19826982498168944
1758972521583004200,11.863004150390625,0.2976291938781738,-12.204442962646484,1.3025953407287596
1758972521592961300,11.872961181640624,-0.42601825790405273,-12.76872636642456,1.5581763679504395
1758972521602919400,11.88291943359375,-0.9584288520812988,-13.06934831237793,1.0576385833740234
1758972521612876300,11.892876220703124,-1.1010334884643553,-13.484592662811279,0.6449380722045898
1758972521622834200,11.902834228515625,-1.6719009468078612,-13.580061454010009,-1.1731588134765625
1758972521632791300,11.912791259765624,0.5900210716247558,-12.20593933868408,-2.983474543762207
1758972521642749200,11.922749267578125,2.5357588333129883,-10.838102002716063,-3.071760729980469
1758972521652707300,11.932707275390625,1.1972504676818847,-9.677512747955321,-2.9966426528930663
1758972521662664200,11.942664306640625,0.020949264526367185,-9.458742571258544,-1.8477251312255858
1758972521672622000,11.9526220703125,-1.7305588874816893,-9.048286624145508,-1.0622773490905761
1758972521682579200,11.9625791015625,0.9319429962158202,-9.502137476348876,0.19183540802001953
1758972521692537300,11.972537353515625,2.821267381286621,-10.360458771514892,3.0617350105285643
1758972521702494200,11.982494140625,2.8202199180603027,-10.454580824279784,5.322908840942382
1758972521712452000,11.9924521484375,1.029207438659668,-10.052654220581054,6.906673239135742
1758972521722409200,12.0024091796875,0.6772597946166992,-11.256788018035888,5.910685348510742
1758972521732367400,12.012367431640625,6.730100866699218,-11.206360145568848,6.363488737487793
1758972521742324200,12.02232421875,5.738602104187011,-9.91483798751831,5.587168849182128
1758972521752282000,12.0322822265625,1.56416187210083,-7.587823611450195,5.791573815917968
1758972521762239200,12.0422392578125,1.4203601348876953,-5.658845261383056,8.211812419128417
1758972521772197000,12.052197021484375,-0.4493617240905761,-5.079598097229003,6.6240078056335445
1758972521782154200,12.062154296875,-0.9973346290588379,-8.1586910697937,6.26921704711914
1758972521792112000,12.072112060546875,-0.8060977714538574,-9.905560456085205,7.355436412811279
1758972521802070000,12.082070068359375,0.7531260597229004,-6.064512805175781,7.775469166564941
1758972521812027100,12.092027099609375,1.6889596336364745,-2.187252854156494,9.892691622161864
1758972521821985300,12.1019853515625,1.946635587310791,-1.4260463638305663,11.428871262359618
1758972521831942400,12.1119423828125,5.147683206939697,-4.242525341796875,12.242750189208984
1758972521841900300,12.121900390625,8.425794192504883,-8.426542380523681,11.40881982345581
1758972521851857200,12.131857177734375,11.30631806488037,-9.62753378829956,10.772111819458008
1758972521861815300,12.141815185546875,11.349563332366943,-6.4992100440979,11.308712266540526
1758972521871772400,12.1517724609375,10.631302834320067,-4.980986916351318,9.999233596038819
1758972521881730300,12.161730224609375,10.849624098205565,-4.98637387008667,7.403320446014404
1758972521891687200,12.171687255859375,12.942605261993407,-1.6994342658996582,3.629460079193115
1758972521901645000,12.18164501953125,11.410914749908446,2.3075614875793455,-1.4016554344177246
1758972521911602200,12.191602294921875,7.962965084075927,2.5528175201416015,-2.844161934661865
1758972521921560300,12.201560302734375,7.28465782623291,2.9937995384216305,-7.159710427093505
1758972521931517200,12.21151708984375,4.778078325653076,3.6821325157165523,-9.903315892028807
1758972521941475000,12.22147509765625,3.5429695442199707,3.2326211540222167,-7.7772648178100585
1758972521951432200,12.23143212890625,4.862174658966064,2.489371176147461,-3.39018955078125
1758972521961390300,12.241390380859375,9.036914166259765,1.129314995574951,2.625840670776367
1758972521971348200,12.25134814453125,14.40980196685791,-2.0060417160034176,8.976759849548339
1758972521981305000,12.26130517578125,20.150798272705078,-6.624755993652343,12.60861413040161
1758972521991263200,12.27126318359375,24.06786182632446,-10.588805754852295,14.014758692932128
1758972522002465300,12.28246533203125,21.757157949066162,-10.364050074005126,9.74245546798706
1758972522012423200,12.292423095703125,14.118607189941406,-9.845406139373779,7.583633758544922
1758972522022380000,12.302380126953125,5.266046551513671,-8.49133546295166,5.917568678283691
1758972522032338200,12.312338134765625,3.923049057769775,-4.429572346496582,3.4567782844543453
1758972522042295300,12.32229541015625,7.627327938842773,-3.338414939880371,5.783194110107422
1758972522052253200,12.332253173828125,8.182633086395263,-3.577236555480957,7.024886946105957
1758972522062210300,12.342210205078125,7.377732415771484,-3.3973721557617185,7.775768441772461
1758972522072168200,12.352168212890625,8.271966735839843,-2.9664158569335934,8.725518312835693
1758972522082125300,12.362125244140625,10.257358462524413,-2.4916157402038572,8.576928172302246
1758972522092083200,12.372083251953125,11.79922433166504,-16.295684687042236,-9.497498710632323
1758972522102040300,12.382040283203125,9.896432562255859,-13.390919522857665,-16.398784996032713
1758972522111998200,12.391998291015625,4.675127654266357,7.347355982208252,8.630498434448242
1758972522121955000,12.401955078125,6.96488226699829,4.88417138671875,9.715371061706543
1758972522131913200,12.411913330078125,9.44303062286377,1.546205359649658,8.078784589385986
1758972522141871000,12.42187109375,8.565854989624023,-0.6501753883361816,4.76924970703125
1758972522151828200,12.431828125,6.325480786132812,-0.6111199737548828,1.0735001693725585
1758972522161786400,12.441786376953125,4.530877004241943,0.45415012741088867,-1.2240355987548828
1758972522171743200,12.4517431640625,3.7413890068054196,1.0045172340393065,-2.9435213035583496
1758972522181701000,12.461701171875,3.969735990142822,2.561945413970947,-4.548384603881836
1758972522191658200,12.471658203125,6.749254479980468,2.5776573623657226,-6.872705503082275
1758972522201616400,12.481616455078125,9.558101940155028,1.4146739059448241,-6.56310530090332
1758972522211573200,12.4915732421875,12.306495808410643,0.2458545829772949,-2.124255422973633
1758972522221531100,12.50153125,14.467861357116698,-2.666242823791504,2.4902690017700193
1758972522231488300,12.51148828125,12.165537185668944,-4.097975416564942,3.207930949401855
1758972522241446100,12.521446044921875,7.379228791809082,-2.442235330963135,2.139967371368408
1758972522251403300,12.5314033203125,6.58240855178833,-1.4381670097351074,2.4033295539855954
1758972522261361200,12.541361083984375,7.053318090820312,-0.6606500205993652,2.6286837852478024
1758972522271318300,12.551318359375,8.407089492034912,0.5003881469726562,2.4034791915893554
1758972522281276200,12.561276123046875,9.48088893661499,1.3192051147460937,0.702847824859619
1758972522291233300,12.5712333984375,11.181520303344726,0.479438882446289,-1.7169418655395507
1758972522301191400,12.58119140625,9.99220062866211,-1.114650510406494,-3.1090204933166503
1758972522311148300,12.591148193359375,8.015487882995606,-1.0901099433898924,-2.2303484840393066
1758972522321106400,12.6011064453125,8.336460543060301,0.46836569976806636,-1.6870143447875976
1758972522331063600,12.6110634765625,9.123853614044188,1.32144967880249,-0.4514566505432129
1758972522341021400,12.621021484375,10.021679236602782,1.4390648353576658,-0.36691140441894526
1758972522350979600,12.6309794921875,9.521889640045165,1.0899603057861327,-1.1279682571411132
1758972522360936400,12.6409365234375,8.73389801864624,0.39848493881225583,-0.7927800247192383
1758972522370894300,12.650894287109375,8.18457837524414,1.162534543609619,0.9521440727233886
1758972522380851500,12.6608515625,8.076540025329589,1.476623873901367,1.8715175102233885
