time,seconds_elapsed,z,y,x
1757490697245593600,0.087593505859375,9.723566055297852,1.24959135055542,-0.3562137484550476
1757490697255658500,0.097658447265625,9.72386360168457,1.2476933002471924,-0.35475069284439087
1757490697265675000,0.107675048828125,9.724129676818848,1.2457152605056763,-0.3543926179409027
1757490697275743700,0.11774365234375,9.724273681640625,1.2445282936096191,-0.35463181138038635
1757490697285756400,0.12775634765625,9.72431755065918,1.24404776096344,-0.35511794686317444
1757490697295822600,0.137822509765625,9.724372863769531,1.2436391115188599,-0.3550187349319458
1757490697305876000,0.1478759765625,9.724605560302734,1.2424774169921875,-0.35270094871520996
1757490697315900000,0.15789990234375,9.724966049194336,1.2402620315551758,-0.3505614697933197
1757490697325944600,0.167944580078125,9.725171089172363,1.2385996580123901,-0.3507730960845947
1757490697335959600,0.17795947265625,9.725028038024902,1.2389806509017944,-0.35334646701812744
1757490697346025700,0.188025634765625,9.724655151367188,1.241028070449829,-0.35641101002693176
1757490697356066000,0.198066162109375,9.724326133728027,1.2430976629257202,-0.35818496346473694
1757490697366107100,0.208107177734375,9.724236488342285,1.2438846826553345,-0.357900470495224
1757490697376122600,0.21812255859375,9.724332809448242,1.2436896562576294,-0.3559412360191345
1757490697386182400,0.228182373046875,9.724435806274414,1.2433522939682007,-0.35431402921676636
1757490697396228900,0.238228759765625,9.724395751953125,1.2437989711761475,-0.3538512885570526
1757490697406259200,0.24825927734375,9.72421932220459,1.2449966669082642,-0.35446715354919434
1757490697416310500,0.258310546875,9.724061965942383,1.2461150884628296,-0.35484057664871216
1757490697426351400,0.268351318359375,9.72404956817627,1.246350884437561,-0.3543757498264313
1757490697436374500,0.27837451171875,9.724113464355469,1.2458916902542114,-0.35425645112991333
1757490697446428700,0.2884287109375,9.72413158416748,1.2455188035964966,-0.3550665080547333
1757490697456469500,0.298469482421875,9.724068641662598,1.2457125186920166,-0.3560844957828522
1757490697466512100,0.30851220703125,9.723977088928223,1.2462615966796875,-0.356667160987854
1757490697476553200,0.31855322265625,9.723848342895508,1.2472106218338013,-0.35685694217681885
1757490697486549500,0.328549560546875,9.723721504211426,1.2482008934020996,-0.35686299204826355
1757490697496636200,0.33863623046875,9.723628997802734,1.2490384578704834,-0.35643133521080017
1757490697506688800,0.348688720703125,9.723587989807129,1.2496154308319092,-0.35554537177085876
1757490697516717600,0.358717529296875,9.723648071289062,1.2496577501296997,-0.3537273705005646
1757490697526758000,0.3687578125,9.723868370056152,1.2487132549285889,-0.35100823640823364
1757490697536773000,0.378773193359375,9.724228858947754,1.2468223571777344,-0.3477405905723572
1757490697546814000,0.38881396484375,9.72458553314209,1.2447421550750732,-0.34519436955451965
1757490697556858000,0.398858154296875,9.724909782409668,1.242687463760376,-0.3434833586215973
1757490697566916900,0.408916748046875,9.725204467773438,1.2407780885696411,-0.3420104682445526
1757490697576935700,0.418935791015625,9.725576400756836,1.2381553649902344,-0.3409530222415924
1757490697587002400,0.42900244140625,9.72610092163086,1.234378695487976,-0.3396887183189392
1757490697597042700,0.439042724609375,9.726712226867676,1.229894757270813,-0.3384290039539337
1757490697607067100,0.449067138671875,9.7274169921875,1.2247653007507324,-0.3367747962474823
1757490697617124000,0.4591240234375,9.728260040283203,1.2187303304672241,-0.3342955410480499
1757490697627141400,0.469141357421875,9.729301452636719,1.2114742994308472,-0.33035722374916077
1757490697637201700,0.47920166015625,9.730476379394531,1.2033772468566895,-0.3252912163734436
1757490697647246000,0.48924609375,9.731606483459473,1.195417046546936,-0.32079964876174927
1757490697657265700,0.499265625,9.732661247253418,1.1878948211669922,-0.31673485040664673
1757490697667327200,0.5093271484375,9.73366928100586,1.1806893348693848,-0.31267333030700684
1757490697677343200,0.51934326171875,9.734681129455566,1.1733639240264893,-0.30874961614608765
1757490697687406800,0.52940673828125,9.73567008972168,1.1660487651824951,-0.3052281141281128
1757490697697445600,0.539445556640625,9.7366361618042,1.1587721109390259,-0.30210795998573303
1757490697707487000,0.549487060546875,9.737628936767578,1.1512478590011597,-0.2988744378089905
1757490697717527800,0.55952783203125,9.738691329956055,1.1433360576629639,-0.29458269476890564
1757490697727545600,0.569545654296875,9.739827156066895,1.1347849369049072,-0.2900642156600952
1757490697737612000,0.579612060546875,9.740966796875,1.12577223777771,-0.28688663244247437
1757490697747649300,0.589649169921875,9.742057800292969,1.1168080568313599,-0.2848743498325348
1757490697757668000,0.599668212890625,9.743102073669434,1.1080262660980225,-0.2834354341030121
1757490697767734000,0.609734130859375,9.744098663330078,1.099623680114746,-0.28193941712379456
1757490697777750000,0.61975,9.745001792907715,1.0919768810272217,-0.2804112136363983
1757490697787815700,0.629815673828125,9.745777130126953,1.0852906703948975,-0.279405802488327
1757490697797856300,0.639856201171875,9.746509552001953,1.0788016319274902,-0.27900823950767517
1757490697807871500,0.64987158203125,9.747347831726074,1.0713616609573364,-0.27837881445884705
1757490697817934600,0.6599345703125,9.748397827148438,1.0624536275863647,-0.2757342755794525
1757490697827957500,0.66995751953125,9.749621391296387,1.0525691509246826,-0.2703459858894348
1757490697838018800,0.680018798828125,9.750873565673828,1.042294979095459,-0.26496028900146484
1757490697848059400,0.690059326171875,9.752057075500488,1.0317838191986084,-0.2625361680984497
1757490697858075000,0.700074951171875,9.753127098083496,1.0217069387435913,-0.26217296719551086
1757490697868141300,0.710141357421875,9.754181861877441,1.0116838216781616,-0.261801540851593
1757490697878166800,0.720166748046875,9.755340576171875,1.0009030103683472,-0.26007139682769775
1757490697888218600,0.730218505859375,9.756647109985352,0.9891170859336853,-0.2561163604259491
1757490697898263000,0.740262939453125,9.757959365844727,0.9770588874816895,-0.2523774206638336
1757490697908278300,0.7502783203125,9.759055137634277,0.9663776755332947,-0.2511235475540161
1757490697918344400,0.760344482421875,9.759822845458984,0.9586812257766724,-0.2507835328578949
1757490697928379600,0.770379638671875,9.760241508483887,0.954527735710144,-0.25035372376441956
1757490697938423300,0.78042333984375,9.760440826416016,0.9528844952583313,-0.2488170564174652
1757490697948459800,0.790459716796875,9.76054859161377,0.9520919322967529,-0.24761998653411865
1757490697958504000,0.80050390625,9.760608673095703,0.9514807462692261,-0.24760039150714874
1757490697968545300,0.810545166015625,9.760592460632324,0.9514477252960205,-0.24836616218090057
1757490697978562600,0.8205625,9.760492324829102,0.9522644281387329,-0.24916423857212067
1757490697988603400,0.830603271484375,9.760282516479492,0.9541212320327759,-0.2502853572368622
1757490697998623500,0.84062353515625,9.760000228881836,0.9566312432289124,-0.2517188489437103
1757490698008710100,0.850710205078125,9.759653091430664,0.9595819115638733,-0.2539243698120117
1757490698018725600,0.8607255859375,9.759151458740234,0.9636891484260559,-0.25763776898384094
1757490698028791800,0.870791748046875,9.758526802062988,0.9688266515731812,-0.2619946300983429
1757490698038832400,0.880832275390625,9.757779121398926,0.9752193689346313,-0.2661110758781433
1757490698048834000,0.890833984375,9.756974220275879,0.9820842146873474,-0.270325630903244
1757490698058913500,0.90091357421875,9.756132125854492,0.9886757731437683,-0.2766124904155731
1757490698068970200,0.91097021484375,9.755180358886719,0.9958044290542603,-0.28449052572250366
1757490698078991000,0.9209912109375,9.75400161743164,1.0054341554641724,-0.2909689247608185
1757490698089035800,0.931035888671875,9.752419471740723,1.0192521810531616,-0.29588305950164795
1757490698099059500,0.9410595703125,9.75003433227539,1.0397826433181763,-0.3029762804508209
1757490698109117000,0.951116943359375,9.746487617492676,1.069854974746704,-0.3122345805168152
1757490698119132200,0.961132080078125,9.74139404296875,1.1111055612564087,-0.3268090784549713
1757490698129198600,0.971198486328125,9.734892845153809,1.1617257595062256,-0.3440426290035248
1757490698139239000,0.981239013671875,9.727253913879395,1.2196649312973022,-0.3592396080493927
1757490698149254400,0.99125439453125,9.719023704528809,1.2794301509857178,-0.37380263209342957
1757490698159320000,1.001320068359375,9.709915161132812,1.3423669338226318,-0.38949334621429443
1757490698169337300,1.01133740234375,9.700931549072266,1.4068024158477783,-0.3859459161758423
1757490698179405600,1.021405517578125,9.691633224487305,1.4701967239379883,-0.38324764370918274
1757490698189417000,1.0314169921875,9.682463645935059,1.5270448923110962,-0.39262300729751587
1757490698199479300,1.041479248046875,9.674721717834473,1.5722521543502808,-0.40483421087265015
1757490698209521000,1.05152099609375,9.668607711791992,1.6065186262130737,-0.41621795296669006
1757490698219542500,1.06154248046875,9.663199424743652,1.633629560470581,-0.43581685423851013
1757490698229604600,1.0716044921875,9.68461799621582,1.5230270624160767,-0.3530934154987335
1757490698239620400,1.081620361328125,9.683792114257812,1.5218636989593506,-0.3797592520713806
1757490698249686300,1.091686279296875,9.673795700073242,1.5618077516555786,-0.4631801247596741
1757490698259727400,1.101727294921875,9.66148853302002,1.605988621711731,-0.5590646266937256
1757490698269788400,1.111788330078125,9.64993667602539,1.6518062353134155,-0.6215910911560059
1757490698279804400,1.121804443359375,9.640509605407715,1.698433518409729,-0.6418775320053101
1757490698289823500,1.131823486328125,9.633796691894531,1.7427115440368652,-0.6237165331840515
1757490698299889700,1.1418896484375,9.630188941955566,1.782862663269043,-0.5630094408988953
1757490698309930200,1.15193017578125,9.62796401977539,1.8191701173782349,-0.47857943177223206
1757490698319945500,1.161945556640625,9.611417770385742,1.9008901119232178,-0.4933244287967682
1757490698330011600,1.17201171875,9.607682228088379,1.9146113395690918,-0.5126394033432007
1757490698340027600,1.182027587890625,9.604530334472656,1.9229775667190552,-0.5396813154220581
1757490698350089200,1.192089111328125,9.603885650634766,1.9220247268676758,-0.5543436408042908
1757490698360108300,1.2021083984375,9.599152565002441,1.9374433755874634,-0.5819674730300903
1757490698370148900,1.21214892578125,9.594883918762207,1.960899829864502,-0.573740541934967
1757490698380214800,1.22221484375,9.592382431030273,1.9809672832489014,-0.5459622740745544
1757490698390232000,1.232232177734375,9.593093872070312,1.984832763671875,-0.5187445282936096
1757490698400292600,1.242292724609375,9.598522186279297,1.9679896831512451,-0.4811437129974365
1757490698410337300,1.252337158203125,9.605916023254395,1.9442055225372314,-0.4272690713405609
1757490698420352500,1.2623525390625,9.611800193786621,1.9263187646865845,-0.37242233753204346
1757490698430407700,1.27240771484375,9.614819526672363,1.9219447374343872,-0.3122299313545227
1757490698440433700,1.28243359375,9.615277290344238,1.9302157163619995,-0.23835401237010956
1757490698450495700,1.292495849609375,9.611580848693848,1.9561010599136353,-0.16520240902900696
1757490698460560600,1.302560546875,9.604700088500977,1.9947776794433594,-0.0818970575928688
1757490698470576600,1.31257666015625,9.595897674560547,2.0382792949676514,0.016453919932246208
1757490698480621000,1.32262109375,9.585769653320312,2.082642078399658,0.10827647894620895
1757490698490636500,1.332636474609375,9.577495574951172,2.114839553833008,0.18744492530822754
1757490698500701200,1.342701171875,9.57257080078125,2.1303317546844482,0.25235268473625183
1757490698510718200,1.35271826171875,9.571466445922852,2.128981828689575,0.3009380102157593
1757490698520780300,1.3627802734375,9.57313060760498,2.1160237789154053,0.33724161982536316
1757490698530799000,1.372799072265625,9.57588005065918,2.0987768173217773,0.36574071645736694
1757490698540859000,1.38285888671875,9.577959060668945,2.0848679542541504,0.390035480260849
1757490698550881500,1.392881591796875,9.577653884887695,2.0816080570220947,0.41419410705566406
1757490698560919300,1.402919189453125,9.574529647827148,2.0905895233154297,0.4403562545776367
1757490698570989000,1.412989013671875,9.569659233093262,2.1072962284088135,0.46587467193603516
1757490698581027600,1.423027587890625,9.563687324523926,2.127760410308838,0.4945829510688782
1757490698591043600,1.433043701171875,9.558028221130371,2.145956516265869,0.5244730710983276
1757490698601109000,1.44310888671875,9.554239273071289,2.155751943588257,0.5525866150856018
1757490698611125800,1.453125732421875,9.552675247192383,2.15571665763855,0.5791280269622803
1757490698621211600,1.463211669921875,9.553028106689453,2.1486093997955322,0.599371075630188
1757490698631242800,1.47324267578125,9.554299354553223,2.1379144191741943,0.6170874834060669
1757490698641256700,1.483256591796875,9.555068016052246,2.1284594535827637,0.6375341415405273
1757490698651313000,1.49331298828125,9.553889274597168,2.1257143020629883,0.6638109683990479
1757490698661349600,1.503349609375,9.550446510314941,2.1329257488250732,0.6897141337394714
1757490698671369500,1.513369384765625,9.54469108581543,2.151359796524048,0.7117826342582703
1757490698681414400,1.523414306640625,9.537887573242188,2.1761696338653564,0.7273859977722168
1757490698691471600,1.5334716796875,9.5304594039917,2.2085633277893066,0.7271134853363037
1757490698701513000,1.543512939453125,9.527154922485352,2.228520154953003,0.7093217968940735
1757490698711532300,1.5535322265625,9.528597831726074,2.231747627258301,0.6791442632675171
1757490698721593900,1.56359375,9.534278869628906,2.218001365661621,0.6435115933418274
1757490698731638800,1.573638671875,9.54375171661377,2.1890804767608643,0.6007101535797119
1757490698741679400,1.583679443359375,9.556294441223145,2.145939826965332,0.555229902267456
1757490698751695600,1.593695556640625,9.572126388549805,2.0844874382019043,0.5151776671409607
1757490698761735200,1.603735107421875,9.588807106018066,2.0088822841644287,0.5052587985992432
1757490698771776800,1.61377685546875,9.604456901550293,1.9246307611465454,0.5350720882415771
1757490698781841700,1.623841552734375,9.617730140686035,1.8392863273620605,0.5936341881752014
1757490698791878700,1.633878662109375,9.626177787780762,1.767783284187317,0.6691473722457886
1757490698801898000,1.64389794921875,9.628850936889648,1.7224910259246826,0.7445569634437561
1757490698811964000,1.6539638671875,9.630840301513672,1.68624746799469,0.7997435331344604
1757490698822004500,1.66400439453125,9.625131607055664,1.6902910470962524,0.8578267693519592
1757490698832036900,1.674036865234375,9.621034622192383,1.6925493478775024,0.8983808755874634
1757490698842086000,1.6840859375,9.621285438537598,1.6737569570541382,0.9303364157676697
1757490698852127500,1.69412744140625,9.620723724365234,1.6557446718215942,0.9676207304000854
1757490698862142000,1.704141845703125,9.616065979003906,1.6473039388656616,1.0265341997146606
1757490698872181200,1.71418115234375,9.602484703063965,1.6729376316070557,1.1089046001434326
1757490698882273000,1.72427294921875,9.574453353881836,1.7553653717041016,1.2184574604034424
1757490698892266200,1.734266357421875,9.526352882385254,1.8870190382003784,1.3870402574539185
1757490698902330000,1.744330078125,9.457230567932129,1.95375657081604,1.7261916399002075
1757490698912389400,1.754389404296875,9.352373123168945,2.1099724769592285,2.077798843383789
1757490698922381000,1.764381103515625,9.203962326049805,2.2600834369659424,2.532825469970703
1757490698932405800,1.77440576171875,9.01658821105957,2.3967814445495605,3.0319440364837646
1757490698942490000,1.784489990234375,8.835564613342285,2.4853570461273193,3.462932825088501
1757490698952530700,1.79453076171875,8.679314613342285,2.5236523151397705,3.812713146209717
1757490698962574800,1.804574951171875,8.556028366088867,2.509753942489624,4.0904316902160645
1757490698972614700,1.81461474609375,8.4434814453125,2.4493494033813477,4.3525190353393555
1757490698982629600,1.824629638671875,8.317573547363281,2.3486485481262207,4.640897750854492
1757490698992695800,1.83469580078125,8.159089088439941,2.2143056392669678,4.976166725158691
1757490699002753300,1.844753173828125,7.964516639709473,2.049574375152588,5.3480682373046875
1757490699022814200,1.864814208984375,7.438895225524902,1.6671143770217896,6.174113750457764
1757490699032833500,1.87483349609375,7.146335124969482,1.47878897190094,6.555850982666016
1757490699042897200,1.884897216796875,6.8838911056518555,1.304911732673645,6.866247653961182
1757490699052939800,1.894939697265625,6.760712623596191,1.1071445941925049,7.021618843078613
1757490699062967300,1.90496728515625,7.0351128578186035,0.8263124823570251,6.786789417266846
1757490699073021400,1.915021484375,7.041255950927734,0.657293438911438,6.798880577087402
1757490699083019500,1.92501953125,6.833304405212402,0.5390013456344604,7.0179443359375
1757490699093090000,1.935090087890625,6.549710750579834,0.442372590303421,7.2898359298706055
1757490699103120000,1.945119873046875,6.2490153312683105,0.35963740944862366,7.553580284118652
1757490699113148400,1.9551484375,5.9971160888671875,0.28746697306632996,7.758097171783447
1757490699123224800,1.965224853515625,5.812212944030762,0.20553958415985107,7.900129318237305
1757490699133239800,1.97523974609375,5.627748489379883,0.09421472996473312,8.034655570983887
1757490699143306000,1.985305908203125,5.4639716148376465,-0.03566509485244751,8.147382736206055
1757490699153346800,1.995346923828125,5.344395160675049,-0.17783430218696594,8.224470138549805
1757490699163383600,2.005383544921875,5.245082855224609,-0.3306983709335327,8.283469200134277
1757490699173409300,2.0154091796875,5.178516387939453,-0.4846342206001282,8.317704200744629
1757490699183433700,2.025433837890625,5.131158351898193,-0.6386831998825073,8.336630821228027
1757490699193487400,2.0354873046875,5.10532808303833,-0.7857368588447571,8.339925765991211
1757490699203547400,2.04554736328125,5.087378025054932,-0.9240913987159729,8.336711883544922
1757490699213568800,2.05556884765625,5.0385422706604,-1.0430225133895874,8.352323532104492
1757490699223631400,2.06563134765625,4.926133155822754,-1.1346999406814575,8.407244682312012
1757490699233668400,2.07566845703125,4.721678733825684,-1.1933176517486572,8.515742301940918
1757490699243695900,2.08569580078125,4.415375232696533,-1.2182817459106445,8.675042152404785
1757490699253752300,2.09575244140625,3.9938249588012695,-1.2145018577575684,8.877525329589844
1757490699263769000,2.10576904296875,3.4623749256134033,-1.1898165941238403,9.101231575012207
1757490699273834500,2.11583447265625,2.868910551071167,-1.152577519416809,9.310050010681152
1757490699283875000,2.125875,2.30782151222229,-1.1083394289016724,9.470039367675781
1757490699293881000,2.135881103515625,1.8144851922988892,-1.069485068321228,9.581230163574219
1757490699303953000,2.145952880859375,1.3744778633117676,-1.0386532545089722,9.65754222869873
1757490699313972200,2.15597216796875,0.9451159238815308,-1.0068172216415405,9.712321281433105
1757490699324038000,2.166037841796875,0.5007567405700684,-0.9652817845344543,9.749545097351074
1757490699334053400,2.176053466796875,0.030666308477520943,-0.911003828048706,9.767562866210938
1757490699344089000,2.186089111328125,-0.4779391586780548,-0.8451074957847595,9.76183795928955
1757490699354159600,2.19615966796875,-1.0268570184707642,-0.7719599604606628,9.7255220413208
1757490699364218600,2.206218505859375,-1.6219755411148071,-0.7034686207771301,9.649374961853027
1757490699374241500,2.216241455078125,-2.2514376640319824,-0.6475356221199036,9.526168823242188
1757490699384282000,2.2262822265625,-2.893911600112915,-0.6188722252845764,9.352988243103027
1757490699394297900,2.2362978515625,-3.7090299129486084,-0.6558839678764343,9.058091163635254
1757490699404364000,2.246364013671875,-4.817398548126221,-0.7556924223899841,8.51220989227295
1757490699414413600,2.25641357421875,-5.385616779327393,-0.8764429688453674,8.15249252319336
1757490699424440800,2.26644091796875,-5.775493144989014,-1.014500379562378,7.864511013031006
1757490699434481400,2.2764814453125,-6.140847682952881,-1.1520777940750122,7.562989234924316
1757490699444500700,2.286500732421875,-6.505151748657227,-1.2758246660232544,7.2312774658203125
1757490699464600300,2.306600341796875,-7.3380279541015625,-1.2258378267288208,6.3942766189575195
1757490699474647800,2.316647705078125,-7.637348651885986,-1.3052611351013184,6.01692533493042
1757490699494733600,2.336733642578125,-8.073088645935059,-1.4423457384109497,5.383406162261963
1757490699514810600,2.356810546875,-8.264313697814941,-1.5103625059127808,5.065186500549316
1757490699524838400,2.36683837890625,-8.31124210357666,-1.463222861289978,5.001834869384766
1757490699564995600,2.40699560546875,-8.445724487304688,-0.5940020084381104,4.95510196685791
1757490699575029500,2.417029541015625,-8.422967910766602,-0.2642849385738373,5.021939754486084
1757490699605151700,2.44715185546875,-8.034398078918457,0.8155189752578735,5.569513320922852
1757490699615191000,2.45719091796875,-7.907159805297852,1.1010150909423828,5.700944423675537
1757490699635297300,2.47729736328125,-7.697402000427246,1.6193139553070068,5.862077236175537
1757490699645339100,2.487339111328125,-7.6157732009887695,1.8591488599777222,5.897435188293457
1757490699655374800,2.497374755859375,-7.57342529296875,2.1244781017303467,5.862252235412598
1757490699665419800,2.507419677734375,-7.559465408325195,2.349729299545288,5.793911457061768
1757490699675436800,2.517436767578125,-7.562175750732422,2.5264241695404053,5.715485572814941
1757490699695541200,2.537541259765625,-7.749588966369629,2.316868543624878,5.550866603851318
1757490699705583000,2.5475830078125,-7.916999340057373,1.5738033056259155,5.574978828430176
1757490699715623700,2.557623779296875,-7.817990303039551,1.6201876401901245,5.700015544891357
1757490699725639400,2.567639404296875,-7.673862934112549,1.7142518758773804,5.8659491539001465
1757490699735691300,2.577691162109375,-7.430366039276123,1.8997279405593872,6.116927146911621
1757490699745742000,2.5877421875,-7.14044713973999,2.0810651779174805,6.39682149887085
1757490699755786500,2.597786376953125,-6.876489639282227,2.24550199508667,6.626289367675781
1757490699765827300,2.607827392578125,-6.618649005889893,2.373704671859741,6.840700626373291
1757490699775848700,2.6178486328125,-6.298525810241699,2.5281693935394287,7.083298206329346
1757490699785909200,2.6279091796875,-6.006041526794434,2.6923134326934814,7.274271011352539
1757490699795976200,2.63797607421875,-5.724189758300781,2.8463592529296875,7.440970420837402
1757490699805964800,2.64796484375,-5.456212997436523,2.9546186923980713,7.598430156707764
1757490699816031200,2.65803125,-5.170261383056641,3.0861611366271973,7.744683742523193
1757490699826070500,2.668070556640625,-4.8338303565979,3.2092223167419434,7.910186767578125
1757490699836109000,2.678109130859375,-4.488906383514404,3.3322739601135254,8.061127662658691
1757490699846153500,2.688153564453125,-4.140745639801025,3.45290207862854,8.195597648620605
1757490699856193500,2.698193603515625,-3.8014755249023438,3.580735683441162,8.304408073425293
1757490699866234400,2.708234375,-3.561950922012329,3.694427013397217,8.360614776611328
1757490699876271400,2.718271240234375,-3.4615519046783447,3.773970365524292,8.3672513961792
1757490699886316000,2.72831591796875,-3.4184677600860596,3.8353607654571533,8.357048034667969
1757490699896355800,2.73835595703125,-3.377974033355713,3.8864951133728027,8.349884986877441
1757490699906395000,2.748394775390625,-3.3297643661499023,3.9369404315948486,8.345616340637207
1757490699916434200,2.75843408203125,-3.223850727081299,3.9269282817840576,8.391789436340332
1757490699926475000,2.76847509765625,-3.2112839221954346,3.9659345149993896,8.378255844116211
1757490699936516400,2.778516357421875,-3.2197670936584473,3.9888267517089844,8.364120483398438
1757490699946557000,2.788556884765625,-3.2486629486083984,3.9983069896698,8.348403930664062
1757490699956600300,2.798600341796875,-3.2915399074554443,3.9650707244873047,8.347460746765137
1757490699966641000,2.808640869140625,-3.3185884952545166,3.9495036602020264,8.34412956237793
1757490699976678000,2.818677978515625,-3.3210396766662598,3.9727838039398193,8.332093238830566
1757490699986722600,2.82872265625,-3.301971435546875,3.9860947132110596,8.333314895629883
1757490700006803700,2.8488037109375,-3.320836305618286,4.0202836990356445,8.309362411499023
1757490700016844500,2.858844482421875,-3.5129926204681396,4.01205587387085,8.233983039855957
1757490700026885600,2.8688857421875,-3.798332691192627,4.005622386932373,8.109484672546387
1757490700036925700,2.87892578125,-4.072884559631348,4.027879238128662,7.963915824890137
1757490700046962700,2.888962646484375,-4.270463943481445,4.071396350860596,7.837279796600342
1757490700057005800,2.899005859375,-4.37061071395874,4.112410068511963,7.760284423828125
1757490700067043800,2.9090439453125,-4.544441223144531,4.14276123046875,7.64340877532959
1757490700077088500,2.919088623046875,-4.789206504821777,4.147137641906738,7.490055084228516
1757490700087129000,2.929129150390625,-4.987892150878906,4.162841320037842,7.350359916687012
1757490700097170200,2.939170166015625,-5.15640115737915,4.217262268066406,7.201554298400879
1757490700107210000,2.9492099609375,-5.37350606918335,4.295033931732178,6.9938740730285645
1757490700117250800,2.959250732421875,-5.774434566497803,4.219182014465332,6.7149505615234375
1757490700127288000,2.9692880859375,-5.854903697967529,4.324404239654541,6.576910495758057
1757490700137332500,2.97933251953125,-5.874258041381836,4.470243453979492,6.461121559143066
1757490700147373800,2.989373779296875,-5.8016157150268555,4.649407863616943,6.400031566619873
1757490700157411000,2.9994111328125,-5.741915225982666,4.799856662750244,6.342550754547119
1757490700167451100,3.009451171875,-5.542407035827637,4.870223522186279,6.465198993682861
1757490700177492200,3.0194921875,-5.320507049560547,4.935442924499512,6.600734710693359
1757490700187533800,3.029533935546875,-5.09362268447876,4.982028961181641,6.743186950683594
1757490700197572600,3.039572509765625,-4.908472061157227,4.990286350250244,6.873140335083008
1757490700207613200,3.04961328125,-4.802887439727783,4.959982872009277,6.969001293182373
1757490700217657900,3.059657958984375,-4.775521755218506,4.913529396057129,7.020521640777588
1757490700227698700,3.06969873046875,-4.7268218994140625,4.830177307128906,7.110744476318359
1757490700237739000,3.079739013671875,-4.662002086639404,4.65589714050293,7.2680439949035645
1757490700247780000,3.089780029296875,-4.646735668182373,4.457958698272705,7.40071439743042
1757490700257816300,3.09981640625,-4.72442626953125,4.285126209259033,7.453431606292725
1757490700267861200,3.109861328125,-4.8604302406311035,4.16245698928833,7.4354777336120605
1757490700277898200,3.119898193359375,-5.018774032592773,4.129664421081543,7.348052501678467
1757490700287943000,3.12994287109375,-5.154409885406494,4.214981555938721,7.204315185546875
1757490700297983200,3.139983154296875,-5.234090805053711,4.3398518562316895,7.071502685546875
1757490700308023600,3.1500234375,-5.293380260467529,4.440256595611572,6.96422004699707
1757490700318061300,3.160061279296875,-5.318779468536377,4.6108808517456055,6.832752227783203
1757490700328105700,3.170105712890625,-5.400330543518066,4.591466426849365,6.781662940979004
1757490700338146000,3.18014599609375,-5.461690425872803,4.551286220550537,6.759573936462402
1757490700348183300,3.190183349609375,-5.418674468994141,4.494697570800781,6.8316755294799805
1757490700358227200,3.200227294921875,-5.187129974365234,4.318581581115723,7.118966579437256
1757490700368267800,3.210267822265625,-4.87689733505249,4.0128302574157715,7.50661039352417
1757490700378308900,3.220308837890625,-4.685945987701416,3.6669812202453613,7.799438953399658
1757490700388345900,3.230345947265625,-4.63792610168457,3.4000184535980225,7.94767951965332
1757490700398392600,3.240392578125,-4.691985607147217,3.196345090866089,8.000296592712402
1757490700408427300,3.25042724609375,-4.758435249328613,3.052842140197754,8.01707935333252
1757490700418445300,3.2604453125,-4.860297203063965,2.9816997051239014,7.9826741218566895
1757490700428509200,3.27050927734375,-4.981983661651611,2.956918954849243,7.916601657867432
1757490700438551300,3.28055126953125,-5.101768970489502,2.926438331604004,7.8513712882995605
1757490700448568000,3.290568115234375,-5.199571132659912,2.9161934852600098,7.790790557861328
1757490700458608400,3.3006083984375,-5.259618282318115,2.9320480823516846,7.744394302368164
1757490700468649200,3.310649169921875,-5.326465129852295,2.9918394088745117,7.675532341003418
1757490700478715400,3.32071533203125,-5.4074788093566895,3.078421115875244,7.584104061126709
1757490700488756000,3.330755859375,-5.517248630523682,3.166294574737549,7.4679765701293945
1757490700498796800,3.340796875,-5.684283256530762,3.2576959133148193,7.301539897918701
1757490700508836900,3.3508369140625,-5.9222731590271,3.3282358646392822,7.077122211456299
1757490700518874000,3.3608740234375,-6.172736167907715,3.347975969314575,6.850147724151611
1757490700528919000,3.3709189453125,-6.397902965545654,3.3337340354919434,6.6474928855896
1757490700538960100,3.380960205078125,-6.592693328857422,3.3321926593780518,6.4551496505737305
1757490700548999400,3.39099951171875,-6.823041915893555,3.366652727127075,6.192570686340332
1757490700559040500,3.40104052734375,-7.065825462341309,3.421766757965088,5.882325649261475
1757490700569082400,3.411082275390625,-7.311497211456299,3.4676144123077393,5.5456085205078125
1757490700579118600,3.42111865234375,-7.535120010375977,3.505314350128174,5.212567329406738
1757490700589163500,3.43116357421875,-7.764161109924316,3.4999940395355225,4.868669033050537
1757490700599204600,3.44120458984375,-8.23135757446289,2.9016032218933105,4.479018211364746
1757490700609243600,3.45124365234375,-8.368509292602539,2.846715211868286,4.254456520080566
1757490700619284700,3.46128466796875,-8.477112770080566,2.775339126586914,4.083154201507568
1757490700629325600,3.47132568359375,-8.469355583190918,2.838188886642456,4.055968761444092
1757490700639362300,3.4813623046875,-8.399994850158691,3.0063531398773193,4.078974723815918
1757490700649403600,3.491403564453125,-8.365621566772461,3.042766571044922,4.1223883628845215
1757490700659443200,3.501443115234375,-8.306904792785645,3.077453851699829,4.214353561401367
1757490700669485000,3.511485107421875,-8.231400489807129,3.10711932182312,4.338897228240967
1757490700679526100,3.521526123046875,-8.059025764465332,3.2103326320648193,4.580611228942871
1757490700689571800,3.53157177734375,-7.997064590454102,3.1842803955078125,4.705679893493652
1757490700699611000,3.54161083984375,-7.968824863433838,3.1239073276519775,4.793240070343018
1757490700709646600,3.551646484375,-7.971183776855469,3.041661500930786,4.841970920562744
1757490700719688200,3.561688232421875,-7.992929458618164,2.9472005367279053,4.8644890785217285
1757490700729732600,3.571732666015625,-8.032830238342285,2.830162525177002,4.868260860443115
1757490700739773200,3.581773193359375,-8.114907264709473,2.6645941734313965,4.825381755828857
1757490700749814000,3.59181396484375,-8.248054504394531,2.4272634983062744,4.723782062530518
1757490700759854300,3.601854248046875,-8.411669731140137,2.1937453746795654,4.54614782333374
1757490700769891600,3.6118916015625,-8.538668632507324,2.020662307739258,4.3868231773376465
1757490700779936000,3.62193603515625,-8.646684646606445,1.858399748802185,4.2446794509887695
1757490700789976800,3.631976806640625,-8.733973503112793,1.7017805576324463,4.130105972290039
1757490700800017700,3.642017578125,-8.783074378967285,1.5708732604980469,4.077507019042969
1757490700810057500,3.652057373046875,-8.78824520111084,1.457351565361023,4.1084089279174805
1757490700820098800,3.662098876953125,-8.77910327911377,1.348720908164978,4.164664268493652
1757490700830139100,3.67213916015625,-8.763543128967285,1.2566730976104736,4.22577428817749
1757490700840176000,3.682176025390625,-8.719220161437988,1.1779309511184692,4.3386430740356445
1757490700850221000,3.692220947265625,-8.722421646118164,1.0970665216445923,4.353379726409912
1757490700860261400,3.702261474609375,-8.707521438598633,0.9672052264213562,4.413589000701904
1757490700870302000,3.712302001953125,-8.694998741149902,0.7141661047935486,4.485876560211182
1757490700880342800,3.7223427734375,-8.658621788024902,0.6923948526382446,4.559054374694824
1757490700890384000,3.7323837890625,-8.63002872467041,0.6778143644332886,4.615117073059082
1757490700900420600,3.742420654296875,-8.61128044128418,0.6569591164588928,4.6529998779296875
1757490700910459600,3.752459716796875,-8.602907180786133,0.6293367147445679,4.672262191772461
1757490700920501800,3.762501708984375,-8.645465850830078,0.5671458840370178,4.601128578186035
1757490700930520800,3.772520751953125,-8.741157531738281,0.5005140900611877,4.424684047698975
1757490700940585000,3.7825849609375,-8.89531421661377,0.4361341893672943,4.113309383392334
1757490700950623000,3.792623046875,-9.081772804260254,0.41620293259620667,3.685687780380249
1757490700960663800,3.802663818359375,-9.227174758911133,0.38092565536499023,3.3091249465942383
1757490700970706700,3.812706787109375,-9.302555084228516,0.39390331506729126,3.089242696762085
1757490700980747500,3.82274755859375,-9.314539909362793,0.4643319547176361,3.0429999828338623
1757490700990785500,3.83278564453125,-9.302773475646973,0.5282111167907715,3.068488597869873
1757490701000826400,3.842826416015625,-9.252124786376953,0.5958988070487976,3.2061290740966797
1757490701010865700,3.85286572265625,-9.169109344482422,0.6554261445999146,3.425494432449341
1757490701020910300,3.862910400390625,-9.0230712890625,0.750101625919342,3.7759220600128174
1757490701030943500,3.872943603515625,-8.840824127197266,0.8592163920402527,4.163857936859131
1757490701040994600,3.88299462890625,-8.67760944366455,0.9374592900276184,4.478438854217529
1757490701051032800,3.89303271484375,-8.56406307220459,0.9748452305793762,4.684296131134033
1757490701061070800,3.90307080078125,-8.274574279785156,1.3308061361312866,5.098672866821289
1757490701071117000,3.913116943359375,-8.29440689086914,1.320959448814392,5.0689311027526855
1757490701081217000,3.923217041015625,-8.270268440246582,1.4786182641983032,5.064826965332031
1757490701091195400,3.9331953125,-8.340709686279297,1.413786768913269,4.966878890991211
1757490701101238000,3.943238037109375,-8.45545482635498,1.3027517795562744,4.800451278686523
1757490701111277800,3.95327783203125,-8.596200942993164,1.1697354316711426,4.579651832580566
1757490701121319400,3.9633193359375,-8.743833541870117,1.003583550453186,4.332932472229004
1757490701131359200,3.973359130859375,-8.84343433380127,0.8512160778045654,4.1599626541137695
1757490701141405200,3.9834052734375,-8.875981330871582,0.7340115308761597,4.112699031829834
1757490701151437300,3.993437255859375,-8.837685585021973,0.6405762434005737,4.209643840789795
1757490701161478100,4.00347802734375,-8.813499450683594,0.6284814476966858,4.261858940124512
1757490701171520500,4.0135205078125,-8.803811073303223,0.6466576457023621,4.279116630554199
1757490701181561900,4.023561767578125,-8.797294616699219,0.7830591797828674,4.2697272300720215
1757490701191604000,4.03360400390625,-8.790433883666992,0.851579487323761,4.270743370056152
1757490701201644300,4.043644287109375,-8.795876502990723,0.861824095249176,4.257454872131348
1757490701211684900,4.053684814453125,-8.819520950317383,0.8344401121139526,4.213770389556885
1757490701221721600,4.0637216796875,-8.867136001586914,0.7516606450080872,4.128562927246094
1757490701231766300,4.073766357421875,-8.910974502563477,0.6453031301498413,4.051454067230225
1757490701241807400,4.083807373046875,-8.935935974121094,0.5334093570709229,4.012561798095703
1757490701251848000,4.093847900390625,-8.939285278320312,0.4313809871673584,4.017366409301758
1757490701261888300,4.10388818359375,-8.935232162475586,0.35291850566864014,4.0340046882629395
1757490701271929300,4.113929443359375,-8.951713562011719,0.30874279141426086,4.000950813293457
1757490701281966000,4.123966064453125,-9.002067565917969,0.2950117886066437,3.8874008655548096
1757490701292010800,4.1340107421875,-9.055831909179688,0.29228976368904114,3.7606656551361084
1757490701302051300,4.14405126953125,-9.141469955444336,0.3095402121543884,3.5459511280059814
1757490701312092200,4.154092041015625,-9.204366683959961,0.3112165927886963,3.3791847229003906
1757490701322129000,4.16412890625,-9.246040344238281,0.29363709688186646,3.265066385269165
1757490701332173600,4.174173583984375,-9.28038215637207,0.2736341953277588,3.1679341793060303
1757490701342214700,4.184214599609375,-9.30356216430664,0.26155605912208557,3.1002304553985596
1757490701352251000,4.1942509765625,-9.3175048828125,0.255268394947052,3.058605432510376
1757490701362295000,4.204294921875,-9.327744483947754,0.29422736167907715,3.02370548248291
1757490701372336400,4.21433642578125,-9.335268020629883,0.2745051383972168,3.002262592315674
1757490701382377500,4.22437744140625,-9.349099159240723,0.16497686505317688,2.9670379161834717
1757490701392414000,4.2344140625,-9.35549259185791,0.1585656851530075,2.9471611976623535
1757490701402455000,4.244455078125,-9.363083839416504,0.15367858111858368,2.923214912414551
1757490701412494600,4.25449462890625,-9.36550235748291,0.14380496740341187,2.915959119796753
1757490701422538500,4.26453857421875,-9.355896949768066,0.1309596598148346,2.9472317695617676
1757490701432580000,4.274580078125,-9.3333101272583,0.13156308233737946,3.017971992492676
1757490701442621400,4.284621337890625,-9.336030960083008,0.1372326910495758,3.0092930793762207
1757490701452661800,4.294661865234375,-9.358001708984375,0.13789650797843933,2.940227746963501
1757490701462698200,4.3046982421875,-9.36320686340332,0.1359182447195053,2.923701524734497
1757490701472743400,4.314743408203125,-9.34765911102295,0.15459103882312775,2.97212815284729
1757490701482784000,4.324783935546875,-9.332691192626953,0.18466150760650635,3.017101764678955
1757490701492824600,4.334824462890625,-9.328235626220703,0.2137138396501541,3.0289390087127686
1757490701502865700,4.34486572265625,-9.336260795593262,0.24005204439163208,3.002124309539795
1757490701512905500,4.354905517578125,-9.34570598602295,0.279975950717926,2.969085931777954
1757490701522946800,4.36494677734375,-9.330052375793457,0.3394554555416107,3.0118203163146973
1757490701532983300,4.3749833984375,-9.28336238861084,0.425308495759964,3.1423606872558594
1757490701543028700,4.38502880859375,-9.20687198638916,0.580271303653717,3.3366103172302246
1757490701553069000,4.395069091796875,-9.116769790649414,0.7950700521469116,3.5338990688323975
1757490701563108900,4.40510888671875,-9.004054069519043,1.0491054058074951,3.749997854232788
1757490701573150200,4.415150146484375,-8.85378646850586,1.3087599277496338,4.01668643951416
1757490701583191300,4.42519140625,-8.665342330932617,1.533923625946045,4.3353190422058105
1757490701593231600,4.435231689453125,-8.46359920501709,1.7406394481658936,4.6447649002075195
1757490701603267800,4.445267822265625,-8.31396770477295,1.8971503973007202,4.849212646484375
1757490701613312500,4.4553125,-8.223302841186523,1.9868342876434326,4.9664812088012695
1757490701623354000,4.46535400390625,-8.17142105102539,2.031749725341797,5.033489227294922
1757490701633396200,4.475396240234375,-8.135972023010254,2.0669381618499756,5.076398849487305
1757490701643431400,4.485431396484375,-8.139398574829102,2.0675642490386963,5.070648193359375
1757490701653472000,4.495471923828125,-8.16405963897705,2.048650026321411,5.038583278656006
1757490701663513300,4.505513427734375,-8.207337379455566,2.0018153190612793,4.9868292808532715
1757490701673534000,4.515533935546875,-8.316144943237305,1.9039530754089355,4.8428144454956055
1757490701683597800,4.525597900390625,-8.51160717010498,1.7450751066207886,4.554484844207764
1757490701693634600,4.535634521484375,-8.733738899230957,1.524493932723999,4.199265956878662
1757490701703679000,4.545678955078125,-8.829743385314941,1.373366355895996,4.047916889190674
1757490701713719300,4.55571923828125,-8.870610237121582,1.2753006219863892,3.9902453422546387
1757490701723760600,4.5657607421875,-8.929404258728027,1.1846013069152832,3.885690689086914
1757490701733801000,4.575801025390625,-9.002535820007324,1.0906283855438232,3.7417898178100586
1757490701743842000,4.585842041015625,-9.07665729522705,0.997951328754425,3.585322380065918
1757490701753882600,4.595882568359375,-9.167533874511719,0.5431336760520935,3.449272394180298
1757490701763919600,4.605919677734375,-9.222463607788086,0.4957195222377777,3.30705189704895
1757490701773963800,4.6159638671875,-9.312315940856934,0.4629654586315155,3.05000901222229
1757490701784004600,4.626004638671875,-9.494293212890625,0.46329283714294434,2.424853563308716
1757490701794045700,4.636045654296875,-9.57408618927002,0.4303714632987976,2.094698905944824
1757490701804086500,4.64608642578125,-9.618490219116211,0.3964758813381195,1.8877403736114502
1757490701814127000,4.656127197265625,-9.638432502746582,0.3524489104747772,1.792363166809082
1757490701824168400,4.66616845703125,-9.637012481689453,0.30995193123817444,1.80778169631958
1757490701834204000,4.676203857421875,-9.621482849121094,0.2629413306713104,1.895796298980713
1757490701844249300,4.686249267578125,-9.599838256835938,0.20667393505573273,2.0091092586517334
1757490701854289700,4.69628955078125,-9.565625190734863,0.14865823090076447,2.170916795730591
1757490701864327200,4.7063271484375,-9.515979766845703,0.09853377193212509,2.3817076683044434
1757490701874371600,4.71637158203125,-9.453105926513672,0.04588478431105614,2.6216044425964355
1757490701884410000,4.72641015625,-9.354161262512207,-0.016978852450847626,2.9555962085723877
1757490701894448600,4.73644873046875,-9.26525592803955,-0.15636040270328522,3.2197489738464355
1757490701904489700,4.74648974609375,-9.122236251831055,-0.2289953976869583,3.601177453994751
1757490701914532000,4.756531982421875,-9.081411361694336,-0.19951899349689484,3.7046380043029785
1757490701924575500,4.766575439453125,-9.127579689025879,-0.18345245718955994,3.590228796005249
1757490701934615300,4.776615234375,-9.159432411193848,-0.17251932621002197,3.508730173110962
1757490701944656100,4.78665625,-9.161786079406738,-0.15556254982948303,3.503375768661499
1757490701954697000,4.796697021484375,-9.156351089477539,-0.14476872980594635,3.518012762069702
1757490701964737500,4.806737548828125,-9.148453712463379,-0.12184136360883713,3.539365291595459
1757490701974778000,4.816778076171875,-9.147019386291504,-0.08469004929065704,3.544151544570923
1757490701984819500,4.8268193359375,-9.160369873046875,-0.024180138483643532,3.5104329586029053
1757490701994859800,4.83685986328125,-9.19479751586914,0.0626939982175827,3.4187498092651367
1757490702004900600,4.846900634765625,-9.240161895751953,0.1842554211616516,3.2896289825439453
1757490702014941400,4.85694140625,-9.276073455810547,0.35561802983283997,3.17240309715271
1757490702024982300,4.866982177734375,-9.27836799621582,0.5844343304634094,3.1315202713012695
1757490702035022800,4.87702294921875,-9.239516258239746,0.8325175642967224,3.1897387504577637
1757490702045061400,4.887061279296875,-9.142537117004395,1.0364949703216553,3.4023213386535645
1757490702055101200,4.89710107421875,-8.994921684265137,1.20610773563385,3.7246243953704834
1757490702065140500,4.907140380859375,-8.855674743652344,1.344484567642212,4.000685691833496
1757490702075181300,4.917181396484375,-8.756841659545898,1.4641754627227783,4.172537803649902
1757490702085222100,4.92722216796875,-8.695341110229492,1.5857385396957397,4.255890846252441
1757490702095263500,4.937263427734375,-8.451192855834961,2.364551305770874,4.384334087371826
1757490702105310200,4.947310302734375,-8.387636184692383,2.5118300914764404,4.4242963790893555
1757490702115344000,4.95734375,-8.316136360168457,2.644589424133301,4.481528282165527
1757490702125390600,4.967390625,-8.268441200256348,2.6926238536834717,4.5407843589782715
1757490702135425300,4.97742529296875,-8.276058197021484,2.556544780731201,4.605116844177246
1757490702145467000,4.987466796875,-8.2606201171875,2.3599865436553955,4.735902786254883
1757490702155507200,4.997507080078125,-8.24140739440918,2.161386013031006,4.862484931945801
1757490702165549800,5.0075498046875,-8.201332092285156,2.005949020385742,4.995045185089111
1757490702175588400,5.01758837890625,-8.126957893371582,1.9282937049865723,5.144941806793213
1757490702185633500,5.027633544921875,-8.065592765808105,1.8540133237838745,5.267344951629639
1757490702195673600,5.037673583984375,-8.012595176696777,1.7826645374298096,5.371833801269531
1757490702205710800,5.0477109375,-7.954289436340332,1.7125943899154663,5.480188846588135
1757490702215754800,5.057754638671875,-7.863923072814941,1.6422086954116821,5.630093574523926
1757490702225795800,5.0677958984375,-7.755762577056885,1.5568222999572754,5.801775932312012
1757490702235832800,5.077832763671875,-7.703144550323486,1.446492314338684,5.899608612060547
1757490702245877500,5.08787744140625,-7.729296684265137,1.328101634979248,5.893238544464111
1757490702255918300,5.09791845703125,-7.972841262817383,1.15397047996521,5.598056793212891
1757490702265958400,5.10795849609375,-8.248153686523438,1.001060962677002,5.215548992156982
1757490702275995100,5.1179951171875,-8.416311264038086,0.8735144138336182,4.963748455047607
1757490702286040000,5.1280400390625,-8.415072441101074,0.7085394859313965,4.992069244384766
1757490702296080600,5.13808056640625,-8.35760498046875,0.5471298098564148,5.10756254196167
1757490702306118000,5.148117919921875,-8.330999374389648,0.35929298400878906,5.16735315322876
1757490702316162000,5.158162109375,-8.351204872131348,0.11326451599597931,5.145936965942383
1757490702326203100,5.168203125,-8.406042098999023,-0.13944046199321747,5.055215835571289
1757490702336243200,5.1782431640625,-8.44937801361084,-0.8127546906471252,4.917679309844971
1757490702346280400,5.188280517578125,-8.579124450683594,-1.1559444665908813,4.615034580230713
1757490702356326000,5.198325927734375,-8.674824714660645,-1.4157086610794067,4.356529235839844
1757490702366361900,5.20836181640625,-8.72806167602539,-1.5572060346603394,4.199069976806641
1757490702376406800,5.21840673828125,-8.762225151062012,-1.626776099205017,4.100375652313232
1757490702386443500,5.228443603515625,-8.788753509521484,-1.671339988708496,4.024991989135742
1757490702396484400,5.238484375,-8.733370780944824,-1.643067717552185,4.155079364776611
1757490702406528000,5.248528076171875,-8.759306907653809,-1.675501823425293,4.086976051330566
1757490702416566500,5.25856640625,-8.793015480041504,-1.7291433811187744,3.991123676300049
1757490702426610000,5.26860986328125,-8.799201965332031,-1.8254776000976562,3.9341864585876465
1757490702436646400,5.278646484375,-8.8524751663208,-1.8487204313278198,3.8015880584716797
1757490702446691600,5.288691650390625,-8.821694374084473,-2.044769763946533,3.772637128829956
1757490702456732200,5.298732177734375,-8.893546104431152,-2.0029873847961426,3.6234006881713867
1757490702466773000,5.30877294921875,-8.965534210205078,-1.9390721321105957,3.477829933166504
1757490702476813600,5.3188134765625,-9.051576614379883,-1.8533381223678589,3.2970032691955566
1757490702486854400,5.3288544921875,-9.18564510345459,-1.7097227573394775,2.9894630908966064
1757490702496891400,5.338891357421875,-9.221850395202637,-1.639958381652832,2.9161911010742188
1757490702506932200,5.34893212890625,-9.255145072937012,-1.5639793872833252,2.8517377376556396
1757490702516976000,5.35897607421875,-9.287726402282715,-1.4862967729568481,2.786606550216675
1757490702527017000,5.369016845703125,-9.32891845703125,-1.3903456926345825,2.697105884552002
1757490702537057800,5.379057861328125,-9.374434471130371,-1.282048225402832,2.590845823287964
1757490702547099100,5.38909912109375,-9.41569995880127,-1.1765302419662476,2.4892759323120117
1757490702557135600,5.399135498046875,-9.435928344726562,-1.0780833959579468,2.457057237625122
1757490702567180000,5.409179931640625,-9.436909675598145,-0.9868770837783813,2.4913787841796875
1757490702577216800,5.419216796875,-9.440912246704102,-0.8689403533935547,2.5199685096740723
1757490702587261200,5.42926123046875,-9.42717170715332,-0.7536645531654358,2.607017993927002
1757490702597302000,5.439302001953125,-9.413675308227539,-0.6116736531257629,2.691605567932129
1757490702607343600,5.449343505859375,-9.371550559997559,-0.4780268669128418,2.8603591918945312
1757490702617384200,5.45938427734375,-9.281444549560547,-0.4019588232040405,3.1510891914367676
1757490702627420700,5.469420654296875,-9.186098098754883,-0.2958061099052429,3.4299097061157227
1757490702637461200,5.479461181640625,-9.056790351867676,-0.26817524433135986,3.760150194168091
1757490702647503000,5.489503173828125,-8.927700996398926,-0.2395336776971817,4.058933734893799
1757490702657544700,5.499544677734375,-8.804112434387207,-0.2258889079093933,4.321192741394043
1757490702667586800,5.5095869140625,-8.702860832214355,-0.22613683342933655,4.521639823913574
1757490702677627600,5.519627685546875,-8.707324028015137,-0.21174639463424683,4.513737201690674
1757490702687664600,5.52966455078125,-8.791942596435547,-0.1800943911075592,4.3480353355407715
1757490702697709600,5.53970947265625,-8.811040878295898,-0.1104460135102272,4.311554908752441
1757490702707750000,5.54975,-8.436838150024414,0.4154074192047119,4.988311767578125
1757490702717790500,5.55979052734375,-8.380051612854004,0.5001056790351868,5.075503826141357
1757490702727831300,5.569831298828125,-8.383255958557129,0.5724364519119263,5.06255578994751
1757490702737872000,5.579871826171875,-8.417601585388184,0.5671371221542358,5.005838871002197
1757490702747912700,5.58991259765625,-8.411894798278809,0.5511804819107056,5.017205715179443
1757490702757949400,5.599949462890625,-8.296168327331543,0.46209201216697693,5.215000152587891
1757490702767994400,5.609994384765625,-8.275580406188965,0.4515579640865326,5.248518943786621
1757490702778035000,5.620034912109375,-8.248604774475098,0.4409990608692169,5.291707992553711
1757490702788075500,5.630075439453125,-8.221477508544922,0.437753289937973,5.3340277671813965
1757490702798116600,5.64011669921875,-8.196187019348145,0.4595212936401367,5.370985984802246
1757490702818194000,5.66019384765625,-8.166634559631348,0.4595414698123932,5.415817737579346
1757490702828238600,5.670238525390625,-8.143692970275879,0.4689905643463135,5.449444770812988
1757490702838279400,5.680279541015625,-8.113510131835938,0.4843982756137848,5.492941379547119
1757490702848320500,5.690320556640625,-8.076931953430176,0.49778518080711365,5.545402526855469
1757490702858361300,5.700361328125,-8.032556533813477,0.5064446330070496,5.608717918395996
1757490702868406300,5.71040625,-7.998170852661133,0.5075637698173523,5.657540798187256
1757490702878439000,5.72043896484375,-8.002379417419434,0.5017814636230469,5.652101993560791
1757490702888479200,5.730479248046875,-8.033656120300293,0.4880320429801941,5.608774662017822
1757490702898523000,5.74052294921875,-8.0819730758667,0.4741913676261902,5.540128231048584
1757490702908572200,5.750572265625,-8.133301734924316,0.4619084298610687,5.465544700622559
1757490702918605000,5.76060498046875,-8.183003425598145,0.4517151117324829,5.391711235046387
1757490702928646100,5.770646240234375,-8.225226402282715,0.4381919801235199,5.32820987701416
1757490702938686500,5.7806865234375,-8.27488899230957,0.43124300241470337,5.251316547393799
1757490702948724200,5.79072412109375,-8.320795059204102,0.42596983909606934,5.178711414337158
1757490702958768000,5.80076806640625,-8.357871055603027,0.41976359486579895,5.119172096252441
1757490702968808700,5.81080859375,-8.376222610473633,0.41095197200775146,5.089810848236084
1757490702978849500,5.820849609375,-8.373332023620605,0.3979170620441437,5.095598220825195
1757490702988889900,5.830889892578125,-8.355801582336426,0.3804612457752228,5.125619411468506
1757490702998931200,5.84093115234375,-8.339723587036133,0.366811066865921,5.152720928192139
1757490703008967700,5.8509677734375,-8.33205509185791,0.36038848757743835,5.165574550628662
1757490703019012600,5.8610126953125,-8.354269981384277,0.38609254360198975,5.1276936531066895
1757490703029053400,5.871053466796875,-8.390131950378418,0.38375160098075867,5.068981647491455
1757490703039094300,5.88109423828125,-8.40629768371582,0.3457220494747162,5.0448808670043945
1757490703049134800,5.891134765625,-8.413564682006836,0.3006971776485443,5.035638332366943
1757490703059176000,5.901176025390625,-8.424436569213867,0.2542346119880676,5.019991397857666
1757490703069216300,5.91121630859375,-8.395009994506836,0.2374943196773529,5.0698699951171875
1757490703079253000,5.9212529296875,-8.359776496887207,0.24025362730026245,5.127621173858643
1757490703089297400,5.93129736328125,-8.225739479064941,0.284908652305603,5.337810039520264
1757490703099339000,5.941339111328125,-8.036051750183105,0.3400024473667145,5.616264820098877
1757490703109379300,5.95137939453125,-7.962397575378418,0.3365534543991089,5.7204084396362305
1757490703119417300,5.961417236328125,-7.974296569824219,0.30675020813941956,5.70548677444458
1757490703129456600,5.97145654296875,-8.029363632202148,0.13347381353378296,5.634507179260254
1757490703139497500,5.98149755859375,-8.096423149108887,0.1338842809200287,5.537703037261963
1757490703149539300,5.991539306640625,-8.174215316772461,0.1382366567850113,5.422098636627197
1757490703159580000,6.001579833984375,-8.24079704284668,0.13952656090259552,5.32033109664917
1757490703169623000,6.011623046875,-8.282596588134766,0.13855504989624023,5.255052089691162
1757490703179659800,6.02165966796875,-8.306971549987793,0.14671453833580017,5.216212272644043
1757490703189704700,6.03170458984375,-8.31490421295166,0.2743750512599945,5.198388576507568
1757490703199741400,6.041741455078125,-8.314805030822754,0.292646586894989,5.19754695892334
1757490703209786400,6.051786376953125,-8.31399917602539,0.30770331621170044,5.197970390319824
1757490703219827000,6.061826904296875,-8.316201210021973,0.32297229766845703,5.1935133934021
1757490703229867800,6.07186767578125,-8.326742172241211,0.3392086923122406,5.175560474395752
1757490703239908000,6.081908203125,-8.347668647766113,0.3540927767753601,5.140735626220703
1757490703249945300,6.0919453125,-8.37371826171875,0.3694741725921631,5.097102165222168
1757490703259989800,6.10198974609375,-8.403692245483398,0.38585135340690613,5.046311855316162
1757490703270026500,6.112026611328125,-8.433175086975098,0.40340790152549744,4.9954938888549805
1757490703280071700,6.12207177734375,-8.460527420043945,0.41527876257896423,4.948044300079346
1757490703290112000,6.132112060546875,-8.494871139526367,0.4201008379459381,4.88844108581543
1757490703300153000,6.142153076171875,-8.533975601196289,0.4183667004108429,4.819994926452637
1757490703310194000,6.15219384765625,-8.573067665100098,0.4141031801700592,4.750486373901367
1757490703320230100,6.162230224609375,-8.61169147491455,0.407216340303421,4.680713176727295
1757490703330271200,6.172271240234375,-8.646045684814453,0.3987719416618347,4.617683410644531
1757490703340316000,6.18231591796875,-8.672995567321777,0.3934808075428009,4.567318916320801
1757490703350356500,6.1923564453125,-8.696098327636719,0.38348716497421265,4.524046421051025
1757490703360401400,6.2024013671875,-8.714394569396973,0.3749622106552124,4.489418029785156
1757490703370434000,6.21243408203125,-8.725947380065918,0.3718361556529999,4.467181205749512
1757490703380474400,6.222474365234375,-8.734418869018555,0.3723853528499603,4.450547695159912
1757490703390516000,6.232515869140625,-8.741716384887695,0.3706175982952118,4.436340808868408
1757490703400556800,6.242556884765625,-8.746622085571289,0.3645208477973938,4.4271745681762695
1757490703410607000,6.252607177734375,-8.752396583557129,0.35909053683280945,4.416196823120117
1757490703420640300,6.26264013671875,-8.760074615478516,0.35550108551979065,4.401230335235596
1757490703430654700,6.27265478515625,-8.771538734436035,0.35158708691596985,4.378655433654785
1757490703440720600,6.282720703125,-8.783327102661133,0.3492751121520996,4.3551483154296875
1757490703450760700,6.2927607421875,-8.787177085876465,0.34498777985572815,4.347722053527832
1757490703460799700,6.3027998046875,-8.7918062210083,0.3512163758277893,4.33784294128418
1757490703470840800,6.3128408203125,-8.794201850891113,0.3526831567287445,4.332878112792969
1757490703480881700,6.322881591796875,-8.799016952514648,0.356148362159729,4.322799205780029
1757490703490926600,6.332926513671875,-8.801060676574707,0.3553718626499176,4.31869649887085
1757490703500967400,6.342967529296875,-8.799880981445312,0.3491520285606384,4.321619510650635
1757490703511005000,6.3530048828125,-8.796977043151855,0.34183481335639954,4.328105926513672
1757490703521045500,6.36304541015625,-8.790787696838379,0.3341093361377716,4.341268539428711
1757490703531087000,6.373087158203125,-8.779053688049316,0.32495975494384766,4.365630626678467
1757490703541197000,6.383197021484375,-8.76261043548584,0.3165447413921356,4.399155139923096
1757490703551190800,6.393190673828125,-8.749483108520508,0.30680370330810547,4.425887584686279
1757490703561210600,6.403210693359375,-8.73958969116211,0.29763248562812805,4.446022987365723
1757490703571252500,6.41325244140625,-8.734745025634766,0.29399919509887695,4.455780982971191
1757490703581293300,6.423293212890625,-8.746651649475098,0.30063459277153015,4.431906223297119
1757490703591330600,6.43333056640625,-8.757852554321289,0.3035930097103119,4.409531116485596
1757490703601375700,6.443375732421875,-8.762248039245605,0.3029473125934601,4.400842189788818
1757490703611413200,6.453413330078125,-8.75146770477295,0.2971816658973694,4.422621250152588
1757490703621451800,6.46345166015625,-8.717940330505371,0.28361058235168457,4.489232063293457
1757490703631471900,6.473471923828125,-8.64877700805664,0.02951645292341709,4.629680156707764
1757490703641512200,6.48351220703125,-8.583244323730469,-0.015366483479738235,4.750138282775879
1757490703651552300,6.49355224609375,-8.535774230957031,-0.047740764915943146,4.834705829620361
1757490703661593000,6.503593017578125,-8.514467239379883,-0.0823378637433052,4.871669292449951
1757490703671657500,6.513657470703125,-8.538080215454102,-0.08111462742090225,4.8301873207092285
1757490703681700400,6.523700439453125,-8.574451446533203,-0.03661468252539635,4.7658796310424805
1757490703691737600,6.533737548828125,-8.685057640075684,0.17228500545024872,4.558088779449463
1757490703701782300,6.5437822265625,-8.692792892456055,0.15383030474185944,4.543984889984131
1757490703711822600,6.553822509765625,-8.695123672485352,0.12922683358192444,4.540295124053955
1757490703721859300,6.563859375,-8.691997528076172,0.10830987989902496,4.546818256378174
1757490703731903700,6.57390380859375,-8.680728912353516,0.08840186148881912,4.568722724914551
1757490703741945000,6.583945068359375,-8.671015739440918,0.07936499267816544,4.587302207946777
1757490703751986200,6.593986083984375,-8.655067443847656,0.0807257890701294,4.617293834686279
1757490703762021400,6.604021484375,-8.634134292602539,0.09330782294273376,4.6560893058776855
1757490703772066800,6.61406689453125,-8.6456880569458,0.19576945900917053,4.631397724151611
1757490703782108400,6.6241083984375,-8.683112144470215,0.3446112275123596,4.552023887634277
1757490703792148500,6.6341484375,-8.633172035217285,0.3655402958393097,4.644449234008789
1757490703802189600,6.644189453125,-8.581326484680176,0.33146682381629944,4.742055416107178
1757490703812230400,6.65423046875,-8.54102611541748,0.31574204564094543,4.8153181076049805
1757490703822270500,6.6642705078125,-8.514388084411621,0.33621886372566223,4.86088752746582
1757490703832311300,6.674311279296875,-8.466504096984863,0.35456568002700806,4.942546367645264
1757490703842348300,6.684348388671875,-8.444647789001465,0.37764930725097656,4.978097915649414
1757490703852395800,6.694395751953125,-8.423646926879883,0.3899392783641815,5.012604236602783
1757490703862430000,6.704429931640625,-8.399715423583984,0.40867361426353455,5.0511250495910645
1757490703872470300,6.71447021484375,-8.376379013061523,0.42739391326904297,5.088191509246826
1757490703882513400,6.724513427734375,-8.349370956420898,0.44984444975852966,5.130473613739014
1757490703892553700,6.7345537109375,-8.313925743103027,0.4523352086544037,5.187499046325684
1757490703902600400,6.744600341796875,-8.285696983337402,0.46302875876426697,5.2315354347229
1757490703912637700,6.7546376953125,-8.26845645904541,0.47812217473983765,5.257394313812256
1757490703922674000,6.764673828125,-8.254077911376953,0.4836015999317169,5.279431343078613
1757490703932718600,6.774718505859375,-8.246393203735352,0.4836365282535553,5.291426181793213
1757490703942759400,6.784759521484375,-8.242791175842285,0.4817015528678894,5.297219276428223
1757490703952800300,6.79480029296875,-8.24614429473877,0.47905054688453674,5.29223108291626
1757490703962841000,6.804841064453125,-8.258027076721191,0.4831567704677582,5.273298263549805
1757490703972877300,6.814877197265625,-8.272143363952637,0.4884037673473358,5.250646591186523
1757490703982922500,6.824922607421875,-8.284384727478027,0.5020697116851807,5.230009078979492
1757490703992959500,6.83495947265625,-8.282305717468262,0.5252265930175781,5.231027603149414
1757490704003004000,6.84500390625,-8.27048110961914,0.5538944602012634,5.246758460998535
1757490704013044700,6.855044677734375,-8.250231742858887,0.588229775428772,5.2748284339904785
1757490704023085300,6.865085205078125,-8.229677200317383,0.6300548911094666,5.302037715911865
1757490704033125600,6.875125732421875,-8.21361255645752,0.6773623824119568,5.321079730987549
1757490704043163000,6.885162841796875,-8.198122024536133,0.7282202839851379,5.338220596313477
1757490704053207600,6.89520751953125,-8.189117431640625,0.7838825583457947,5.344157695770264
1757490704063244500,6.90524462890625,-8.182574272155762,0.8461156487464905,5.3446879386901855
1757490704073288400,6.915288330078125,-8.173365592956543,0.9035129547119141,5.3493828773498535
1757490704083330300,6.925330322265625,-8.175257682800293,0.946445107460022,5.3390583992004395
1757490704093371000,6.935370849609375,-8.173365592956543,0.9911807179450989,5.333833694458008
1757490704103410200,6.94541015625,-8.163948059082031,1.0197343826293945,5.342860698699951
1757490704113448400,6.955448486328125,-8.18045425415039,1.0301313400268555,5.315560340881348
1757490704123489500,6.965489501953125,-8.192408561706543,1.0454274415969849,5.2941131591796875
1757490704133529600,6.975529541015625,-8.193931579589844,1.0344078540802002,5.293927192687988
1757490704143574800,6.98557470703125,-8.216876983642578,1.021327018737793,5.2607951164245605
1757490704153615400,6.995615478515625,-8.239755630493164,1.0087021589279175,5.22733736038208
1757490704163651600,7.005651611328125,-8.257563591003418,1.0045353174209595,5.199973106384277
1757490704173696000,7.015696044921875,-8.275883674621582,1.028884768486023,5.16596794128418
1757490704183737000,7.025737060546875,-8.289280891418457,1.053112268447876,5.139542579650879
1757490704193777200,7.035777099609375,-8.303730010986328,1.0850969552993774,5.109480857849121
1757490704203814400,7.045814453125,-8.32060432434082,1.1201646327972412,5.074337959289551
1757490704213858800,7.05585888671875,-8.332901954650879,1.1533632278442383,5.046644687652588
1757490704223900000,7.06589990234375,-8.345111846923828,1.1813472509384155,5.019920349121094
1757490704233936100,7.07593603515625,-8.357223510742188,1.207499384880066,4.9934844970703125
1757490704243980800,7.085980712890625,-8.36456298828125,1.2353260517120361,4.974348545074463
1757490704254022100,7.096022216796875,-8.377888679504395,1.2654794454574585,4.9442548751831055
1757490704264063200,7.106063232421875,-8.39627456665039,1.297513723373413,4.904604434967041
1757490704274103300,7.116103271484375,-8.400238037109375,1.3799375295639038,4.875232219696045
1757490704284144000,7.12614404296875,-8.394329071044922,1.4677724838256836,4.859736919403076
1757490704294181000,7.13618115234375,-8.39303207397461,1.503141164779663,4.851156234741211
1757490704304225800,7.146225830078125,-8.387290000915527,1.5316089391708374,4.852185249328613
1757490704314267100,7.15626708984375,-8.39195728302002,1.5506139993667603,4.838052749633789
1757490704324307200,7.16630712890625,-8.395441055297852,1.5655386447906494,4.8271894454956055
1757490704334347500,7.176347412109375,-8.398844718933105,1.5785200595855713,4.8170390129089355
1757490704344390000,7.186389892578125,-8.401469230651855,1.591239094734192,4.808262825012207
1757490704354425900,7.19642578125,-8.402667045593262,1.6038269996643066,4.801987648010254
1757490704364466200,7.206466064453125,-8.400457382202148,1.61598801612854,4.801773548126221
1757490704374508800,7.2165087890625,-8.39564037322998,1.6269450187683105,4.806495189666748
1757490704384548900,7.226548828125,-8.391925811767578,1.6360995769500732,4.809878349304199
1757490704394592800,7.2365927734375,-8.389344215393066,1.6453323364257812,4.811224937438965
1757490704404633600,7.246633544921875,-8.388289451599121,1.6533188819885254,4.810330867767334
1757490704414673700,7.256673583984375,-8.386759757995605,1.6587454080581665,4.811126232147217
1757490704424714800,7.26671484375,-8.383901596069336,1.6615208387374878,4.815149784088135
1757490704434751200,7.276751220703125,-8.380615234375,1.6622705459594727,4.820608139038086
1757490704444796200,7.286796142578125,-8.376453399658203,1.6621865034103394,4.827864170074463
1757490704454837000,7.2968369140625,-8.372673988342285,1.6620458364486694,4.834468364715576
1757490704464877300,7.306877197265625,-8.370388984680176,1.6615632772445679,4.838585376739502
1757490704474918400,7.31691845703125,-8.369434356689453,1.6606773138046265,4.840545177459717
1757490704484954400,7.326954345703125,-8.369041442871094,1.6590874195098877,4.841770172119141
1757490704494999800,7.336999755859375,-8.368927955627441,1.656286358833313,4.84291934967041
1757490704505041700,7.347041748046875,-8.368715286254883,1.652961254119873,4.844421863555908
1757490704515079700,7.35707958984375,-8.36906909942627,1.649431586265564,4.845022201538086
1757490704525117700,7.36711767578125,-8.369819641113281,1.6458027362823486,4.844953536987305
1757490704535158500,7.377158447265625,-8.37108039855957,1.6420917510986328,4.844034671783447
1757490704545199000,7.38719921875,-8.371767044067383,1.6391180753707886,4.8438591957092285
1757490704555241700,7.39724169921875,-8.371926307678223,1.6361521482467651,4.844579696655273
1757490704565282300,7.4072822265625,-8.372535705566406,1.632969856262207,4.844603538513184
1757490704575325400,7.417325439453125,-8.37376880645752,1.6286041736602783,4.84393835067749
1757490704585367600,7.427367431640625,-8.375493049621582,1.6218106746673584,4.84323787689209
1757490704595408100,7.437408203125,-8.378665924072266,1.616227626800537,4.8396220207214355
1757490704605444000,7.447444091796875,-8.382688522338867,1.611843228340149,4.8341145515441895
1757490704615484400,7.457484375,-8.388683319091797,1.6054201126098633,4.8258466720581055
1757490704625527800,7.46752783203125,-8.395584106445312,1.6008645296096802,4.815345287322998
1757490704635579000,7.477578857421875,-8.399897575378418,1.5971869230270386,4.809035301208496
1757490704645610800,7.48761083984375,-8.403411865234375,1.592268466949463,4.8045268058776855
1757490704655651000,7.497651123046875,-8.405128479003906,1.5882922410964966,4.802847385406494
1757490704665688000,7.50768798828125,-8.405341148376465,1.5833534002304077,4.8040995597839355
1757490704675728600,7.517728759765625,-8.405069351196289,1.577378749847412,4.806545734405518
1757490704685774000,7.527774169921875,-8.404914855957031,1.5727649927139282,4.80832052230835
1757490704695814100,7.537814208984375,-8.405108451843262,1.5692722797393799,4.809126853942871
1757490704705854700,7.547854736328125,-8.405131340026855,1.5638513565063477,4.8108439445495605
1757490704715896000,7.55789599609375,-8.406563758850098,1.557935118675232,4.810269355773926
1757490704725936400,7.567936279296875,-8.409224510192871,1.5503668785095215,4.808056831359863
1757490704735973400,7.577973388671875,-8.411798477172852,1.5427227020263672,4.806017875671387
1757490704746018000,7.58801806640625,-8.412943840026855,1.5368331670761108,4.805894374847412
1757490704756058600,7.59805859375,-8.411870002746582,1.5311880111694336,4.809574604034424
1757490704766099200,7.60809912109375,-8.410502433776855,1.5240072011947632,4.814250946044922
1757490704776139800,7.618139892578125,-8.409321784973145,1.5162242650985718,4.818760871887207
1757490704786180900,7.628180908203125,-8.407052040100098,1.5078866481781006,4.825343132019043
1757490704796217600,7.638217529296875,-8.403436660766602,1.500982403755188,4.833780288696289
1757490704806258400,7.648258544921875,-8.400412559509277,1.4917919635772705,4.841878890991211
1757490704816302800,7.658302734375,-8.398850440979004,1.4791406393051147,4.8484578132629395
1757490704826343700,7.66834375,-8.397497177124023,1.4654924869537354,4.854947566986084
1757490704836385300,7.67838525390625,-8.394980430603027,1.4516881704330444,4.863436222076416
1757490704846422500,7.688422607421875,-8.392168998718262,1.4376368522644043,4.872460842132568
1757490704856461800,7.6984619140625,-8.38731575012207,1.4287729263305664,4.88340425491333
1757490704866503200,7.708503173828125,-8.383819580078125,1.4163973331451416,4.893002986907959
1757490704876543200,7.718543212890625,-8.381410598754883,1.4010882377624512,4.901532173156738
1757490704886588000,7.728587890625,-8.378399848937988,1.3846185207366943,4.911350250244141
1757490704896628200,7.738628173828125,-8.373479843139648,1.36832594871521,4.924295902252197
1757490704906669300,7.74866943359375,-8.366986274719238,1.3521053791046143,4.939779281616211
1757490704916710000,7.7587099609375,-8.358717918395996,1.3354954719543457,4.9582648277282715
1757490704926747000,7.768746826171875,-8.34981918334961,1.32460618019104,4.976152420043945
1757490704936791300,7.778791259765625,-8.293750762939453,1.0796023607254028,5.126821994781494
1757490704946828000,7.788828125,-8.277559280395508,1.0589226484298706,5.157215595245361
1757490704956873000,7.798873046875,-8.259064674377441,1.0537227392196655,5.187839984893799
1757490704966913500,7.80891357421875,-8.238109588623047,1.0524132251739502,5.221316337585449
1757490704976954600,7.81895458984375,-8.22111701965332,1.0471599102020264,5.249080181121826
1757490704986995200,7.8289951171875,-8.209548950195312,1.0418205261230469,5.268209457397461
1757490704997031700,7.83903173828125,-8.201061248779297,1.0401843786239624,5.281738758087158
1757490705007076400,7.849076416015625,-8.19334888458252,1.0447332859039307,5.292794704437256
1757490705017117200,7.8591171875,-8.183320045471191,1.0537372827529907,5.306514263153076
1757490705027158000,7.869157958984375,-8.177801132202148,1.0580143928527832,5.3141632080078125
1757490705037195500,7.879195556640625,-8.172595024108887,1.0654969215393066,5.320673942565918
1757490705047239200,7.8892392578125,-8.16386604309082,1.0767805576324463,5.331783294677734
1757490705057276200,7.899276123046875,-8.15395736694336,1.0949732065200806,5.343235015869141
1757490705067321000,7.909321044921875,-8.138938903808594,1.1134248971939087,5.362287521362305
1757490705077362200,7.919362060546875,-8.123642921447754,1.1320253610610962,5.381553649902344
1757490705087406800,7.92940673828125,-8.110861778259277,1.1465327739715576,5.3977274894714355
1757490705097439000,7.93943896484375,-8.103781700134277,1.1595432758331299,5.405579566955566
1757490705107480000,7.94947998046875,-8.09755802154541,1.173641324043274,5.411862850189209
1757490705117522000,7.95952197265625,-8.09191608428955,1.1887140274047852,5.4170122146606445
1757490705127571500,7.969571533203125,-8.087555885314941,1.2023929357528687,5.420505523681641
1757490705137605600,7.979605712890625,-8.082948684692383,1.2135528326034546,5.424886703491211
1757490705147646500,7.989646484375,-8.076923370361328,1.22304105758667,5.431723117828369
1757490705167728000,8.00972802734375,-8.060224533081055,1.2396347522735596,5.452725887298584
1757490705177764600,8.0197646484375,-8.052356719970703,1.246854305267334,5.4626922607421875
1757490705187805400,8.029805419921875,-8.04649829864502,1.2526212930679321,5.470000267028809
1757490705197850400,8.039850341796875,-8.04165267944336,1.2567112445831299,5.476186275482178
1757490705207890700,8.049890625,-8.036913871765137,1.2585493326187134,5.482720851898193
1757490705217931500,8.059931640625,-8.032702445983887,1.257678508758545,5.48908805847168
1757490705227972400,8.069972412109376,-8.029403686523438,1.2542587518692017,5.494688510894775
1757490705238013000,8.080012939453125,-8.026338577270508,1.2496765851974487,5.500212669372559
1757490705248049400,8.09004931640625,-8.022537231445312,1.2454174757003784,5.5067219734191895
1757490705258094800,8.1000947265625,-8.01766586303711,1.2413280010223389,5.514729022979736
1757490705268135200,8.11013525390625,-8.013489723205566,1.2382720708847046,5.521486282348633
1757490705278176000,8.120176025390625,-8.0095853805542,1.2359497547149658,5.527666091918945
1757490705288216600,8.130216552734375,-8.005789756774902,1.2340446710586548,5.533589839935303
1757490705298257700,8.140257568359376,-8.002387046813965,1.2324079275131226,5.538868427276611
1757490705308298500,8.150298583984375,-7.998905181884766,1.230096697807312,5.544413089752197
1757490705318335200,8.160335205078125,-7.9953460693359375,1.2264208793640137,5.55035400390625
1757490705328380000,8.1703798828125,-7.991629600524902,1.221921682357788,5.556699275970459
1757490705338419700,8.180419677734376,-7.9873046875,1.2179070711135864,5.563793182373047
1757490705348456400,8.19045654296875,-7.981883525848389,1.2150121927261353,5.572203636169434
1757490705358498600,8.20049853515625,-7.975414752960205,1.2131627798080444,5.581856727600098
1757490705368541000,8.210541015625,-7.970665454864502,1.2124601602554321,5.588788986206055
1757490705378579200,8.2205791015625,-7.964523792266846,1.2117303609848022,5.597701072692871
1757490705388624000,8.230623779296875,-7.959612846374512,1.2103393077850342,5.604979991912842
1757490705398664400,8.24066455078125,-7.955460071563721,1.2079386711120605,5.611385345458984
1757490705408701400,8.250701416015625,-7.951160430908203,1.205028772354126,5.618104457855225
1757490705418745900,8.260745849609375,-7.948252201080322,1.2019786834716797,5.622875690460205
1757490705428786700,8.27078662109375,-7.942104339599609,1.2002016305923462,5.6319260597229
1757490705438823700,8.28082373046875,-7.9356465339660645,1.199328899383545,5.641212463378906
1757490705448868400,8.290868408203124,-7.92981481552124,1.198446273803711,5.649596214294434
1757490705458909000,8.300908935546875,-7.9241509437561035,1.1975317001342773,5.657726287841797
1757490705468949500,8.310949462890624,-7.918095111846924,1.1964776515960693,5.666423320770264
1757490705478986200,8.320986328125,-7.911290168762207,1.1954710483551025,5.67612886428833
1757490705489031200,8.33103125,-7.903839588165283,1.194622278213501,5.686680793762207
1757490705499071700,8.34107177734375,-7.897289752960205,1.193490982055664,5.696013927459717
1757490705509108700,8.351108642578126,-7.894388198852539,1.1902358531951904,5.700706958770752
1757490705519153700,8.361153564453126,-7.889162063598633,1.18658447265625,5.70870304107666
1757490705529194200,8.3711943359375,-7.884268283843994,1.181247591972351,5.716564655303955
1757490705539234600,8.381234619140624,-7.87945032119751,1.1741551160812378,5.724661350250244
1757490705549271300,8.391271240234374,-7.875222206115723,1.1654325723648071,5.732254981994629
1757490705559316200,8.401316162109374,-7.690492153167725,1.3908544778823853,5.929412364959717
1757490705569353200,8.411353271484375,-7.697201728820801,1.3797661066055298,5.923302173614502
1757490705579402000,8.421402099609375,-7.698462963104248,1.3633675575256348,5.92545747756958
1757490705589434400,8.431434326171875,-7.70051383972168,1.343353509902954,5.927359104156494
1757490705599475200,8.44147509765625,-7.700951099395752,1.3220313787460327,5.931589126586914
1757490705609516300,8.451516357421875,-7.700046539306641,1.3030565977096558,5.936954498291016
1757490705619556400,8.461556396484376,-7.699329853057861,1.2858937978744507,5.941624641418457
1757490705629600800,8.471600830078126,-7.697993755340576,1.2704932689666748,5.946670055389404
1757490705639637500,8.481637451171874,-7.695345401763916,1.257677674293518,5.952817440032959
1757490705649682400,8.491682373046874,-7.689887523651123,1.251381278038025,5.9611897468566895
1757490705659723000,8.501722900390625,-7.6815056800842285,1.247698426246643,5.972761631011963
1757490705669764000,8.51176416015625,-7.670657157897949,1.245129108428955,5.987217903137207
1757490705679805000,8.521804931640625,-7.660746097564697,1.2439491748809814,6.000141620635986
1757490705689842700,8.5318427734375,-7.682231426239014,0.9293074011802673,6.029575347900391
1757490705699882200,8.54188232421875,-7.664306640625,1.0762680768966675,6.027947425842285
1757490705709927000,8.551927001953125,-7.664656162261963,1.072635531425476,6.0281548500061035
1757490705719968000,8.561968017578126,-7.663570404052734,1.0695627927780151,6.030080795288086
1757490705730008000,8.572008056640625,-7.664990425109863,1.0642178058624268,6.029219627380371
1757490705740048600,8.582048583984376,-7.667049407958984,1.0557897090911865,6.028080940246582
1757490705750089500,8.59208935546875,-7.669418811798096,1.04231858253479,6.027411460876465
1757490705760126000,8.6021259765625,-7.672106742858887,1.0223149061203003,6.0274224281311035
1757490705770170400,8.61217041015625,-7.675191402435303,0.9967465400695801,6.027774333953857
1757490705780207900,8.622207763671875,-7.679394721984863,0.9679621458053589,6.0271124839782715
1757490705790252000,8.632251953125,-7.684844493865967,0.9376841187477112,6.024951457977295
1757490705800292900,8.64229296875,-7.689866542816162,0.9080424904823303,6.023085594177246
1757490705810334000,8.652333984375,-7.69481086730957,0.8788037896156311,6.021106719970703
1757490705820375300,8.662375244140625,-7.699284076690674,0.8501319885253906,6.019503593444824
1757490705830401000,8.672401123046875,-7.702744960784912,0.8229289650917053,6.018857955932617
1757490705840452600,8.68245263671875,-7.704146862030029,0.7989398837089539,6.020297050476074
1757490705850492400,8.692492431640625,-7.702132225036621,0.7794888615608215,6.025421619415283
1757490705860534000,8.702533935546874,-7.695279121398926,0.7634098529815674,6.036225318908691
1757490705870574800,8.712574951171876,-7.684736251831055,0.7482284307479858,6.051536560058594
1757490705880618200,8.7226181640625,-7.675021171569824,0.7310899496078491,6.065942764282227
1757490705890656300,8.73265625,-7.669915199279785,0.7102063298225403,6.0748820304870605
1757490705900702200,8.7427021484375,-7.668758869171143,0.6875279545783997,6.078947067260742
1757490705910738200,8.75273828125,-7.669389247894287,0.6665443181991577,6.080489635467529
1757490705920777500,8.762777587890625,-7.6702799797058105,0.6505875587463379,6.0810933113098145
1757490705930795500,8.77279541015625,-7.671328544616699,0.6385639309883118,6.081040382385254
1757490705940858600,8.782858642578125,-7.672915935516357,0.6260456442832947,6.080343723297119
1757490705950901200,8.7929013671875,-7.673987865447998,0.5971328616142273,6.081899642944336
1757490705960941800,8.80294189453125,-7.67337703704834,0.5765541791915894,6.084650993347168
1757490705970986500,8.812986572265626,-7.6730170249938965,0.5737100839614868,6.0853753089904785
1757490705981024000,8.82302392578125,-7.673360347747803,0.5723289847373962,6.085072994232178
1757490705991063300,8.833063232421875,-7.677871227264404,0.5715802907943726,6.079449653625488
1757490706001106400,8.8431064453125,-7.685733318328857,0.5704538226127625,6.069617748260498
1757490706011202000,8.8532021484375,-7.694053649902344,0.572875440120697,6.058831214904785
1757490706021198600,8.863198486328125,-7.711872100830078,0.5638765692710876,6.036983966827393
1757490706031203300,8.873203369140626,-7.713837623596191,0.5708622336387634,6.033819198608398
1757490706041270300,8.883270263671875,-7.717085838317871,0.5775806903839111,6.029023170471191
1757490706051311000,8.89331103515625,-7.720514297485352,0.5855171084403992,6.023868560791016
1757490706061351700,8.9033515625,-7.721243858337402,0.596555769443512,6.02184534072876
1757490706071394600,8.91339453125,-7.719580173492432,0.609574019908905,6.022679805755615
1757490706081429000,8.923428955078125,-7.715697288513184,0.6235488653182983,6.0262227058410645
1757490706091470000,8.933469970703126,-7.711061954498291,0.6374497413635254,6.030699253082275
1757490706101511700,8.94351171875,-7.707791328430176,0.6508360505104065,6.033451557159424
1757490706111553300,8.95355322265625,-7.7052531242370605,0.6637952327728271,6.035279750823975
1757490706121596000,8.963595947265626,-7.703429222106934,0.6763910055160522,6.0362091064453125
1757490706131636200,8.97363623046875,-7.702167987823486,0.685336709022522,6.036807060241699
1757490706141677000,8.983677001953126,-7.702013969421387,0.691496729850769,6.0363078117370605
1757490706151713500,8.993713623046874,-7.702334403991699,0.6948603391647339,6.035510063171387
1757490706161758200,9.00375830078125,-7.7025980949401855,0.6961186528205872,6.035022258758545
1757490706171799300,9.01379931640625,-7.7028937339782715,0.6964989900588989,6.034609794616699
1757490706181840000,9.02383984375,-7.703763484954834,0.6960130929946899,6.033550262451172
1757490706191880400,9.03388037109375,-7.704803943634033,0.6943876147270203,6.032410144805908
1757490706201921300,9.04392138671875,-7.705506801605225,0.6907693147659302,6.031924247741699
1757490706211958000,9.0539580078125,-7.705742835998535,0.6851343512535095,6.032266616821289
1757490706221998800,9.063998779296876,-7.705395221710205,0.6784077286720276,6.033470630645752
1757490706232042800,9.074042724609376,-7.704501152038574,0.6718603372573853,6.035345554351807
1757490706242084400,9.08408447265625,-7.704866886138916,0.6653234362602234,6.03560209274292
1757490706252125000,9.094125,-7.706698894500732,0.6579503417015076,6.034073829650879
1757490706262165500,9.10416552734375,-7.709479331970215,0.6499931812286377,6.031383514404297
1757490706272206800,9.114206787109374,-7.71053409576416,0.6435679793357849,6.030721187591553
1757490706282247200,9.1242470703125,-7.710451602935791,0.6384508013725281,6.031369209289551
1757490706292284000,9.134283935546875,-7.710399150848389,0.6348544359207153,6.0318217277526855
1757490706302328300,9.144328369140625,-7.711658954620361,0.6316255927085876,6.0305495262146
1757490706312369700,9.15436962890625,-7.713193893432617,0.6285289525985718,6.02890682220459
1757490706322408200,9.164408203125,-7.713712692260742,0.62601637840271,6.028505325317383
1757490706332446500,9.174446533203126,-7.712527275085449,0.6253202557563782,6.030094146728516
1757490706342487000,9.184487060546875,-7.710369110107422,0.626801073551178,6.032699108123779
1757490706352529700,9.19452978515625,-7.708255290985107,0.6301354765892029,6.035054683685303
1757490706362568700,9.204568603515625,-7.706563472747803,0.6350786685943604,6.0366973876953125
1757490706372613000,9.214613037109375,-7.704537391662598,0.6410452127456665,6.038651466369629
1757490706382654000,9.224654052734374,-7.70189905166626,0.6475695371627808,6.041321277618408
1757490706392694500,9.234694580078125,-7.699096202850342,0.6541581749916077,6.044180393218994
1757490706402735900,9.24473583984375,-7.696700096130371,0.6605003476142883,6.046545028686523
1757490706412775700,9.254775634765625,-7.694751262664795,0.6666781902313232,6.048341274261475
1757490706422816000,9.26481591796875,-7.693545818328857,0.672835648059845,6.049197673797607
1757490706432853000,9.27485302734375,-7.6928558349609375,0.6789921522140503,6.049384117126465
1757490706442898000,9.28489794921875,-7.692590713500977,0.685215950012207,6.049018383026123
1757490706452938500,9.2949384765625,-7.693253517150879,0.6909666657447815,6.047527313232422
1757490706462979600,9.3049794921875,-7.6942362785339355,0.696754515171051,6.04561185836792
1757490706473020200,9.315020263671874,-7.6952056884765625,0.702897310256958,6.043661117553711
1757490706483061000,9.32506103515625,-7.696203708648682,0.7094056010246277,6.0416364669799805
1757490706493101800,9.335101806640624,-7.697663307189941,0.7160564661026001,6.038990497589111
1757490706503142400,9.345142333984375,-7.6997175216674805,0.7228635549545288,6.035555839538574
1757490706513183200,9.355183349609375,-7.701984405517578,0.7300474047660828,6.031799793243408
1757490706523223800,9.365223876953126,-7.704370975494385,0.7370939254760742,6.02789306640625
1757490706533264100,9.37526416015625,-7.706984996795654,0.743211567401886,6.02379846572876
1757490706543305200,9.38530517578125,-7.7091064453125,0.7484570741653442,6.020431995391846
1757490706553346000,9.395345947265625,-7.710206031799316,0.7537292242050171,6.018366813659668
1757490706563388400,9.405388427734374,-7.710537433624268,0.7593992948532104,6.017232418060303
1757490706573425200,9.415425048828125,-7.710073471069336,0.7651664018630981,6.017092704772949
1757490706583464200,9.425464111328125,-7.708872318267822,0.7700780630111694,6.018008232116699
1757490706593504500,9.43550439453125,-7.706543922424316,0.7746119499206543,6.020404815673828
1757490706603547600,9.445547607421876,-7.703085899353027,0.7785287499427795,6.024323463439941
1757490706613589800,9.45558984375,-7.697437763214111,0.7832155823707581,6.030930519104004
1757490706623630600,9.465630615234375,-7.841914653778076,0.9034346342086792,5.824460983276367
1757490706633671000,9.4756708984375,-7.8357768058776855,0.908356785774231,5.8319501876831055
1757490706643712300,9.485712158203125,-7.827632427215576,0.9093949794769287,5.842710971832275
1757490706653752800,9.4957529296875,-7.818173885345459,0.9148586392402649,5.85451078414917
1757490706663789800,9.505789794921874,-7.788273334503174,0.9418116211891174,5.889982223510742
1757490706673834500,9.51583447265625,-7.784303188323975,0.9485324621200562,5.894158363342285
1757490706683874800,9.525874755859375,-7.771093845367432,0.9616085886955261,5.909443378448486
1757490706693915400,9.535915283203124,-7.756601810455322,0.9745361804962158,5.926348686218262
1757490706703956000,9.5459560546875,-7.741466045379639,0.9860271215438843,5.944202423095703
1757490706713997300,9.555997314453125,-7.7267255783081055,0.9971985220909119,5.961498737335205
1757490706724037600,9.56603759765625,-7.713424205780029,1.0084155797958374,5.976809978485107
1757490706734077700,9.57607763671875,-7.6706366539001465,1.315777063369751,5.972114562988281
1757490706744118800,9.586118896484376,-7.663638114929199,1.3192273378372192,5.980339527130127
1757490706754159600,9.59615966796875,-7.656071662902832,1.3186031579971313,5.9901556968688965
1757490706764200400,9.606200439453126,-7.651410102844238,1.315481185913086,5.996796607971191
1757490706774241000,9.616240966796875,-7.681979656219482,1.2949236631393433,5.962090492248535
1757490706784282000,9.6262822265625,-7.676210880279541,1.2833484411239624,5.972013473510742
1757490706794323200,9.6363232421875,-7.6670637130737305,1.2649152278900146,5.987675189971924
1757490706804364000,9.646364013671874,-7.654358386993408,1.2408504486083984,6.0089240074157715
1757490706814409000,9.656408935546875,-7.637692928314209,1.2180899381637573,6.034734725952148
1757490706824418600,9.66641845703125,-7.62295389175415,1.1981703042984009,6.057318210601807
1757490706834460000,9.6764599609375,-7.601978302001953,1.1854701042175293,6.08610725402832
1757490706844500200,9.686500244140625,-7.562674045562744,1.173490285873413,6.137187480926514
1757490706854541000,9.696541015625,-7.514355182647705,1.1677589416503906,6.197333812713623
1757490706864591000,9.706591064453125,-7.451755046844482,1.1690675020217896,6.272222995758057
1757490706874631400,9.71663134765625,-7.383972644805908,1.1948200464248657,6.347082614898682
1757490706884672300,9.72667236328125,-7.338550567626953,1.3440073728561401,6.369882583618164
1757490706894726000,9.736725830078125,-7.3020405769348145,1.3410402536392212,6.412327766418457
1757490706904770600,9.7467705078125,-7.288082122802734,1.2812100648880005,6.440381050109863
1757490706914811000,9.756810791015624,-7.258602142333984,1.2074089050292969,6.487752914428711
1757490706924852000,9.76685205078125,-7.234347820281982,1.123919129371643,6.52971076965332
1757490706934892300,9.776892333984375,-7.217915058135986,1.0221401453018188,6.564532279968262
1757490706944932900,9.786932861328125,-7.205446243286133,0.9064456224441528,6.595151901245117
1757490706954973700,9.7969736328125,-7.194154739379883,0.7763295769691467,6.624014854431152
1757490706965010700,9.8070107421875,-7.1868815422058105,0.6330075860023499,6.647120475769043
1757490706975059200,9.81705908203125,-7.1831841468811035,0.4790050983428955,6.663973808288574
1757490706985091600,9.827091552734375,-7.178587436676025,0.3194430470466614,6.678471088409424
1757490706995132400,9.83713232421875,-7.171597480773926,0.15721409022808075,6.6917548179626465
1757490707005172700,9.8471728515625,-7.162539958953857,-0.008389000780880451,6.703288555145264
1757490707015214000,9.857214111328124,-7.150860786437988,-0.18007582426071167,6.713335990905762
1757490707025255700,9.867255615234376,-7.136643886566162,-0.35872697830200195,6.7212910652160645
1757490707035295200,9.877295166015625,-7.116130352020264,-0.5461527705192566,6.730419158935547
1757490707045340400,9.88734033203125,-7.092992782592773,-0.7425733208656311,6.736034393310547
1757490707055380700,9.897380615234376,-7.066696643829346,-0.9454676508903503,6.7382493019104
1757490707065419500,9.90741943359375,-7.038422584533691,-1.1523736715316772,6.735635280609131
1757490707075458000,9.9174580078125,-7.010148048400879,-1.3627324104309082,6.725839138031006
1757490707085499000,9.927498779296876,-6.981091022491455,-1.576843023300171,6.7092509269714355
1757490707095541000,9.937541015625,-6.94903564453125,-1.793069839477539,6.688194751739502
1757490707105580500,9.94758056640625,-6.911818027496338,-2.012139320373535,6.66439962387085
1757490707115625000,9.957625,-6.892605304718018,-2.3443539142608643,6.575113773345947
1757490707125665300,9.967665283203125,-6.870368003845215,-2.7522706985473633,6.438875675201416
1757490707135705600,9.97770556640625,-6.801912307739258,-3.00516676902771,6.398365020751953
1757490707145747000,9.987746826171875,-6.7246294021606445,-3.2448856830596924,6.362873077392578
1757490707155787500,9.99778759765625,-6.629744052886963,-3.5353896617889404,6.307429313659668
1757490707165824500,10.007824462890625,-6.544507026672363,-3.7628562450408936,6.2646989822387695
1757490707175865000,10.017864990234376,-6.464072227478027,-3.9770760536193848,6.2156853675842285
1757490707185909200,10.0279091796875,-6.380142688751221,-4.191683769226074,6.161139965057373
1757490707195950300,10.037950439453125,-6.292742729187012,-4.399872303009033,6.105623245239258
1757490707205991000,10.047990966796876,-6.197225570678711,-4.627264499664307,6.034814357757568
1757490707216031700,10.05803173828125,-6.11784553527832,-4.8185319900512695,5.965724468231201
1757490707226072600,10.068072509765624,-6.042841911315918,-5.001826763153076,5.890830993652344
1757490707236108800,10.07810888671875,-5.964833736419678,-5.181384086608887,5.814650058746338
1757490707246153500,10.088153564453124,-5.883076190948486,-5.358033657073975,5.7373366355896
1757490707256194300,10.0981943359375,-5.804476737976074,-5.531214237213135,5.652420520782471
1757490707266234600,10.108234619140624,-5.725696563720703,-5.699273586273193,5.565140247344971
1757490707276275700,10.118275634765626,-5.640721321105957,-5.86469841003418,5.479386329650879
1757490707286316500,10.128316650390625,-5.553593635559082,-6.026758670806885,5.391833782196045
1757490707296353000,10.13835302734375,-5.471214771270752,-6.179370403289795,5.302577495574951
1757490707306402000,10.148402099609376,-5.386175155639648,-6.325793743133545,5.216280937194824
1757490707316434400,10.158434326171875,-5.294297218322754,-6.468192100524902,5.135076522827148
1757490707336516000,10.17851611328125,-5.09009313583374,-6.739480495452881,4.990636825561523
1757490707346557700,10.1885576171875,-4.987649440765381,-6.866456508636475,4.920496940612793
1757490707356597000,10.198596923828125,-4.885211944580078,-6.98631477355957,4.854098320007324
1757490707366642200,10.20864208984375,-4.774321556091309,-7.104361534118652,4.7927045822143555
1757490707376682200,10.21868212890625,-4.663076877593994,-7.218235969543457,4.731693744659424
1757490707386723000,10.22872314453125,-4.5567307472229,-7.32303524017334,4.673914909362793
1757490707396764000,10.238763916015625,-4.451416015625,-7.422293186187744,4.618506908416748
1757490707406800400,10.24880029296875,-4.351805686950684,-7.515679359436035,4.562073230743408
1757490707416845000,10.258844970703125,-4.2568817138671875,-7.604180335998535,4.504611015319824
1757490707426882000,10.268882080078125,-4.160017490386963,-7.690437316894531,4.448321342468262
1757490707436926500,10.278926513671875,-4.05607795715332,-7.77573299407959,4.395718097686768
1757490707446967000,10.288967041015624,-3.9477274417877197,-7.861875534057617,4.340793132781982
1757490707457008000,10.299008056640625,-3.8514785766601562,-7.940098285675049,4.284513473510742
1757490707467048400,10.30904833984375,-3.7601101398468018,-8.013132095336914,4.229351043701172
1757490707477085200,10.319085205078125,-3.664246082305908,-8.085142135620117,4.176110744476318
1757490707487126300,10.329126220703126,-3.5648698806762695,-8.157110214233398,4.121816635131836
1757490707497170400,10.33917041015625,-3.474208116531372,-8.225467681884766,4.0629682540893555
1757490707507211000,10.3492109375,-3.396660566329956,-8.28819751739502,4.000579357147217
1757490707517252400,10.35925244140625,-3.32177472114563,-8.347884178161621,3.938875198364258
1757490707527293200,10.369293212890625,-3.24845027923584,-8.405966758728027,3.876004457473755
1757490707537333000,10.3793330078125,-3.180680751800537,-8.461085319519043,3.8117473125457764
1757490707547374300,10.389374267578125,-3.116612672805786,-8.514058113098145,3.746150493621826
1757490707557410600,10.39941064453125,-3.049651622772217,-8.566180229187012,3.681887149810791
1757490707567451600,10.40945166015625,-2.9833106994628906,-8.615226745605469,3.6213018894195557
1757490707577492700,10.41949267578125,-2.922640800476074,-8.658854484558105,3.5663058757781982
1757490707587535600,10.42953564453125,-2.87117862701416,-8.694859504699707,3.520211696624756
1757490707597577700,10.43957763671875,-2.823566198348999,-8.724884986877441,3.4842469692230225
1757490707607618300,10.449618408203126,-2.773883819580078,-8.75217342376709,3.4555957317352295
1757490707617654800,10.45965478515625,-2.723684310913086,-8.776469230651855,3.433840036392212
1757490707627699500,10.469699462890626,-2.670267105102539,-8.798657417297363,3.418977737426758
1757490707637736000,10.47973583984375,-2.6073877811431885,-8.821467399597168,3.408721685409546
1757490707647780600,10.489780517578126,-2.5458037853240967,-8.843907356262207,3.397106647491455
1757490707657821200,10.4998212890625,-2.494598388671875,-8.862707138061523,3.3860726356506348
1757490707667862300,10.5098623046875,-2.4475514888763428,-8.879300117492676,3.3769311904907227
1757490707677898800,10.519898681640624,-2.3760313987731934,-8.905619621276855,3.3586490154266357
1757490707687943700,10.529943603515624,-2.322110652923584,-8.927978515625,3.3369359970092773
1757490707697984000,10.53998388671875,-2.273383855819702,-8.94992446899414,3.3116016387939453
1757490707708020700,10.550020751953125,-2.225484609603882,-8.972017288208008,3.2842438220977783
1757490707718065400,10.5600654296875,-2.185682535171509,-8.992774963378906,3.254065752029419
1757490707728106000,10.57010595703125,-2.146505117416382,-9.01437759399414,3.220195770263672
1757490707738146300,10.580146240234376,-2.110583543777466,-9.033605575561523,3.189913749694824
1757490707748184000,10.59018408203125,-2.0703248977661133,-9.054916381835938,3.155688524246216
1757490707758228200,10.600228271484376,-1.9768717288970947,-9.094192504882812,3.1022145748138428
1757490707768269300,10.610269287109375,-1.950240969657898,-9.111702919006348,3.0674991607666016
1757490707778305800,10.620305908203125,-1.9233677387237549,-9.127579689025879,3.037118673324585
1757490707798393000,10.64039306640625,-1.8556644916534424,-9.158400535583496,2.9860262870788574
1757490707808427500,10.650427490234375,-1.6596333980560303,-9.208399772644043,2.9473891258239746
1757490707818468400,10.66046826171875,-1.6231681108474731,-9.223902702331543,2.919088363647461
1757490707828509000,10.670509033203125,-1.5981178283691406,-9.235878944396973,2.8949360847473145
1757490707838552000,10.680552001953124,-1.573911190032959,-9.24633502960205,2.874751329421997
1757490707848590600,10.690590576171875,-1.5438252687454224,-9.257926940917969,2.853682518005371
1757490707858634800,10.700634765625,-1.517812967300415,-9.268343925476074,2.8337554931640625
1757490707868675600,10.710675537109376,-1.4954771995544434,-9.278204917907715,2.813284158706665
1757490707888756500,10.730756591796874,-1.4507635831832886,-9.295195579528809,2.780426502227783
1757490707898797600,10.740797607421875,-1.4325512647628784,-9.303022384643555,2.763636827468872
1757490707908837600,10.750837646484374,-1.417122483253479,-9.309629440307617,2.7493083477020264
1757490707918875100,10.760875244140625,-1.4029490947723389,-9.315489768981934,2.7366931438446045
1757490707928919800,10.770919921875,-1.3885866403579712,-9.321136474609375,2.724764585494995
1757490707938956000,10.7809560546875,-1.3243610858917236,-9.334336280822754,2.711519241333008
1757490707949001000,10.7910009765625,-1.3028564453125,-9.340997695922852,2.698967933654785
1757490707959041300,10.801041259765626,-1.2851996421813965,-9.345136642456055,2.6931090354919434
1757490707969082600,10.81108251953125,-1.262837529182434,-9.349555969238281,2.6883394718170166
1757490707979123200,10.821123291015626,-1.2459818124771118,-9.353781700134277,2.6815006732940674
1757490707989164000,10.8311640625,-1.2321516275405884,-9.357626914978027,2.674459934234619
1757490707999200800,10.84120068359375,-1.2210086584091187,-9.360918045043945,2.668043613433838
1757490708009245200,10.8512451171875,-1.2119395732879639,-9.363961219787598,2.6615004539489746
1757490708019286000,10.8612861328125,-1.202620267868042,-9.367278099060059,2.654040813446045
1757490708029326000,10.871326171875,-1.1934235095977783,-9.37070083618164,2.6460981369018555
1757490708039367400,10.881367431640625,-1.1857054233551025,-9.373978614807129,2.6379480361938477
1757490708049407700,10.89140771484375,-1.1798666715621948,-9.376910209655762,2.630129098892212
1757490708059444500,10.901444580078126,-1.1756982803344727,-9.379426956176758,2.6230149269104004
1757490708069485300,10.9114853515625,-1.1725311279296875,-9.381599426269531,2.6166560649871826
1757490708079526000,10.92152587890625,-1.170267939567566,-9.383284568786621,2.611619234085083
1757490708089572000,10.931572021484374,-1.167801856994629,-9.384706497192383,2.6076126098632812
1757490708099611000,10.94161083984375,-1.1644774675369263,-9.386028289794922,2.604341983795166
1757490708109651500,10.9516513671875,-1.1604995727539062,-9.387266159057617,2.6016552448272705
1757490708119692500,10.961692626953125,-1.157151699066162,-9.388319969177246,2.599339008331299
1757490708129729000,10.97172900390625,-1.1542880535125732,-9.389104843139648,2.59778094291687
1757490708139773400,10.9817734375,-1.152571678161621,-9.389633178710938,2.5966250896453857
1757490708149810700,10.991810791015626,-1.1522939205169678,-9.38982105255127,2.5960693359375
1757490708159855000,11.001855224609375,-1.1529332399368286,-9.389755249023438,2.5960311889648438
1757490708169896200,11.011896240234375,-1.154636263847351,-9.389631271362305,2.595719575881958
1757490708179936800,11.021936767578126,-1.157530665397644,-9.389242172241211,2.5958433151245117
1757490708189977000,11.03197705078125,-1.1606477499008179,-9.38863468170166,2.5966451168060303
1757490708200014300,11.042014404296875,-1.1645855903625488,-9.387801170349121,2.5978899002075195
1757490708210058200,11.052058349609375,-1.1684699058532715,-9.386670112609863,2.6002354621887207
1757490708220095000,11.062094970703125,-1.171224594116211,-9.385883331298828,2.601835250854492
1757490708230139600,11.0721396484375,-1.1730605363845825,-9.385133743286133,2.6037137508392334
1757490708240180500,11.082180419921874,-1.1750612258911133,-9.384367942810059,2.6055715084075928
1757490708250221800,11.092221923828125,-1.177298903465271,-9.383310317993164,2.6083688735961914
1757490708260257800,11.1022578125,-1.179911732673645,-9.381999015808105,2.6118998527526855
1757490708270302500,11.112302490234375,-1.1823514699935913,-9.380414009094238,2.616482973098755
1757490708280343000,11.122343017578125,-1.1843523979187012,-9.378714561462402,2.6216671466827393
1757490708290383600,11.132383544921876,-1.187404990196228,-9.376724243164062,2.627403497695923
1757490708300423000,11.1424228515625,-1.190937876701355,-9.37451457977295,2.633678913116455
1757490708310461200,11.152461181640625,-1.1948528289794922,-9.372124671936035,2.640399694442749
1757490708320502300,11.162502197265624,-1.1990128755569458,-9.36960220336914,2.647453784942627
1757490708330521600,11.172521484375,-1.2035988569259644,-9.366915702819824,2.654869318008423
1757490708340584700,11.182584716796875,-1.2086458206176758,-9.364102363586426,2.6624975204467773
1757490708350627000,11.192626953125,-1.2142828702926636,-9.361187934875488,2.670166254043579
1757490708360667100,11.202667236328125,-1.2205286026000977,-9.358111381530762,2.6780951023101807
1757490708370706700,11.212706787109376,-1.2269943952560425,-9.35488510131836,2.686401605606079
1757490708380746800,11.222746826171875,-1.2339146137237549,-9.351518630981445,2.694936752319336
1757490708390785800,11.232785888671875,-1.2413634061813354,-9.347994804382324,2.703731060028076
1757490708400826600,11.24282666015625,-1.2493830919265747,-9.344253540039062,2.7129452228546143
1757490708410867500,11.252867431640626,-1.2582483291625977,-9.34026050567627,2.722581148147583
1757490708420908500,11.262908447265625,-1.2675193548202515,-9.336019515991211,2.7328145503997803
1757490708430964500,11.272964599609375,-1.2764118909835815,-9.331748962402344,2.743234157562256
1757490708440993800,11.282993896484374,-1.2861261367797852,-9.327285766601562,2.7538585662841797
1757490708451033000,11.293033203125,-1.296120524406433,-9.322450637817383,2.7655255794525146
1757490708461075000,11.303074951171874,-1.3066887855529785,-9.317073822021484,2.778629779815674
1757490708471112000,11.31311181640625,-1.317993402481079,-9.311323165893555,2.79254150390625
1757490708481206800,11.323206787109376,-1.3297642469406128,-9.305380821228027,2.806734323501587
1757490708491202600,11.33320263671875,-1.3419862985610962,-9.299383163452148,2.8207523822784424
1757490708501238000,11.343238037109375,-1.3539289236068726,-9.293217658996582,2.8353307247161865
1757490708511278300,11.3532783203125,-1.3645951747894287,-9.287243843078613,2.84975528717041
1757490708521315000,11.363315185546876,-1.3748105764389038,-9.281682968139648,2.8629302978515625
1757490708531359500,11.373359375,-1.3857580423355103,-9.276139259338379,2.875591278076172
1757490708541405000,11.383405029296876,-1.3978453874588013,-9.27035140991211,2.888378381729126
1757490708551437300,11.393437255859375,-1.4103481769561768,-9.264286994934082,2.9017274379730225
1757490708561478000,11.403477783203124,-1.4226981401443481,-9.258094787597656,2.915433645248413
1757490708571521000,11.41352099609375,-1.4350383281707764,-9.251912117004395,2.9289817810058594
1757490708581558800,11.423558837890624,-1.44748854637146,-9.24581527709961,2.9420688152313232
1757490708591599600,11.433599609375,-1.460498332977295,-9.239657402038574,2.954958915710449
1757490708601644000,11.44364404296875,-1.4741263389587402,-9.233423233032227,2.967653751373291
1757490708611684900,11.453684814453124,-1.4885026216506958,-9.227161407470703,2.979933261871338
1757490708621725400,11.463725341796875,-1.5037758350372314,-9.220649719238281,2.992387533187866
1757490708631766000,11.47376611328125,-1.519663691520691,-9.213615417480469,3.0059993267059326
1757490708641803300,11.48380322265625,-1.5361849069595337,-9.206093788146973,3.0206151008605957
1757490708651847700,11.49384765625,-1.5532172918319702,-9.198185920715332,3.0359513759613037
1757490708661884200,11.50388427734375,-1.5704644918441772,-9.19005012512207,3.051680326461792
1757490708671928800,11.5139287109375,-1.5881351232528687,-9.18162727355957,3.0678441524505615
1757490708681969400,11.523969482421874,-1.6067956686019897,-9.172505378723145,3.085362195968628
1757490708692009700,11.534009765625,-1.6273362636566162,-9.161859512329102,3.1061580181121826
1757490708702050800,11.54405078125,-1.649544596672058,-9.149499893188477,3.13078236579895
1757490708712088000,11.554088134765625,-1.6730904579162598,-9.135794639587402,3.158186674118042
1757490708722132700,11.5641328125,-1.6987100839614868,-9.12115478515625,3.1866958141326904
1757490708732172800,11.5741728515625,-1.7265788316726685,-9.105749130249023,3.215646505355835
1757490708742213400,11.58421337890625,-1.7546091079711914,-9.090201377868652,3.244335412979126
1757490708752254000,11.59425390625,-1.7827147245407104,-9.074317932128906,3.273346424102783
1757490708762294500,11.60429443359375,-1.8119633197784424,-9.058974266052246,3.2996833324432373
1757490708772335000,11.614335205078126,-1.8421480655670166,-9.041345596313477,3.3311667442321777
1757490708782376200,11.624376220703125,-1.8740915060043335,-9.021357536315918,3.367341995239258
1757490708792414500,11.63441455078125,-1.9087733030319214,-9.000271797180176,3.4040846824645996
1757490708802454000,11.6444541015625,-1.9457303285598755,-8.979759216308594,3.437175989151001
1757490708812494800,11.654494873046875,-1.9836097955703735,-8.96252727508545,3.4604203701019287
1757490708822535000,11.664534912109374,-2.0184082984924316,-8.94452953338623,3.486764907836914
1757490708832578800,11.674578857421874,-2.0520598888397217,-8.924010276794434,3.519547462463379
1757490708842620400,11.684620361328125,-2.087923049926758,-8.901800155639648,3.5545270442962646
1757490708852660700,11.69466064453125,-2.127209186553955,-8.879714965820312,3.5863354206085205
1757490708862701300,11.704701416015626,-2.168208360671997,-8.861044883728027,3.607893228530884
1757490708872742100,11.7147421875,-2.2085492610931396,-8.843036651611328,3.627551317214966
1757490708882782700,11.72478271484375,-2.2431952953338623,-8.824530601501465,3.6512808799743652
1757490708892819700,11.73481982421875,-2.273376226425171,-8.806753158569336,3.6754581928253174
1757490708902864100,11.744864013671876,-2.303219795227051,-8.789887428283691,3.6971800327301025
1757490708912904400,11.754904541015625,-2.3363044261932373,-8.772875785827637,3.7167820930480957
1757490708922945300,11.7649453125,-2.374300241470337,-8.755270957946777,3.7341763973236084
1757490708932985900,11.77498583984375,-2.415125846862793,-8.736754417419434,3.751323699951172
1757490708943026700,11.785026611328124,-2.4586331844329834,-8.714710235595703,3.774266004562378
1757490708953067300,11.7950673828125,-2.502455711364746,-8.687336921691895,3.8084120750427246
1757490708963104000,11.80510400390625,-2.545191526412964,-8.657416343688965,3.8480224609375
1757490708973148400,11.8151484375,-2.5859131813049316,-8.628386497497559,3.885890007019043
1757490708983189500,11.825189453125,-2.6295626163482666,-8.598697662353516,3.9222354888916016
1757490708993229800,11.835229736328126,-2.678089141845703,-8.566691398620605,3.9592623710632324
1757490709003270400,11.8452705078125,-2.7312538623809814,-8.534782409667969,3.9917244911193848
1757490709013311200,11.855311279296876,-2.7884981632232666,-8.502335548400879,4.0212788581848145
1757490709023352000,11.86535205078125,-2.844043016433716,-8.469783782958984,4.050962448120117
1757490709033388500,11.875388427734375,-2.88889741897583,-8.440071105957031,4.081128120422363
1757490709043429400,11.885429443359374,-2.9252727031707764,-8.409635543823242,4.117878437042236
1757490709053469700,11.8954697265625,-2.963299036026001,-8.37360954284668,4.163848400115967
1757490709063512300,11.90551220703125,-3.011199474334717,-8.331855773925781,4.212953567504883
1757490709073553000,11.915552978515626,-3.067141056060791,-8.289302825927734,4.256317615509033
1757490709083596300,11.92559619140625,-3.126911163330078,-8.248300552368164,4.292333126068115
1757490709093636600,11.93563671875,-3.185898780822754,-8.205187797546387,4.331404209136963
1757490709103677200,11.94567724609375,-3.242488145828247,-8.15809154510498,4.378122806549072
1757490709113717500,11.955717529296875,-3.29882550239563,-8.109437942504883,4.426162242889404
1757490709123754200,11.965754150390625,-3.3560168743133545,-8.06094741821289,4.471511363983154
1757490709133799000,11.975798828125,-3.4144985675811768,-8.015523910522461,4.508737087249756
1757490709143839500,11.985839599609376,-3.473442792892456,-7.970576763153076,4.543259143829346
1757490709153880000,11.995880126953125,-3.531414270401001,-7.924498558044434,4.579032897949219
1757490709163921200,12.005921142578124,-3.5884463787078857,-7.879489898681641,4.612247943878174
1757490709173961200,12.015961181640625,-3.6436171531677246,-7.833018779754639,4.64801025390625
1757490709184001800,12.026001708984374,-3.688493490219116,-7.783074855804443,4.696260452270508
1757490709194038300,12.036038330078124,-3.7302682399749756,-7.7323102951049805,4.746851921081543
1757490709204083700,12.046083740234375,-3.7675769329071045,-7.686521530151367,4.791544437408447
1757490709214124300,12.056124267578125,-3.8052756786346436,-7.64241361618042,4.832136631011963
1757490709224160800,12.066160888671876,-3.842827081680298,-7.597872734069824,4.872488021850586
1757490709234205200,12.076205078125,-3.8803393840789795,-7.554340839385986,4.910302639007568
1757490709244245800,12.086245849609375,-3.9171814918518066,-7.50979471206665,4.949224472045898
1757490709254287000,12.096287109375,-3.9411942958831787,-7.469516754150391,4.9909348487854
1757490709264323300,12.1063232421875,-3.969878911972046,-7.43541145324707,5.01904821395874
1757490709274368500,12.116368408203124,-4.002166271209717,-7.3997907638549805,5.045976638793945
1757490709284407800,12.12640771484375,-4.035107612609863,-7.3596320152282715,5.078372001647949
1757490709294445600,12.136445556640625,-4.064389705657959,-7.318399429321289,5.114475727081299
1757490709304486700,12.146486572265625,-4.098834991455078,-7.279922008514404,5.1418304443359375
1757490709314528000,12.156528076171876,-4.141734600067139,-7.241121768951416,5.16220235824585
1757490709324574700,12.16657470703125,-4.187258720397949,-7.201115131378174,5.181401252746582
1757490709334608100,12.176608154296876,-4.226309299468994,-7.160607814788818,5.205780029296875
1757490709344653000,12.186653076171876,-4.26363468170166,-7.120133876800537,5.230798721313477
1757490709354693600,12.196693603515625,-4.296847820281982,-7.0746541023254395,5.2652177810668945
1757490709364734200,12.206734130859376,-4.335351467132568,-7.035058498382568,5.286664962768555
1757490709374774800,12.21677490234375,-4.3709893226623535,-6.994545936584473,5.311018466949463
1757490709384815400,12.2268154296875,-4.404123783111572,-6.954712390899658,5.335897445678711
1757490709394856000,12.23685595703125,-4.435227870941162,-6.915234565734863,5.361382961273193
1757490709404920600,12.246920654296876,-4.463946342468262,-6.8754563331604,5.388637065887451
1757490709414937300,12.256937255859375,-4.491461753845215,-6.831124782562256,5.422051906585693
1757490709424977700,12.266977783203124,-4.517871379852295,-6.782114028930664,5.461490154266357
1757490709435018500,12.2770185546875,-4.535210132598877,-6.735551834106445,5.504571437835693
1757490709445063200,12.287063232421875,-4.552134037017822,-6.689602851867676,5.546478748321533
1757490709455096000,12.297095947265625,-4.565501689910889,-6.6408562660217285,5.593868732452393
1757490709465135900,12.307135986328126,-4.590694427490234,-6.589305400848389,5.634066104888916
1757490709475177500,12.317177490234375,-4.625182628631592,-6.53532075881958,5.6686320304870605
1757490709485218000,12.327218017578126,-4.6551666259765625,-6.482950210571289,5.704113006591797
1757490709495258600,12.337258544921875,-4.684812545776367,-6.4315505027771,5.737927436828613
1757490709505300700,12.34730078125,-4.711415767669678,-6.3836188316345215,5.769585132598877
1757490709515344100,12.35734423828125,-4.756753921508789,-6.314103603363037,5.808743476867676
1757490709525385700,12.3673857421875,-4.781960964202881,-6.253841876983643,5.853070259094238
1757490709535421200,12.377421142578125,-4.795170783996582,-6.194778919219971,5.904841423034668
1757490709545462000,12.3874619140625,-4.801288604736328,-6.137395858764648,5.959540843963623
1757490709555503400,12.39750341796875,-4.800008773803711,-6.082001686096191,6.017081260681152
1757490709565543000,12.40754296875,-4.825606822967529,-6.028527736663818,6.0503315925598145
1757490709575587600,12.417587646484375,-4.840058326721191,-5.9739556312561035,6.092765808105469
1757490709585628400,12.42762841796875,-4.853325843811035,-5.9178619384765625,6.136794567108154
1757490709595665200,12.4376650390625,-4.867685794830322,-5.860614776611328,6.18020486831665
1757490709605709800,12.447709716796876,-4.876895427703857,-5.7984724044799805,6.231348514556885
1757490709615750400,12.45775048828125,-4.9081926345825195,-5.732852935791016,6.267387390136719
1757490709625791000,12.467791015625,-4.934484958648682,-5.6662774085998535,6.307165145874023
1757490709635827700,12.47782763671875,-4.961138725280762,-5.599809646606445,6.345499038696289
1757490709645871900,12.487871826171874,-4.990799427032471,-5.536524772644043,6.377692699432373
1757490709655912700,12.49791259765625,-5.019032001495361,-5.467457294464111,6.415010929107666
1757490709665950000,12.507949951171875,-5.053678035736084,-5.390746593475342,6.4526190757751465
1757490709675994000,12.517994140625,-5.067864418029785,-5.329124450683594,6.492558002471924
1757490709686035000,12.528034912109375,-5.089522361755371,-5.251135349273682,6.538995265960693
1757490709696075500,12.538075439453126,-5.12291145324707,-5.173935413360596,6.574367523193359
1757490709706112300,12.5481123046875,-5.154480457305908,-5.096753120422363,6.6098856925964355
1757490709716156700,12.55815673828125,-5.186792373657227,-5.017416477203369,6.6452131271362305
1757490709726193400,12.568193359375,-5.226580619812012,-4.939684867858887,6.672220230102539
1757490709736238300,12.57823828125,-5.265324592590332,-4.857336521148682,6.7021484375
1757490709746278100,12.588278076171875,-5.291021347045898,-4.772463798522949,6.742757797241211
1757490709756319200,12.5983193359375,-5.312730312347412,-4.6842851638793945,6.787377834320068
1757490709766359800,12.60835986328125,-5.327402114868164,-4.594116687774658,6.837323188781738
1757490709776405000,12.618405029296875,-5.328538417816162,-4.499682903289795,6.898962020874023
1757490709786437600,12.628437744140625,-5.34383487701416,-4.40341854095459,6.949061870574951
1757490709796477400,12.6384775390625,-5.369603157043457,-4.303780555725098,6.9914937019348145
1757490709806520000,12.64852001953125,-5.379724979400635,-4.207120895385742,7.042356967926025
1757490709816573700,12.65857373046875,-5.395297050476074,-4.113054275512695,7.08588171005249
1757490709826602800,12.668602783203125,-5.412306308746338,-4.01293420791626,7.1301774978637695
1757490709836644000,12.67864404296875,-5.429915428161621,-3.907940149307251,7.174968719482422
1757490709846680800,12.688680908203125,-5.4543867111206055,-3.8003904819488525,7.2140727043151855
1757490709856721400,12.698721435546876,-5.487606048583984,-3.690554618835449,7.245834827423096
1757490709866762500,12.708762451171875,-5.543727874755859,-3.581669807434082,7.257741451263428
1757490709876806700,12.718806640625,-5.577402591705322,-3.474116802215576,7.284175872802734
1757490709886847500,12.728847412109374,-5.609074115753174,-3.3706469535827637,7.308429718017578
1757490709896888000,12.73888818359375,-5.6327009201049805,-3.2709360122680664,7.335513591766357
1757490709906928400,12.748928466796874,-5.653656482696533,-3.1720573902130127,7.362766265869141
1757490709916965600,12.758965576171875,-5.678406715393066,-3.0729434490203857,7.38571834564209
1757490709927010600,12.769010498046875,-5.70994234085083,-2.974925994873047,7.40151834487915
1757490709937046800,12.779046875,-5.746750831604004,-2.8775274753570557,7.411533832550049
1757490709947091200,12.78909130859375,-5.786000728607178,-2.7823638916015625,7.417328357696533
1757490709957131800,12.7991318359375,-5.823391437530518,-2.6868810653686523,7.423269271850586
1757490709967172000,12.809172119140625,-5.860146522521973,-2.592280149459839,7.427981853485107
1757490709977213400,12.81921337890625,-5.894766807556152,-2.4993603229522705,7.432432174682617
1757490709987249700,12.829249755859376,-5.9268927574157715,-2.4076738357543945,7.437147617340088
1757490709997294300,12.83929443359375,-5.959371566772461,-2.3166561126708984,7.440101146697998
1757490710007331000,12.8493310546875,-5.992786407470703,-2.226339340209961,7.440834045410156
1757490710017355300,12.859355224609375,-6.026684284210205,-2.1376936435699463,7.439452648162842
1757490710027391200,12.86939111328125,-6.061197280883789,-2.0496394634246826,7.43619441986084
1757490710037431300,12.879431396484375,-6.094550609588623,-1.9620294570922852,7.432563304901123
1757490710047471900,12.889471923828125,-6.126218318939209,-1.8772451877593994,7.4284281730651855
1757490710057536800,12.899536865234374,-6.156622409820557,-1.7953250408172607,7.4235405921936035
1757490710067579000,12.909578857421875,-6.18531608581543,-1.714738130569458,7.418737411499023
1757490710077615000,12.919614990234376,-6.212902545928955,-1.6340374946594238,7.41389799118042
1757490710087660000,12.929659912109376,-6.239230632781982,-1.554092288017273,7.408977508544922
1757490710097700600,12.93970068359375,-6.263399124145508,-1.473565936088562,7.4050374031066895
1757490710107741400,12.949741455078126,-6.285906791687012,-1.392721176147461,7.401611804962158
1757490710117778000,12.95977783203125,-6.306515693664551,-1.3111391067504883,7.39898157119751
1757490710127823000,12.969822998046874,-6.325492858886719,-1.2294350862503052,7.39680814743042
1757490710137818400,12.979818359375,-6.343419551849365,-1.1469662189483643,7.394702434539795
1757490710147921700,12.989921630859374,-6.359278678894043,-1.0635080337524414,7.393556118011475
1757490710157944600,12.999944580078125,-6.373293876647949,-0.9793832302093506,7.39310884475708
1757490710167985200,13.009985107421874,-6.386974334716797,-0.8959642052650452,7.391881942749023
1757490710178023000,13.02002294921875,-6.399847507476807,-0.8123121857643127,7.390415668487549
1757490710188066600,13.030066650390625,-6.410961627960205,-0.7289048433303833,7.3894782066345215
1757490710198107100,13.040107177734376,-6.420835494995117,-0.6460930705070496,7.38861083984375
1757490710218187500,13.0601875,-6.439239025115967,-0.48275843262672424,7.385070323944092
1757490710228215300,13.07021533203125,-6.448268890380859,-0.40050241351127625,7.382110118865967
1757490710238265600,13.080265625,-6.458985328674316,-0.31921589374542236,7.376702785491943
1757490710248310800,13.090310791015625,-6.467879295349121,-0.23840443789958954,7.37196159362793
1757490710258351000,13.10035107421875,-6.475756645202637,-0.1591460108757019,7.367185115814209
1757490710268393000,13.11039306640625,-6.483893394470215,-0.0812169536948204,7.361295223236084
1757490710278428400,13.120428466796875,-6.491312026977539,-0.0040266853757202625,7.355198860168457
1757490710288469200,13.13046923828125,-6.498964786529541,0.07107934355735779,7.348095417022705
1757490710298511600,13.14051171875,-6.508152961730957,0.14406371116638184,7.338893413543701
1757490710308550000,13.1505498046875,-6.519201755523682,0.2149006724357605,7.327345848083496
