time,seconds_elapsed,z,y,x
1757490697255658500,0.097658447265625,-0.005262633785605431,-0.006744831334799528,-0.021933192387223244
1757490697265675000,0.107675048828125,-0.003014356829226017,0.00011657733557512984,-0.016104325652122498
1757490697275743700,0.11774365234375,0.0013989279977977276,0.0038470521103590727,-0.008526799269020557
1757490697285756400,0.12775634765625,0.005012825131416321,0.00481297867372632,-0.00464643957093358
1757490697295822600,0.137822509765625,0.0017653139075264335,-0.012740237638354301,-0.00687806261703372
1757490697305876000,0.1478759765625,-0.0004163476114626974,-0.024231432005763054,-0.0177031010389328
1757490697315900000,0.15789990234375,-0.004096860531717539,-0.011324655264616013,-0.021383613348007202
1757490697325944600,0.167944580078125,-0.009059724397957325,0.012940083630383015,-0.006811446975916624
1757490697335959600,0.17795947265625,-0.008626722730696201,0.02864471636712551,0.012790199369192123
1757490697346025700,0.188025634765625,-0.007760719861835241,0.024331355467438698,0.02213303931057453
1757490697356066000,0.198066162109375,-0.006228560581803322,0.007977220229804516,0.01530493889003992
1757490697366107100,0.208107177734375,-0.004796324763447046,-0.01227392815053463,0.003297473071143031
1757490697376122600,0.21812255859375,-0.0027145864441990852,-0.019468415528535843,-0.003197549842298031
1757490697386182400,0.228182373046875,-0.0004996171337552369,-0.011258039623498917,0.00009992343257181346
1757490697396228900,0.238228759765625,0.0005828866851516068,0.0007161179091781378,0.008543453179299831
1757490697406259200,0.24825927734375,0.0010491959983482957,0.006028713658452034,0.012457121163606644
1757490697416310500,0.258310546875,0.0019984685350209475,-0.0007993874605745077,0.00671152351424098
1757490697426351400,0.268351318359375,0.0026812786236405373,-0.003197549842298031,-0.0009992342675104737
1757490697436374500,0.27837451171875,0.0014488897286355495,0.0037804364692419767,-0.004829632584005594
1757490697446428700,0.2884287109375,-0.00018319295486435294,0.01022549718618393,-0.0004163476114626974
1757490697456469500,0.298469482421875,-0.0017653139075264335,0.00782733503729105,0.002814509905874729
1757490697466512100,0.30851220703125,-0.003580589545890689,0.003913667518645525,0.0076108346693217754
1757490697476553200,0.31855322265625,-0.0053792111575603485,0.0010158881777897477,0.010075611993670464
1757490697486549500,0.328549560546875,-0.005579058080911636,-0.002897779457271099,0.00929287914186716
1757490697496636200,0.33863623046875,-0.0018985451897606254,-0.0061785988509655,0.007960566319525242
1757490697506688800,0.348688720703125,0.0012823506258428097,-0.013939318247139454,0.003513973904773593
1757490697516717600,0.358717529296875,0.0014155819080770016,-0.02191653847694397,-0.003697166917845607
1757490697526758000,0.3687578125,0.0011657733703032136,-0.031159456819295883,-0.015021822415292263
1757490697536773000,0.378773193359375,0.0008493491332046688,-0.030293453484773636,-0.020151223987340927
1757490697546814000,0.38881396484375,-0.0007993874605745077,-0.0210005734115839,-0.021616768091917038
1757490697556858000,0.398858154296875,-0.003031010739505291,-0.017436638474464417,-0.019235260784626007
1757490697566916900,0.408916748046875,-0.004396630916744471,-0.012623660266399384,-0.0226659644395113
1757490697576935700,0.418935791015625,-0.004196783993393183,-0.01300669927150011,-0.03274157643318176
1757490697587002400,0.42900244140625,-0.0016154287150129676,-0.013106622733175755,-0.04128503054380417
1757490697597042700,0.439042724609375,-0.0026646247133612633,-0.014472243376076221,-0.048529479652643204
1757490697607067100,0.449067138671875,-0.002364854561164975,-0.020983919501304626,-0.05640677735209465
1757490697617124000,0.4591240234375,-0.004013590980321169,-0.03239184617996216,-0.06731508672237396
1757490697627141400,0.469141357421875,-0.005012825131416321,-0.04696401208639145,-0.07815677672624588
1757490697637201700,0.47920166015625,-0.007427641656249762,-0.049661945551633835,-0.08230359852313995
1757490697647246000,0.48924609375,-0.0103087667375803,-0.0444326177239418,-0.07898946851491928
1757490697657265700,0.499265625,-0.009392802603542805,-0.04321688413619995,-0.07510910928249359
1757490697667327200,0.5093271484375,-0.006911370437592268,-0.04175134003162384,-0.07402660697698593
1757490697677343200,0.51934326171875,-0.0054624807089567184,-0.039020098745822906,-0.07472606748342514
1757490697687406800,0.52940673828125,-0.004862940404564142,-0.03469008207321167,-0.07440964877605438
1757490697697445600,0.539445556640625,-0.004013590980321169,-0.03202546015381813,-0.07554211467504501
1757490697707487000,0.549487060546875,-0.003464012173935771,-0.03875363618135452,-0.07848985493183136
1757490697717527800,0.55952783203125,-0.003314126981422305,-0.047197166830301285,-0.08320290595293045
1757490697727545600,0.569545654296875,-0.005245979875326157,-0.04023583233356476,-0.08989778161048889
1757490697737612000,0.579612060546875,-0.003497319994494319,-0.026313168928027153,-0.09166309237480164
1757490697747649300,0.589649169921875,-0.0026646247133612633,-0.018136102706193924,-0.09071382135152817
1757490697757668000,0.599668212890625,-0.0025313934311270714,-0.015871170908212662,-0.08849885314702988
1757490697767734000,0.609734130859375,-0.0005329249543137848,-0.016304172575473785,-0.08286982774734497
1757490697777750000,0.61975,0.0021316998172551394,-0.01308996882289648,-0.07342706620693207
1757490697787815700,0.629815673828125,0.003080972470343113,-0.006894716527312994,-0.0663658082485199
1757490697797856300,0.639856201171875,0.008909839205443859,-0.003347434801980853,-0.07037939876317978
1757490697807871500,0.64987158203125,0.014938552863895893,-0.013289815746247768,-0.08373583108186722
1757490697817934600,0.6599345703125,0.015854516997933388,-0.0378376729786396,-0.09644276648759842
1757490697827957500,0.66995751953125,0.013123276643455029,-0.056340161710977554,-0.10297109186649323
1757490697838018800,0.680018798828125,0.013139930553734303,-0.03908671438694,-0.1067681834101677
1757490697848059400,0.690059326171875,0.01538820844143629,-0.011557810008525848,-0.10531929135322571
1757490697858075000,0.700074951171875,0.018186064437031746,-0.0018152756383642554,-0.1024714782834053
1757490697868141300,0.710141357421875,0.021017227321863174,-0.0074776033870875835,-0.106351837515831
1757490697878166800,0.720166748046875,0.020567571744322777,-0.026396438479423523,-0.11519505828619003
1757490697888218600,0.730218505859375,0.021383613348007202,-0.041018567979335785,-0.1235053613781929
1757490697898263000,0.740262939453125,0.01678713597357273,-0.021183766424655914,-0.11747664213180542
1757490697908278300,0.7502783203125,0.021866576746106148,-0.006928024347871542,-0.09640945494174957
1757490697918344400,0.760344482421875,0.02254938706755638,0.00004996171628590673,-0.0626186802983284
1757490697928379600,0.770379638671875,0.013689509592950344,-0.009026416577398777,-0.030909648165106773
1757490697938423300,0.78042333984375,0.003197549842298031,-0.014122511260211468,-0.012806852348148823
1757490697948459800,0.790459716796875,-0.006028713658452034,-0.006578292232006788,-0.0076108346693217754
1757490697958504000,0.80050390625,-0.009009762667119503,0.003530627815052867,-0.003497319994494319
1757490697968545300,0.810545166015625,-0.004146822262555361,0.006661561783403158,0.003347434801980853
1757490697978562600,0.8205625,0.005978751927614212,0.010425344109535217,0.013040007092058659
1757490697988603400,0.830603271484375,0.014322358183562756,0.014472243376076221,0.022066423669457436
1757490697998623500,0.84062353515625,0.022232962772250175,0.019468415528535843,0.02621324546635151
1757490698008710100,0.850710205078125,0.031009571626782417,0.03365754336118698,0.0349898524582386
1757490698018725600,0.8607255859375,0.03570597246289253,0.04524866119027138,0.04608135297894478
1757490698028791800,0.870791748046875,0.042017802596092224,0.048196401447057724,0.05710623785853386
1757490698038832400,0.880832275390625,0.036472052335739136,0.04476569592952728,0.06663227081298828
1757490698048834000,0.890833984375,0.030176876112818718,0.05565734952688217,0.06743165850639343
1757490698058913500,0.90091357421875,0.029777182266116142,0.07659130543470383,0.06714854389429092
1757490698068970200,0.91097021484375,0.03537289425730705,0.07880628108978271,0.08305302262306213
1757490698078991000,0.9209912109375,0.04639777913689613,0.060137249529361725,0.11414586007595062
1757490698089035800,0.931035888671875,0.060553599148988724,0.06534992158412933,0.1679379791021347
1757490698099059500,0.9410595703125,0.0902475118637085,0.0892815813422203,0.24830971658229828
1757490698109117000,0.951116943359375,0.1021883636713028,0.13381412625312805,0.3550446033477783
1757490698119132200,0.961132080078125,0.10277124494314194,0.17516577243804932,0.4622957408428192
1757490698129198600,0.971198486328125,0.1202411949634552,0.1765480488538742,0.5468476414680481
1757490698139239000,0.981239013671875,0.10903311520814896,0.18697339296340942,0.6101324558258057
1757490698149254400,0.99125439453125,0.021799961104989052,0.24329689145088196,0.6368952989578247
1757490698159320000,1.001320068359375,0.006861408706754446,0.024830972775816917,0.6552145481109619
1757490698169337300,1.01133740234375,-0.03620558977127075,-0.04183460772037506,0.6629753112792969
1757490698179405600,1.021405517578125,-0.03782101720571518,0.033207885921001434,0.6234889030456543
1757490698189417000,1.0314169921875,-0.002381508471444249,0.10904976725578308,0.5294609665870667
1757490698199479300,1.041479248046875,0.020017992705106735,0.11835930496454239,0.4131334125995636
1757490698209521000,1.05152099609375,0.021716691553592682,0.15070118010044098,0.3181062340736389
1757490698219542500,1.06154248046875,0.0016986982664093375,0.29404133558273315,0.28389912843704224
1757490698229604600,1.0716044921875,-0.032458461821079254,0.51322340965271,0.3285648822784424
1757490698239620400,1.081620361328125,-0.11389605700969696,0.7431138753890991,0.4098692536354065
1757490698249686300,1.091686279296875,-0.25169047713279724,0.9220767617225647,0.45398545265197754
1757490698259727400,1.101727294921875,-0.32834839820861816,0.7860310077667236,0.4849283993244171
1757490698269788400,1.111788330078125,-0.43018701672554016,0.3752291202545166,0.5083770751953125
1757490698279804400,1.121804443359375,-0.5742766261100769,-0.05385872721672058,0.5147055983543396
1757490698289823500,1.131823486328125,-0.6993474364280701,-0.5007662773132324,0.4825635552406311
1757490698299889700,1.1418896484375,-0.746677815914154,-0.9200283288955688,0.441395103931427
1757490698309930200,1.15193017578125,-0.5673818588256836,-0.8270162343978882,0.3314793109893799
1757490698319945500,1.161945556640625,-0.21713361144065857,-0.140175923705101,0.19485068321228027
1757490698330011600,1.17201171875,-0.18114452064037323,0.1855078488588333,0.13649539649486542
1757490698340027600,1.182027587890625,-0.2789362370967865,0.2845153212547302,0.08175402134656906
1757490698350089200,1.192089111328125,-0.30425018072128296,0.347267210483551,0.13969294726848602
1757490698360108300,1.2021083984375,-0.4309197962284088,0.02396496944129467,0.23924998939037323
1757490698370148900,1.21214892578125,-0.45626702904701233,-0.278736412525177,0.2523399591445923
1757490698380214800,1.22221484375,-0.512873649597168,-0.39123353362083435,0.17148526012897491
1757490698390232000,1.232232177734375,-0.5925958752632141,-0.4132832884788513,-0.027412327006459236
1757490698400292600,1.242292724609375,-0.5894483327865601,-0.606385350227356,-0.17932924628257751
1757490698410337300,1.252337158203125,-0.5954270362854004,-0.6720017194747925,-0.1931353360414505
1757490698420352500,1.2623525390625,-0.5772576332092285,-0.6992974877357483,-0.09740868955850601
1757490698430407700,1.27240771484375,-0.5545583963394165,-0.7718085646629333,0.04972856119275093
1757490698440433700,1.28243359375,-0.5606037378311157,-0.8241018056869507,0.20156221091747284
1757490698450495700,1.292495849609375,-0.5752258896827698,-0.9094364643096924,0.3426207900047302
1757490698460560600,1.302560546875,-0.5925626158714294,-1.0349235534667969,0.45127084851264954
1757490698470576600,1.31257666015625,-0.6030212640762329,-1.087483286857605,0.48239701986312866
1757490698480621000,1.32262109375,-0.6055859327316284,-1.0206012725830078,0.4009094536304474
1757490698490636500,1.332636474609375,-0.6064852476119995,-0.8926159739494324,0.24739375710487366
1757490698500701200,1.342701171875,-0.5918630957603455,-0.7301904559135437,0.06634915620088577
1757490698510718200,1.35271826171875,-0.572078287601471,-0.5758420825004578,-0.08711657673120499
1757490698520780300,1.3627802734375,-0.5496287941932678,-0.4609467685222626,-0.1746661514043808
1757490698530799000,1.372799072265625,-0.5250310301780701,-0.3919829726219177,-0.18659034371376038
1757490698540859000,1.38285888671875,-0.5034475326538086,-0.3559938669204712,-0.11671056598424911
1757490698550881500,1.392881591796875,-0.46629267930984497,-0.372647762298584,0.006844754796475172
1757490698560919300,1.402919189453125,-0.44579172134399414,-0.35652679204940796,0.10851684212684631
1757490698570989000,1.412989013671875,-0.4300870895385742,-0.3672519028186798,0.17108556628227234
1757490698581027600,1.423027587890625,-0.45343586802482605,-0.3884356617927551,0.18131105601787567
1757490698591043600,1.433043701171875,-0.5120409727096558,-0.3884356617927551,0.11839260905981064
1757490698601109000,1.44310888671875,-0.572361409664154,-0.38139107823371887,0.01858575828373432
1757490698611125800,1.453125732421875,-0.6335977911949158,-0.3469174802303314,-0.07457618415355682
1757490698621211600,1.463211669921875,-0.6855080127716064,-0.33737480640411377,-0.13404728472232819
1757490698631242800,1.47324267578125,-0.714702308177948,-0.3493989109992981,-0.15338246524333954
1757490698641256700,1.483256591796875,-0.7082406282424927,-0.4028080105781555,-0.11652737110853195
1757490698651313000,1.49331298828125,-0.6736504435539246,-0.42330893874168396,-0.029544027522206306
1757490698661349600,1.503349609375,-0.6326152086257935,-0.38976797461509705,0.08335279673337936
1757490698671369500,1.513369384765625,-0.6194753050804138,-0.3371250033378601,0.19656604528427124
1757490698681414400,1.523414306640625,-0.6643575429916382,-0.23781776428222656,0.28146764636039734
1757490698691471600,1.5334716796875,-0.7328384518623352,-0.08321956545114517,0.22477775812149048
1757490698701513000,1.543512939453125,-0.7738403677940369,0.07054594159126282,0.07222798466682434
1757490698711532300,1.5535322265625,-0.8105621933937073,0.1398928016424179,-0.10227163136005402
1757490698721593900,1.56359375,-0.8500486016273499,0.21110489964485168,-0.270059734582901
1757490698731638800,1.573638671875,-0.8802587985992432,0.25502124428749084,-0.41684722900390625
1757490698741679400,1.583679443359375,-0.8787599205970764,0.2673284709453583,-0.5813045501708984
1757490698751695600,1.593695556640625,-0.8407224416732788,0.10506948828697205,-0.7470941543579102
1757490698761735200,1.603735107421875,-0.649802029132843,-0.22800861299037933,-0.8612067103385925
1757490698771776800,1.61377685546875,-0.4501383900642395,-0.5324086546897888,-0.9116181135177612
1757490698781841700,1.623841552734375,-0.31570807099342346,-0.7512909770011902,-0.8474672436714172
1757490698791878700,1.633878662109375,-0.3041336238384247,-0.8471341729164124,-0.6337476968765259
1757490698801898000,1.64389794921875,-0.42552393674850464,-0.8450857400894165,-0.3445526361465454
1757490698811964000,1.6539638671875,-0.586700439453125,-0.7829999923706055,-0.10117246955633163
1757490698822004500,1.66400439453125,-0.7100059390068054,-0.6392268538475037,-0.02166672982275486
1757490698832036900,1.674036865234375,-0.7535558938980103,-0.5065118670463562,-0.11201416701078415
1757490698842086000,1.6840859375,-0.702295184135437,-0.4708392024040222,-0.2212471216917038
1757490698852127500,1.69412744140625,-0.5371217131614685,-0.5819873809814453,-0.2003631293773651
1757490698862142000,1.704141845703125,-0.34033921360969543,-0.7742400169372559,0.02809513732790947
1757490698872181200,1.71418115234375,-0.23393739759922028,-0.9881094694137573,0.5126904845237732
1757490698882273000,1.72427294921875,-0.2587350606918335,-1.4511046409606934,1.0677651166915894
1757490698892266200,1.734266357421875,-0.3198215961456299,-2.135596752166748,1.4797494411468506
1757490698902330000,1.744330078125,-0.30321764945983887,-3.1204755306243896,1.5994243621826172
1757490698912389400,1.754389404296875,-0.21460221707820892,-4.321805000305176,1.5899150371551514
1757490698922381000,1.764381103515625,-0.17456622421741486,-5.222980976104736,1.530243992805481
1757490698932405800,1.77440576171875,-0.23994946479797363,-5.165192127227783,1.174283504486084
1757490698942490000,1.784489990234375,-0.24308039247989655,-4.490009307861328,0.6540987491607666
1757490698952530700,1.79453076171875,-0.12708595395088196,-3.6336655616760254,0.11094831675291061
1757490698962574800,1.804574951171875,0.11153119802474976,-3.0906150341033936,-0.3449689745903015
1757490698972614700,1.81461474609375,0.5079607367515564,-3.101789712905884,-0.6488195061683655
1757490698982629600,1.824629638671875,0.9783669710159302,-3.4794836044311523,-0.8217702507972717
1757490698992695800,1.83469580078125,1.4563506841659546,-3.907006025314331,-0.9091200232505798
1757490699002753300,1.844753173828125,1.8825241327285767,-4.370367527008057,-0.9217936396598816
1757490699022814200,1.864814208984375,2.1496360301971436,-4.939064979553223,-0.7800356149673462
1757490699032833500,1.87483349609375,1.9929227828979492,-4.4296722412109375,-0.7078242897987366
1757490699042897200,1.884897216796875,1.7695772647857666,-3.771193504333496,-0.6264033317565918
1757490699052939800,1.894939697265625,1.568947672843933,-3.3676693439483643,-0.5142226219177246
1757490699062967300,1.90496728515625,1.490957498550415,-3.285515546798706,-0.3498319387435913
1757490699073021400,1.915021484375,1.5709794759750366,-3.453770160675049,-0.08943147212266922
1757490699083019500,1.92501953125,1.7158851623535156,-3.7608015537261963,0.26364797353744507
1757490699093090000,1.935090087890625,1.8414555788040161,-3.984363555908203,0.6833429932594299
1757490699103120000,1.945119873046875,1.9299211502075195,-3.7065930366516113,1.086250901222229
1757490699113148400,1.9551484375,1.9453259706497192,-2.7239460945129395,1.2644976377487183
1757490699123224800,1.965224853515625,1.9855118989944458,-2.3281660079956055,1.0326253175735474
1757490699133239800,1.97523974609375,2.001865863800049,-2.207974672317505,0.7187159061431885
1757490699143306000,1.985305908203125,2.0088107585906982,-1.7305738925933838,0.5120742917060852
1757490699153346800,1.995346923828125,2.000450372695923,-1.3469678163528442,0.32270270586013794
1757490699163383600,2.005383544921875,1.9775012731552124,-1.0349235534667969,0.18707332015037537
1757490699173409300,2.0154091796875,1.966376543045044,-0.7024117708206177,0.18352602422237396
1757490699183433700,2.025433837890625,1.955185055732727,-0.47475287318229675,0.2086068093776703
1757490699193487400,2.0354873046875,1.9234760999679565,-0.26209914684295654,0.3097459673881531
1757490699203547400,2.04554736328125,1.7935255765914917,-0.40976932644844055,0.38735318183898926
1757490699213568800,2.05556884765625,1.545698881149292,-0.9627788662910461,0.4343005418777466
1757490699223631400,2.06563134765625,1.2180333137512207,-1.8853052854537964,0.5013657808303833
1757490699233668400,2.07566845703125,0.8872700929641724,-3.01863694190979,0.6611100435256958
1757490699243695900,2.08569580078125,0.6371784210205078,-4.238202095031738,0.9576827883720398
1757490699253752300,2.09575244140625,0.4705560803413391,-5.472789764404297,1.3697503805160522
1757490699263769000,2.10576904296875,0.3910503387451172,-6.43984842300415,1.8672192096710205
1757490699273834500,2.11583447265625,0.3044167160987854,-6.500635147094727,2.371366262435913
1757490699283875000,2.125875,0.2386171519756317,-5.880227565765381,2.7160186767578125
1757490699293881000,2.135881103515625,0.1987476944923401,-5.178714752197266,2.845019817352295
1757490699303953000,2.145952880859375,0.09404460340738297,-4.781619071960449,2.792893171310425
1757490699313972200,2.15597216796875,-0.10213840007781982,-4.755039691925049,2.6435742378234863
1757490699324038000,2.166037841796875,-0.3442195653915405,-4.909138202667236,2.557140588760376
1757490699334053400,2.176053466796875,-0.5880327224731445,-5.199282646179199,2.6228067874908447
1757490699344089000,2.186089111328125,-0.8397731781005859,-5.593080520629883,2.8310139179229736
1757490699354159600,2.19615966796875,-1.0497455596923828,-6.072213649749756,3.09812593460083
1757490699364218600,2.206218505859375,-1.2210309505462646,-6.55249547958374,3.378028154373169
1757490699374241500,2.216241455078125,-1.3342775106430054,-6.849717617034912,3.6535003185272217
1757490699384282000,2.2262822265625,-1.3331950902938843,-6.820340156555176,3.883890390396118
1757490699394297900,2.2362978515625,-1.2463781833648682,-6.479451656341553,4.044900417327881
1757490699404364000,2.246364013671875,-1.1239553689956665,-5.988511085510254,4.082005500793457
1757490699414413600,2.25641357421875,-0.9967861771583557,-5.506130695343018,3.943861246109009
1757490699424440800,2.26644091796875,-0.8851717114448547,-5.211156845092773,3.615962505340576
1757490699434481400,2.2764814453125,-0.8077643513679504,-5.262434005737305,3.1565310955047607
1757490699444500700,2.286500732421875,-0.7791029810905457,-5.466960906982422,2.675666332244873
1757490699464600300,2.306600341796875,-0.8704996109008789,-5.317924976348877,1.9751864671707153
1757490699474647800,2.316647705078125,-0.9240252375602722,-4.969858169555664,1.7282589673995972
1757490699494733600,2.336733642578125,-0.5426841378211975,-3.142775058746338,1.177980661392212
1757490699504744700,2.34674462890625,-0.34700074791908264,-2.0585060119628906,0.699813723564148
1757490699514810600,2.356810546875,-0.4245413541793823,-1.217300534248352,0.11549483239650726
1757490699524838400,2.36683837890625,-0.6765149235725403,-0.7337044477462769,-0.4667256772518158
1757490699564995600,2.40699560546875,-2.2014963626861572,0.21613436937332153,-2.279553174972534
1757490699595111700,2.437111572265625,-2.2138867378234863,2.520251989364624,-2.8952646255493164
1757490699605151700,2.44715185546875,-1.9086207151412964,2.516921281814575,-2.613164186477661
1757490699615191000,2.45719091796875,-1.6374619007110596,2.1077182292938232,-2.3855552673339844
1757490699625274400,2.4672744140625,-1.603437900543213,1.4557511806488037,-2.2467451095581055
1757490699635297300,2.47729736328125,-1.757902979850769,0.8145091533660889,-2.1743004322052
1757490699645339100,2.487339111328125,-2.017603874206543,0.36631929874420166,-2.0300776958465576
1757490699655374800,2.497374755859375,-2.2184500694274902,-0.06043701991438866,-1.5576064586639404
1757490699665419800,2.507419677734375,-2.2854321002960205,-0.244862362742424,-0.9608970284461975
1757490699675436800,2.517436767578125,-2.1074516773223877,-0.3662859797477722,-0.5083604454994202
1757490699685456100,2.5274560546875,-1.8845725059509277,-0.4584153890609741,-0.3438531756401062
1757490699695541200,2.537541259765625,-1.5486632585525513,0.4595645070075989,0.04601473733782768
1757490699705583000,2.5475830078125,-1.2531729936599731,1.422076940536499,0.22546055912971497
1757490699715623700,2.557623779296875,-1.036788821220398,1.941478967666626,-0.13914337754249573
1757490699725639400,2.567639404296875,-0.7563037872314453,2.9755032062530518,-1.0126407146453857
1757490699735691300,2.577691162109375,-0.36601951718330383,3.377311944961548,-1.9534697532653809
1757490699745742000,2.5877421875,-0.2566699683666229,3.2463622093200684,-2.2204983234405518
1757490699755786500,2.597786376953125,-0.2841322720050812,3.264681577682495,-1.7684448957443237
1757490699765827300,2.607827392578125,-0.3240516781806946,3.671020269393921,-1.7804356813430786
1757490699775848700,2.6178486328125,-0.29270902276039124,3.4955379962921143,-2.1917037963867188
1757490699785909200,2.6279091796875,-0.38130781054496765,2.9961206912994385,-1.9493728876113892
1757490699795976200,2.63797607421875,-0.3834894597530365,2.9514217376708984,-1.5303106307983398
1757490699805964800,2.64796484375,-0.36507025361061096,3.0653843879699707,-1.4762520790100098
1757490699816031200,2.65803125,-0.3469008505344391,3.387221097946167,-1.707808017730713
1757490699826070500,2.668070556640625,-0.42310911417007446,3.5257649421691895,-1.8560609817504883
1757490699836109000,2.678109130859375,-0.4375647008419037,3.498852252960205,-1.8549119234085083
1757490699846153500,2.688153564453125,-0.5343072414398193,3.4132511615753174,-1.9608640670776367
1757490699856193500,2.698193603515625,-0.5169538855552673,2.728992223739624,-2.080522298812866
1757490699866234400,2.708234375,-0.40157559514045715,1.2654969692230225,-1.8102627992630005
1757490699876271400,2.718271240234375,-0.3474504053592682,0.3246845304965973,-1.287147045135498
1757490699886316000,2.72831591796875,-0.293724924325943,0.09091366827487946,-0.9709892868995667
1757490699896355800,2.73835595703125,-0.2824835479259491,0.16733843088150024,-0.8176900744438171
1757490699906395000,2.748394775390625,-0.33174577355384827,0.20767419040203094,-0.6923194527626038
1757490699916434200,2.75843408203125,-0.3044167160987854,0.02872798591852188,-0.5867670178413391
1757490699926475000,2.76847509765625,-0.19721554219722748,-0.2036772519350052,-0.49815160036087036
1757490699936516400,2.778516357421875,-0.02584685944020748,-0.44199463725090027,-0.46502697467803955
1757490699946557000,2.788556884765625,0.062352221459150314,-0.630316972732544,-0.5219000577926636
1757490699956600300,2.798600341796875,0.045814890414476395,-0.6453554630279541,-0.6165275573730469
1757490699966641000,2.808640869140625,-0.018019525334239006,-0.41636428236961365,-0.6599942445755005
1757490699976678000,2.818677978515625,-0.005828866735100746,-0.37076589465141296,-0.6017388701438904
1757490699986722600,2.82872265625,0.0515105277299881,-0.48522818088531494,-0.5815044045448303
1757490700006803700,2.8488037109375,0.18985451757907867,-1.7447630167007446,-0.41428253054618835
1757490700016844500,2.858844482421875,0.2705593407154083,-3.1266374588012695,-0.3519802689552307
1757490700026885600,2.8688857421875,0.11014892905950546,-3.5981428623199463,-0.4181962013244629
1757490700036925700,2.87892578125,-0.17106890678405762,-3.353113889694214,-0.4746529459953308
1757490700046962700,2.888962646484375,-0.28493165969848633,-1.9799660444259644,-0.47550228238105774
1757490700057005800,2.899005859375,-0.6103323101997375,-1.572028636932373,0.2551211714744568
1757490700067043800,2.9090439453125,-0.8666025996208191,-2.2252113819122314,1.106835126876831
1757490700077088500,2.919088623046875,-0.9762519001960754,-2.236769199371338,1.4141995906829834
1757490700087129000,2.929129150390625,-1.2439634799957275,-1.7325056791305542,1.1429741382598877
1757490700097170200,2.939170166015625,-1.6212409734725952,-2.138777732849121,0.9716554284095764
1757490700107210000,2.9492099609375,-1.9912407398223877,-2.4700071811676025,0.9922396540641785
1757490700117250800,2.959250732421875,-2.0012998580932617,-1.7580361366271973,0.6832597255706787
1757490700127288000,2.9692880859375,-1.7673790454864502,-0.05084437131881714,0.013622893951833248
1757490700137332500,2.97933251953125,-1.0767748355865479,1.3554279804229736,-0.6594446897506714
1757490700147373800,2.989373779296875,-0.12337213009595871,1.8011364936828613,-1.175865650177002
1757490700157411000,2.9994111328125,0.2838824689388275,1.8016527891159058,-1.5438835620880127
1757490700167451100,3.009451171875,0.3972289264202118,1.9528701305389404,-1.6986982822418213
1757490700177492200,3.0194921875,0.46287864446640015,2.169870615005493,-1.6631255149841309
1757490700187533800,3.029533935546875,0.5944611430168152,2.1119983196258545,-1.346118450164795
1757490700197572600,3.039572509765625,0.7840325236320496,1.4800825119018555,-0.8897514939308167
1757490700207613200,3.04961328125,1.0480302572250366,0.47253790497779846,-0.6451889276504517
1757490700217657900,3.059657958984375,1.2366690635681152,0.3779270648956299,-0.5000501275062561
1757490700227698700,3.06969873046875,2.138094902038574,0.2896280586719513,-0.4801487326622009
1757490700237739000,3.079739013671875,2.8283159732818604,0.5092763900756836,-0.3836227059364319
1757490700247780000,3.089780029296875,2.639993667602539,-0.6142792701721191,-0.21123813092708588
1757490700257816300,3.09981640625,1.9102362394332886,-1.2972558736801147,0.1732172667980194
1757490700267861200,3.109861328125,0.8252676129341125,-1.6909708976745605,0.483029842376709
1757490700277898200,3.119898193359375,-0.643706738948822,-1.8643547296524048,0.4252074956893921
1757490700287943000,3.12994287109375,-1.6200919151306152,-1.3300807476043701,0.21670061349868774
1757490700297983200,3.139983154296875,-1.6171940565109253,-0.9822806119918823,0.04608135297894478
1757490700308023600,3.1500234375,-1.061170220375061,-0.7431971430778503,0.061352986842393875
1757490700318061300,3.160061279296875,-0.3278154730796814,-0.8340608477592468,0.2822170853614807
1757490700328105700,3.170105712890625,-0.014122511260211468,-0.7013459205627441,0.5652668476104736
1757490700338146000,3.18014599609375,0.19151990115642548,0.004030244890600443,0.4615796208381653
1757490700348183300,3.190183349609375,1.9585325717926025,1.6104825735092163,-0.44169485569000244
1757490700358227200,3.200227294921875,4.122824192047119,3.177764892578125,-1.1681548357009888
1757490700368267800,3.210267822265625,4.870934009552002,3.014423370361328,-0.7219967246055603
1757490700378308900,3.220308837890625,3.942495584487915,1.4664928913116455,0.12054096162319183
1757490700388345900,3.230345947265625,2.741732358932495,0.04626454785466194,0.5097260475158691
1757490700398392600,3.240392578125,2.0325591564178467,-0.5234822034835815,0.38811925053596497
1757490700408427300,3.25042724609375,1.1971659660339355,-0.8975622057914734,0.3357260525226593
1757490700418445300,3.2604453125,0.21828272938728333,-1.2064255475997925,0.5724279880523682
1757490700428509200,3.27050927734375,-0.10057292878627777,-1.21580171585083,0.7885124087333679
1757490700438551300,3.28055126953125,-0.22649310529232025,-1.1002901792526245,0.8203880190849304
1757490700448568000,3.290568115234375,-0.49973371624946594,-0.7012792825698853,0.7731242179870605
1757490700458608400,3.3006083984375,-0.998035192489624,-0.5029645562171936,0.833111584186554
1757490700468649200,3.310649169921875,-1.5897318124771118,-0.6032710671424866,0.9500386714935303
1757490700478715400,3.32071533203125,-1.8438204526901245,-0.7925426959991455,1.0455321073532104
1757490700488756000,3.330755859375,-1.9969863891601562,-1.35725998878479,1.141608476638794
1757490700498796800,3.340796875,-2.1338980197906494,-2.205359935760498,1.3004368543624878
1757490700508836900,3.3508369140625,-1.9727216958999634,-2.7561047077178955,1.6008732318878174
1757490700518874000,3.3608740234375,-1.6672390699386597,-2.5476644039154053,1.8372920751571655
1757490700528919000,3.3709189453125,-1.6880230903625488,-2.3460354804992676,1.8718489408493042
1757490700538960100,3.380960205078125,-2.023466110229492,-2.5768420696258545,1.7168843746185303
1757490700548999400,3.39099951171875,-2.3795266151428223,-2.9904584884643555,1.5113584995269775
1757490700559040500,3.40104052734375,-2.599890947341919,-3.3626065254211426,1.417497158050537
1757490700569082400,3.411082275390625,-2.70322847366333,-3.249493360519409,1.5188027620315552
1757490700579118600,3.42111865234375,-2.97092342376709,-3.088050365447998,1.4267066717147827
1757490700589163500,3.43116357421875,-3.0009169578552246,-2.7361199855804443,1.1569300889968872
1757490700599204600,3.44120458984375,-2.767879009246826,-1.9416288137435913,0.8272660970687866
1757490700609243600,3.45124365234375,-2.271792411804199,-1.1895217895507812,0.6602939963340759
1757490700619284700,3.46128466796875,-1.6946181058883667,-0.282949835062027,0.17544889450073242
1757490700629325600,3.47132568359375,-0.9305036067962646,0.18684016168117523,-0.22849157452583313
1757490700639362300,3.4813623046875,-0.14705398678779602,0.32618337869644165,-0.41579803824424744
1757490700649403600,3.491403564453125,0.45983096957206726,0.6077509522438049,-0.6580124497413635
1757490700659443200,3.501443115234375,0.9576994776725769,0.9273560643196106,-0.8704163432121277
1757490700669485000,3.511485107421875,1.2528566122055054,1.097025990486145,-0.9382976293563843
1757490700679526100,3.521526123046875,1.5183697938919067,1.0194520950317383,-0.7922762036323547
1757490700689571800,3.53157177734375,1.7104558944702148,0.6510011553764343,-0.4771510362625122
1757490700699611000,3.54161083984375,1.766812801361084,0.1729341447353363,-0.1599607616662979
1757490700709646600,3.551646484375,1.681244969367981,-0.19225268065929413,0.05374215170741081
1757490700719688200,3.561688232421875,1.6979655027389526,-0.42630666494369507,0.2751224935054779
1757490700729732600,3.571732666015625,1.7922766208648682,-0.8233190774917603,0.6394266486167908
1757490700739773200,3.581773193359375,1.8632222414016724,-1.4262737035751343,1.3346939086914062
1757490700749814000,3.59181396484375,1.8538960218429565,-2.2527737617492676,1.8589588403701782
1757490700759854300,3.601854248046875,1.9268401861190796,-2.4998011589050293,1.3271163702011108
1757490700769891600,3.6118916015625,1.7093068361282349,-2.1660735607147217,1.1013060808181763
1757490700779936000,3.62193603515625,1.5204015970230103,-1.8486000299453735,1.158495545387268
1757490700789976800,3.631976806640625,1.374746561050415,-1.2762054204940796,0.9869770407676697
1757490700800017700,3.642017578125,1.4028583765029907,-0.4078041613101959,0.7487928867340088
1757490700810057500,3.652057373046875,1.5187362432479858,0.23012365400791168,0.5641676783561707
1757490700820098800,3.662098876953125,1.5445996522903442,0.3340606689453125,0.4876929521560669
1757490700830139100,3.67213916015625,1.5689144134521484,0.13109953701496124,0.3738635182380676
1757490700840176000,3.682176025390625,1.4869438409805298,-0.05092764273285866,0.284432053565979
1757490700850221000,3.692220947265625,1.2466779947280884,0.273173987865448,0.1654232293367386
1757490700860261400,3.702261474609375,0.9788332581520081,0.5893150568008423,0.03823736682534218
1757490700870302000,3.712302001953125,0.6485363841056824,0.75730299949646,-0.019102029502391815
1757490700880342800,3.7223427734375,0.35188034176826477,0.7417149543762207,0.008110451512038708
1757490700890384000,3.7323837890625,0.1485694795846939,0.5096261501312256,0.0856010690331459
1757490700900420600,3.742420654296875,0.04951205849647522,0.3907838761806488,0.24146497249603271
1757490700910459600,3.752459716796875,0.10193855315446854,-0.30863016843795776,0.535922646522522
1757490700920501800,3.762501708984375,0.3245679438114166,-1.3102126121520996,0.5479134917259216
1757490700930520800,3.772520751953125,0.37213149666786194,-2.7198824882507324,0.611248254776001
1757490700940585000,3.7825849609375,0.29051071405410767,-4.023433685302734,0.5009328126907349
1757490700950623000,3.792623046875,0.23453694581985474,-4.36122465133667,0.3849550187587738
1757490700960663800,3.802663818359375,0.2054925262928009,-3.342005729675293,0.10138897597789764
1757490700970706700,3.812706787109375,0.27418988943099976,-1.425241231918335,-0.5625855326652527
1757490700980747500,3.82274755859375,0.34861618280410767,-0.2533058822154999,-0.8169739842414856
1757490700990785500,3.83278564453125,0.3710156977176666,0.8042836785316467,-0.8063321113586426
1757490701000826400,3.842826416015625,0.6074011921882629,1.7463451623916626,-0.8590250611305237
1757490701010865700,3.85286572265625,0.8544285893440247,3.0042810440063477,-1.1266865730285645
1757490701020910300,3.862910400390625,0.6948508620262146,4.0923309326171875,-1.4489729404449463
1757490701030943500,3.872943603515625,0.6794459819793701,3.885772228240967,-1.358142614364624
1757490701040994600,3.88299462890625,0.8220700621604919,2.9947052001953125,-1.11855947971344
1757490701051032800,3.89303271484375,0.6378278732299805,1.3835231065750122,-0.4907406270503998
1757490701061070800,3.90307080078125,0.21789969503879547,0.1624421924352646,-0.026529669761657715
1757490701071117000,3.913116943359375,-0.09402794390916824,-0.511774480342865,0.16382446885108948
1757490701081217000,3.923217041015625,0.062485452741384506,-0.8798924088478088,0.3958633244037628
1757490701091195400,3.9331953125,0.17579862475395203,-1.5905312299728394,0.9440099596977234
1757490701101238000,3.943238037109375,0.11084838956594467,-2.314176559448242,1.376328706741333
1757490701111277800,3.95327783203125,0.19829805195331573,-2.7967567443847656,1.660744071006775
1757490701121319400,3.9633193359375,0.3521135151386261,-2.5438172817230225,1.6772980690002441
1757490701131359200,3.973359130859375,0.5184693932533264,-1.313127040863037,1.2816178798675537
1757490701141405200,3.9834052734375,0.6232057809829712,-0.23247185349464417,0.8242850303649902
1757490701151437300,3.993437255859375,0.4353330731391907,0.4009760618209839,0.30353406071662903
1757490701161478100,4.00347802734375,0.2199314683675766,0.3783600628376007,-0.1498851478099823
1757490701171520500,4.0135205078125,0.18322625756263733,0.041851263493299484,-0.2393665760755539
1757490701181561900,4.023561767578125,0.17818012833595276,-0.052709609270095825,-0.24787671864032745
1757490701191604000,4.03360400390625,0.21796630322933197,-0.13096630573272705,-0.26198258996009827
1757490701201644300,4.043644287109375,0.3529461920261383,-0.31535834074020386,-0.11424578726291656
1757490701211684900,4.053684814453125,0.6821439266204834,-0.8199383616447449,0.32674962282180786
1757490701221721600,4.0637216796875,1.1511012315750122,-1.0471309423446655,0.5357561111450195
1757490701231766300,4.073766357421875,1.6614102125167847,-0.7816510200500488,0.4712555408477783
1757490701241807400,4.083807373046875,2.0316598415374756,-0.3391401171684265,0.2867802381515503
1757490701251848000,4.093847900390625,2.1580963134765625,0.06140294671058655,0.040635526180267334
1757490701261888300,4.10388818359375,1.995787262916565,-0.14950209856033325,-0.23148927092552185
1757490701271929300,4.113929443359375,1.6955339908599854,-0.847866952419281,-0.45378559827804565
1757490701281966000,4.123966064453125,1.4526700973510742,-1.6912373304367065,-0.5606037378311157
1757490701292010800,4.1340107421875,1.0107921361923218,-2.277971029281616,-0.5528430342674255
1757490701302051300,4.14405126953125,0.6355463266372681,-2.122023820877075,-0.3636879622936249
1757490701312092200,4.154092041015625,0.46101340651512146,-1.5116416215896606,-0.08266998082399368
1757490701322129000,4.16412890625,0.5141726732254028,-1.1744999885559082,0.02831163816154003
1757490701332173600,4.174173583984375,0.359890878200531,-0.9151487350463867,0.042933765798807144
1757490701342214700,4.184214599609375,0.24716059863567352,-0.6285516619682312,0.005712289363145828
1757490701352251000,4.1942509765625,0.3493323028087616,-0.3650202751159668,-0.04133499041199684
1757490701362295000,4.204294921875,0.6968826651573181,-0.25495463609695435,-0.14700402319431305
1757490701372336400,4.21433642578125,0.7915434241294861,-0.330530047416687,-0.15992744266986847
1757490701382377500,4.22437744140625,0.5996571779251099,-0.2574693560600281,-0.11103158444166183
1757490701392414000,4.2344140625,0.4296707510948181,-0.2581188678741455,-0.0737934559583664
1757490701402455000,4.244455078125,0.3456518054008484,-0.18940486013889313,-0.041684724390506744
1757490701412494600,4.25449462890625,0.47488608956336975,0.11249712854623795,-0.02371516078710556
1757490701422538500,4.26453857421875,0.013073314912617207,0.5975920557975769,0.041934531182050705
1757490701432580000,4.274580078125,-0.2882457971572876,0.3738968074321747,0.06924693286418915
1757490701442621400,4.284621337890625,-0.3419046700000763,-0.4353663921356201,0.021350305527448654
1757490701452661800,4.294661865234375,-0.2964394986629486,-0.48301321268081665,0.14670424163341522
1757490701462698200,4.3046982421875,-0.39797836542129517,0.22108058631420135,0.018552450463175774
1757490701472743400,4.314743408203125,-0.44024598598480225,0.5436667203903198,-0.14352335035800934
1757490701482784000,4.324783935546875,-0.5090765357017517,0.3132432997226715,-0.16770482063293457
1757490701492824600,4.334824462890625,-0.6188257932662964,-0.041135143488645554,-0.1037871316075325
1757490701502865700,4.34486572265625,-0.8295809626579285,-0.34035584330558777,-0.08724980801343918
1757490701512905500,4.354905517578125,-1.2446129322052002,0.03920329362154007,-0.12701933085918427
1757490701522946800,4.36494677734375,-1.7858648300170898,0.9689075350761414,-0.14320692420005798
1757490701532983300,4.3749833984375,-2.4898087978363037,1.8381247520446777,-0.41255053877830505
1757490701543028700,4.38502880859375,-3.1397273540496826,2.3046672344207764,-0.8499153852462769
1757490701553069000,4.395069091796875,-3.21095609664917,2.4223270416259766,-1.280535340309143
1757490701563108900,4.40510888671875,-2.6693878173828125,2.9922571182250977,-1.7782373428344727
1757490701573150200,4.415150146484375,-2.138911008834839,3.5550923347473145,-1.730423927307129
1757490701583191300,4.42519140625,-1.8616567850112915,4.048830509185791,-1.5573898553848267
1757490701593231600,4.435231689453125,-1.3483500480651855,3.340923309326172,-1.4209611415863037
1757490701603267800,4.445267822265625,-0.6418914794921875,2.0964434146881104,-1.088998794555664
1757490701613312500,4.4553125,-0.1800786703824997,1.2016125917434692,-0.719515323638916
1757490701623354000,4.46535400390625,-0.02834494598209858,0.6354297399520874,-0.37701109051704407
1757490701633396200,4.475396240234375,0.01941845379769802,0.15736274421215057,-0.13624559342861176
1757490701643431400,4.485431396484375,0.13909341394901276,-0.2794192135334015,0.019485069438815117
1757490701653472000,4.495471923828125,0.42081087827682495,-0.567148745059967,0.12800191342830658
1757490701663513300,4.505513427734375,0.6786799430847168,-1.26744544506073,0.43982961773872375
1757490701673534000,4.515533935546875,0.9105355739593506,-2.766479969024658,1.0305269956588745
1757490701683597800,4.525597900390625,1.1201915740966797,-4.1919708251953125,1.6823607683181763
1757490701693634600,4.535634521484375,1.7553715705871582,-3.23765230178833,1.3428210020065308
1757490701703679000,4.545678955078125,2.0984086990356445,-1.398045301437378,0.4410453736782074
1757490701713719300,4.55571923828125,1.979183316230774,-1.2489429712295532,0.18795597553253174
1757490701723760600,4.5657607421875,1.879326581954956,-1.6100661754608154,0.19303540885448456
1757490701733801000,4.575801025390625,1.7210478782653809,-1.8298144340515137,0.23057331144809723
1757490701743842000,4.585842041015625,1.448490023612976,-1.7647143602371216,0.19588322937488556
1757490701753882600,4.595882568359375,1.232938528060913,-1.595760464668274,0.11609437316656113
1757490701763919600,4.605919677734375,0.9108186960220337,-1.7190660238265991,0.1357959359884262
1757490701773963800,4.6159638671875,0.37874311208724976,-5.814810752868652,-0.093378446996212
1757490701784004600,4.626004638671875,0.20231163501739502,-4.548780918121338,0.2076408863067627
1757490701794045700,4.636045654296875,-0.008610068820416927,-2.9359169006347656,0.314542293548584
1757490701804086500,4.64608642578125,-0.18610738217830658,-1.650451898574829,0.462212473154068
1757490701814127000,4.656127197265625,-0.13699501752853394,-0.4987178444862366,0.4580489993095398
1757490701824168400,4.66616845703125,-0.016920367255806923,0.5333412885665894,0.4594479203224182
1757490701834204000,4.676203857421875,0.12540389597415924,0.9895417094230652,0.516720712184906
1757490701844249300,4.686249267578125,0.20510949194431305,1.3741469383239746,0.5625355839729309
1757490701854289700,4.69628955078125,0.17561542987823486,1.9009766578674316,0.5263133645057678
1757490701864327200,4.7063271484375,0.233337864279747,2.375030040740967,0.4470074474811554
1757490701874371600,4.71637158203125,0.2881791591644287,3.0549423694610596,0.6309165358543396
1757490701884410000,4.72641015625,0.25237327814102173,3.073194980621338,0.7282086610794067
1757490701894448600,4.73644873046875,0.36007407307624817,3.828433036804199,1.3586921691894531
1757490701904489700,4.74648974609375,-0.36568644642829895,2.546032428741455,0.23521974682807922
1757490701914532000,4.756531982421875,-0.366069495677948,-0.05452488362789154,-0.040635526180267334
1757490701924575500,4.766575439453125,-0.03743797913193703,-1.1119978427886963,-0.11819276213645935
1757490701934615300,4.776615234375,0.015921132639050484,-0.4109017848968506,-0.1700863242149353
1757490701944656100,4.78665625,-0.19846458733081818,0.07642477005720139,-0.13846056163311005
1757490701954697000,4.796697021484375,-0.24889260530471802,0.23580263555049896,-0.13074980676174164
1757490701964737500,4.806737548828125,-0.22862480580806732,0.17003637552261353,-0.22286255657672882
1757490701974778000,4.816778076171875,-0.2720082402229309,-0.11499521136283875,-0.40823715925216675
1757490701984819500,4.8268193359375,-0.4019419848918915,-0.6485030651092529,-0.6307999491691589
1757490701994859800,4.83685986328125,-0.5784733891487122,-1.2003967761993408,-0.8768280744552612
1757490702004900600,4.846900634765625,-1.0659332275390625,-1.3453524112701416,-1.1789631843566895
1757490702014941400,4.85694140625,-1.7860980033874512,-0.8103623390197754,-1.5267133712768555
1757490702024982300,4.866982177734375,-2.5476644039154053,0.19470080733299255,-1.7612836360931396
1757490702035022800,4.87702294921875,-3.157630205154419,1.6303173303604126,-1.3555779457092285
1757490702045061400,4.887061279296875,-3.200397491455078,3.3642053604125977,-0.8607737421989441
1757490702055101200,4.89710107421875,-2.929438591003418,3.736203670501709,-0.5030645132064819
1757490702065140500,4.907140380859375,-2.7007970809936523,2.9536032676696777,-0.21128809452056885
1757490702075181300,4.917181396484375,-2.4711897373199463,1.8692508935928345,-0.16812117397785187
1757490702085222100,4.92722216796875,-2.217017889022827,1.17551589012146,-0.3385072648525238
1757490702095263500,4.937263427734375,-2.023616075515747,1.0105422735214233,-0.5299272537231445
1757490702105310200,4.947310302734375,-1.9340845346450806,1.1241718530654907,-0.5902810096740723
1757490702115344000,4.95734375,-1.480532169342041,1.223812222480774,-0.45626702904701233
1757490702125390600,4.967390625,0.7957735061645508,0.34485241770744324,0.15539757907390594
1757490702135425300,4.97742529296875,2.854545831680298,0.3953636884689331,0.37955915927886963
1757490702145467000,4.987466796875,3.4540698528289795,0.47703444957733154,0.44261083006858826
1757490702155507200,4.997507080078125,3.0985755920410156,0.7391669154167175,0.3446025848388672
1757490702165549800,5.0075498046875,2.4125678539276123,1.0717953443527222,0.12796860933303833
1757490702175588400,5.01758837890625,2.0353236198425293,1.152933120727539,-0.18888859450817108
1757490702185633500,5.027633544921875,2.094744920730591,0.9154984354972839,-0.4427274167537689
1757490702195673600,5.037673583984375,2.174267292022705,0.7954238057136536,-0.5609867572784424
1757490702205710800,5.0477109375,2.2013297080993652,1.0991411209106445,-0.639110267162323
1757490702215754800,5.057754638671875,2.181528329849243,1.6777809858322144,-0.5963596701622009
1757490702225795800,5.0677958984375,2.1091504096984863,1.3331117630004883,-0.2893449366092682
1757490702235832800,5.077832763671875,1.9192126989364624,0.39548027515411377,-0.00712787127122283
1757490702245877500,5.08787744140625,1.6596782207489014,-2.2109224796295166,0.6475870609283447
1757490702255918300,5.09791845703125,1.478683590888977,-4.485579490661621,0.9963365197181702
1757490702265958400,5.10795849609375,1.2964898347854614,-4.1774821281433105,0.7912270426750183
1757490702275995100,5.1179951171875,2.0035314559936523,-1.5872336626052856,0.5853514671325684
1757490702286040000,5.1280400390625,2.7475779056549072,0.6812779307365417,0.28951147198677063
1757490702296080600,5.13808056640625,2.6926698684692383,0.783316433429718,0.39921075105667114
1757490702306118000,5.148117919921875,2.876862049102783,0.16915370523929596,0.8452189564704895
1757490702316162000,5.158162109375,3.374130964279175,-0.792709231376648,1.2090568542480469
1757490702326203100,5.168203125,3.85186505317688,-2.041085958480835,1.5795729160308838
1757490702336243200,5.1782431640625,3.8652713298797607,-2.92236065864563,1.8766119480133057
1757490702346280400,5.188280517578125,3.0531604290008545,-2.905606746673584,1.8920001983642578
1757490702356326000,5.198325927734375,1.642841100692749,-2.150218963623047,1.4674421548843384
1757490702366361900,5.20836181640625,0.5798556804656982,-1.3536127805709839,0.9232924580574036
1757490702376406800,5.21840673828125,0.3154749274253845,-0.9274060130119324,0.5559239983558655
1757490702386443500,5.228443603515625,0.3901510238647461,-0.6908539533615112,0.35456162691116333
1757490702396484400,5.238484375,0.5171869993209839,-0.5917132496833801,0.1635580062866211
1757490702406528000,5.248528076171875,0.8392235636711121,-0.7878795862197876,0.11712691187858582
1757490702416566500,5.25856640625,1.1897050142288208,-1.0118080377578735,0.0641508400440216
1757490702426610000,5.26860986328125,1.149635672569275,-1.3067985773086548,-0.1690371334552765
1757490702436646400,5.278646484375,1.0349235534667969,-1.2927759885787964,-0.31056201457977295
1757490702446691600,5.288691650390625,0.5157214999198914,-1.5484133958816528,-0.5292444229125977
1757490702456732200,5.298732177734375,0.02934418059885502,-1.5993744134902954,-0.6234555840492249
1757490702466773000,5.30877294921875,-0.22601014375686646,-1.5268466472625732,-0.6256705522537231
1757490702476813600,5.3188134765625,-0.33612576127052307,-1.27052640914917,-0.6294176578521729
1757490702486854400,5.3288544921875,-0.3503148853778839,-0.9433104991912842,-0.621273934841156
1757490702496891400,5.338891357421875,-0.2744396924972534,-0.7662461400032043,-0.6814278364181519
1757490702506932200,5.34893212890625,-0.12362193316221237,-0.778370201587677,-0.8231359124183655
1757490702516976000,5.35897607421875,0.17756393551826477,-0.7463114261627197,-0.9563837647438049
1757490702527017000,5.369016845703125,-0.029127679765224457,-1.0428175926208496,-1.0878664255142212
1757490702537057800,5.379057861328125,-0.2825501561164856,-1.21791672706604,-1.06594979763031
1757490702547099100,5.38909912109375,-0.4636113941669464,-0.7657798528671265,-0.9543353915214539
1757490702557135600,5.399135498046875,-0.6122308373451233,-0.08908173441886902,-0.8364257216453552
1757490702567180000,5.409179931640625,-0.5356894731521606,0.5811879634857178,-0.8056825995445251
1757490702577216800,5.419216796875,-0.3983447551727295,0.8930323123931885,-0.9664260745048523
1757490702587261200,5.42926123046875,-0.29056066274642944,0.8379911780357361,-1.2721751928329468
1757490702597302000,5.439302001953125,0.09624291956424713,1.2713091373443604,-1.536855697631836
1757490702607343600,5.449343505859375,-0.14712059497833252,2.3709166049957275,-1.0740768909454346
1757490702617384200,5.45938427734375,-0.15246650576591492,3.592413902282715,-0.5429506301879883
1757490702627420700,5.469420654296875,-0.03239184617996216,3.73160719871521,-0.3395398259162903
1757490702637461200,5.479461181640625,0.03022683784365654,3.507528781890869,-0.34416958689689636
1757490702647503000,5.489503173828125,0.05161045119166374,3.083253860473633,-0.2573361396789551
1757490702657544700,5.499544677734375,-0.0572061613202095,2.7056267261505127,-0.03357427194714546
1757490702667586800,5.5095869140625,-0.8711990714073181,1.3137099742889404,0.3294142484664917
1757490702677627600,5.519627685546875,-1.8459854125976562,-1.1953173875808716,0.6928357481956482
1757490702687664600,5.52966455078125,-2.253406524658203,-1.2705596685409546,0.5642343163490295
1757490702697709600,5.53970947265625,-2.268245220184326,0.8928990960121155,0.18379248678684235
1757490702707750000,5.54975,-2.10731840133667,1.189388632774353,0.2370849847793579
1757490702717790500,5.55979052734375,-1.6008732318878174,0.7333380579948425,-0.0709456354379654
1757490702727831300,5.569831298828125,-0.3829898536205292,-0.6403093338012695,-0.14112518727779388
1757490702737872000,5.579871826171875,0.22391174733638763,-0.20066289603710175,-0.006911370437592268
1757490702747912700,5.58991259765625,0.26794466376304626,0.43926340341567993,-0.11927526444196701
1757490702757949400,5.599949462890625,0.24711063504219055,0.3987610936164856,-0.08197052031755447
1757490702767994400,5.609994384765625,0.2529062032699585,0.4522867500782013,-0.025613704696297646
1757490702778035000,5.620034912109375,0.17566539347171783,0.5300105214118958,-0.028328292071819305
1757490702788075500,5.630075439453125,0.15854518115520477,0.4014090597629547,-0.07317725569009781
1757490702798116600,5.64011669921875,0.2727576494216919,0.24459590017795563,-0.14628790318965912
1757490702808153000,5.650153076171875,0.2894115447998047,0.2646472156047821,-0.18479172885417938
1757490702818194000,5.66019384765625,0.21578463912010193,0.3342771828174591,-0.2066749632358551
1757490702828238600,5.670238525390625,0.14219103753566742,0.47223812341690063,-0.248326376080513
1757490702838279400,5.680279541015625,0.11442898213863373,0.5610367655754089,-0.25412192940711975
1757490702848320500,5.690320556640625,0.18364261090755463,0.7059756517410278,-0.26341480016708374
1757490702858361300,5.700361328125,0.16755492985248566,0.7330715656280518,-0.18269333243370056
1757490702868406300,5.71040625,0.07679115235805511,0.2751891314983368,-0.02712921053171158
1757490702878439000,5.72043896484375,0.0535256490111351,-0.2854479253292084,0.09334513545036316
1757490702888479200,5.730479248046875,0.01720348373055458,-0.6878395676612854,0.15899482369422913
1757490702898523000,5.74052294921875,-0.044399309903383255,-0.8685510754585266,0.1891050934791565
1757490702908572200,5.750572265625,-0.12387174367904663,-0.8825903534889221,0.23442035913467407
1757490702918605000,5.76060498046875,-0.2160511016845703,-0.8125439882278442,0.2973554730415344
1757490702928646100,5.770646240234375,-0.34879937767982483,-0.7594013810157776,0.3646205961704254
1757490702938686500,5.7806865234375,-0.5321255922317505,-0.8229360580444336,0.41573143005371094
1757490702948724200,5.79072412109375,-0.6335811614990234,-0.7825170159339905,0.45968109369277954
1757490702958768000,5.80076806640625,-0.693235456943512,-0.5248644351959229,0.5140560865402222
1757490702968808700,5.81080859375,-0.7384674549102783,-0.11078177392482758,0.5711456537246704
1757490702978849500,5.820849609375,-0.7302737236022949,0.24382981657981873,0.6308665871620178
1757490702988889900,5.830889892578125,-0.6850583553314209,0.3777938187122345,0.6087668538093567
1757490702998931200,5.84093115234375,-0.5676649808883667,0.27397337555885315,0.4915233552455902
1757490703008967700,5.8509677734375,-0.40212517976760864,0.1319655478000641,0.3607735335826874
1757490703019012600,5.8610126953125,-0.2127702832221985,-0.034623466432094574,0.310462087392807
1757490703029053400,5.871053466796875,-0.06067017465829849,0.09144659340381622,0.35008174180984497
1757490703039094300,5.88109423828125,-0.03164241835474968,0.18782274425029755,0.34375324845314026
1757490703049134800,5.891134765625,-0.060853369534015656,0.26766157150268555,0.31022894382476807
1757490703059176000,5.901176025390625,-0.10641845315694809,0.4582488536834717,0.29743874073028564
1757490703069216300,5.91121630859375,-0.2126370519399643,0.6129969358444214,0.2371516078710556
1757490703079253000,5.9212529296875,-0.4905407726764679,1.3405394554138184,0.08558441698551178
1757490703089297400,5.93129736328125,-0.7147689461708069,3.3334121704101562,-0.23345443606376648
1757490703099339000,5.941339111328125,-0.18464183807373047,2.3119616508483887,-0.16575631499290466
1757490703109379300,5.95137939453125,0.3284316658973694,0.5621026158332825,-0.060886677354574203
1757490703119417300,5.961417236328125,0.48183077573776245,-0.5225329399108887,-0.1612764149904251
1757490703129456600,5.97145654296875,0.43156927824020386,-1.0203514099121094,-0.24761025607585907
1757490703139497500,5.98149755859375,0.3618227243423462,-1.307647943496704,-0.2790028750896454
1757490703149539300,5.991539306640625,0.3351764976978302,-1.3607405424118042,-0.2593013048171997
1757490703159580000,6.001579833984375,0.3015022873878479,-1.0231326818466187,-0.18727315962314606
1757490703169623000,6.011623046875,0.22149693965911865,-0.6468210220336914,-0.16600611805915833
1757490703179659800,6.02165966796875,0.14372320473194122,-0.3507978618144989,-0.19808153808116913
1757490703189704700,6.03170458984375,0.10495290905237198,-0.11059857904911041,-0.2192320078611374
1757490703199741400,6.041741455078125,0.05569065734744072,-0.004996171221137047,-0.205209419131279
1757490703209786400,6.051786376953125,-0.02646305412054062,-0.024614471942186356,-0.16265869140625
1757490703219827000,6.061826904296875,-0.1272524893283844,-0.10681814700365067,-0.11129804700613022
1757490703229867800,6.07186767578125,-0.1303001493215561,-0.3173401653766632,-0.10678483545780182
1757490703239908000,6.081908203125,-0.1266196370124817,-0.4551845192909241,-0.10806718468666077
1757490703249945300,6.0919453125,-0.1050361767411232,-0.5544917583465576,-0.12348870187997818
1757490703259989800,6.10198974609375,-0.11562806367874146,-0.603837251663208,-0.13767783343791962
1757490703270026500,6.112026611328125,-0.09069716930389404,-0.5559073686599731,-0.12035776674747467
1757490703280071700,6.12207177734375,-0.014738705940544605,-0.6303836107254028,-0.09451091289520264
1757490703290112000,6.132112060546875,0.1046198308467865,-0.7572863698005676,-0.07908939570188522
1757490703300153000,6.142153076171875,0.16727182269096375,-0.8071314692497253,-0.06405092030763626
1757490703310194000,6.15219384765625,0.1712021380662918,-0.8116613626480103,-0.032042112201452255
1757490703320230100,6.162230224609375,0.10332082211971283,-0.7901111841201782,0.03355761989951134
1757490703330271200,6.172271240234375,0.017919601872563362,-0.6448225378990173,0.09199617058038712
1757490703340316000,6.18231591796875,-0.02075076475739479,-0.5219500064849854,0.12991711497306824
1757490703350356500,6.1923564453125,-0.05257637798786163,-0.4628952741622925,0.1428738534450531
1757490703360401400,6.2024013671875,-0.11234724521636963,-0.3188723027706146,0.12813514471054077
1757490703370434000,6.21243408203125,-0.12287250906229019,-0.22257943451404572,0.07908939570188522
1757490703380474400,6.222474365234375,-0.10595214366912842,-0.18052832782268524,0.05510777235031128
1757490703390516000,6.232515869140625,-0.08824904263019562,-0.12625324726104736,0.09317860007286072
1757490703400556800,6.242556884765625,-0.08543453365564346,-0.118709035217762,0.10946611315011978
1757490703410607000,6.252607177734375,-0.0906638577580452,-0.13158249855041504,0.09491060674190521
1757490703420640300,6.26264013671875,-0.08570099622011185,-0.20672492682933807,0.08916500955820084
1757490703430654700,6.27265478515625,-0.0635179951786995,-0.18822243809700012,0.10958269238471985
1757490703440720600,6.282720703125,-0.06298507004976273,-0.10338743776082993,0.12518739700317383
1757490703450760700,6.2927607421875,-0.07730742543935776,-0.008543453179299831,0.09845788776874542
1757490703460799700,6.3027998046875,-0.0750424936413765,-0.010292112827301025,0.061802640557289124
1757490703470840800,6.3128408203125,-0.0671985074877739,-0.052376531064510345,0.018219372257590294
1757490703480881700,6.322881591796875,-0.06425076723098755,-0.07524234056472778,0.012157350778579712
1757490703490926600,6.332926513671875,-0.0333244651556015,0.013223200105130672,0.05324253439903259
1757490703500967400,6.342967529296875,-0.009825804270803928,0.056473392993211746,0.07264433056116104
1757490703511005000,6.3530048828125,-0.007077909540385008,0.11414586007595062,0.08085470646619797
1757490703521045500,6.36304541015625,0.0005162710440345109,0.21873238682746887,0.09256239980459213
1757490703531087000,6.373087158203125,0.008759954012930393,0.35519447922706604,0.08824904263019562
1757490703541197000,6.383197021484375,0.03274157643318176,0.34595155715942383,0.08660030364990234
1757490703551190800,6.393190673828125,0.060720138251781464,0.2755888104438782,0.07732407748699188
1757490703561210600,6.403210693359375,0.052459798753261566,0.20825707912445068,0.05732274055480957
1757490703571252500,6.41325244140625,-0.026446400210261345,-0.09624291956424713,-0.007011293899267912
1757490703581293300,6.423293212890625,-0.025746935978531837,-0.25147396326065063,-0.03260834515094757
1757490703591330600,6.43333056640625,-0.013223200105130672,-0.19664931297302246,-0.008143759332597256
1757490703601375700,6.443375732421875,0.008610068820416927,0.06083671376109123,0.029210949316620827
1757490703611413200,6.453413330078125,0.04554842785000801,0.4415949285030365,0.0749092623591423
1757490703621451800,6.46345166015625,0.12064088881015778,1.0337412357330322,0.1386270970106125
1757490703631471900,6.473471923828125,0.19934724271297455,1.300286889076233,0.1735503375530243
1757490703641512200,6.48351220703125,0.30375057458877563,1.1645410060882568,0.16773812472820282
1757490703651552300,6.49355224609375,0.4514540433883667,0.7378845810890198,0.14137500524520874
1757490703661593000,6.503593017578125,0.4972189962863922,0.13359762728214264,0.08988112211227417
1757490703671657500,6.513657470703125,0.4539021849632263,-0.293241947889328,0.048163093626499176
1757490703681700400,6.523700439453125,0.4328683018684387,-0.21115486323833466,0.06223564222455025
1757490703691737600,6.533737548828125,0.3993772864341736,-0.11657733470201492,0.07111217081546783
1757490703701782300,6.5437822265625,0.4385639429092407,-0.12064088881015778,0.05325918644666672
1757490703711822600,6.553822509765625,0.4564502239227295,0.03184226527810097,0.03472338989377022
1757490703721859300,6.563859375,0.4199448525905609,0.15234991908073425,0.008027181960642338
1757490703731903700,6.57390380859375,0.3958966135978699,0.23765122890472412,-0.021550152450799942
1757490703741945000,6.583945068359375,0.27760395407676697,0.2538055181503296,-0.07659130543470383
1757490703751986200,6.593986083984375,0.22151358425617218,0.34616807103157043,-0.11795961111783981
1757490703762021400,6.604021484375,0.1987643539905548,0.4360991418361664,-0.14888590574264526
1757490703772066800,6.61406689453125,0.11176435649394989,0.5378378629684448,-0.2012624442577362
1757490703782108400,6.6241083984375,0.052326567471027374,0.8407890200614929,-0.2682611048221588
1757490703792148500,6.6341484375,0.17506584525108337,1.0034810304641724,-0.33514317870140076
1757490703802189600,6.644189453125,0.21745003759860992,0.7586686611175537,-0.36242228746414185
1757490703812230400,6.65423046875,0.20421017706394196,0.6602773666381836,-0.30902984738349915
1757490703822270500,6.6642705078125,0.059854134917259216,0.6105987429618835,-0.25403866171836853
1757490703832311300,6.674311279296875,-0.028494831174612045,0.3966127336025238,-0.2570863366127014
1757490703842348300,6.684348388671875,0.058088820427656174,0.48251357674598694,-0.2123039811849594
1757490703852395800,6.694395751953125,-0.04403292387723923,0.353445827960968,-0.19613303244113922
1757490703862430000,6.704429931640625,-0.058338627219200134,0.4685409665107727,-0.15749597549438477
1757490703872470300,6.71447021484375,-0.1725844144821167,0.4792327582836151,-0.13547950983047485
1757490703882513400,6.724513427734375,-0.2882457971572876,0.4844287931919098,-0.12455455213785172
1757490703892553700,6.7345537109375,-0.29793834686279297,0.42245960235595703,-0.10008996725082397
1757490703902600400,6.744600341796875,-0.2347867488861084,0.33880704641342163,-0.083652563393116
1757490703912637700,6.7546376953125,-0.11319658905267715,0.31812289357185364,-0.05549081042408943
1757490703922674000,6.764673828125,-0.004030244890600443,0.22447797656059265,-0.02809513732790947
1757490703932718600,6.774718505859375,0.024164816364645958,0.07367687672376633,-0.018002871423959732
1757490703942759400,6.784759521484375,0.0635179951786995,-0.003330780891701579,-0.013023353181779385
1757490703952800300,6.79480029296875,0.05740600824356079,-0.16469046473503113,-0.03815409541130066
1757490703962841000,6.804841064453125,0.009692572988569736,-0.212703675031662,-0.06155283376574516
1757490703972877300,6.814877197265625,-0.030376723036170006,-0.28717994689941406,-0.07822339236736298
1757490703982922500,6.824922607421875,-0.2027113288640976,-0.0997568890452385,-0.09784168750047684
1757490703992959500,6.83495947265625,-0.2960731089115143,0.10318759083747864,-0.11832599341869354
1757490704003004000,6.84500390625,-0.30416691303253174,0.2782367765903473,-0.17135202884674072
1757490704013044700,6.855044677734375,-0.3093462884426117,0.3527463674545288,-0.2535223960876465
1757490704023085300,6.865085205078125,-0.29430779814720154,0.3205210566520691,-0.3436533212661743
1757490704033125600,6.875125732421875,-0.32596686482429504,0.24289719760417938,-0.3846885561943054
1757490704043163000,6.885162841796875,-0.3770277500152588,0.16517342627048492,-0.40212517976760864
1757490704053207600,6.89520751953125,-0.4604138433933258,0.07147856056690216,-0.41116824746131897
1757490704063244500,6.90524462890625,-0.5345070958137512,0.09467744827270508,-0.4029412269592285
1757490704073288400,6.915288330078125,-0.4325185716152191,0.007277756463736296,-0.3207875192165375
1757490704083330300,6.925330322265625,-0.4641443192958832,-0.04743032157421112,-0.23282158374786377
1757490704093371000,6.935370849609375,-0.4681245982646942,0.12470444291830063,-0.16155953705310822
1757490704103410200,6.94541015625,-0.17090237140655518,-0.10070616006851196,-0.12302239239215851
1757490704113448400,6.955448486328125,-0.10465313494205475,-0.3151085376739502,-0.10511944442987442
1757490704123489500,6.965489501953125,-0.10451990365982056,-0.034340351819992065,-0.014705398119986057
1757490704133529600,6.975529541015625,0.10908307880163193,-0.2540220022201538,0.014322358183562756
1757490704143574800,6.98557470703125,0.23165582120418549,-0.4653434157371521,-0.0022982389200478792
1757490704153615400,6.995615478515625,0.18365925550460815,-0.3961464464664459,-0.01383939478546381
1757490704163651600,7.005651611328125,0.15336580574512482,-0.342537522315979,-0.0637344941496849
1757490704173696000,7.015696044921875,0.0074942572973668575,-0.33209550380706787,-0.1909869760274887
1757490704183737000,7.025737060546875,-0.06326818466186523,-0.3221864402294159,-0.292009562253952
1757490704193777200,7.035777099609375,-0.07594180852174759,-0.3876529335975647,-0.35512787103652954
1757490704203814400,7.045814453125,-0.0728941410779953,-0.36588630080223083,-0.37208154797554016
1757490704213858800,7.05585888671875,-0.020634187385439873,-0.30673161149024963,-0.3548280894756317
1757490704223900000,7.06589990234375,0.027195826172828674,-0.344769150018692,-0.33785775303840637
1757490704233936100,7.07593603515625,0.02917764149606228,-0.26494696736335754,-0.34000611305236816
1757490704243980800,7.085980712890625,0.03528962284326553,-0.2820838391780853,-0.3645539879798889
1757490704254022100,7.096022216796875,0.05780570209026337,-0.4492224156856537,-0.40017667412757874
1757490704264063200,7.106063232421875,0.02576358988881111,-0.4226427972316742,-0.3850882351398468
1757490704274103300,7.116103271484375,-0.03185892105102539,-0.24889260530471802,-0.35206353664398193
1757490704284144000,7.12614404296875,-0.11721017956733704,-0.1678047478199005,-0.3442029058933258
1757490704294181000,7.13618115234375,-0.04946209862828255,-0.0019318530103191733,-0.3512308597564697
1757490704304225800,7.146225830078125,0.05507446452975273,-0.10292112827301025,-0.31750670075416565
1757490704314267100,7.15626708984375,0.11129804700613022,-0.1750825047492981,-0.26634588837623596
1757490704324307200,7.16630712890625,0.12417151778936386,-0.14712059497833252,-0.23988284170627594
1757490704334347500,7.176347412109375,0.09989012032747269,-0.12770214676856995,-0.21098831295967102
1757490704344390000,7.186389892578125,0.06701531261205673,-0.11104823648929596,-0.1837591826915741
1757490704354425900,7.19642578125,0.04073544964194298,-0.04679747298359871,-0.16762155294418335
1757490704364466200,7.206466064453125,0.025563744828104973,0.029710566624999046,-0.1527329683303833
1757490704374508800,7.2165087890625,0.024314701557159424,0.03848717361688614,-0.1301669180393219
1757490704384548900,7.226548828125,0.01595444045960903,0.0259634368121624,-0.1202411949634552
1757490704394592800,7.2365927734375,-0.010775076225399971,0.0015321592800319195,-0.09775841981172562
1757490704404633600,7.246633544921875,-0.019235260784626007,-0.00024980856687761843,-0.06889720261096954
1757490704414673700,7.256673583984375,-0.031958844512701035,0.03284149989485741,-0.03197549656033516
1757490704424714800,7.26671484375,-0.05787231773138046,0.06216902658343315,0.013456354849040508
1757490704434751200,7.276751220703125,-0.05945444107055664,0.08160413056612015,0.030759762972593307
1757490704444796200,7.286796142578125,-0.07314395159482956,0.09286217391490936,0.04098526015877724
1757490704454837000,7.2968369140625,-0.10270462930202484,0.08333613723516464,0.06105321645736694
1757490704464877300,7.306877197265625,-0.12248946726322174,0.05635681375861168,0.07760719954967499
1757490704474918400,7.31691845703125,-0.1316990852355957,0.040768757462501526,0.0885821208357811
1757490704484954400,7.326954345703125,-0.1402425318956375,0.04056891053915024,0.1074010357260704
1757490704494999800,7.336999755859375,-0.13935987651348114,0.04178464785218239,0.11514509469270706
1757490704505041700,7.347041748046875,-0.1401592642068863,0.04056891053915024,0.12287250906229019
1757490704515079700,7.35707958984375,-0.13504651188850403,0.02931087277829647,0.11919199675321579
1757490704525117700,7.36711767578125,-0.13428042829036713,0.018818913027644157,0.12218970060348511
1757490704535158500,7.377158447265625,-0.1315491944551468,0.015021822415292263,0.1156613677740097
1757490704545199000,7.38719921875,-0.12588687241077423,0.022699272260069847,0.10838361084461212
1757490704555241700,7.39724169921875,-0.11516175419092178,0.02421477809548378,0.10272128134965897
1757490704565282300,7.4072822265625,-0.10107254981994629,0.01244046725332737,0.09954039007425308
1757490704575325400,7.417325439453125,-0.09486064314842224,0.014772013761103153,0.12207312136888504
1757490704585367600,7.427367431640625,-0.09939050674438477,-0.009093032218515873,0.12853483855724335
1757490704595408100,7.437408203125,-0.10508614033460617,-0.032375190407037735,0.11894218623638153
1757490704605444000,7.447444091796875,-0.09757522493600845,-0.056423429399728775,0.11517840623855591
1757490704615484400,7.457484375,-0.08535125851631165,-0.1046864464879036,0.12009130418300629
1757490704625527800,7.46752783203125,-0.10250478237867355,-0.07868970185518265,0.10172205418348312
1757490704635579000,7.477578857421875,-0.09945712238550186,-0.0453319288790226,0.11382944136857986
1757490704645610800,7.48761083984375,-0.09574329853057861,-0.020067954435944557,0.10511944442987442
1757490704655651000,7.497651123046875,-0.0812210962176323,0.008110451512038708,0.09652603417634964
1757490704665688000,7.50768798828125,-0.07755723595619202,0.03928656131029129,0.10963265597820282
1757490704675728600,7.517728759765625,-0.07920597493648529,0.03593912720680237,0.10543587058782578
1757490704685774000,7.527774169921875,-0.0867834985256195,0.029077718034386635,0.09775841981172562
1757490704695814100,7.537814208984375,-0.08455187827348709,0.036138974130153656,0.09865773469209671
1757490704705854700,7.547854736328125,-0.08083805441856384,0.020151223987340927,0.11534494161605835
1757490704715896000,7.55789599609375,-0.07134532928466797,0.0026979325339198112,0.11306335777044296
1757490704725936400,7.567936279296875,-0.04989510029554367,-0.025746935978531837,0.12222300469875336
1757490704735973400,7.577973388671875,-0.07214471697807312,0.004113514441996813,0.12388839572668076
1757490704746018000,7.58801806640625,-0.06793127954006195,0.03565600886940956,0.10466979444026947
1757490704756058600,7.59805859375,-0.04634781554341316,0.053792111575603485,0.09935719519853592
1757490704766099200,7.60809912109375,-0.033707503229379654,0.060686830431222916,0.1088499203324318
1757490704776139800,7.618139892578125,-0.02003464661538601,0.06724847108125687,0.10563571751117706
1757490704786180900,7.628180908203125,-0.023648545145988464,0.0885821208357811,0.11396267265081406
1757490704796217600,7.638217529296875,-0.037221476435661316,0.11289682239294052,0.11078177392482758
1757490704806258400,7.648258544921875,0.016937021166086197,0.08023851364850998,0.11879230290651321
1757490704816302800,7.658302734375,0.035006508231163025,0.06888055056333542,0.13664528727531433
1757490704826343700,7.66834375,0.0461646243929863,0.08288648724555969,0.13622894883155823
1757490704836385300,7.67838525390625,0.05927124619483948,0.09281221032142639,0.12918433547019958
1757490704846422500,7.688422607421875,0.02568032033741474,0.10600210726261139,0.12783537805080414
1757490704856461800,7.6984619140625,0.05402526631951332,0.12075746059417725,0.09277890622615814
1757490704866503200,7.708503173828125,0.09814146161079407,0.08380244672298431,0.10696803033351898
1757490704876543200,7.718543212890625,0.12064088881015778,0.08828234672546387,0.11965830624103546
1757490704886588000,7.728587890625,0.12840160727500916,0.11141462624073029,0.11862576752901077
1757490704896628200,7.738628173828125,0.12592017650604248,0.1428738534450531,0.11549483239650726
1757490704906669300,7.74866943359375,0.12010796368122101,0.1698032170534134,0.11547817289829254
1757490704916710000,7.7587099609375,0.0919129028916359,0.18898850679397583,0.115245021879673
1757490704926747000,7.768746826171875,-0.007660796400159597,0.2590681314468384,0.09139662981033325
1757490704936791300,7.778791259765625,0.008759954012930393,0.26952680945396423,0.10693472623825073
1757490704946828000,7.788828125,-0.08655034005641937,0.353579044342041,0.13997606933116913
1757490704956873000,7.798873046875,-0.17733077704906464,0.4007262587547302,0.13486331701278687
1757490704966913500,7.80891357421875,-0.10938284546136856,0.3904508054256439,0.1156613677740097
1757490704976954600,7.81895458984375,-0.07540888339281082,0.29882100224494934,0.11511179059743881
1757490704986995200,7.8289951171875,-0.0638677254319191,0.2042434960603714,0.0863671526312828
1757490704997031700,7.83903173828125,-0.08853215724229813,0.17156852781772614,0.043899692595005035
1757490705007076400,7.849076416015625,-0.14843624830245972,0.16840428113937378,0.0020817380864173174
1757490705017117200,7.8591171875,-0.07334379851818085,0.1383606344461441,-0.025147397071123123
1757490705027158000,7.869157958984375,-0.05209341272711754,0.08266998082399368,-0.04842955619096756
1757490705037195500,7.879195556640625,-0.09627622365951538,0.11139796674251556,-0.05975421145558357
1757490705047239200,7.8892392578125,-0.20262806117534637,0.14345674216747284,-0.05372549593448639
1757490705057276200,7.899276123046875,-0.23407062888145447,0.2287580370903015,-0.06853082031011581
1757490705067321000,7.909321044921875,-0.2429138571023941,0.2760884463787079,-0.060686830431222916
1757490705077362200,7.919362060546875,-0.24539528787136078,0.26098334789276123,-0.048745978623628616
1757490705087406800,7.92940673828125,-0.11439567059278488,0.18330952525138855,-0.08385241031646729
1757490705097439000,7.93943896484375,-0.048612747341394424,0.12240619957447052,-0.12956738471984863
1757490705107480000,7.94947998046875,-0.0012990045361220837,0.08235356211662292,-0.17901282012462616
1757490705117522000,7.95952197265625,0.02806182950735092,0.04921228811144829,-0.19693242013454437
1757490705127571500,7.969571533203125,0.05569065734744072,0.03961963951587677,-0.18960469961166382
1757490705137605600,7.979605712890625,0.07540888339281082,0.05485796183347702,-0.1738334596157074
1757490705147646500,7.989646484375,0.08889854699373245,0.09088035672903061,-0.16265869140625
1757490705167728000,8.00972802734375,0.12203981727361679,0.11436236649751663,-0.1700863242149353
1757490705177764600,8.0197646484375,0.14448927342891693,0.08505149185657501,-0.17318396270275116
1757490705187805400,8.029805419921875,0.16472376883029938,0.054957885295152664,-0.16422416269779205
1757490705197850400,8.039850341796875,0.18102794885635376,0.04708058759570122,-0.14941883087158203
1757490705207890700,8.049890625,0.20231163501739502,0.04709724336862564,-0.13276493549346924
1757490705217931500,8.059931640625,0.2262433022260666,0.03577258810400963,-0.11749330163002014
1757490705227972400,8.069972412109376,0.24184800684452057,0.02809513732790947,-0.11066519469022751
1757490705238013000,8.080012939453125,0.24176473915576935,0.03497320041060448,-0.10993242263793945
1757490705248049400,8.09004931640625,0.23112289607524872,0.05059456452727318,-0.10725114494562149
1757490705258094800,8.1000947265625,0.22033116221427917,0.05389203503727913,-0.10703464597463608
1757490705268135200,8.11013525390625,0.19228598475456238,0.04746362939476967,-0.09947377443313599
1757490705278176000,8.120176025390625,0.16447396576404572,0.046980664134025574,-0.08848219364881516
1757490705288216600,8.130216552734375,0.13194888830184937,0.04328349977731705,-0.07137863337993622
1757490705298257700,8.140257568359376,0.09659264981746674,0.04404957965016365,-0.04683078080415726
1757490705308298500,8.150298583984375,0.06806451082229614,0.052992723882198334,-0.013073314912617207
1757490705318335200,8.160335205078125,0.042267609387636185,0.06556642055511475,0.0201678778976202
1757490705328380000,8.1703798828125,0.015105091966688633,0.07980550825595856,0.04275057464838028
1757490705338419700,8.180419677734376,-0.009059724397957325,0.09620960801839828,0.04897913336753845
1757490705348456400,8.19045654296875,-0.023148927837610245,0.11666060239076614,0.046147968620061874
1757490705358498600,8.20049853515625,-0.03439031168818474,0.10748430341482162,0.04011925682425499
1757490705368541000,8.210541015625,-0.038054171949625015,0.11104823648929596,0.03553943336009979
1757490705378579200,8.2205791015625,-0.047613512724637985,0.10716787725687027,0.045281969010829926
1757490705388624000,8.230623779296875,-0.059054747223854065,0.09342840313911438,0.06446726620197296
1757490705398664400,8.24066455078125,-0.06576626747846603,0.09194620698690414,0.08007197082042694
1757490705408701400,8.250701416015625,-0.06967993825674057,0.08626722544431686,0.088515505194664
1757490705418745900,8.260745849609375,-0.06876397132873535,0.09542687237262726,0.08082140237092972
1757490705428786700,8.27078662109375,-0.06043701991438866,0.12675286829471588,0.06015390530228615
1757490705438823700,8.28082373046875,-0.05022817850112915,0.11797626316547394,0.048745978623628616
1757490705448868400,8.290868408203124,-0.041351646184921265,0.10833364725112915,0.04403292387723923
1757490705458909000,8.300908935546875,-0.03487327694892883,0.10933288186788559,0.04190122336149216
1757490705468949500,8.310949462890624,-0.02667955495417118,0.11929192394018173,0.036089010536670685
1757490705478986200,8.320986328125,-0.014305704273283482,0.132248654961586,0.027861982583999634
1757490705489031200,8.33103125,0.011507848277688026,0.12247281521558762,0.012057427316904068
1757490705499071700,8.34107177734375,0.052493106573820114,0.0944109857082367,-0.008010528050363064
1757490705509108700,8.351108642578126,0.07529230415821075,0.07179498672485352,-0.009242917411029339
1757490705519153700,8.361153564453126,0.09106355160474777,0.08456853032112122,-0.00970922689884901
1757490705529194200,8.3711943359375,0.11344639956951141,0.08237021416425705,-0.002947741188108921
1757490705539234600,8.381234619140624,0.13354766368865967,0.08133766800165176,0.002814509905874729
1757490705549271300,8.391271240234374,0.15156719088554382,0.061785988509655,0.012124042958021164
1757490705559316200,8.401316162109374,0.10553579777479172,-0.047946590930223465,0.04541520029306412
1757490705569353200,8.411353271484375,0.1485694795846939,-0.036089010536670685,0.06654900312423706
1757490705579402000,8.421402099609375,0.1800120621919632,-0.007877296768128872,0.09296209365129471
1757490705589434400,8.431434326171875,0.19273564219474792,-0.005012825131416321,0.12102392315864563
1757490705599475200,8.44147509765625,0.21731680631637573,0.0395696796476841,0.09366156160831451
1757490705609516300,8.451516357421875,0.19866442680358887,0.030326761305332184,0.0807381272315979
1757490705619556400,8.461556396484376,0.18294315040111542,0.01628751866519451,0.07159513980150223
1757490705629600800,8.471600830078126,0.19423449039459229,0.046780817210674286,0.02734571136534214
1757490705639637500,8.481637451171874,0.17934590578079224,0.05250976234674454,-0.01160777173936367
1757490705649682400,8.491682373046874,0.12022453546524048,0.12443798035383224,-0.027312403544783592
1757490705659723000,8.501722900390625,0.09251244366168976,0.15479804575443268,-0.04161810874938965
1757490705669764000,8.51176416015625,0.07579191774129868,0.16962002217769623,-0.057722434401512146
1757490705679805000,8.521804931640625,0.07362691313028336,0.13707828521728516,-0.05527431145310402
1757490705689842700,8.5318427734375,0.022982388734817505,0.1051027923822403,-0.012573698535561562
1757490705699882200,8.54188232421875,0.030043644830584526,0.0045465161092579365,0.01811944879591465
1757490705709927000,8.551927001953125,0.08430206775665283,0.01811944879591465,-0.025913475081324577
1757490705719968000,8.561968017578126,0.105519138276577,-0.011324655264616013,-0.028294984251260757
1757490705730008000,8.572008056640625,0.11755991727113724,-0.029044410213828087,-0.006278522312641144
1757490705740048600,8.582048583984376,0.12761887907981873,-0.02901110239326954,0.036755166947841644
1757490705750089500,8.59208935546875,0.14427277445793152,-0.024581164121627808,0.09947377443313599
1757490705760126000,8.6021259765625,0.1631416529417038,-0.01820271834731102,0.16457389295101166
1757490705770170400,8.61217041015625,0.17524904012680054,-0.023432044312357903,0.21376952528953552
1757490705780207900,8.622207763671875,0.17861312627792358,-0.039969369769096375,0.24264739453792572
1757490705790252000,8.632251953125,0.16074348986148834,-0.044615812599658966,0.2615995407104492
1757490705800292900,8.64229296875,0.15826205909252167,-0.04156814515590668,0.2592346966266632
1757490705810334000,8.652333984375,0.13747797906398773,-0.04140160605311394,0.2667955458164215
1757490705820375300,8.662375244140625,0.10944946110248566,-0.026995979249477386,0.28000208735466003
1757490705830401000,8.672401123046875,0.06771478056907654,-0.003963629249483347,0.2849150002002716
1757490705840452600,8.68245263671875,0.02363189123570919,0.03497320041060448,0.266112744808197
1757490705850492400,8.692492431640625,-0.009775842539966106,0.10020654648542404,0.2378510683774948
1757490705860534000,8.702533935546874,-0.016687212511897087,0.17121879756450653,0.21420252323150635
1757490705870574800,8.712574951171876,-0.009692572988569736,0.19796496629714966,0.21383613348007202
1757490705880618200,8.7226181640625,-0.0038470521103590727,0.15413188934326172,0.2485428750514984
1757490705890656300,8.73265625,0.00464643957093358,0.08495157212018967,0.2808681130409241
1757490705900702200,8.7427021484375,0.012457121163606644,0.038437213748693466,0.2758219838142395
1757490705910738200,8.75273828125,0.014555512927472591,0.01662059687077999,0.2286747694015503
1757490705920777500,8.762777587890625,0.012090735137462616,0.005662327632308006,0.16462385654449463
1757490705930795500,8.77279541015625,0.002947741188108921,-0.005279287695884705,0.11509513854980469
1757490705940858600,8.782858642578125,-0.012007465586066246,-0.021183766424655914,0.09137997776269913
1757490705950901200,8.7929013671875,-0.032958079129457474,-0.015238323248922825,0.08202048391103745
1757490705960941800,8.80294189453125,-0.0527595691382885,0.0045798239298164845,0.07980550825595856
1757490705970986500,8.812986572265626,-0.06295175850391388,0.01169104129076004,0.07480934262275696
1757490705981024000,8.82302392578125,-0.07099559903144836,-0.03031010739505291,0.06768146902322769
1757490705991063300,8.833063232421875,-0.058888208121061325,-0.09547683596611023,0.060137249529361725
1757490706001106400,8.8431064453125,-0.06871400773525238,-0.12430474907159805,0.05284284055233002
1757490706011202000,8.8532021484375,-0.16770482063293457,-0.14012596011161804,0.03737136349081993
1757490706021198600,8.863198486328125,-0.15070118010044098,-0.04058556631207466,-0.027745405212044716
1757490706031203300,8.873203369140626,-0.1303168088197708,-0.011840926483273506,-0.021799961104989052
1757490706041270300,8.883270263671875,-0.11298009008169174,-0.019901415333151817,-0.01920195296406746
1757490706051311000,8.89331103515625,-0.10315428674221039,-0.020734110847115517,-0.04659762606024742
1757490706061351700,8.9033515625,-0.09647607058286667,0.0037970903795212507,-0.07943912595510483
1757490706071394600,8.91339453125,-0.08796592801809311,0.035839203745126724,-0.10348736494779587
1757490706081429000,8.923428955078125,-0.0709456354379654,0.06158614158630371,-0.12382178008556366
1757490706091470000,8.933469970703126,-0.04779670760035515,0.05294276401400566,-0.13424712419509888
1757490706101511700,8.94351171875,-0.021650075912475586,0.037254784256219864,-0.14625459909439087
1757490706111553300,8.95355322265625,0.004946209955960512,0.025613704696297646,-0.15131737291812897
1757490706121596000,8.963595947265626,0.029943721368908882,0.01342304702848196,-0.14618797600269318
1757490706131636200,8.97363623046875,0.05632350593805313,-0.003130934201180935,-0.1383606344461441
1757490706141677000,8.983677001953126,0.08771611750125885,-0.015771247446537018,-0.13088303804397583
1757490706151713500,8.993713623046874,0.12117381393909454,-0.019068721681833267,-0.12422147393226624
1757490706161758200,9.00375830078125,0.14826971292495728,-0.017769716680049896,-0.12625324726104736
1757490706171799300,9.01379931640625,0.16996975243091583,-0.025613704696297646,-0.1306498795747757
1757490706181840000,9.02383984375,0.1864071637392044,-0.03142591938376427,-0.1285015344619751
1757490706191880400,9.03388037109375,0.20281125605106354,-0.028911178931593895,-0.11977488547563553
1757490706201921300,9.04392138671875,0.22134704887866974,-0.018569104373455048,-0.10860010981559753
1757490706211958000,9.0539580078125,0.23765122890472412,-0.013572932220995426,-0.10335413366556168
1757490706221998800,9.063998779296876,0.2531726658344269,0.0009825803572311997,-0.11189758777618408
1757490706232042800,9.074042724609376,0.25592055916786194,-0.009725880809128284,-0.11820941418409348
1757490706242084400,9.08408447265625,0.25467151403427124,-0.02687940187752247,-0.11344639956951141
1757490706252125000,9.094125,0.24822644889354706,-0.05239318311214447,-0.09442763775587082
1757490706262165500,9.10416552734375,0.23238858580589294,-0.04594812169671059,-0.08868204057216644
1757490706272206800,9.114206787109374,0.21150459349155426,-0.015138399787247181,-0.09556010365486145
1757490706282247200,9.1242470703125,0.18838897347450256,-0.00791060458868742,-0.09389471262693405
1757490706292284000,9.134283935546875,0.1629417985677719,-0.018469180911779404,-0.08385241031646729
1757490706302328300,9.144328369140625,0.13642878830432892,-0.030659839510917664,-0.06694869697093964
1757490706312369700,9.15436962890625,0.10991577059030533,-0.023648545145988464,-0.05069448798894882
1757490706322408200,9.164408203125,0.08058824390172958,0.0009492725948803127,-0.044149503111839294
1757490706332446500,9.174446533203126,0.04807982221245766,0.023915007710456848,-0.04333345964550972
1757490706342487000,9.184487060546875,0.018469180911779404,0.031709033995866776,-0.04554842785000801
1757490706352529700,9.19452978515625,-0.008460183627903461,0.02637978456914425,-0.04674750939011574
1757490706362568700,9.204568603515625,-0.03164241835474968,0.025830205529928207,-0.04559839144349098
1757490706372613000,9.214613037109375,-0.051710374653339386,0.03405723720788956,-0.039602987468242645
1757490706382654000,9.224654052734374,-0.06841424107551575,0.04250076413154602,-0.031176110729575157
1757490706392694500,9.234694580078125,-0.08326952159404755,0.04020252451300621,-0.01745329238474369
1757490706402735900,9.24473583984375,-0.09582656621932983,0.0358225479722023,-0.005062786862254143
1757490706412775700,9.254775634765625,-0.10470309853553772,0.026896055787801743,0.0026146629825234413
1757490706422816000,9.26481591796875,-0.10924961417913437,0.01637078821659088,0.0074609494768083096
1757490706432853000,9.27485302734375,-0.11284685879945755,0.010458651930093765,0.008476837538182735
1757490706442898000,9.28489794921875,-0.11259704828262329,-0.0013489662669599056,0.011974157765507698
1757490706452938500,9.2949384765625,-0.1115645095705986,-0.011907542124390602,0.014788667671382427
1757490706462979600,9.3049794921875,-0.1092662662267685,-0.014772013761103153,0.010375382378697395
1757490706473020200,9.315020263671874,-0.10775076597929001,-0.01458882074803114,0.003946975339204073
1757490706483061000,9.32506103515625,-0.10618529468774796,-0.018569104373455048,-0.0012323890114203095
1757490706493101800,9.335101806640624,-0.10377047955989838,-0.028877871111035347,-0.004946209955960512
1757490706503142400,9.345142333984375,-0.10118912905454636,-0.03620558977127075,-0.010625191032886505
1757490706513183200,9.355183349609375,-0.09889088571071625,-0.03808747977018356,-0.015721285715699196
1757490706523223800,9.365223876953126,-0.09625957161188126,-0.04263399541378021,-0.010275458917021751
1757490706533264100,9.37526416015625,-0.09471075981855392,-0.038720328360795975,0.0008326952229253948
1757490706543305200,9.38530517578125,-0.09940715879201889,-0.024064892902970314,0.008926493115723133
1757490706553346000,9.395345947265625,-0.1066349521279335,-0.00737767992541194,0.010458651930093765
1757490706563388400,9.405388427734374,-0.11387939751148224,0.00662825396284461,0.011541156098246574
1757490706573425200,9.415425048828125,-0.12283920496702194,0.019851455464959145,0.024614471942186356
1757490706583464200,9.425464111328125,-0.13727813959121704,0.038936831057071686,0.042434148490428925
1757490706593504500,9.43550439453125,-0.15303273499011993,0.06315160542726517,0.06067017465829849
1757490706603547600,9.445547607421876,-0.17275094985961914,0.09063055366277695,0.07494257390499115
1757490706613589800,9.45558984375,-0.18982121348381042,0.0671985074877739,0.0992739275097847
1757490706623630600,9.465630615234375,-0.1651567667722702,0.06103656068444252,0.06431738287210464
1757490706633671000,9.4756708984375,-0.13194888830184937,0.13881029188632965,0.05052794888615608
1757490706643712300,9.485712158203125,-0.1791793555021286,0.14055895805358887,0.06979651749134064
1757490706653752800,9.4957529296875,-0.20374387502670288,0.20397703349590302,0.07356029748916626
1757490706663789800,9.505789794921874,-0.22161351144313812,0.14413954317569733,0.0729607567191124
1757490706673834500,9.51583447265625,-0.21123813092708588,0.16004402935504913,0.02742898091673851
1757490706683874800,9.525874755859375,-0.20557579398155212,0.23198889195919037,-0.013572932220995426
1757490706693915400,9.535915283203124,-0.19573333859443665,0.24604478478431702,-0.0037804364692419767
1757490706703956000,9.5459560546875,-0.1949339509010315,0.25197356939315796,0.0019151991000398993
1757490706713997300,9.555997314453125,-0.20416021347045898,0.2415982037782669,0.016687212511897087
1757490706724037600,9.56603759765625,-0.2500750422477722,0.18262672424316406,0.06131967902183533
1757490706734077700,9.57607763671875,-0.16310834884643555,0.13011695444583893,0.07825669646263123
1757490706744118800,9.586118896484376,-0.05697300657629967,0.13944314420223236,0.06278522312641144
1757490706754159600,9.59615966796875,0.01573793962597847,0.14242419600486755,0.05837193503975868
1757490706764200400,9.606200439453126,0.04872932657599449,-0.06589949876070023,0.1053859069943428
1757490706774241000,9.616240966796875,0.18527469038963318,0.01828598789870739,0.009326186962425709
1757490706784282000,9.6262822265625,0.17678119242191315,0.12803521752357483,0.04979517683386803
1757490706794323200,9.6363232421875,0.20147894322872162,0.20279459655284882,0.12095730751752853
1757490706804364000,9.646364013671874,0.18953809142112732,0.27314069867134094,0.1635580062866211
1757490706814409000,9.656408935546875,0.10375382751226425,0.3069148063659668,0.21366959810256958
1757490706824418600,9.66641845703125,0.0010325420880690217,0.29022759199142456,0.22136370837688446
1757490706834460000,9.6764599609375,0.0852513387799263,0.49738553166389465,0.09714222699403763
1757490706844500200,9.686500244140625,0.05747262388467789,0.6966661214828491,0.07117878645658493
1757490706854541000,9.696541015625,-0.04426607862114906,0.892466127872467,0.0886487364768982
1757490706864591000,9.706591064453125,-0.355427622795105,1.050045371055603,0.10691806674003601
1757490706874631400,9.71663134765625,-0.6163943409919739,1.0996073484420776,0.18775612115859985
1757490706884672300,9.72667236328125,-0.5411520004272461,0.8766782283782959,0.28683021664619446
1757490706894726000,9.736725830078125,0.06341806799173355,0.4137662649154663,0.39672932028770447
1757490706904770600,9.7467705078125,0.5427340865135193,0.46745845675468445,0.4301370680332184
1757490706914811000,9.756810791015624,0.6458717584609985,0.49975037574768066,0.47696784138679504
1757490706924852000,9.76685205078125,0.7043102979660034,0.4101523756980896,0.6345304250717163
1757490706934892300,9.776892333984375,0.7433803677558899,0.34721726179122925,0.8232524991035461
1757490706944932900,9.786932861328125,0.8172404170036316,0.3090132176876068,0.9485397934913635
1757490706954973700,9.7969736328125,0.9195287227630615,0.26396438479423523,1.0402694940567017
1757490706965010700,9.8070107421875,1.0059291124343872,0.18532465398311615,1.126320242881775
1757490706975059200,9.81705908203125,1.0366389751434326,0.14522205293178558,1.2104724645614624
1757490706985091600,9.827091552734375,1.0121244192123413,0.1493355631828308,1.2835330963134766
1757490706995132400,9.83713232421875,0.9910572171211243,0.14229096472263336,1.340922474861145
1757490707005172700,9.8471728515625,1.0040805339813232,0.15752927958965302,1.399644136428833
1757490707015214000,9.857214111328124,1.0341908931732178,0.13846056163311005,1.4579660892486572
1757490707025255700,9.867255615234376,1.0731276273727417,0.17836332321166992,1.5330252647399902
1757490707035295200,9.877295166015625,1.1321990489959717,0.18788935244083405,1.6056362390518188
1757490707045340400,9.88734033203125,1.186840534210205,0.1810445934534073,1.6642913818359375
1757490707055380700,9.897380615234376,1.2415319681167603,0.1656397432088852,1.6959670782089233
1757490707065419500,9.90741943359375,1.3054496049880981,0.13404728472232819,1.6958671808242798
1757490707075458000,9.9174580078125,1.3755125999450684,0.08075478672981262,1.6937520503997803
1757490707085499000,9.927498779296876,1.4446595907211304,0.061686065047979355,1.679746150970459
1757490707095541000,9.937541015625,1.5184364318847656,0.059720903635025024,1.652100682258606
1757490707105580500,9.94758056640625,1.5938619375228882,0.14865274727344513,1.6277194023132324
1757490707115625000,9.957625,1.6772481203079224,0.22327889502048492,1.596726417541504
1757490707125665300,9.967665283203125,1.7539225816726685,0.3160911202430725,1.5774412155151367
1757490707135705600,9.97770556640625,1.7906944751739502,0.39533039927482605,1.5727448463439941
1757490707145747000,9.987746826171875,1.8298977613449097,0.39631298184394836,1.5497623682022095
1757490707155787500,9.99778759765625,1.830480694770813,0.3986778259277344,1.518869400024414
1757490707165824500,10.007824462890625,1.8132104873657227,0.3651535212993622,1.4760023355484009
1757490707175865000,10.017864990234376,1.8091470003128052,0.2989209294319153,1.4259573221206665
1757490707185909200,10.0279091796875,1.7813016176223755,0.3210040032863617,1.3825405836105347
1757490707195950300,10.037950439453125,1.7842826843261719,0.27327391505241394,1.3462517261505127
1757490707205991000,10.047990966796876,1.7936089038848877,0.2485262155532837,1.318406343460083
1757490707216031700,10.05803173828125,1.7462618350982666,0.21043874323368073,1.3071650266647339
1757490707226072600,10.068072509765624,1.7343876361846924,0.17439968883991241,1.3096297979354858
1757490707236108800,10.07810888671875,1.7019957304000854,0.22412824630737305,1.293575406074524
1757490707246153500,10.088153564453124,1.717200756072998,0.17433308064937592,1.2889622449874878
1757490707256194300,10.0981943359375,1.6949177980422974,0.13566270470619202,1.2788532972335815
1757490707266234600,10.108234619140624,1.6619430780410767,0.144822359085083,1.2817844152450562
1757490707276275700,10.118275634765626,1.6557645797729492,0.190837100148201,1.3004034757614136
1757490707286316500,10.128316650390625,1.585351824760437,0.12813514471054077,1.2743068933486938
1757490707296353000,10.13835302734375,1.5267467498779297,0.10778407007455826,1.249892234802246
1757490707306402000,10.148402099609376,1.4580494165420532,0.1652899980545044,1.2585855722427368
1757490707316434400,10.158434326171875,1.411634922027588,0.22324559092521667,1.2848987579345703
1757490707336516000,10.17851611328125,1.2968395948410034,0.33236196637153625,1.282117486000061
1757490707346557700,10.1885576171875,1.2348870038986206,0.33321133255958557,1.241931676864624
1757490707356597000,10.198596923828125,1.199713945388794,0.406954824924469,1.2339544296264648
1757490707366642200,10.20864208984375,1.1948343515396118,0.49092379212379456,1.241581916809082
1757490707376682200,10.21868212890625,1.1280022859573364,0.46835777163505554,1.1896051168441772
1757490707386723000,10.22872314453125,1.076192021369934,0.49307215213775635,1.1319825649261475
1757490707396764000,10.238763916015625,1.0465813875198364,0.48842573165893555,1.0775076150894165
1757490707406800400,10.24880029296875,1.0167875289916992,0.4599308967590332,1.0082440376281738
1757490707416845000,10.258844970703125,1.007577896118164,0.45976436138153076,0.9800989627838135
1757490707426882000,10.268882080078125,0.9855614304542542,0.5202513337135315,0.9920397996902466
1757490707436926500,10.278926513671875,1.018419623374939,0.6406757235527039,1.0209343433380127
1757490707446967000,10.288967041015624,0.9898248314857483,0.5603039860725403,0.9874599575996399
1757490707457008000,10.299008056640625,0.9311864376068115,0.4708724915981293,0.9160646796226501
1757490707467048400,10.30904833984375,0.9156317114830017,0.5095762014389038,0.9002434611320496
1757490707477085200,10.319085205078125,0.9360993504524231,0.6142792701721191,0.9019588232040405
1757490707487126300,10.329126220703126,0.9706395268440247,0.6302170753479004,0.8579758405685425
1757490707497170400,10.33917041015625,0.9563338160514832,0.5086601972579956,0.7711424231529236
1757490707507211000,10.3492109375,0.9300539493560791,0.4384640157222748,0.7074412107467651
1757490707517252400,10.35925244140625,0.9309699535369873,0.4616795480251312,0.6751659512519836
1757490707527293200,10.369293212890625,0.9199117422103882,0.43588265776634216,0.6396265029907227
1757490707537333000,10.3793330078125,0.9067718386650085,0.36936694383621216,0.6047532558441162
1757490707547374300,10.389374267578125,0.9027748703956604,0.39130014181137085,0.5961264967918396
1757490707557410600,10.39941064453125,0.8910005688667297,0.4354163408279419,0.5939615368843079
1757490707567451600,10.40945166015625,0.829897403717041,0.4298539459705353,0.5631517767906189
1757490707577492700,10.41949267578125,0.7341873645782471,0.3932153582572937,0.48719334602355957
1757490707587535600,10.42953564453125,0.6210907101631165,0.39864450693130493,0.4029079079627991
1757490707597577700,10.43957763671875,0.5404358506202698,0.47670137882232666,0.3697499930858612
1757490707607618300,10.449618408203126,0.4575660228729248,0.4787997603416443,0.37499597668647766
1757490707617654800,10.45965478515625,0.38034188747406006,0.5077608823776245,0.3788430392742157
1757490707627699500,10.469699462890626,0.34583500027656555,0.658312201499939,0.3990941643714905
1757490707637736000,10.47973583984375,0.3238518238067627,0.6587784886360168,0.4545849859714508
1757490707647780600,10.489780517578126,0.2644307017326355,0.46209588646888733,0.45571744441986084
1757490707657821200,10.4998212890625,0.20054632425308228,0.33202889561653137,0.4202779531478882
1757490707667862300,10.5098623046875,0.21530167758464813,0.45210355520248413,0.4041236639022827
1757490707677898800,10.519898681640624,0.3210706412792206,0.5214670896530151,0.4229925274848938
1757490707687943700,10.529943603515624,0.36492034792900085,0.3764115571975708,0.41734686493873596
1757490707697984000,10.53998388671875,0.3868202567100525,0.4172968864440918,0.38998448848724365
1757490707708020700,10.550020751953125,0.36540332436561584,0.2794358730316162,0.35098105669021606
1757490707718065400,10.5600654296875,0.35457828640937805,0.17623162269592285,0.33639222383499146
1757490707728106000,10.57010595703125,0.36317169666290283,0.17100229859352112,0.333994060754776
1757490707738146300,10.580146240234376,0.39991021156311035,0.2442295104265213,0.3285149335861206
1757490707748184000,10.59018408203125,0.4610300362110138,0.2935750484466553,0.31938859820365906
1757490707758228200,10.600228271484376,0.4088866710662842,0.07702431082725525,0.2986045181751251
1757490707768269300,10.610269287109375,0.3400394320487976,-0.02876129373908043,0.28368261456489563
1757490707778305800,10.620305908203125,0.2985379099845886,-0.012590352445840836,0.29242590069770813
1757490707798393000,10.64039306640625,0.35387882590293884,0.3059655427932739,0.379958838224411
1757490707808427500,10.650427490234375,0.34971535205841064,0.20825707912445068,0.36512020230293274
1757490707818468400,10.66046826171875,0.27570539712905884,-0.01450555119663477,0.31569141149520874
1757490707828509000,10.670509033203125,0.22434474527835846,-0.04216768592596054,0.27389010787010193
1757490707848590600,10.690590576171875,0.21182101964950562,0.0802551656961441,0.2600007653236389
1757490707858634800,10.700634765625,0.1824435293674469,0.05912136286497116,0.22357867658138275
1757490707868675600,10.710675537109376,0.1723012924194336,0.07021286338567734,0.20530933141708374
1757490707888756500,10.730756591796874,0.18187730014324188,0.1545981913805008,0.16822108626365662
1757490707898797600,10.740797607421875,0.15806220471858978,0.11794295161962509,0.1356460601091385
1757490707908837600,10.750837646484374,0.14728713035583496,0.09625957161188126,0.1257203221321106
1757490707918875100,10.760875244140625,0.14212442934513092,0.11124808341264725,0.11361294239759445
1757490707928919800,10.770919921875,0.16567304730415344,0.20046305656433105,0.1477367877960205
1757490707938956000,10.7809560546875,0.18454192578792572,0.20464318990707397,0.22033116221427917
1757490707949001000,10.7910009765625,0.10600210726261139,0.07595846056938171,0.16367457807064056
1757490707959041300,10.801041259765626,0.06458384543657303,0.08180397748947144,0.20256143808364868
1757490707969082600,10.81108251953125,0.06991308927536011,0.05289280042052269,0.19085374474525452
1757490707979123200,10.821123291015626,0.07489261031150818,0.014039241708815098,0.1588449478149414
1757490707989164000,10.8311640625,0.06829766184091568,-0.021150458604097366,0.14060892164707184
1757490707999200800,10.84120068359375,0.062152374535799026,-0.03064318560063839,0.11456221342086792
1757490708009245200,10.8512451171875,0.06991308927536011,-0.018802259117364883,0.100040003657341
1757490708019286000,10.8612861328125,0.08090467005968094,0.00559571199119091,0.09637615084648132
1757490708029326000,10.871326171875,0.08245348185300827,-0.01841921918094158,0.09327851980924606
1757490708039367400,10.881367431640625,0.07952239364385605,-0.05092764273285866,0.08553445339202881
1757490708049407700,10.89140771484375,0.07016289979219437,-0.07937251031398773,0.07424310594797134
1757490708059444500,10.901444580078126,0.06017055734992027,-0.10793396085500717,0.06853082031011581
1757490708069485300,10.9114853515625,0.04789663106203079,-0.11546152085065842,0.06007063388824463
1757490708079526000,10.92152587890625,0.039602987468242645,-0.08776608109474182,0.04897913336753845
1757490708089572000,10.931572021484374,0.033840734511613846,-0.051876913756132126,0.04386638477444649
1757490708099611000,10.94161083984375,0.02959398925304413,-0.023115620017051697,0.0452653132379055
1757490708109651500,10.9516513671875,0.026413092389702797,-0.011807618662714958,0.04203445464372635
1757490708119692500,10.961692626953125,0.02025114744901657,-0.012557044625282288,0.035339586436748505
1757490708129729000,10.97172900390625,0.013722817413508892,-0.017553215846419334,0.029277564957737923
1757490708139773400,10.9817734375,0.00696133216843009,-0.030843032523989677,0.017886294052004814
1757490708149810700,10.991810791015626,-0.003513973904773593,-0.050161562860012054,0.011507848277688026
1757490708159855000,11.001855224609375,-0.005878828465938568,-0.06784801185131073,0.00712787127122283
1757490708169896200,11.011896240234375,-0.008027181960642338,-0.08182063698768616,-0.0025980090722441673
1757490708179936800,11.021936767578126,-0.01628751866519451,-0.08585087954998016,-0.007344372104853392
1757490708189977000,11.03197705078125,-0.018485834822058678,-0.08235356211662292,-0.01483862940222025
1757490708200014300,11.042014404296875,-0.030576569959521294,-0.07719084620475769,-0.021366959437727928
1757490708210058200,11.052058349609375,-0.026946017518639565,-0.055790580809116364,-0.02086734212934971
1757490708220095000,11.062094970703125,-0.02451454848051071,-0.03865371271967888,-0.013489662669599056
1757490708230139600,11.0721396484375,-0.023981623351573944,-0.039436448365449905,-0.009409456513822079
1757490708240180500,11.082180419921874,-0.027312403544783592,-0.03439031168818474,-0.014239088632166386
1757490708250221800,11.092221923828125,-0.035839203745126724,-0.017103560268878937,-0.020900649949908257
1757490708260257800,11.1022578125,-0.04524866119027138,-0.025030819699168205,-0.02238284796476364
1757490708270302500,11.112302490234375,-0.05382541939616203,-0.019734878093004227,-0.016387442126870155
1757490708280343000,11.122343017578125,-0.06065352261066437,-0.02593012899160385,-0.02036772482097149
1757490708290383600,11.132383544921876,-0.06878062337636948,-0.043066997081041336,-0.022199654951691628
1757490708300423000,11.1424228515625,-0.07549215108156204,-0.05465811491012573,-0.02404823899269104
1757490708310461200,11.152461181640625,-0.0794890895485878,-0.05604039132595062,-0.026196591556072235
1757490708320502300,11.162502197265624,-0.08273659646511078,-0.05222664400935173,-0.0313093401491642
1757490708330521600,11.172521484375,-0.08714988082647324,-0.05244314670562744,-0.03595577925443649
1757490708340584700,11.182584716796875,-0.08891519904136658,-0.057922281324863434,-0.039886102080345154
1757490708350627000,11.192626953125,-0.09083040058612823,-0.06083671376109123,-0.04584819823503494
1757490708360667100,11.202667236328125,-0.09324521571397781,-0.05574062094092369,-0.05059456452727318
1757490708370706700,11.212706787109376,-0.09512710571289062,-0.04479900375008583,-0.057089585810899734
1757490708380746800,11.222746826171875,-0.0954601839184761,-0.03535623848438263,-0.06515007466077805
1757490708390785800,11.232785888671875,-0.09829134494066238,-0.026862747967243195,-0.07342706620693207
1757490708400826600,11.24282666015625,-0.10263801366090775,-0.02601339854300022,-0.08228694647550583
1757490708410867500,11.252867431640626,-0.11158116161823273,-0.039969369769096375,-0.08616730570793152
1757490708420908500,11.262908447265625,-0.11760987341403961,-0.05314261093735695,-0.07975555211305618
1757490708430964500,11.272964599609375,-0.11880895495414734,-0.05953770875930786,-0.08180397748947144
1757490708440993800,11.282993896484374,-0.12397167086601257,-0.05179364234209061,-0.08971458673477173
1757490708451033000,11.293033203125,-0.13582925498485565,-0.031042879447340965,-0.09955704212188721
1757490708461075000,11.303074951171874,-0.14618797600269318,-0.012307235971093178,-0.11233058571815491
1757490708471112000,11.31311181640625,-0.1499517560005188,0.0021316998172551394,-0.12347204983234406
1757490708481206800,11.323206787109376,-0.14813648164272308,0.015504785813391209,-0.13261504471302032
1757490708491202600,11.33320263671875,-0.1483529806137085,0.026080014184117317,-0.1391933411359787
1757490708501238000,11.343238037109375,-0.15156719088554382,0.034756697714328766,-0.13171572983264923
1757490708511278300,11.3532783203125,-0.14055895805358887,0.041934531182050705,-0.12400497496128082
1757490708521315000,11.363315185546876,-0.13056661188602448,0.042650651186704636,-0.12560375034809113
1757490708531359500,11.373359375,-0.12888456881046295,0.03503981605172157,-0.13416385650634766
1757490708541405000,11.383405029296876,-0.13381412625312805,0.02346535213291645,-0.13962633907794952
1757490708551437300,11.393437255859375,-0.13899348676204681,0.02141692116856575,-0.14097531139850616
1757490708561478000,11.403477783203124,-0.14205780625343323,0.016470711678266525,-0.13894352316856384
1757490708571521000,11.41352099609375,-0.13907675445079803,0.007161179091781378,-0.13587920367717743
1757490708581558800,11.423558837890624,-0.13762786984443665,-0.005245979875326157,-0.1349632441997528
1757490708591599600,11.433599609375,-0.13789433240890503,-0.013939318247139454,-0.138560488820076
1757490708601644000,11.44364404296875,-0.13396401703357697,-0.017836332321166992,-0.14493893086910248
1757490708611684900,11.453684814453124,-0.13328120112419128,-0.019968030974268913,-0.15249980986118317
1757490708621725400,11.463725341796875,-0.14234092831611633,-0.023865045979619026,-0.1593279093503952
1757490708631766000,11.47376611328125,-0.15574732422828674,-0.030076952651143074,-0.1643906980752945
1757490708641803300,11.48380322265625,-0.1657896190881729,-0.028827909380197525,-0.1714019924402237
1757490708651847700,11.49384765625,-0.1716184914112091,-0.026063360273838043,-0.17618165910243988
1757490708661884200,11.50388427734375,-0.1763981580734253,-0.029710566624999046,-0.1790461242198944
1757490708671928800,11.5139287109375,-0.18579095602035522,-0.027329057455062866,-0.18665696680545807
1757490708681969400,11.523969482421874,-0.20754095911979675,-0.021883230656385422,-0.20414356887340546
1757490708692009700,11.534009765625,-0.24799329042434692,-0.016387442126870155,-0.22594352066516876
1757490708702050800,11.54405078125,-0.2858975827693939,-0.022682618349790573,-0.23966634273529053
1757490708712088000,11.554088134765625,-0.3141426146030426,-0.050494641065597534,-0.2482597529888153
1757490708722132700,11.5641328125,-0.3285648822784424,-0.08420214056968689,-0.26363131403923035
1757490708732172800,11.5741728515625,-0.3307465612888336,-0.08736638724803925,-0.27375689148902893
1757490708742213400,11.58421337890625,-0.3296973407268524,-0.07512576133012772,-0.2794192135334015
1757490708752254000,11.59425390625,-0.31159454584121704,-0.06893051415681839,-0.2897113263607025
1757490708762294500,11.60429443359375,-0.33056336641311646,-0.09416117519140244,-0.29522377252578735
1757490708772335000,11.614335205078126,-0.39957714080810547,-0.13008365035057068,-0.293724924325943
1757490708782376200,11.624376220703125,-0.4397963285446167,-0.17701435089111328,-0.3010859489440918
1757490708792414500,11.63441455078125,-0.4395798146724701,-0.221380352973938,-0.31182771921157837
1757490708802454000,11.6444541015625,-0.35562747716903687,-0.22502756118774414,-0.3331613540649414
1757490708812494800,11.654494873046875,-0.31883901357650757,-0.21735011041164398,-0.3206542730331421
1757490708822535000,11.664534912109374,-0.37221476435661316,-0.19085374474525452,-0.3031676709651947
1757490708832578800,11.674578857421874,-0.4144490659236908,-0.15448161959648132,-0.3241516053676605
1757490708842620400,11.684620361328125,-0.4178464710712433,-0.16464050114154816,-0.3543950915336609
1757490708852660700,11.69466064453125,-0.35206353664398193,-0.18802258372306824,-0.3758619725704193
1757490708862701300,11.704701416015626,-0.28751301765441895,-0.24914242327213287,-0.3651535212993622
1757490708872742100,11.7147421875,-0.3093462884426117,-0.24286389350891113,-0.3249509930610657
1757490708882782700,11.72478271484375,-0.3189389407634735,-0.18032848834991455,-0.29494065046310425
1757490708892819700,11.73481982421875,-0.30065295100212097,-0.1563301980495453,-0.27399003505706787
1757490708902864100,11.744864013671876,-0.2785865068435669,-0.17000305652618408,-0.28301647305488586
1757490708912904400,11.754904541015625,-0.24840964376926422,-0.13241519033908844,-0.3461514115333557
1757490708922945300,11.7649453125,-0.23766787350177765,-0.20928962528705597,-0.3644707202911377
1757490708932985900,11.77498583984375,-0.29292553663253784,-0.2744896709918976,-0.36666902899742126
1757490708943026700,11.785026611328124,-0.3789096474647522,-0.21003904938697815,-0.41794639825820923
1757490708953067300,11.7950673828125,-0.4550013244152069,-0.1079506129026413,-0.46044716238975525
1757490708963104000,11.80510400390625,-0.46655914187431335,-0.07217802107334137,-0.4440930187702179
1757490708973148400,11.8151484375,-0.4530694782733917,-0.09063055366277695,-0.443143755197525
1757490708983189500,11.825189453125,-0.4718717336654663,-0.11366289854049683,-0.479915589094162
1757490708993229800,11.835229736328126,-0.46829116344451904,-0.19663265347480774,-0.4917065501213074
1757490709003270400,11.8452705078125,-0.4472073018550873,-0.2524065673351288,-0.5173535346984863
1757490709013311200,11.855311279296876,-0.4230091869831085,-0.20717456936836243,-0.5739268660545349
1757490709023352000,11.86535205078125,-0.3945143520832062,-0.17531566321849823,-0.5345403552055359
1757490709033388500,11.875388427734375,-0.4145823121070862,-0.07807350903749466,-0.4479900300502777
1757490709043429400,11.885429443359374,-0.4630618095397949,0.03887021541595459,-0.4540354013442993
1757490709053469700,11.8954697265625,-0.5428839921951294,0.07812346518039703,-0.5417848229408264
1757490709063512300,11.90551220703125,-0.5581555962562561,0.0354728177189827,-0.6325319409370422
1757490709073553000,11.915552978515626,-0.49467092752456665,-0.07001301646232605,-0.6580290794372559
1757490709083596300,11.92559619140625,-0.4948541224002838,-0.11551148444414139,-0.6585120558738708
1757490709093636600,11.93563671875,-0.5435335040092468,-0.08721649646759033,-0.6607603430747986
1757490709103677200,11.94567724609375,-0.6035374999046326,-0.07614165544509888,-0.6579957604408264
1757490709113717500,11.955717529296875,-0.6233389973640442,-0.09855780750513077,-0.6412419676780701
1757490709123754200,11.965754150390625,-0.5779737830162048,-0.1697365939617157,-0.6221066117286682
1757490709133799000,11.975798828125,-0.5322921276092529,-0.2049262970685959,-0.6139795184135437
1757490709143839500,11.985839599609376,-0.533191442489624,-0.1972322016954422,-0.6116313338279724
1757490709153880000,11.995880126953125,-0.5075110793113708,-0.13764452934265137,-0.6333813071250916
1757490709163921200,12.005921142578124,-0.49613648653030396,-0.1717517226934433,-0.6239718794822693
1757490709173961200,12.015961181640625,-0.5665491819381714,-0.07529230415821075,-0.5908972024917603
1757490709184001800,12.026001708984374,-0.6425076723098755,-0.0017320060869678855,-0.5624856352806091
1757490709194038300,12.036038330078124,-0.6017888784408569,0.016970328986644745,-0.5223330855369568
1757490709204083700,12.046083740234375,-0.5432503819465637,0.012940083630383015,-0.4921228885650635
1757490709214124300,12.056124267578125,-0.5396864414215088,-0.006245214492082596,-0.48347949981689453
1757490709224160800,12.066160888671876,-0.5228826403617859,-0.021067189052700996,-0.478949636220932
1757490709234205200,12.076205078125,-0.5299938917160034,-0.07291079312562943,-0.4464412331581116
1757490709244245800,12.086245849609375,-0.5521602034568787,0.016004402190446854,-0.387503057718277
1757490709254287000,12.096287109375,-0.4402126669883728,0.021783307194709778,-0.3628219664096832
1757490709264323300,12.1063232421875,-0.3793259859085083,-0.054841309785842896,-0.3751625120639801
1757490709274368500,12.116368408203124,-0.4420279562473297,-0.09765850007534027,-0.3763948976993561
1757490709284407800,12.12640771484375,-0.5093430280685425,-0.06285183876752853,-0.3726810812950134
1757490709294445600,12.136445556640625,-0.47426989674568176,-0.08616730570793152,-0.37243127822875977
1757490709304486700,12.146486572265625,-0.4318024516105652,-0.1839756816625595,-0.3851548433303833
1757490709314528000,12.156528076171876,-0.43711504340171814,-0.3109284043312073,-0.3978784382343292
1757490709324574700,12.16657470703125,-0.43296822905540466,-0.23851722478866577,-0.3898179531097412
1757490709334608100,12.176608154296876,-0.4597310423851013,-0.22685949504375458,-0.36283862590789795
1757490709344653000,12.186653076171876,-0.4672253131866455,-0.2587184011936188,-0.324834406375885
1757490709354693600,12.196693603515625,-0.477683961391449,-0.282200425863266,-0.2967892289161682
1757490709364734200,12.206734130859376,-0.516104519367218,-0.3326784074306488,-0.29265907406806946
1757490709374774800,12.21677490234375,-0.515138566493988,-0.2573694586753845,-0.2856810688972473
1757490709384815400,12.2268154296875,-0.5101091265678406,-0.24023257195949554,-0.285664439201355
1757490709394856000,12.23685595703125,-0.4934385418891907,-0.18575765192508698,-0.2868635058403015
1757490709404920600,12.246920654296876,-0.5409687757492065,-0.15684647858142853,-0.2656964063644409
1757490709414937300,12.256937255859375,-0.6406590938568115,-0.18872204422950745,-0.26841098070144653
1757490709424977700,12.266977783203124,-0.6296508312225342,-0.02224961668252945,-0.2831830084323883
1757490709435018500,12.2770185546875,-0.5970924496650696,0.03437365964055061,-0.28683021664619446
1757490709445063200,12.287063232421875,-0.6116812825202942,0.06723181158304214,-0.28411561250686646
1757490709455096000,12.297095947265625,-0.650151789188385,0.05937116965651512,-0.2967226207256317
1757490709465135900,12.307135986328126,-0.6340474486351013,-0.15381546318531036,-0.3716984987258911
1757490709475177500,12.317177490234375,-0.5971423983573914,-0.055757272988557816,-0.41066864132881165
1757490709485218000,12.327218017578126,-0.5679814219474792,-0.05247645452618599,-0.4160645008087158
1757490709495258600,12.337258544921875,-0.5056458711624146,-0.02488093450665474,-0.4186791777610779
1757490709505300700,12.34730078125,-0.5521102547645569,-0.021100496873259544,-0.40582236647605896
1757490709515344100,12.35734423828125,-0.6336144804954529,-0.06286849081516266,-0.4348667562007904
1757490709525385700,12.3673857421875,-0.6464712619781494,0.15504784882068634,-0.4354996085166931
1757490709535421200,12.377421142578125,-0.6522335410118103,0.2387503832578659,-0.40227508544921875
1757490709545462000,12.3874619140625,-0.6828100681304932,0.3406389653682709,-0.3324618935585022
1757490709555503400,12.39750341796875,-0.5884657502174377,0.1280851811170578,-0.37013304233551025
1757490709565543000,12.40754296875,-0.5676483511924744,0.0847683772444725,-0.41045212745666504
1757490709575587600,12.417587646484375,-0.6063187122344971,0.14020922780036926,-0.3794092535972595
1757490709585628400,12.42762841796875,-0.6380277276039124,0.10765083879232407,-0.3526131212711334
1757490709595665200,12.4376650390625,-0.6971324682235718,0.12778541445732117,-0.32714930176734924
1757490709605709800,12.447709716796876,-0.7366355061531067,0.037138208746910095,-0.3539287745952606
1757490709615750400,12.45775048828125,-0.7167174220085144,-0.08884858340024948,-0.4302702844142914
1757490709625791000,12.467791015625,-0.6973989009857178,0.007794027682393789,-0.4571663439273834
1757490709635827700,12.47782763671875,-0.6236387491226196,-0.007660796400159597,-0.4833795726299286
1757490709645871900,12.487871826171874,-0.6421912312507629,-0.025813551619648933,-0.5046966075897217
1757490709655912700,12.49791259765625,-0.7310731410980225,-0.06863074004650116,-0.5132566690444946
1757490709665950000,12.507949951171875,-0.8033010959625244,-0.0025147395208477974,-0.5084603428840637
1757490709675994000,12.517994140625,-0.8317793011665344,0.1066349521279335,-0.4670754075050354
1757490709686035000,12.528034912109375,-0.772541344165802,-0.029460757970809937,-0.5250476598739624
1757490709696075500,12.538075439453126,-0.7385174036026001,-0.048829250037670135,-0.5525765419006348
1757490709706112300,12.5481123046875,-0.7453122138977051,-0.045481812208890915,-0.5574061870574951
1757490709716156700,12.55815673828125,-0.7231292128562927,-0.07835662364959717,-0.567415177822113
1757490709726193400,12.568193359375,-0.7506081461906433,-0.2359691709280014,-0.5819041132926941
