time,seconds_elapsed,z,y,x
1758273837114634500,0.041634521484375,9.023596419525147,-2.019509100341797,1.4451999771118162
1758273837124591600,0.051591552734375,8.839991079711913,-1.9859902770996092,1.449838742828369
1758273837134549500,0.061549560546875,9.015964901733398,-1.9806033233642577,1.5568296295166015
1758273837144507600,0.071507568359375,9.3715038482666,-1.886630908203125,1.9648913749694823
1758273837154465500,0.081465576171875,9.918130014801024,-1.901295393371582,2.5125650047302246
1758273837164422400,0.09142236328125,10.45667575073242,-1.8230349266052246,2.907458641052246
1758273837174380500,0.101380615234375,10.605116253662109,-1.6600795761108398,2.8362311416625974
1758273837184338700,0.111338623046875,10.423755477905273,-1.6645687042236328,2.6589105812072753
1758273837194296600,0.121296630859375,9.752481187438963,-1.7184382415771484,2.2994810569763184
1758273837204253400,0.13125341796875,8.928726178741455,-2.0588637901306153,1.7565958305358886
1758273837214211600,0.141211669921875,8.36384422454834,-2.283170558166504,1.2702736183166503
1758273837224169500,0.15116943359375,8.231564582824706,-2.2417209419250486,1.0529998176574706
1758273837234127600,0.161127685546875,8.377161971282959,-2.1534347557067868,1.1302128211975098
1758273837244084500,0.17108447265625,8.25475841140747,-2.289455337524414,1.3295301094055174
1758273837254042600,0.181042724609375,8.067711406707764,-2.2076035682678223,1.4104840530395506
1758273837264000800,0.191000732421875,8.132504489135743,-1.8522142593383788,1.6039654747009275
1758273837273958400,0.20095849609375,8.29246708755493,-1.4502876556396485,1.9987094734191893
1758273837283915800,0.210915771484375,8.658331028747558,-0.9374795875549315,2.546233465576172
1758273837293873700,0.220873779296875,9.089137689971924,-0.7103297050476074,3.112761433410644
1758273837303831600,0.23083154296875,9.299079248046874,-0.8209118942260741,3.7817911598205565
1758273837313788700,0.24078857421875,9.212887988281249,-1.0895113929748534,3.901351605224609
1758273837323746600,0.25074658203125,9.48118821182251,-1.3925275405883788,3.564218083953857
1758273837333704700,0.26070458984375,9.935188701629638,-1.6798317398071287,3.143137866973877
1758273837343662800,0.270662841796875,10.166528437042235,-2.300229244995117,2.3892636192321777
1758273837353619500,0.280619384765625,9.9215716796875,-2.703652224731445,1.60246909866333
1758273837363577600,0.29057763671875,9.58294178237915,-2.357690084838867,1.5825672973632812
1758273837373535700,0.30053564453125,9.211391612243652,-1.7342998275756836,2.2937948280334473
1758273837383493600,0.31049365234375,8.614636848449706,-1.3684358863830566,3.1386487388610838
1758273837393450800,0.32045068359375,8.250119645690917,-0.8587702079772949,4.06655151977539
1758273837403408600,0.33040869140625,8.354267417907714,-0.29134441452026366,4.836137715911865
1758273837413366800,0.34036669921875,8.649652047729491,-0.4212298545837402,5.0112137123107905
1758273837423324700,0.35032470703125,8.555829270172119,-0.8324339897155761,4.59671754989624
1758273837433281500,0.360281494140625,8.402899639129638,-0.8798691101074219,4.142118509674072
1758273837443239700,0.37023974609375,8.496423141479491,-1.2521674682617188,3.7294179985046383
1758273837453197800,0.38019775390625,8.562263687133788,-1.6787842765808105,3.5175311515808105
1758273837463155700,0.39015576171875,8.604162216186523,-1.6264111152648926,3.877259951019287
1758273837473112600,0.400112548828125,8.449736209106446,-1.3364134391784668,4.364629626464843
1758273837483070700,0.41007080078125,8.550741591644286,-1.3976152191162108,4.298938718414306
1758273837493028600,0.420028564453125,8.908375464630126,-1.8487725944519042,3.8762124877929685
1758273837502986800,0.42998681640625,9.050381550598145,-2.2014684265136717,3.640832537078857
1758273837512943900,0.43994384765625,8.84926861114502,-2.0217536643981933,3.9387610061645506
1758273837522901800,0.44990185546875,8.316259466552735,-1.610100616455078,4.2682630096435545
1758273837532859600,0.459859619140625,7.275679570007323,-1.7380407676696776,4.713734156036376
1758273837542817500,0.469817626953125,6.377405034637451,-2.090886237335205,4.841973582458496
1758273837552774700,0.479774658203125,5.757606079864502,-1.8959084396362305,4.5307273666381835
1758273837562732800,0.48973291015625,5.065532162475586,-1.8493711448669432,4.802618892669678
1758273837572690700,0.499690673828125,5.042936884307861,-2.13877027053833,5.588365950012206
1758273837582648800,0.50964892578125,5.22833787536621,-1.993172882080078,6.280439867401123
1758273837592605700,0.519605712890625,5.219209981536865,-1.8465280303955076,6.858340293121337
1758273837602563600,0.5295634765625,5.087229615020751,-1.8161515968322752,7.540687766265869
1758273837612521700,0.539521728515625,4.595670086669921,-1.726369034576416,8.424896366882324
1758273837622479600,0.549479736328125,4.314351391601562,-1.6629226905822754,9.127295278930664
1758273837632436700,0.559436767578125,4.314800304412842,-1.5200187789916992,9.259724558258057
1758273837642395000,0.569394775390625,4.364629626464843,-1.80029001083374,9.590722937774657
1758273837652352500,0.5793525390625,4.592378059387206,-1.9502268898010253,10.300304454803467
1758273837662310700,0.589310546875,4.76281529006958,-1.9677344894409179,10.848127722167968
1758273837672267800,0.599267822265625,4.32213254699707,-2.21553436126709,11.24272208328247
1758273837682225700,0.6092255859375,3.4280478645324703,-2.2807763565063475,11.34462529144287
1758273837692183800,0.619183837890625,2.6228479187011717,-2.5192986968994138,10.87955161895752
1758273837702141700,0.6291416015625,2.362777763366699,-2.8291981742858887,10.569652141571044
1758273837712098600,0.6390986328125,1.6561889984130858,-3.2237925354003902,10.958560273742675
1758273837722056700,0.649056640625,0.5331587821960448,-3.393631215667724,10.36809028930664
1758273837732014600,0.6590146484375,0.8080430603027343,-3.6884172950744625,9.756820677947998
1758273837741972700,0.66897265625,0.10788871231079102,-4.077175789642334,9.878027136993408
1758273837751929900,0.678929931640625,1.0657190139770507,-4.565293653106689,9.232340876770019
1758273837761887700,0.6888876953125,1.5261539207458494,-4.873397479248046,8.987533757019042
1758273837771845600,0.698845703125,1.6102502540588377,-4.851400751495361,8.673294789123535
1758273837781803500,0.708803466796875,0.5379471855163573,-7.88455497970581,7.608623238372802
1758273837791760600,0.7187607421875,1.20667763671875,-6.511629965209961,3.5609260566711423
1758273837801718800,0.72871875,3.1126117958068846,-4.453963275909423,3.106027741241455
1758273837811676700,0.7386767578125,1.8429367279052733,-4.719420384979248,7.457788533782958
1758273837821634800,0.748634765625,1.0479121391296387,-4.836736266326904,9.699808750915526
1758273837831591700,0.758591796875,2.082506531524658,-6.708104138946533,6.452672749328613
1758273837841549600,0.768549560546875,1.319055477142334,-7.521234877777099,6.051045420837402
1758273837851507700,0.7785078125,1.019032081604004,-6.970867771148681,6.5014546081542965
1758273837861465600,0.788465576171875,1.8101660926818846,-6.1924529563903805,6.09683452758789
1758273837871422700,0.798422607421875,0.34551322708129883,-5.544222856903076,7.345261055755615
1758273837881380600,0.808380615234375,-0.2699462371826172,-5.3296425331115715,8.243834866333007
1758273837891338500,0.81833837890625,0.5258265396118164,-4.748898992919922,7.613411641693115
1758273837901296600,0.828296630859375,0.5482721801757812,-4.78181926574707,7.651120317840576
1758273837911253800,0.838253662109375,0.5526116706848144,-5.38800119857788,8.045714678955077
1758273837921211600,0.848211669921875,-0.5455787033081054,-6.591985358428954,8.66282015686035
1758273837931169800,0.858169677734375,-3.169773360443115,-6.6784758934021,7.349151633453369
1758273837941127700,0.868127685546875,-2.1121347770690915,-6.650643299102783,5.538536627960204
1758273837951084500,0.87808447265625,0.5536591339111328,-8.019827373504638,4.563797277069091
1758273837961042700,0.888042724609375,1.9234417587280273,-8.35696089477539,4.248211570739746
1758273837971000600,0.89800048828125,1.4712369201660156,-8.18427910003662,4.320336895751953
1758273837980958700,0.907958740234375,-0.5915174476623535,-9.503334577178954,4.488828837585449
1758273837990915800,0.917915771484375,-0.33324294357299805,-10.244339990997315,4.71792400894165
1758273838000873500,0.92787353515625,0.8708908538818358,-11.855188795471191,4.280234017944336
1758273838010831600,0.93783154296875,0.8004115425109862,-13.22766489715576,4.072237748718261
1758273838020789500,0.94778955078125,1.427542739868164,-13.010241458892821,4.464587545776367
1758273838030746600,0.95774658203125,2.1068974609374997,-12.555642418670654,4.514416867828369
1758273838040704800,0.967704833984375,1.4299369415283203,-11.492766519165038,3.793013980102539
1758273838050662700,0.97766259765625,0.8997709114074707,-9.360729940795897,1.6277578536987303
1758273838060620800,0.987620849609375,-0.36975451889038086,-9.02045402984619,1.9410989959716796
1758273838070578700,0.99757861328125,-0.5494692810058593,-8.1334023147583,3.3080385063171387
1758273838080535600,1.00753564453125,0.330699104309082,-6.498012943267822,4.012681982421875
1758273838090493700,1.01749365234375,-0.509516040802002,-6.322039121246338,3.923946883392334
1758273838100451600,1.02745166015625,-0.22266075439453123,-7.282263624572754,3.240701584625244
1758273838110409700,1.03740966796875,-0.01571194839477539,-7.989450939941406,2.980182516479492
1758273838120366600,1.04736669921875,0.11192892761230468,-9.478195459747313,4.0267479171752925
1758273838130324500,1.057324462890625,-0.520289948272705,-9.483582413482665,4.912602531433105
1758273838140282600,1.06728271484375,-1.820191812133789,-9.899425314331054,5.966350537109375
1758273838150240800,1.07724072265625,-2.0471920570373534,-10.214711745452881,5.98236176071167
1758273838160197600,1.08719775390625,-1.047762501525879,-11.009137783813475,5.783493385314941
1758273838170155800,1.09715576171875,-0.3033154228210449,-11.510274118804931,5.24150598449707
1758273838180114000,1.107114013671875,0.27787703018188475,-10.774506021118164,4.350264416503906
1758273838190071600,1.117071533203125,0.3324947555541992,-9.948955361175537,3.7855320999145508
1758273838200028700,1.127028564453125,0.057610477447509766,-9.492859944915772,3.3822587577819823
1758273838209986600,1.136986572265625,-0.4095581214904785,-9.61496422958374,3.2134675407409667
1758273838219944700,1.14694482421875,-0.622492431640625,-9.617807344055175,3.107224842071533
1758273838229902800,1.15690283203125,-0.485873299407959,-9.565134907531737,3.134009973144531
1758273838239859500,1.166859375,-0.3942950859069824,-9.567080196380614,3.2583588218688964
1758273838249817600,1.176817626953125,-0.5660790550231933,-9.542689266967773,3.4952351486206052
1758273838259775700,1.186775634765625,-0.7710825721740722,-9.471461767578125,3.7153520637512205
1758273838269733600,1.196733642578125,-0.7481880187988281,-9.543287817382812,3.94549469833374
1758273838279691000,1.20669091796875,-0.6994061599731445,-9.616310968017578,4.057124350738525
1758273838289649000,1.21664892578125,-0.6594529197692871,-9.561094692230224,4.08570513305664
1758273838299607000,1.22660693359375,-0.6456862602233886,-9.494805233764648,4.110245700073242
1758273838309565200,1.236565185546875,-0.7257423782348632,-9.385420145416258,4.219481150817871
1758273838319522000,1.24652197265625,-0.8369231178283691,-9.28276874923706,4.236539837646484
1758273838329480000,1.25647998046875,-1.0027215827941893,-9.17413184890747,4.272602500152588
1758273838339438000,1.26643798828125,-1.0836755264282225,-9.043797496032715,4.354753544616699
1758273838349396000,1.27639599609375,-1.0844237144470215,-8.996362375640869,4.377498460388184
1758273838359353000,1.28635302734375,-1.0009259315490722,-9.002796792602538,4.3257238494873045
1758273838369311000,1.29631103515625,-0.8970774345397948,-9.04649097290039,4.280234017944336
1758273838379269000,1.30626904296875,-0.8283937744140625,-9.017311640167236,4.2582372901916505
1758273838389227300,1.316227294921875,-0.7987655288696288,-8.93141965560913,4.256890551757812
1758273838399185000,1.326184814453125,-0.7345709968566894,-8.800636389923095,4.164713787841797
1758273838409142000,1.33614208984375,-0.6763619689941406,-8.687360723876953,4.033032696533203
1758273838419100200,1.34610009765625,-0.6567594429016113,-8.577227447509765,3.910180223846435
1758273838429058000,1.35605810546875,-0.6584054565429687,-8.50450357208252,3.805583538818359
1758273838439016200,1.36601611328125,-0.6857891380310058,-8.451531860351562,3.7318122001647946
1758273838448973000,1.37597314453125,-0.692073917388916,-8.410980069732666,3.674052085113525
1758273838458931000,1.385930908203125,-0.7567173622131347,-8.403797464752197,3.6070144386291503
1758273838468889000,1.39588916015625,-0.8137292892456054,-8.544307174682617,3.555239827728271
1758273838478847000,1.405846923828125,-0.877175633239746,-8.657433203124999,3.5664626480102535
1758273838488804000,1.41580419921875,-0.8994716361999511,-8.75948604888916,3.684975630187988
1758273838498762200,1.42576220703125,-0.8857049766540527,-8.902539598083495,3.7012861289978027
1758273838508720000,1.43572021484375,-0.9150339469909667,-9.03362213897705,3.745878134918213
1758273838518678000,1.445677978515625,-0.8803180229187011,-9.156324974060057,3.7377977043151853
1758273838528635100,1.45563525390625,-1.1026795021057127,-8.929324729156493,3.8099230293273925
1758273838538593000,1.465593017578125,-1.1921627891540527,-7.7127710105895995,3.5805285827636717
1758273838548551200,1.47555126953125,-0.5781997009277343,-6.212354757690429,2.8758851066589353
1758273838558509000,1.485509033203125,-0.042048166656494135,-6.257994226837158,2.255637239074707
1758273838568467200,1.49546728515625,0.1892915687561035,-6.542305673980713,1.8785504776000976
1758273838578424000,1.505424072265625,-0.08933364944458007,-5.941510694885253,1.9259855979919434
1758273838588382000,1.5153818359375,-0.44322658233642576,-5.878363626098633,2.625691033172607
1758273838598340000,1.525340087890625,-1.572541577911377,-5.290736756134033,3.1604958290100096
1758273838608298000,1.535298095703125,-1.6165350334167479,-3.597587269592285,2.9345430473327636
1758273838618255000,1.545255126953125,-0.13736732025146484,-1.5786767196655274,2.485929511260986
1758273838628213200,1.555213134765625,0.5975029518127442,0.050427872467041016,1.899948654937744
1758273838638171000,1.5651708984375,1.032349828338623,0.8447042732238769,1.651699870300293
1758273838648129000,1.57512890625,0.982520506286621,1.200841770172119,1.3780126930236816
1758273838658086100,1.585086181640625,-0.8092401611328125,-1.4317325927734375,0.027682956695556638
1758273838668044000,1.5950439453125,-2.3454198013305665,-9.625738137054443,-1.139639990234375
1758273838678002200,1.605002197265625,0.8390180442810058,-24.909872622680663,0.04638765716552734
1758273838687960000,1.6149599609375,1.4363713584899902,-34.83937509536743,3.3209073402404785
1758273838699162000,1.626162109375,-1.4909890838623046,-31.719431056976315,7.4438722366333
1758273838709120000,1.6361201171875,-5.591657977294922,-19.611803623962402,11.80999823913574
1758273838719078100,1.646078125,-3.6981437393188474,-11.36392854232788,10.293421125030516
1758273838729036000,1.6560361328125,-1.6365864723205565,-11.14635546646118,3.742586107635498
1758273838738993200,1.6659931640625,-1.1887211242675781,-10.422857652282714,-0.9111433692932128
1758273838748951000,1.675950927734375,0.9047089523315429,-10.139743305969239,-0.620547142791748
1758273838758909000,1.685908935546875,-2.2105963203430172,-8.583961139678955,-1.065569376373291
1758273838768867000,1.6958671875,-1.6409259628295898,-9.78719711151123,-1.7018284675598143
1758273838778825000,1.705824951171875,-0.10609306106567382,-11.483788262939452,0.21577742462158203
1758273838788782000,1.715781982421875,-1.2472294273376463,-11.742062767028807,1.507299582672119
1758273838798740200,1.725740234375,-1.697638614654541,-11.553070473480224,2.3313538665771483
1758273838808697900,1.73569775390625,-1.6000748970031737,-10.825083531188964,2.88561155090332
1758273838818656000,1.745656005859375,-1.2728174575805664,-9.405621221923827,3.264344326019287
1758273838828613000,1.755613037109375,-1.5177742149353026,-8.407538404846191,3.3412580543518065
1758273838838571000,1.765571044921875,-1.770362490081787,-7.300220137023925,3.208080587005615
1758273838848529200,1.775529052734375,-1.666962905883789,-7.4685624412536615,2.5938182235717773
1758273838858487000,1.785487060546875,-1.4610615631103514,-8.457667002105712,2.0260931549072265
1758273838868444000,1.79544384765625,-1.1342530364990233,-9.248651375579833,1.7045219444274902
1758273838878402000,1.805402099609375,-1.1186907257080076,-10.140641131591796,1.4368202713012694
1758273838888360000,1.81535986328125,-1.4700398193359374,-10.811167234039306,1.361851831817627
1758273838898318000,1.825318115234375,-2.1154268043518063,-11.099967809295654,1.208473287963867
1758273838908276000,1.83527587890625,-2.5954642372131347,-11.001057353210449,1.031003089904785
1758273838918233000,1.845233154296875,-3.146878807067871,-10.72542488708496,1.132607022857666
1758273838928191000,1.85519091796875,-3.2589573722839353,-10.39322940673828,1.370680450439453
1758273838938148900,1.86514892578125,-3.011307138061523,-10.070461095428467,1.7419313453674314
1758273838948107000,1.87510693359375,-2.25384158782959,-9.705195704650878,2.12590143661499
1758273838958064000,1.885064208984375,-1.3476362594604492,-9.392004199981688,2.318185757446289
1758273838968022000,1.89502197265625,-0.8215104446411132,-9.203909732055664,2.439392216491699
1758273838977980200,1.904980224609375,-1.0402806213378906,-9.270498465728759,2.3527520439147946
1758273838987938000,1.91493798828125,-1.575683967590332,-9.692775783538817,1.9979612854003905
1758273838997895000,1.92489501953125,-2.2303484840393066,-10.100687891387938,1.62805712890625
1758273839007853000,1.93485302734375,-2.5698762069702146,-9.99115316543579,0.5671265182495117
1758273839017811000,1.94481103515625,-2.5412954246520996,-9.63351929244995,-0.9183259742736816
1758273839027769000,1.95476904296875,-2.216581824493408,-9.3715038482666,-1.061678798675537
1758273839037727200,1.964727294921875,-1.9008464805603027,-9.245060073089599,-0.8553285430908203
1758273839047683800,1.974683837890625,-2.179770973968506,-9.36013139038086,-0.3854664672851562
1758273839057642000,1.98464208984375,-2.699761647033691,-9.661651161956787,0.1970727241516113
1758273839067600100,1.99460009765625,-2.824559408569336,-9.83897172241211,0.6898293533325195
1758273839077558000,2.00455810546875,-2.845508673095703,-9.603292496490479,1.1324573852539062
1758273839087515100,2.01451513671875,-2.7871500076293945,-9.34022958908081,1.3063362808227539
1758273839097473000,2.02447314453125,-2.5356091957092284,-9.104999275970458,1.163133094024658
1758273839107431000,2.034430908203125,-2.461987494659424,-8.955212034606934,0.8863035270690918
1758273839117389000,2.04438916015625,-2.3898621696472166,-8.8099139213562,0.6839934867858887
1758273839127346000,2.054345947265625,-2.427870121002197,-8.717886795043945,0.5961562133789062
1758273839137304000,2.064303955078125,-2.5197476097106932,-8.621669815826415,0.5183446594238281
1758273839147262200,2.07426220703125,-2.524386375427246,-8.520963708496094,0.5105635040283203
1758273839157220000,2.08422021484375,-2.605938869476318,-8.355614156341552,0.6093243225097655
1758273839167178200,2.09417822265625,-2.70065947265625,-8.167220413208007,0.722749626159668
1758273839177135000,2.104135009765625,-2.7061960639953613,-8.013692231750488,0.7936778503417968
1758273839187093000,2.114093017578125,-2.8172271659851074,-7.892336135101318,0.7034463752746581
1758273839197051100,2.124051025390625,-2.8655601119995118,-7.698555438232422,0.6284779357910156
1758273839207009000,2.134009033203125,-2.9542952110290526,-7.503278365325928,0.5633855781555176
1758273839216966100,2.143966064453125,-3.1847371208190918,-7.371746911621093,0.49111061553955077
1758273839226924000,2.153924072265625,-3.642179275512695,-7.442974411010741,0.36496611557006836
1758273839236882000,2.1638818359375,-4.106055847167968,-7.6084736007690426,0.28790274963378903
1758273839246840000,2.173840087890625,-4.3436803619384765,-7.825747401428222,0.21218612213134763
1758273839256797200,2.183797119140625,-4.506635712432861,-7.917175977325439,0.17956512451171874
1758273839266755000,2.193755126953125,-4.7667058677673335,-7.9658081985473626,-0.005985504150390624
1758273839276713200,2.203713134765625,-5.122693727111816,-8.155249404907225,-0.31872809600830077
1758273839286670000,2.213670166015625,-5.448754065704345,-8.348581188964843,-0.5337573326110839
1758273839296628200,2.223628173828125,-5.778704981994629,-8.56136586151123,-0.7091326042175292
1758273839306585300,2.23358544921875,-6.084863519287109,-8.858995055389403,-0.8536825294494629
1758273839316543200,2.243543212890625,-6.214599321746825,-9.140762663269042,-0.8500912269592285
1758273839326501400,2.25350146484375,-5.932831713867187,-9.171887284851074,-0.6105214233398437
1758273839336459500,2.26345947265625,-5.16504116897583,-8.960748625946044,-0.33354221878051754
1758273839346416000,2.273416015625,-4.382137226104736,-8.708609263610839,-0.1671452033996582
1758273839356374300,2.283374267578125,-3.893271174621582,-8.870816426086424,-0.10729016189575195
1758273839366332400,2.29333251953125,-3.254019331359863,-9.977386505889893,0.016160861206054686
1758273839376290300,2.303290283203125,-1.98554136428833,-11.71587618637085,0.36855741806030273
1758273839386247400,2.313247314453125,-0.8972270721435547,-13.511527431488036,1.0338462043762207
1758273839396205300,2.323205322265625,-1.0920552322387695,-14.43479144668579,1.9521721786499022
1758273839406163200,2.3331630859375,-2.2610241928100585,-13.64260997238159,3.075202394866943
1758273839416121300,2.343121337890625,-3.245789263153076,-11.380239041137695,3.725976333618164
1758273839426079200,2.353079345703125,-3.3405098663330075,-8.935759146118164,3.323900092315674
1758273839436036400,2.363036376953125,-2.90476516418457,-7.52692110671997,1.9056348838806152
1758273839445994500,2.372994384765625,-2.19608147277832,-6.98478406829834,0.33952772293090816
1758273839455952400,2.382952392578125,-1.4504372932434082,-7.001244204711914,-0.5756558616638183
1758273839465910300,2.39291015625,-1.2005424949645995,-7.725490206909179,-0.7845499565124511
1758273839475867400,2.402867431640625,-1.2596493484497069,-8.897751194763183,-0.481384171295166
1758273839485825300,2.4128251953125,-1.18108960647583,-10.013748443603514,0.3779845870971679
1758273839495783400,2.422783447265625,-0.6368576416015624,-10.678438679504394,1.7784429206848142
1758273839505741300,2.4327412109375,-0.28700492401123046,-10.992677647399901,3.417722869873047
1758273839515699500,2.442699462890625,-0.046537294769287106,-11.004499018096924,4.5516766311645505
1758273839525656300,2.45265625,-0.3694552436828613,-10.513238764953613,5.070470203399658
1758273839535614200,2.4626142578125,-1.0197802696228027,-9.667636666107176,4.874594580078124
1758273839545572400,2.472572265625,-1.332373223876953,-8.767716117095947,4.548983154296875
1758273839555530200,2.4825302734375,-0.960823053741455,-8.075642199707032,4.846013797760009
1758273839565487400,2.4924873046875,-0.12659341278076172,-7.986009275054931,4.612878411102295
1758273839575445500,2.502445556640625,-0.21817162628173828,-8.297255490875244,3.813364694213867
1758273839585403100,2.512403076171875,-1.334917063140869,-8.818892177581787,2.8217162940979
1758273839595361300,2.522361328125,-1.726967584991455,-8.894010254669189,2.35589443359375
1758273839605319200,2.532319091796875,-2.02369895324707,-9.221118056488036,2.144456499481201
1758273839615276300,2.5422763671875,-2.2252608055114744,-9.306860403442382,2.2667104217529297
1758273839625234400,2.552234375,-2.263418394470215,-9.447819026184082,2.174533657836914
1758273839635192300,2.5621923828125,-1.998859111022949,-9.368660733795165,2.71322903137207
1758273839645150200,2.572150146484375,-1.7057190452575683,-9.423727371978758,3.5125931106567383
1758273839655107300,2.582107421875,-1.448641641998291,-9.672724344635009,4.258686203002929
1758273839665065200,2.592065185546875,-1.3953706550598144,-10.031405680847167,4.323030372619629
1758273839675023400,2.6020234375,-1.068113215637207,-10.158597644042969,4.191349281311035
1758273839684981200,2.611981201171875,-0.5793968017578125,-9.737367789459228,3.9613562843322754
1758273839694938000,2.621938232421875,-0.5786486137390137,-8.837746515655517,2.9773394020080564
1758273839704896300,2.631896240234375,-0.6622960342407226,-8.268824346160889,2.8758851066589353
1758273839714854100,2.641854248046875,-0.8280944992065429,-8.292616725158691,2.826504697418213
1758273839724812300,2.651812255859375,-0.6813000099182128,-8.52335791015625,2.9849709197998044
1758273839734770200,2.661770263671875,-0.4418798439025879,-8.649352772521972,3.434183006286621
1758273839744727300,2.671727294921875,-0.6998550727844238,-8.766818291473388,4.770147532653809
1758273839754685400,2.681685546875,-0.5698199951171875,-8.865279834747314,5.94360562133789
1758273839764643000,2.69164306640625,-0.09786299285888671,-8.72072990951538,5.7429415946960445
1758273839774601200,2.701601318359375,-0.30840310134887694,-8.577377085113525,5.2624552490234375
1758273839784558300,2.711558349609375,-0.8530839790344238,-8.689754925537109,4.487631736755371
1758273839794516200,2.72151611328125,-1.2987047630310058,-8.664615808105468,4.081964192962646
1758273839804474400,2.731474365234375,-1.6032172866821288,-8.799439289093018,3.7790976829528806
1758273839814432300,2.741432373046875,-1.8695722213745116,-8.804676605224609,3.7576995056152342
1758273839824390400,2.751390380859375,-2.1920412574768067,-8.990825784301757,3.4888007316589356
1758273839834347300,2.76134716796875,-2.1900959686279298,-8.998457302093506,3.412934466552734
1758273839844305200,2.77130517578125,-1.8658312812805176,-8.897302281951903,3.5462615715026855
1758273839854263300,2.78126318359375,-1.476623873901367,-9.068936613464356,3.4356793823242184
1758273839864221400,2.791221435546875,-1.1480196960449218,-9.259724558258057,3.1618425674438475
1758273839874178300,2.80117822265625,-0.8762778076171874,-9.195081113433837,3.2761656967163084
1758273839884136200,2.81113623046875,-0.7869441581726073,-9.083900373840331,3.3783681800842285
1758273839894094300,2.82109423828125,-1.0064625228881836,-8.731653454589843,3.751414726257324
1758273839904052200,2.83105224609375,-0.7085340538024902,-8.33690945587158,4.254197074890136
1758273839914010400,2.84101025390625,-0.7365162857055664,-8.438064476013183,4.205415216064453
1758273839923967500,2.850967529296875,-1.193359889984131,-8.476072427368164,4.089745348358154
1758273839933925400,2.86092529296875,-1.1360486877441405,-8.522609722137451,3.741837919616699
1758273839943883500,2.870883544921875,-1.1137526847839354,-8.608352069091797,3.4982279006958006
1758273839953841200,2.880841064453125,-1.2029366966247559,-8.693795140838622,3.1075241172790524
1758273839963798300,2.89079833984375,-1.3434464065551757,-8.692448402404784,2.7890952964782714
1758273839973756400,2.90075634765625,-1.1475707832336426,-8.679729206085204,2.654571090698242
1758273839983714300,2.91071435546875,-0.8901941047668457,-8.763376626586913,2.5704747573852536
1758273839993672400,2.92067236328125,-0.48632221221923827,-8.635436475372314,2.9159879844665526
1758273840003629300,2.93062939453125,-0.012569558715820313,-8.455871350860596,3.399167807006836
1758273840013587200,2.940587158203125,-0.015861585998535155,-8.477718441009522,3.397222518157959
1758273840023545300,2.95054541015625,-0.10564414825439453,-8.705915786743164,3.3303345092773435
1758273840033503200,2.960503173828125,-0.07257423782348632,-8.79165813369751,3.2466870887756345
1758273840043461400,2.97046142578125,-0.19482816009521484,-8.686911811065674,3.0449755989074707
1758273840053418500,2.98041845703125,-0.5304653053283691,-8.690802388763426,2.9583354263305663
1758273840063376100,2.990376220703125,-0.960224503326416,-8.805125518035888,2.8719945289611815
1758273840073334300,3.000334228515625,-1.2159551681518554,-8.985738105773926,2.9276597175598145
1758273840083292200,3.010292236328125,-1.2642881141662596,-9.208099584960937,3.202543995666504
1758273840093249300,3.020249267578125,-1.2054805358886718,-9.458144020843505,3.584119885253906
1758273840103207400,3.03020751953125,-1.0404302589416503,-9.647136314392089,3.948637088012695
1758273840113165300,3.040165283203125,-0.8985738105773925,-9.724798230743408,4.426280319213867
1758273840123123500,3.05012353515625,-0.8819640365600585,-9.849147079467773,4.909909054565429
1758273840133081000,3.0600810546875,-0.9618705169677734,-10.416872148132324,4.994005387878418
1758273840143038200,3.0700380859375,-1.013794765472412,-10.935067169952392,4.939986212921142
1758273840152996400,3.079996337890625,-1.101183126068115,-11.189151821136473,4.784512742614746
1758273840162954200,3.089954345703125,-1.1918635139465332,-11.534814685821532,4.757129061126709
1758273840172912400,3.099912353515625,-0.8743325187683105,-12.298415377807617,4.508581001281738
1758273840182869200,3.109869140625,-0.3393780853271484,-13.11229430465698,4.025999729156494
1758273840192827100,3.1198271484375,-0.29388825378417965,-13.715483485412596,3.707421270751953
1758273840202785300,3.129785400390625,-0.8426093467712402,-13.743764992523193,3.801244048309326
1758273840212743200,3.1397431640625,-2.045396405792236,-14.010119927215575,4.655824403381347
1758273840222701300,3.149701416015625,-3.375824340820312,-14.382567922973632,5.9217585311889644
1758273840232658400,3.159658447265625,-4.387075267028808,-14.561384859466552,7.514950098419189
1758273840242616300,3.1696162109375,-4.857086980438232,-14.372542203521729,9.048885174560546
1758273840252574200,3.17957421875,-5.091718743133544,-13.647398375701904,9.788244574737549
1758273840262532400,3.189532470703125,-4.618564640045165,-12.635698536682128,8.7853733543396
1758273840272489200,3.1994892578125,-3.021781770324707,-12.076203536224364,6.041169338989257
1758273840282448000,3.20944775390625,-2.014720697021484,-11.630732389831543,4.375852446746826
1758273840292405800,3.21940576171875,-1.2877812179565429,-11.282376048278808,3.529202884674072
1758273840302364000,3.229364013671875,-0.6088754096984863,-10.992827285003662,2.8547862045288084
1758273840312321800,3.23932177734375,-0.5557540603637695,-10.740687922668457,2.1580735214233395
1758273840322279000,3.24927880859375,-0.7338228088378905,-10.689362224578856,1.6255132896423339
1758273840332237000,3.259237060546875,-0.6166565650939941,-10.865485684204101,1.3741221153259278
1758273840342195000,3.26919482421875,-0.5651812294006348,-11.112687005615234,1.4685434432983397
1758273840352152800,3.27915283203125,-0.4616320075988769,-11.551574097442627,1.6579846496582031
1758273840362110000,3.28910986328125,-0.6575076309204101,-12.032509355926512,1.632396619415283
1758273840372067800,3.29906787109375,-1.4101847778320311,-12.077550274658202,1.6738462356567383
1758273840382026000,3.30902587890625,-1.5589245559692382,-11.603947258758545,2.0624550926208496
1758273840391983900,3.31898388671875,-0.8927379440307617,-11.12690257797241,2.3090578636169434
1758273840401942000,3.32894189453125,-0.3107973030090332,-10.805331367492675,2.208501393890381
1758273840411899000,3.33889892578125,0.25094226150512694,-10.529399626159668,1.8302175315856932
1758273840421856800,3.348856689453125,0.35658640975952144,-10.561721348571776,1.1770493911743163
1758273840431815000,3.35881494140625,0.7410054138183594,-10.579528223419189,0.5810428153991699
1758273840441773000,3.36877294921875,0.6766612442016601,-9.995941568756104,0.5846341178894042
1758273840451730000,3.37872998046875,0.23792378997802732,-9.565583820343017,0.704194563293457
1758273840461688000,3.38868798828125,0.09786299285888671,-9.61526350479126,0.7218518005371093
1758273840471646000,3.39864599609375,-0.26007015533447264,-10.027365465545653,1.2068272743225097
1758273840481603800,3.408603759765625,-2.8381764305114743,-10.32933414993286,1.514931100463867
1758273840491562000,3.41856201171875,-5.141847340393066,-10.354772542572022,1.3941735542297362
1758273840501518800,3.428518798828125,-5.324704492187499,-10.404452227020263,1.077540384674072
1758273840511477000,3.43847705078125,-4.1560348068237305,-10.307038146972655,0.5023334358215332
1758273840521435100,3.44843505859375,-3.4886510940551756,-9.674519995880127,-0.2271498825073242
1758273840531392800,3.458392822265625,-2.743306189727783,-9.189095609283447,-0.7248445526123046
1758273840541350000,3.468349853515625,-1.593490842437744,-8.947430879211426,-0.6721721160888672
1758273840551308000,3.47830810546875,0.11013327636718749,-9.310302068328857,-0.36047698745727536
1758273840561266000,3.488265869140625,-0.037409400939941405,-8.946832328796386,1.8638859924316404
1758273840571224000,3.49822412109375,-0.8611644096374511,-8.609998082733155,3.4262522132873534
1758273840581181000,3.508180908203125,-1.8607436027526854,-8.821585654449462,3.6125510299682615
1758273840591138800,3.518138916015625,-2.0693384223937987,-8.991424334716797,2.8698996025085446
1758273840601097000,3.528096923828125,-1.883937431335449,-8.509890525817871,2.3211785095214843
1758273840611054800,3.538054931640625,-2.1062989105224608,-7.9472531356811515,1.8921674995422362
1758273840621013000,3.548012939453125,-1.4119804290771483,-7.502230902099609,0.9683049339294433
1758273840630970000,3.55797021484375,-0.4418798439025879,-7.085939088439941,0.37334582138061523
1758273840640928000,3.567927978515625,-0.9071031539916992,-6.08426496887207,0.2850596351623535
1758273840650886000,3.577885986328125,-1.6463129165649413,-5.2353708427429195,-0.44053310546874996
1758273840660843800,3.58784375,-1.6497545814514158,-5.019443780517578,-1.0931026954650878
1758273840670801000,3.59780078125,-2.1787235107421874,-4.8704047271728514,-1.813757395172119
1758273840680759000,3.607759033203125,-2.734028658294678,-4.851101476287842,-2.8069021713256834
1758273840690717000,3.617717041015625,-3.2070331237792966,-4.902576811981201,-3.470993856811523
1758273840700675000,3.627675048828125,-3.276464971923828,-5.0200423309326165,-3.7056256195068356
1758273840710633000,3.637633056640625,-3.145681706237793,-5.019593418121338,-3.5339912879943847
1758273840720589800,3.64758984375,-3.061435735321045,-5.038747031402588,-3.2607530235290527
1758273840730548000,3.6575478515625,-3.061286097717285,-5.027075298309326,-2.731335181427002
1758273840740505900,3.667505859375,-3.0793922477722164,-4.938190561676025,-2.173037281799316
1758273840750464000,3.677464111328125,-3.239354846191406,-4.898237321472168,-2.034772135925293
1758273840760421000,3.687421142578125,-3.3315316101074215,-4.972158297729492,-1.9454384864807128
1758273840770378800,3.697378662109375,-3.4281975021362303,-4.921431150054931,-1.7757494438171386
1758273840780337000,3.7073369140625,-4.001608799743652,-4.634276588439941,-1.7648258987426757
1758273840790294800,3.717294677734375,-4.789450783538818,-4.439448428344726,-1.6985364402770995
1758273840800253000,3.7272529296875,-5.553350750732421,-4.364629626464843,-2.0040964271545407
1758273840810210000,3.7372099609375,-6.443245580291748,-4.364330351257324,-2.495655955505371
1758273840820168000,3.74716796875,-7.6382514839172355,-4.636970065307617,-3.0069676475524902
1758273840830125800,3.757125732421875,-8.7455697517395,-5.014655377197266,-3.978564608764648
1758273840840083700,3.767083740234375,-9.808894564056397,-5.185092607879638,-4.638915354156494
1758273840850040800,3.777040771484375,-10.7252752494812,-5.424961686706543,-4.585644367218017
1758273840859999000,3.7869990234375,-11.902623915863037,-5.995230594635009,-4.225167379760742
1758273840869956900,3.796956787109375,-13.34303548965454,-7.019200717163086,-3.731662562561035
1758273840879915000,3.8069150390625,-12.936170845031738,-8.054244022369383,-2.1794716987609863
1758273840889873200,3.816873046875,-7.9378259666442865,-9.686491004180908,-0.03247136001586914
1758273840899829800,3.826829833984375,0.49470191802978514,-12.12977379837036,0.48976387710571284
1758273840909788000,3.836787841796875,0.8670002761840819,-13.299042034149169,-0.39803602600097654
1758273840919746000,3.84674609375,-2.1754314834594726,-13.116035244750975,-2.6976667205810547
1758273840929704000,3.856703857421875,-2.810942386627197,-12.35258419036865,-6.325929698944091
1758273840939661000,3.8666611328125,-9.821015209960937,-10.83974801635742,-7.713369561004638
1758273840949619000,3.876618896484375,-8.946084140777588,-9.514108484649658,-6.145766024017334
1758273840959576800,3.886576904296875,-3.7427357452392576,-8.821436016845702,-4.255244538116455
1758273840969535000,3.896534912109375,-1.431433317565918,-8.1717095413208,-2.368164717102051
1758273840979491800,3.906491943359375,-0.26396073303222656,-8.866776210784911,-0.8698433906555175
1758273840989450000,3.916449951171875,-1.2312182037353514,-10.626813706207274,-0.17133505630493162
1758273840999408000,3.926408203125,-2.4096143333435056,-12.133814013671874,1.060481697845459
1758273841009366000,3.936365966796875,-2.0681413215637208,-12.930783891296386,2.5918729347229004
1758273841019324000,3.946323974609375,-2.290053887939453,-12.914024479675293,2.771438059234619
1758273841029281000,3.956281005859375,-3.1952117530822752,-11.921927166748047,2.66205297088623
1758273841039239000,3.966239013671875,-3.4668040039062498,-10.871022275543213,2.881421697998047
1758273841049197000,3.976197021484375,-3.140294752502441,-10.051756394958495,2.6309283493041993
1758273841059155000,3.986155029296875,-2.5143606559753415,-9.386018695831298,2.6815058593749996
1758273841069111800,3.99611181640625,-2.104203984069824,-8.705017961120605,2.73268191986084
1758273841079070000,4.006070068359375,-2.0597616157531737,-8.380753273773193,2.666242823791504
1758273841089027800,4.01602783203125,-1.8462287551879881,-8.410980069732666,2.5188497840881348
1758273841098986000,4.025986083984375,-1.9372084182739258,-8.780584951019286,2.18321263885498
1758273841108943000,4.035943115234375,-2.1920412574768067,-9.206752846527099,2.1347300552368162
1758273841118901000,4.04590087890625,-2.350058567047119,-9.400683180999755,1.9728221679687499
1758273841128859100,4.055859130859375,-2.70050983505249,-9.386467608642578,1.3696329872131348
1758273841138816800,4.065816650390625,-2.8101941986083983,-8.948927255249023,1.7191864295959471
1758273841148775000,4.07577490234375,-2.620304079437256,-8.40888514328003,2.3657705154418944
1758273841158732000,4.08573193359375,-2.199373500061035,-8.244882329559326,2.762609440612793
1758273841168690000,4.09568994140625,-1.688660358428955,-8.523956460571288,3.0526071166992184
1758273841178648000,4.10564794921875,-0.9820715934753418,-8.837896153259276,3.550301786804199
1758273841188606000,4.11560595703125,-1.024119760131836,-9.082703273010253,4.169053278350829
1758273841198562800,4.125562744140625,-2.026392430114746,-9.188945971679686,3.9662943252563476
1758273841208521000,4.13552099609375,-3.157652714538574,-9.14854381866455,3.0928596321105957
1758273841218478800,4.145478759765625,-3.7611411705017086,-8.553734343719482,2.2762872283935547
1758273841228437000,4.15543701171875,-3.4241572868347165,-7.721150716400146,1.927332336425781
1758273841238394000,4.16539404296875,-2.548627667236328,-7.221361119842529,1.7425298957824706
1758273841248351700,4.175351806640625,-2.0465935066223144,-6.969521032714844,1.13006318359375
1758273841258310000,4.185309814453125,-2.0884920356750487,-6.581361088562011,0.3389291725158691
1758273841268267800,4.195267822265625,-2.524984925842285,-6.874201879119872,-0.00029927520751953123
1758273841278226000,4.205225830078125,-2.6421511695861817,-7.536348275756835,0.015412673187255858
1758273841288182000,4.21518212890625,-2.571073307800293,-7.805695962524414,-0.030825346374511717
1758273841298140200,4.22514013671875,-3.3117794464111325,-8.26687905731201,-0.11626841812133788
1758273841308098000,4.23509814453125,-3.071611092376709,-8.613888660430908,1.1345523117065428
1758273841318056200,4.24505615234375,-2.1461025131225586,-8.933065669250487,2.122160496520996
1758273841328013000,4.255012939453125,-2.028936269378662,-9.138069186401367,2.6235961067199707
1758273841337971000,4.264970947265625,-1.9684826774597166,-9.271097016143798,3.3898902755737303
1758273841347929000,4.27492919921875,-1.3491326354980469,-9.303119463348388,3.858106337738037
1758273841357887000,4.284886962890625,-0.6952163070678711,-9.091681529235839,3.6188358093261717
1758273841367845000,4.29484521484375,-1.3298293846130371,-9.096769207763671,2.855833667755127
1758273841377802200,4.30480224609375,-2.6789620201110838,-9.201665167999266,2.212092696380615
1758273841387760000,4.314760009765625,-3.411138815307617,-9.342025240325928,2.0714333488464356
1758273841397718000,4.324718017578125,-3.4879029060363766,-9.629030164337157,2.4205378784179685
1758273841407676000,4.334676025390625,-2.946962968444824,-10.00955859069824,3.3206080650329586
1758273841417633000,4.344633056640625,-1.9422960968017577,-10.369137752532959,4.433163648986816
1758273841427591200,4.354591064453125,-1.3385083656311034,-10.848277359771728,4.696376194000244
1758273841437549000,4.364549072265625,-1.129314995574951,-11.231349625396728,4.416404237365723
1758273841447507200,4.374507080078125,-1.5834651229858399,-11.342979277801513,3.612102117156982
1758273841457464000,4.384464111328125,-2.7488427810668945,-11.695226197052001,1.9698294158935545
1758273841467422000,4.394421875,-3.88144980392456,-11.904868479919433,0.5319616813659668
1758273841477380000,4.404380126953125,-4.35415499420166,-12.14907704925537,-0.38456864166259763
1758273841487338000,4.414337890625,-4.220678251647949,-12.736105368804932,-0.7523778717041015
1758273841497296100,4.424296142578125,-4.103362370300292,-13.404386907196043,-0.181959326171875
1758273841507253200,4.434253173828125,-4.219930063629151,-14.041693461608887,1.1956044540405273
1758273841517211000,4.4442109375,-3.7442321212768555,-14.806491254425048,2.715323957824707
1758273841527169000,4.4541689453125,-2.609380534362793,-15.524751752471923,4.3725604194641114
1758273841537127000,4.464126953125,-1.4884452445983887,-15.938350089263915,6.008697978973388
1758273841547084000,4.474083984375,-0.682497110748291,-15.767763220977782,6.789357357788085
1758273841557042200,4.484042236328125,-0.634014527130127,-15.011494771575927,5.8925791984558105
1758273841567000000,4.494,-1.4526818572998046,-13.951013073730469,3.6987422897338864
1758273841576958000,4.5039580078125,-2.9692589714050293,-12.912378466033935,1.6320973442077635
1758273841586915000,4.5139150390625,-3.7997476722717285,-12.278812851715086,-0.1854009910583496
1758273841596873000,4.523873046875,-3.880851253509521,-11.604096896362304,-1.0814309623718261
1758273841606831000,4.5338310546875,-3.9644986740112302,-11.283423511505127,-1.2624924629211425
1758273841616789000,4.5437890625,-4.0429087783813475,-11.49770456008911,-1.1534066497802733
1758273841626745900,4.553745849609375,-4.278438366699218,-11.579406691741942,-0.38367081604003905
1758273841636704000,4.5637041015625,-3.922450507354736,-11.26801083831787,0.9009680122375487
1758273841646662000,4.573661865234375,-3.31357509765625,-11.563096192932129,1.631798069000244
1758273841656620000,4.5836201171875,-2.7443536529541013,-11.899481526184081,2.048688433074951
1758273841666578200,4.593578125,-1.424250712585449,-11.874192771148682,2.421734979248047
1758273841676535000,4.60353515625,0.4424783943176269,-11.45894842071533,2.652625801849365
1758273841686493200,4.6134931640625,1.1942577156066894,-11.31918689880371,2.5118168167114256
1758273841696451000,4.623451171875,0.773776049041748,-11.001805541229247,1.946635587310791
1758273841706409000,4.633408935546875,-0.05431845016479492,-10.347589937591552,0.9335890098571776
1758273841716366000,4.643365966796875,0.12644377517700195,-10.485406170654297,-0.40357261734008787
1758273841726324000,4.653323974609375,0.02289455337524414,-10.324096833801269,-1.0908581314086914
1758273841736282000,4.6632822265625,-0.5395931991577149,-9.844807588958739,-0.9496002334594726
1758273841746240300,4.673240234375,-0.697161595916748,-9.697115274047851,-1.09819037399292
1758273841756196900,4.68319677734375,-1.35347212600708,-9.464428800201416,-1.2883797683715819
1758273841766155000,4.693155029296875,-2.0491373458862303,-9.591920038604735,-1.441010124206543
1758273841776113200,4.703113037109375,-0.9135375709533691,-10.090512534332275,-0.09861118087768554
1758273841786071000,4.713071044921875,0.4798877952575683,-9.77492682800293,1.1694178733825682
1758273841796028200,4.723028076171875,-0.15173253021240232,-9.509918631744384,2.4856302360534666
1758273841805986000,4.732986083984375,-1.8079215286254882,-9.818321733093262,1.9801544105529785
1758273841815944000,4.74294384765625,-2.399887889099121,-9.384073406982422,0.8572738319396972
1758273841825902000,4.752902099609375,-1.6674118186950682,-8.533682904815674,1.3174094635009765
1758273841835859000,4.76285888671875,-1.9129671264648436,-8.143278396606444,1.5090952339172363
1758273841845817000,4.772817138671875,-1.913416039276123,-7.296479196929932,1.258452247619629
1758273841855775200,4.782775146484375,-1.1213842025756835,-6.418106462860107,1.8625392539978027
1758273841865733000,4.792733154296875,-0.4037222549438476,-5.935076277923583,1.5610194824218748
1758273841875690000,4.80268994140625,-0.2555810272216797,-4.875791680908203,0.4821323593139648
1758273841885648100,4.812648193359375,-0.48886605148315426,-4.135085542297363,-0.9006687370300293
1758273841895606000,4.82260595703125,-0.7175123100280761,-3.9246950714111324,-2.606687057495117
1758273841905564200,4.832564208984375,-1.509843421936035,-3.871872997283935,-2.572270408630371
1758273841915522000,4.84252197265625,-1.96638775100708,-4.341735073089599,-2.2849662094116208
1758273841925479000,4.85247900390625,-2.274790852355957,-4.821622868347168,-3.1293712074279783
1758273841935437000,4.86243701171875,-2.6517279762268067,-4.548683879089356,-3.756801679992676
1758273841945395000,4.87239501953125,-2.8918963302612304,-4.145560174560547,-3.69036258392334
1758273841955353000,4.88235302734375,-3.2187048568725585,-3.7152024261474605,-3.832518307495117
1758273841965310200,4.892310302734375,-3.4931402221679684,-3.7389948051452633,-3.6372412345886227
1758273841975268000,4.90226806640625,-4.007444666290283,-3.9031472564697265,-3.480121750640869
1758273841985226200,4.912226318359375,-4.4306198097229,-4.063409130096435,-3.443610175323486
1758273841995183900,4.922183837890625,-4.904073188018798,-4.385728528594971,-3.573345977783203
1758273842005141000,4.93214111328125,-5.741594856262207,-4.426130681610108,-3.7377977043151853
1758273842015099100,4.94209912109375,-6.916698958587646,-4.351611154937744,-3.815908533477783
1758273842025057000,4.95205712890625,-8.34349351043701,-4.478653480529785,-4.132691340637207
1758273842035015200,4.96201513671875,-9.756970315551758,-4.4859857231140134,-4.525041137695312
1758273842044972000,4.971971923828125,-10.880299806976318,-4.502894772338867,-4.899584059906005
1758273842054930000,4.981929931640625,-11.514763246917724,-4.706551551055908,-5.040393045043945
1758273842064888000,4.99188818359375,-10.927136376953124,-4.976048875427246,-4.723310962677002
1758273842074846000,5.001845947265625,-7.110479655456542,-5.208436074066162,-3.7811926094055175
1758273842084803000,5.011802978515625,-1.9288287124633787,-4.7095443031311035,-2.690933028411865
1758273842094761200,5.02176123046875,-0.6561608924865723,-4.159476471710205,-2.389413256835937
1758273842104719000,5.031718994140625,-6.580463262939452,-8.073996186065674,-5.526565619659424
1758273842114677000,5.041677001953125,-8.292766362762451,-15.191957721710205,-7.3180270118713375
1758273842124634000,5.051634033203125,-8.39571703414917,-20.488081431579587,-6.097433078002929
1758273842134592000,5.061592041015625,-11.094131942749023,-22.26891855392456,-3.797802383422851
1758273842144550100,5.071550048828125,-3.753210377502441,-17.839795120239256,4.643105207061767
1758273842154508000,5.081508056640625,2.755277198028564,-12.214917594909668,5.051017314910888
1758273842164465000,5.09146484375,0.750133307647705,-8.42010796356201,-1.347785897064209
1758273842174423000,5.101423095703125,-3.9948751075744626,-6.777386349487304,-6.4269350814819335
1758273842184381000,5.111380859375,-8.053346196746826,-6.2310594581604,-7.650222492218017
1758273842194339000,5.121339111328125,-7.080701772308349,-5.859958200836181,-4.368819479370117
1758273842204296200,5.131296142578125,-1.788917552947998,-7.1121256690979,-0.754622435760498
1758273842214254000,5.141254150390625,0.7496843948364257,-8.630498434448242,0.8321347145080565
1758273842224212200,5.151212158203125,-0.4495113616943359,-9.609278000640868,1.1034276901245117
1758273842234169900,5.161169921875,-3.3258453811645508,-10.755352407836913,1.0485106895446776
1758273842244127000,5.171126953125,-4.889558340454101,-11.660659910583496,1.6391303115844726
1758273842254085000,5.181085205078125,-4.629937097930908,-11.770344274139404,2.3708581939697266
1758273842264043000,5.19104296875,-3.3261446563720702,-11.316942334747313,3.1670798835754392
1758273842274001200,5.201001220703125,-2.357690084838867,-10.375272894287109,2.620304079437256
1758273842283958500,5.21095849609375,-2.1909937942504882,-9.146149617004394,1.8371008613586424
1758273842293916200,5.220916259765625,-2.379387537384033,-7.933336838531494,1.1489175216674803
1758273842303874300,5.230874267578125,-2.8612206214904785,-7.3000704994201655,0.07766191635131836
1758273842313832200,5.240832275390625,-3.068917615509033,-6.894402955627441,-0.5989993278503417
1758273842323789300,5.250789306640625,-2.525583476257324,-6.960093863677978,-0.6868366012573242
1758273842333747500,5.26074755859375,-2.01756381149292,-7.78205322113037,-1.0342951171875
1758273842343705300,5.270705322265625,-1.6150386573791502,-8.38883370437622,-0.9751882637023925
1758273842353663500,5.28066357421875,-1.5710452018737793,-8.652195886993407,-0.7733271362304687
1758273842363620400,5.290620361328125,-1.620425611114502,-8.765321915435791,-0.21757307586669922
1758273842373578200,5.300578125,-1.4356231704711913,-9.038709817504882,0.5398924743652344
1758273842383536400,5.310536376953125,-1.497722776031494,-9.362375954437255,1.3884873252868652
1758273842393494300,5.320494384765625,-1.8101660926818846,-9.860519537353515,2.0856489212036133
1758273842403451400,5.330451416015625,-2.0491373458862303,-10.2655885307312,2.203114440155029
1758273842413409300,5.3404091796875,-2.395548398590088,-10.075848049163818,1.8857330825805663
1758273842423367200,5.3503671875,-2.91134921875,-9.276633607482909,1.615936483001709
1758273842433325300,5.3603251953125,-2.529474053955078,-8.9002950340271,1.9348142166137694
1758273842443282400,5.370282470703125,-1.507299582672119,-8.307281210327147,2.256834339904785
1758273842453240300,5.380240234375,-1.9921254188537596,-7.907000620269775,1.7549498168945312
1758273842463198500,5.390198486328125,-3.0077158355712887,-7.662492775726318,1.2140098793029785
1758273842473156400,5.40015625,-3.6394857986450195,-7.441627672576904,1.3904326141357422
1758273842483113200,5.41011328125,-2.8993782104492185,-7.674912696838378,1.4323311431884764
1758273842493071400,5.4200712890625,-2.511517541503906,-7.789535101318359,1.4577695358276366
1758273842503029200,5.430029296875,-2.7727847976684568,-7.793276041412353,1.8843863441467283
1758273842512987400,5.4399873046875,-2.3383868339538574,-8.200888874053955,2.5273791275024413
1758273842522944500,5.449944580078125,-1.9416975463867185,-8.665064720916748,2.5794530136108396
1758273842532902100,5.459902099609375,-2.1972785736083984,-9.043348583221436,2.4914661026000977
1758273842542860300,5.4698603515625,-2.3410803108215332,-9.061903646087647,2.449717211151123
1758273842552818200,5.479818115234375,-2.2004209632873533,-9.074323567199707,2.19608147277832
1758273842562775300,5.489775390625,-2.061557266998291,-9.152883309173584,2.264765132904053
1758273842572733400,5.4997333984375,-2.108693112182617,-9.37838717803955,2.519897247314453
1758273842582691300,5.50969140625,-2.429067221832275,-9.655964933013916,2.7082909904479977
1758273842592649500,5.5196494140625,-2.9014731369018554,-9.741108729553222,3.0324060401916504
1758273842602606300,5.5296064453125,-3.1254806297302244,-9.783456171417235,2.94980608291626
1758273842612564200,5.539564208984375,-3.491494208526611,-9.897779300689697,2.9213749382019043
1758273842622522400,5.5495224609375,-3.681384327697754,-9.917830739593505,3.483862690734863
1758273842632480300,5.559480224609375,-3.0303111137390135,-9.85677859725952,3.969287077331543
1758273842642437400,5.569437255859375,-2.498199794769287,-9.780014506530762,3.6810850524902343
1758273842652395300,5.579395263671875,-2.6128221992492673,-9.682899701690673,3.07101254196167
1758273842662353200,5.589353271484375,-2.638110954284668,-9.988310050964355,2.3671172538757324
1758273842672310300,5.599310302734375,-2.7023054862976075,-11.003002642059325,1.2150573425292968
1758273842682268400,5.609268310546875,-3.0891186920166014,-12.174066529083252,0.08888473663330078
1758273842692226300,5.619226318359375,-3.358616016387939,-13.103316048431395,-0.8028057441711425
1758273842702184400,5.629184326171875,-3.2837972145080565,-13.977050016784666,-1.469740544128418
1758273842712141300,5.639141357421875,-2.724152576446533,-14.602535200500487,-1.735945841217041
1758273842722099200,5.64909912109375,-2.2381296394348142,-14.93936944656372,-1.3940239166259765
1758273842732057300,5.659057373046875,-1.529745223236084,-15.330522142791747,-0.5294178421020508
1758273842742015500,5.669015380859375,-0.6380547424316406,-16.141707592773436,0.4447229583740234
1758273842751972400,5.678972412109375,-0.49036242752075193,-16.49081212234497,1.9463363121032713
1758273842761930200,5.68893017578125,-1.2176011817932129,-15.816844355010986,3.227383837890625
1758273842771888400,5.698888427734375,-2.272247013092041,-14.108431832885742,3.584868073272705
1758273842781846300,5.70884619140625,-3.445705101776123,-12.37877077102661,3.444956913757324
1758273842791803400,5.718803466796875,-4.394856422424316,-11.07123738937378,2.4999954460144043
1758273842801761300,5.72876123046875,-4.437802414703369,-10.090063621520995,1.0232219345092772
1758273842811719400,5.738719482421875,-4.077923977661133,-10.26663599395752,-0.28221652069091796
1758273842821677600,5.748677490234375,-3.2353146308898926,-11.29449669418335,-0.6669347999572753
1758273842831634200,5.75863427734375,-1.71095636138916,-11.409268736267089,1.1782464920043945
1758273842841592300,5.76859228515625,-2.927210804748535,-11.51057339401245,2.846256861114502
1758273842851550500,5.778550537109375,-3.545663021087646,-11.908459782409667,2.5641899780273434
1758273842861508400,5.78850830078125,-3.73495458984375,-12.274622998809814,1.8463783927917479
1758273842871465500,5.798465576171875,-3.5277065086364745,-12.60188043823242,1.2107178520202635
1758273842881423400,5.80842333984375,-1.92808052444458,-12.592752544403075,0.77886372756958
1758273842891381200,5.81838134765625,0.07257423782348632,-11.622352684020996,1.5496470245361327
1758273842901338400,5.82833837890625,0.584185205078125,-11.636418618774414,1.0908581314086914
1758273842911296300,5.838296142578125,0.7471405555725097,-11.628637463378906,-0.14933832855224607
1758273842921254400,5.84825439453125,1.1441291183471678,-10.810568683624266,-1.2752116592407226
1758273842931212500,5.858212646484375,0.6793547210693359,-10.341005883026122,-2.028188081359863
1758273842941169200,5.868169189453125,-0.0613514175415039,-10.103830281066895,-2.347514727783203
1758273842951127300,5.878127197265625,-0.17043723068237304,-10.039635749053954,-2.7536311843872068
1758273842961085400,5.88808544921875,-0.48347909774780273,-10.062380664825438,-2.755875748443603
1758273842971043300,5.898043212890625,-1.553387964630127,-9.916184725952148,-2.590675833892822
1758273842981000400,5.90800048828125,-2.4555530776977537,-9.480140748596192,-3.263446500396728
1758273842990958300,5.917958251953125,-2.827851435852051,-8.522609722137451,-4.212148908233642
1758273843000916200,5.927916259765625,-1.529745223236084,-7.495497209930419,-3.1165023735046384
1758273843010873300,5.937873291015625,-0.33907881011962887,-8.049156343841553,0.09202712631225586
1758273843020831200,5.947831298828125,-0.24031799163818357,-9.073126466369628,2.1742343826293946
1758273843030789400,5.957789306640625,-1.2466308769226073,-10.076147324371338,2.3210288719177243
1758273843040747500,5.96774755859375,-1.648407843017578,-10.594940896606445,2.371756019592285
1758273843050704100,5.9777041015625,-2.0896891365051267,-10.472238061523436,2.11333187789917
1758273843060662300,5.987662353515625,-2.274192301940918,-10.132859976196288,1.8445827415466307
1758273843070620400,5.997620361328125,-1.9897312171936035,-9.732878661346435,1.3328221366882322
1758273843080578300,6.007578369140625,-1.0746972702026367,-8.596081785583495,0.6313210502624511
1758273843090535400,6.017535400390625,-0.47973815765380856,-7.583633758544922,0.5047276374816895
1758273843100493300,6.027493408203125,-0.6247369956970215,-6.587047317504882,-0.34431612625122066
1758273843110451500,6.037451416015625,-0.05880757827758789,-5.740697030639648,-1.5059528442382812
1758273843120409300,6.047409423828125,-0.1527799934387207,-4.514267230224609,-2.606687057495117
1758273843130366200,6.0573662109375,-1.0046668716430665,-3.8883331336975093,-3.35816710357666
1758273843140324400,6.067324462890625,-2.120364845275879,-3.957615344238281,-4.438700240325928
1758273843150282500,6.077282470703125,-2.526331664276123,-4.122067070770264,-5.0662803504943845
1758273843160239400,6.0872392578125,-2.669834126281738,-3.9824551864624023,-5.125087928771972
1758273843170197200,6.097197265625,-2.961627453613281,-3.548955048370361,-4.765059854125976
1758273843180155400,6.1071552734375,-3.26224939956665,-3.208080587005615,-4.300435094451904
1758273843190113300,6.11711328125,-3.6124013923645015,-3.2344168052673337,-3.778199857330322
1758273843200070400,6.1270703125,-4.097077590942383,-3.540276067352295,-3.615394144439697
1758273843210028300,6.1370283203125,-4.60270305404663,-3.5390789665222164,-3.521122454071045
1758273843219986400,6.146986328125,-4.893897830963135,-3.338115664672851,-3.56227279510498
1758273843229944300,6.1569443359375,-5.2724809684753415,-3.1209915016174317,-3.8271313537597655
1758273843239901200,6.166901123046875,-5.743390507507324,-2.9141923332214352,-4.170250379180908
1758273843249859300,6.176859375,-6.421997040557861,-2.696768894958496,-4.41131655883789
1758273843259817500,6.1868173828125,-7.491756269836426,-2.401833177947998,-4.517259982299804
1758273843269774300,6.1967744140625,-9.038260904693603,-2.180968074798584,-4.5787610374450685
1758273843279732200,6.206732177734375,-10.754155307006835,-2.4160487503051757,-4.965723880767822
1758273843289690600,6.216690673828125,-11.549778446197509,-3.2227450721740722,-5.10099627456665
1758273843299648800,6.226648681640625,-9.594014965057372,-4.26467170715332,-4.142567422485351
1758273843309605600,6.236605712890625,-5.4607250740051265,-5.053710791778564,-2.9759926635742184
1758273843319563500,6.2465634765625,-4.670189613342285,-5.428552989196777,-2.5020903724670407
1758273843329521700,6.256521728515625,-10.68143143157959,-8.774449809265136,-3.843741127777099
1758273843339479800,6.266479736328125,-9.08434928665161,-15.722273389434813,-4.759972175598144
1758273843349436700,6.276436767578125,-2.651279063415527,-19.81770496673584,-4.161272122955322
1758273843359394800,6.286394775390625,-6.826317845916748,-20.12311531600952,-4.82641127166748
1758273843369352700,6.296352783203125,-4.8235681571960445,-15.288773251342773,-1.0506056159973145
1758273843379309600,6.3063095703125,-0.6317699630737305,-9.92067385406494,-0.2736871772766113
1758273843389267700,6.316267822265625,-0.6482300994873047,-7.283011812591552,-4.017171110534668
1758273843399225600,6.3262255859375,-4.275445614624023,-6.676680242156982,-7.7985133575439445
1758273843409183700,6.336183837890625,-6.677428430175781,-6.518962207794189,-8.65010096054077
1758273843419140600,6.346140625,-4.818031565856933,-6.708104138946533,-5.505466717529297
1758273843429098500,6.356098388671875,-0.8291419624328613,-8.155997592926026,-2.3464672645568845
1758273843439056600,6.366056640625,1.1249755050659178,-9.680355862426758,-0.7106289802551269
1758273843449013800,6.376013671875,-0.12524667434692383,-10.682029981994628,0.08843582382202148
1758273843458971600,6.3859716796875,-2.180369524383545,-11.612476602172851,0.3286041778564453
1758273843468929800,6.3959296875,-3.9923312683105467,-12.30200668029785,0.1444002876281738
1758273843478887700,6.4058876953125,-4.208108692932129,-12.21955636062622,0.2953846298217773
1758273843488844500,6.415844482421875,-3.2601544731140133,-11.456703856658935,0.7668927192687988
1758273843498802700,6.425802734375,-2.5870845314025877,-10.525060135650634,0.7396586753845215
1758273843508760600,6.435760498046875,-2.220322764587402,-9.72345149230957,0.43350013809204097
1758273843518717700,6.4457177734375,-2.2527941246032714,-8.984840280151367,-0.16729484100341796
1758273843528675800,6.45567578125,-2.4747066909790036,-8.54281079864502,-0.05581482620239257
1758273843538633500,6.465633544921875,-2.5094226150512693,-8.809764283752441,-0.33833062210083004
1758273843548591600,6.475591552734375,-2.4144027366638183,-9.184606481170654,-0.5392939239501953
1758273843558548700,6.485548828125,-2.2966379425048826,-9.405172309112547,-0.5590460876464843
1758273843568506600,6.495506591796875,-2.224213342285156,-9.269600640106201,-0.373495458984375
1758273843578464800,6.50546484375,-2.1033061584472654,-8.954014933776856,0.2219125663757324
1758273843588422700,6.515422607421875,-2.011877582550049,-8.697236805725097,1.0333972915649414
1758273843598379500,6.525379638671875,-1.9816507865905761,-8.38838479156494,1.7977461715698242
1758273843608337700,6.535337646484375,-1.7874211769104003,-8.019827373504638,2.9267618919372556
1758273843618295600,6.545295654296875,-1.799691460418701,-8.305335921478271,3.0948049209594726
1758273843628252700,6.555252685546875,-1.859097589111328,-8.819790003204345,2.768295669555664
1758273843638210800,6.5652109375,-2.2755390403747557,-9.036016340637207,2.0033482391357422
1758273843648168400,6.57516845703125,-2.212242333984375,-9.016862727355957,1.6374842979431152
1758273843658126600,6.585126708984375,-1.936310592651367,-9.070283351898192,1.7341501899719238
1758273843668083700,6.595083740234375,-2.2361843505859373,-8.945186315155029,1.3835492843627928
1758273843678041600,6.60504150390625,-2.8152818771362305,-8.703970497894286,1.011849476623535
1758273843687999700,6.614999755859375,-2.7201123611450195,-8.506598498535157,1.1305120964050293
1758273843697956600,6.62495654296875,-2.360832474517822,-8.200439961242676,1.0266635993957518
1758273843707914500,6.63491455078125,-2.1513398292541503,-7.94845023651123,0.7031471000671387
1758273843717872600,6.64487255859375,-1.797895809173584,-7.762749970245361,0.628178660583496
1758273843727830500,6.65483056640625,-1.357362703704834,-7.889941933441162,0.8500912269592285
1758273843737787600,6.66478759765625,-1.4897919830322264,-8.67553935317993,0.5765536872863769
1758273843747745800,6.674745849609375,-2.136226431274414,-8.927379440307616,0.48063598327636714
1758273843757703700,6.68470361328125,-2.246060432434082,-8.511237264251708,0.723348176574707
1758273843767660500,6.69466064453125,-2.042104378509521,-8.70262375946045,1.0951976219177246
1758273843777618700,6.70461865234375,-1.7052701324462889,-8.631994810485839,1.195155541229248
1758273843787576600,6.71457666015625,-1.7148469390869139,-8.519168057250976,1.1917138763427733
1758273843797534700,6.72453466796875,-1.8326117332458496,-8.933364944458008,1.0746972702026367
1758273843807491800,6.734491943359375,-1.7215806312561035,-8.901043222045898,1.1596914291381835
1758273843817449500,6.744449462890625,-1.5771803436279297,-9.157372437286377,1.3626000198364256
1758273843827407600,6.75440771484375,-2.062604730224609,-9.727940620422363,0.9069535163879394
1758273843837364700,6.76436474609375,-2.776525737762451,-9.923816243743897,0.8129811012268066
1758273843847322600,6.774322509765625,-3.097797673034668,-9.893589447784423,1.1752537399291991
1758273843857280800,6.78428076171875,-2.9637223800659176,-10.072705659484862,1.6903063720703124
1758273843867238700,6.79423876953125,-2.8190228172302243,-10.491990225219727,1.9666870262145995
1758273843877195500,6.804195556640625,-3.0967502098083495,-10.90364327316284,1.8417396270751951
1758273843887153700,6.814153564453125,-3.386149335479736,-11.311854656219483,1.6093524284362792
1758273843897111600,6.824111572265625,-3.3857004226684566,-11.949310848236083,1.3524246627807617
1758273843907068700,6.834068603515625,-2.977040126800537,-12.450447183227539,1.310077220916748
1758273843917026800,6.84402685546875,-2.571671858215332,-12.512097875976561,1.4260463638305663
1758273843926984700,6.853984619140625,-2.7666496559143066,-12.459575077056884,1.1590928787231445
1758273843936942600,6.863942626953125,-3.2359131813049316,-12.703035458374023,0.42796354675292964
1758273843946899700,6.873899658203125,-3.404704398345947,-13.220631929779051,-0.1701379554748535
1758273843956857600,6.883857666015625,-3.4982279006958006,-14.03241593017578,-0.23433248748779295
1758273843966815700,6.893815673828125,-3.68362889175415,-15.626206047821045,0.3945943611145019
1758273843976772900,6.90377294921875,-2.8191724548339843,-16.917428930664062,1.5946879432678223
1758273843986730500,6.91373046875,-1.4401122985839843,-17.25112078704834,2.8420670082092285
1758273843996688600,6.923688720703125,-0.8915408432006835,-16.616657347106933,3.2267852874755856
1758273844006646500,6.933646484375,-1.1177929000854492,-15.02152049102783,2.04285256652832
1758273844016603600,6.943603759765625,-2.0883423980712887,-13.207463820648192,-0.42586862030029293
1758273844026561800,6.953561767578125,-3.3348236373901363,-11.693729821014404,-2.5481787544250487
1758273844036519700,6.963519775390625,-3.6022260353088376,-10.505158334350586,-3.812317230987549
1758273844046476500,6.9734765625,-3.877409588623047,-9.827748902130127,-4.17533805770874
1758273844056434700,6.9834345703125,-4.723460600280761,-9.730783734893798,-3.3596634796142575
1758273844066392600,6.993392578125,-4.876988781738281,-10.10652375793457,-2.2076035682678223
1758273844076349700,7.003349609375,-5.023334358215331,-10.563816275024413,-0.8967781593322753
1758273844086307800,7.013307861328125,-5.440823272705078,-10.966191791534424,0.30301614761352536
1758273844096265700,7.023265625,-5.665878228759765,-11.405228520965576,1.1682207725524902
1758273844106223600,7.0332236328125,-6.024858840179443,-12.082189040374756,1.8668787445068358
1758273844116180700,7.0431806640625,-5.6681227928161615,-12.50686055984497,2.6684873878479003
1758273844126138600,7.053138671875,-2.9019220497131344,-13.054085276794433,3.273172944641113
1758273844136096800,7.0630966796875,-0.733523533630371,-13.064859184265137,2.9964930152893063
1758273844146054000,7.073053955078125,1.6367361099243163,-11.768548622894286,2.0228011276245117
1758273844156011500,7.083011474609375,2.5170541328430174,-10.181492197418212,0.6943184814453125
1758273844165969700,7.0929697265625,1.3536217636108399,-8.635885388183594,-0.8114847251892089
1758273844175927600,7.102927490234375,1.286434479522705,-7.928249160003662,-2.1582231590270995
1758273844185884700,7.112884765625,2.155380044555664,-7.662193500518798,-2.99439808883667
1758273844195842800,7.1228427734375,2.646939572906494,-7.96161834564209,-2.9240684150695797
1758273844205800700,7.13280078125,1.1634323692321777,-8.445845631408691,-3.4569279220581053
1758273844215757600,7.142757568359375,-2.5118168167114256,-8.971223258209228,-2.8622680847167965
1758273844225715700,7.1527158203125,-6.673837127685546,-10.34878703842163,-2.249053184509277
1758273844235673600,7.162673583984375,-6.374262644958495,-11.609633487701416,-2.740313437652588
1758273844245630700,7.172630615234375,-4.249408671569824,-11.353304272460937,-1.2036848846435546
1758273844255588900,7.1825888671875,-2.7902923973083493,-11.899032613372801,0.390703783416748
1758273844265546500,7.19254638671875,-0.8037035697937012,-11.048941386413574,1.1207856521606445
1758273844275504600,7.202504638671875,-1.038185694885254,-8.779088574981689,1.5331868881225585
1758273844285461800,7.212461669921875,-1.4284405654907226,-7.089231115722656,2.4793454566955564
1758273844295419600,7.222419677734375,-1.5020622665405272,-5.055057530212402,2.0337246726989746
1758273844305377800,7.232377685546875,-1.0812813247680664,-3.3973721557617185,1.5812205589294432
1758273844315334700,7.242334716796875,-0.9178770614624023,-2.504634211730957,0.0953191535949707
1758273844325292500,7.25229248046875,-1.373822840118408,-2.70050983505249,-2.114080065917969
1758273844335250700,7.262250732421875,-1.2834417274475096,-3.459471761322021,-3.272574394226074
1758273844345208600,7.27220849609375,-1.1158476112365723,-4.103512007904053,-4.04171167755127
1758273844355165700,7.282165771484375,-1.3112743217468261,-4.574271909332275,-4.37974302444458
1758273844365123800,7.292123779296875,-2.0772692153930663,-5.152621247863769,-4.300435094451904
1758273844375081700,7.302081787109375,-2.9536966606140136,-5.571756175994873,-3.7755063804626463
1758273844385038600,7.31203857421875,-3.3255461059570313,-5.727977834320068,-3.3783681800842285
1758273844394996700,7.321996826171875,-3.446303652191162,-5.461473262023925,-3.538330778503418
1758273844404954600,7.33195458984375,-3.8283284545898435,-5.046528186798096,-4.011784156799316
1758273844414911700,7.341911865234375,-3.7490205245971677,-4.837484454345703,-4.508730638885498
1758273844424870000,7.351869873046875,-3.5425206314086912,-4.5596074241638185,-4.734084870147705
1758273844434827500,7.36182763671875,-3.459471761322021,-4.171297842407227,-4.60345124206543
1758273844444785700,7.37178564453125,-3.5372833152770995,-3.828777367401123,-4.691138877868652
1758273844454742800,7.38174267578125,-4.004601551818848,-3.3810616569519043,-4.687996488189697
1758273844464700700,7.39170068359375,-4.767753330993652,-3.126977005767822,-4.87145219039917
1758273844474658800,7.401658935546875,-5.721543417358398,-2.8926445182800293,-5.313780947113036
1758273844484615700,7.41161572265625,-7.1668930320739745,-2.861968809509277,-5.916970127868652
1758273844494573600,7.421573486328125,-9.041552931976318,-2.954594486236572,-6.762721864318848
1758273844504531700,7.43153173828125,-11.022305892944335,-3.5199253532409664,-7.502230902099609
1758273844514488600,7.441488525390625,-12.287042919921875,-4.66076244430542,-7.783549597167968
1758273844524446700,7.45144677734375,-9.48118821182251,-6.20547142791748,-6.788160256958007
1758273844534404900,7.46140478515625,-2.6312276245117188,-7.293785720062256,-4.905419926452637
1758273844544362800,7.47136279296875,-2.1279963630676266,-7.728482958984374,-3.721337567901611
1758273844554319600,7.481319580078125,-3.7000890281677243,-10.689511862182616,-4.3363481193542475
1758273844564277800,7.49127783203125,-0.7317278823852539,-13.994856891632079,-3.265691064453125
1758273844574235600,7.501235595703125,-3.827280991363525,-17.867328439331054,-5.760748469543457
1758273844584192800,7.51119287109375,-7.722647092437744,-18.593968643188475,-5.993434943389892
1758273844594150700,7.521150634765625,-6.421697765350341,-14.797662635803222,-2.259228541564941
1758273844604108500,7.531108642578125,-2.4824878463745117,-10.98744033126831,-1.8975544532775879
1758273844614065700,7.541065673828125,-1.5433622451782225,-8.360402559661864,-3.576488367462158
1758273844624023600,7.5510234375,-2.689586289978027,-7.022193469238281,-5.62442861251831
1758273844633981700,7.560981689453125,-3.8519711959838867,-6.968623207092285,-6.0054059516906735
1758273844643938800,7.570938720703125,-3.772513628387451,-7.913285399627685,-4.5790603126525875
1758273844653896400,7.580896484375,-1.4781202499389647,-9.508721530914306,-2.8157307899475095
1758273844663854600,7.5908544921875,0.13078326568603516,-10.743680674743652,-0.8931868568420409
1758273844673812700,7.600812744140625,-0.14469956283569335,-11.358840863800047,0.7390601249694824
1758273844683769600,7.61076953125,-1.4104840530395506,-11.742511679840087,1.0193313568115234
1758273844693727700,7.620727783203125,-3.1438860549926755,-11.675324395751952,0.7251438278198242
1758273844703686000,7.630685791015625,-3.968538889312744,-11.008539233398437,1.1882722114562987
1758273844713642500,7.640642578125,-3.4940380477905273,-10.473734437561035,0.9687538467407226
1758273844723600600,7.6506005859375,-2.8143840515136715,-9.713126497650146,0.8209118942260741
1758273844733558500,7.66055859375,-2.297685405731201,-8.961796089172363,1.1148001480102538
1758273844743515600,7.670515625,-2.1977274864196774,-8.628553145599366,1.3314753982543945
1758273844753473800,7.680473876953125,-2.2191256637573242,-8.56151549911499,1.7519570648193359
1758273844763431700,7.690431640625,-2.3382371963500974,-8.8872765625,1.111508120727539
1758273844773389600,7.7003896484375,-2.8452093978881834,-8.776694373321533,0.1919850456237793
1758273844783346700,7.7103466796875,-2.871695253753662,-8.455871350860596,-0.04504091873168945
1758273844793304600,7.7203046875,-2.8541876541137694,-7.947402773284912,0.05357026214599609
1758273844803262700,7.7302626953125,-3.2396541213989254,-7.4208280456542965,0.05252279891967773
1758273844813219800,7.7402197265625,-2.833238389587402,-7.159111876678466,0.15861585998535155
1758273844823177500,7.750177490234375,-1.5099930595397948,-7.94246473236084,0.4282628219604492
1758273844833135600,7.760135498046875,-1.1350012245178223,-8.393622107696533,0.8698433906555175
1758273844843092700,7.7700927734375,-1.2729670951843262,-8.129811012268066,1.6157868453979491
1758273844853050600,7.780050537109375,-1.0257657737731933,-8.264185580444336,2.9165865348815916
1758273844863008800,7.7900087890625,-1.9729718055725096,-9.024643882751464,3.466205453491211
1758273844872965600,7.799965576171875,-3.782838623046875,-9.828497090148925,2.061407629394531
1758273844882923500,7.809923583984375,-3.3054946670532224,-9.597007717132568,1.8332102836608886
1758273844892881700,7.819881591796875,-2.1446061370849607,-9.143905052947998,1.9400515327453611
1758273844902839600,7.829839599609375,-1.9735703559875488,-8.863783458709717,1.3931260910034178
1758273844912796700,7.839796630859375,-2.8030115936279296,-8.52335791015625,0.6911760917663574
1758273844922754800,7.8497548828125,-3.2849943153381345,-8.148515712738037,0.0010474632263183592
1758273844932712700,7.859712646484375,-3.0693665283203124,-8.151508464813231,-1.0839748016357422
1758273844942669600,7.869669677734375,-2.5378537597656248,-7.744344544982909,-1.3193547523498534
1758273844952627700,7.879627685546875,-1.7969979835510252,-7.459584185028076,-0.8159738533020019
1758273844962585600,7.889585693359375,-1.7664719123840331,-7.681796026611328,-0.3387795349121094
1758273844972542700,7.899542724609375,-2.101809782409668,-8.0828248046875,0.3924994346618652
1758273844982500900,7.9095009765625,-1.7259201217651365,-8.429086219787598,1.0663175643920897
1758273844992458500,7.91945849609375,-1.5400702178955077,-8.980201514434814,2.1121347770690915
1758273845002415600,7.92941552734375,-1.345092420196533,-9.641898998260498,2.6068366950988766
1758273845012373800,7.939373779296875,-0.6935702934265137,-10.051157844543457,2.833238389587402
1758273845022331600,7.94933154296875,-0.41674072647094723,-10.194809944152832,2.6638486221313475
1758273845032289800,7.959289794921875,-1.0350433052062988,-10.292822574615478,1.726967584991455
1758273845042246700,7.96924658203125,-2.259378179168701,-10.452036985015868,0.7445967163085937
1758273845052204500,7.97920458984375,-3.133261785125732,-10.339359869384765,0.4750993919372558
1758273845062162700,7.98916259765625,-3.144334967803955,-9.936086527252197,0.9944915145874023
1758273845072119800,7.999119873046875,-2.837428242492676,-9.78166052017212,1.467795255279541
1758273845082077700,8.00907763671875,-2.380584638214111,-9.9215716796875,1.8619407035827635
1758273845092035800,8.019035888671874,-2.427870121002197,-10.194061756134033,2.247856083679199
1758273845101992700,8.02899267578125,-2.77098914642334,-10.57264489364624,2.497451606750488
1758273845111950600,8.03895068359375,-3.0547020431518552,-10.903194360351561,2.23468797454834
1758273845121908700,8.04890869140625,-3.1955110282897947,-11.517905636596678,1.2544120323181152
1758273845131865900,8.058865966796875,-2.8685528640747067,-12.382062798309326,0.04534019393920898
1758273845141823700,8.06882373046875,-2.3891139816284177,-12.760645935821533,-0.5569511611938476
1758273845151781600,8.07878173828125,-1.822137100982666,-13.407978209686279,-0.7631517791748046
1758273845161738800,8.08873876953125,-1.424849263000488,-14.531307701110839,-0.6347627151489258
1758273845171696600,8.098696533203125,-1.331026485443115,-15.636979955291746,-0.241964005279541
1758273845181654800,8.10865478515625,-1.4245499877929686,-16.110283695983885,0.3781342247009277
1758273845191612700,8.11861279296875,-1.206079086303711,-16.250793405914305,0.8827122245788573
1758273845201569800,8.12856982421875,-1.5945383056640625,-15.740529177093505,0.5440823272705078
1758273845211527700,8.138527587890625,-2.7406127128601074,-14.443470427703856,0.1409586227416992
1758273845221485600,8.148485595703125,-3.9312791259765625,-13.45137311477661,0.19422960968017577
1758273845231442700,8.158442626953125,-4.461145880889893,-12.720393420410156,0.1610100616455078
1758273845241400800,8.16840087890625,-4.230404695892334,-12.326996160125733,0.00239420166015625
1758273845251358700,8.178358642578125,-3.1126117958068846,-12.09834990158081,0.13781623306274413
1758273845261315600,8.188315673828125,-2.535908470916748,-11.668141790771484,0.2688987739562988
1758273845271273700,8.198273681640625,-1.6864157943725584,-11.45969660873413,0.1785176612854004
1758273845281231600,8.208231689453125,-2.3341969810485836,-11.287613364410399,-0.31049802780151364
1758273845291188700,8.218188720703125,-2.8850130004882812,-11.435904229736327,-0.577152237701416
1758273845301146600,8.228146728515625,-2.9077579162597655,-12.11047054748535,-1.2681786918640137
1758273845311104800,8.238104736328125,-2.205209366607666,-12.346748323822021,-1.7322049011230467
1758273845321062000,8.248061767578125,-1.6183306846618652,-12.197409995269775,-1.6192285102844237
1758273845331019800,8.258019775390625,-0.5831377418518066,-11.88137537612915,-1.7491139503479003
1758273845340978000,8.26797802734375,0.6829460235595702,-11.649437090301513,-2.1329344039916993
1758273845350934800,8.277934814453126,1.266682315826416,-11.668441065979003,-2.6255413955688476
1758273845360892700,8.287892578125,0.6664858871459961,-11.565490394592285,-2.5836428665161133
1758273845370850800,8.297850830078126,-0.6618471214294434,-10.816254912567137,-2.1315876655578614
1758273845380808700,8.30780859375,-1.9098247367858885,-9.979930345153807,-2.031480108642578
1758273845390765800,8.317765869140626,-2.403628829193115,-9.526977318572998,-2.141912660217285
1758273845400723700,8.3277236328125,-1.9895815795898437,-9.254936154937743,-2.297535768127441
1758273845410681600,8.337681640625,-1.5453075340270994,-9.031377574920654,-2.026392430114746
1758273845420638700,8.347638671875,-1.426196001434326,-8.946533053588867,-1.7525556152343749
1758273845430596900,8.357596923828124,-1.4282909278869629,-9.156175336456299,-1.2144587921142578
1758273845440554800,8.3675546875,-0.9662100074768066,-9.618106619262695,-0.5021837982177734
1758273845450511600,8.37751171875,-0.07332242584228515,-9.720159465026855,0.8403647827148437
1758273845460469800,8.3874697265625,-1.1809399688720703,-9.619303720092773,3.1147067222595215
1758273845470427600,8.397427734375,-2.480991470336914,-10.697741930389403,2.386570142364502
1758273845480384800,8.407384765625,-2.508375151824951,-10.507851811218261,0.356885684967041
1758273845490343000,8.417343017578125,-2.0196587379455564,-9.785251822662353,1.2298714653015137
1758273845500300800,8.42730078125,-1.9987094734191893,-9.28306802444458,1.5506944877624511
1758273845510257700,8.437257568359374,-1.553986515045166,-7.96087015762329,1.234061318206787
1758273845520215800,8.4472158203125,-1.4074913009643555,-6.430825659179687,1.3157634498596191
1758273845530173700,8.457173583984375,-1.2943652725219725,-4.648641798400878,0.6818985603332519
1758273845540130800,8.467130859375,-0.6640916854858399,-3.0967502098083495,-1.1923124267578125
1758273845550089000,8.4770888671875,-0.7350199096679687,-2.353200956726074,-3.0169933670043942
1758273845560046800,8.487046875,-1.3766659545898436,-2.1746832954406736,-4.161421760559082
1758273845570004700,8.497004638671875,-1.767070462799072,-2.3795371749877927,-5.111919819641113
1758273845579961900,8.5069619140625,-2.214786173248291,-2.624643569946289,-5.437531245422363
1758273845589919700,8.516919677734375,-2.433705987548828,-3.003974895477295,-5.2718824180603026
1758273845599878000,8.5268779296875,-2.583193953704834,-3.3693899238586424,-4.759373625183105
1758273845609835000,8.5368349609375,-2.6228479187011717,-3.5708021385192867,-4.2149920227050774
1758273845619792600,8.546792724609375,-2.869001776885986,-3.538929328918457,-3.751265088653564
1758273845629750800,8.556750732421875,-3.393780853271484,-3.397222518157959,-3.426401850891113
1758273845639708000,8.5667080078125,-4.025999729156494,-3.394529041290283,-3.284096489715576
1758273845649665800,8.576665771484375,-4.492120864868164,-3.6728549842834473,-3.4956840614318847
1758273845659624000,8.5866240234375,-4.725106613922119,-3.86244582824707,-3.8591538009643553
1758273845669580800,8.596580810546875,-5.03725065536499,-3.8519711959838867,-4.296993429565429
1758273845679538700,8.60653857421875,-5.68862314453125,-3.807678465270996,-4.688595038604736
1758273845689496800,8.616496826171876,-6.757933460998535,-3.6548984718322752,-5.223100559234619
1758273845699454000,8.626453857421875,-8.124872971343994,-3.231274415588379,-5.703137992095947
1758273845709411800,8.636411865234376,-9.475801258087158,-2.9987375793457027,-6.099228729248047
1758273845719370000,8.646369873046876,-10.20872624130249,-3.454533720397949,-6.321739846038818
1758273845729326800,8.656326904296876,-10.996717862701415,-4.708496839904785,-6.164919637298584
1758273845739284700,8.66628466796875,-11.314099220275878,-6.25006343383789,-5.1714755859374995
1758273845749243000,8.676242919921876,-9.076867406463622,-8.406191666412353,-3.86244582824707
1758273845759199700,8.68619970703125,-2.9882629470825193,-12.206687526702881,-3.499275363922119
1758273845769158000,8.696157958984376,1.95995333404541,-14.84988615951538,-3.110965782165527
1758273845779116000,8.706115966796874,1.1001356628417969,-14.732271002960204,-4.528931715393066
1758273845789072600,8.71607275390625,-1.3881880500793455,-12.608763768005371,-7.321019763946532
1758273845799030800,8.72603076171875,-11.003152279663086,-10.184335311889647,-6.566247690582275
1758273845808989000,8.735989013671874,-7.7507789619445795,-9.34651436843872,-4.75009609375
1758273845818945800,8.74594580078125,-1.8121113815307617,-8.698882819366455,-4.112639901733398
1758273845828904000,8.755904052734374,-1.2767080352783202,-8.228422193145752,-4.304475309753418
1758273845838861800,8.76586181640625,-2.471414663696289,-9.580846855926513,-4.314501029205322
1758273845848818700,8.775818603515624,-3.9796120719909664,-11.701810251617431,-4.0328830589294435
1758273845858776800,8.78577685546875,-3.782240072631836,-12.969091117858886,-1.8478747688293455
1758273845868734700,8.795734619140624,-2.1461025131225586,-13.437905730438231,0.055365913391113276
1758273845878691800,8.80569189453125,-1.6106991668701172,-12.727725662994384,0.9880570976257324
1758273845888649700,8.815649658203125,-2.9225720390319823,-11.451167265319823,1.4781202499389647
1758273845898607600,8.825607666015625,-4.064456593322753,-10.41866779937744,1.3385083656311034
1758273845908565800,8.835565673828125,-4.365826727294921,-9.549572596740722,1.1438298431396483
1758273845918523000,8.84552294921875,-3.855562498474121,-8.730456353759765,0.8782230964660644
1758273845928480800,8.855480712890625,-3.0232781463623044,-8.15285520324707,0.5838859298706054
1758273845938439000,8.86543896484375,-2.494309217071533,-7.886350630950927,0.5671265182495117
1758273845948395800,8.875395751953125,-1.8541595481872557,-7.713369561004638,1.1403881782531737
1758273845958353700,8.885353759765625,-1.3091793952941895,-7.709179708099365,1.474229672241211
1758273845968311800,8.895311767578125,-0.9488520454406738,-8.188917865753174,1.1251251426696776
1758273845978269000,8.90526904296875,-0.7628525039672851,-8.79150849609375,0.45280338897705075
1758273845988226800,8.915226806640625,-1.0555436569213867,-9.183409380340576,-0.22086510314941404
1758273845998185000,8.92518505859375,-1.6958429634094236,-9.258527457427977,-0.8297405128479003
1758273846008141800,8.935141845703125,-2.6090812591552734,-8.813954136657715,-1.2255319747924804
1758273846018099700,8.945099609375,-3.156455613708496,-8.355464518737792,-0.48452656097412106
1758273846028057900,8.955057861328125,-3.3910873764038083,-8.6321444480896,-0.3678092300415039
1758273846038015000,8.965014892578125,-3.284844677734375,-9.247005361938475,-0.722749626159668
1758273846047972900,8.974972900390625,-2.6159645889282226,-9.55690483932495,-0.12779051361083985
1758273846057930800,8.9849306640625,-1.8561048370361326,-9.489717555236815,0.8931868568420409
1758273846067887900,8.994887939453125,-1.745522647857666,-9.44871685180664,1.4992191520690916
1758273846077845800,9.004845703125,-1.8869301834106444,-9.59581061630249,1.499668064880371
1758273846087804000,9.014803955078126,-2.407968319702148,-9.567978022003173,1.0562918449401855
1758273846097761000,9.024760986328126,-3.2173581184387205,-9.171588009643553,0.886752439880371
1758273846107718700,9.03471875,-2.8241104957580565,-8.961796089172363,1.6017209106445311
1758273846117676800,9.0446767578125,-2.2080524810791013,-8.696787892913818,2.244115143585205
1758273846127634000,9.054634033203126,-2.240074928283691,-8.665064720916748,2.1526865676879883
1758273846137591800,9.064591796875,-2.5089737022399903,-8.806023343658447,1.657386099243164
1758273846147550000,9.074550048828126,-2.6601076820373533,-8.312668164062499,1.608155327606201
1758273846157506800,9.0845068359375,-2.1677999656677245,-7.9198694541931145,1.7090110725402832
1758273846167464700,9.094464599609376,-1.8195932617187498,-8.234856610107421,0.9249100288391112
1758273846177422800,9.1044228515625,-2.1273978126525876,-8.211812419128417,0.12449848632812499
1758273846187379700,9.114379638671876,-2.0700866104125977,-7.93603031539917,0.050128597259521485
1758273846197337900,9.124337890625,-1.808071166229248,-8.098985665893554,-0.21622633743286132
1758273846207296000,9.1342958984375,-1.960551884460449,-8.32553699798584,-0.27189152603149414
1758273846217252600,9.144252685546874,-2.1742343826293946,-8.620622352600098,-0.12015899581909179
1758273846227210800,9.154210693359374,-1.9666870262145995,-8.992172522735595,0.14006079711914063
1758273846237169000,9.1641689453125,-1.6831237670898436,-9.235632904052734,0.5334580574035644
1758273846247125800,9.174125732421874,-1.6519991455078125,-9.322572351837158,1.0742483573913573
1758273846257084000,9.184083984375,-1.7515081520080564,-9.354145886230468,1.434575707244873
1758273846267041800,9.194041748046875,-1.9542671051025389,-9.240122032165527,1.6412252380371093
1758273846276998700,9.20399853515625,-2.3376386459350584,-9.185354669189453,1.5254057327270507
1758273846286957000,9.21395703125,-2.6657939109802244,-9.187299958038329,1.3459902458190918
1758273846296915000,9.2239150390625,-2.7320833694458004,-9.338134662628173,1.6291045921325682
1758273846306872000,9.2338720703125,-2.600402278137207,-9.781959795379638,2.1312883903503415
1758273846316830200,9.243830322265625,-2.3882161560058592,-10.570400329589843,2.6478373985290524
1758273846326788000,9.2537880859375,-2.2691046234130856,-11.590629512023925,3.027318361663818
1758273846336745000,9.263744873046875,-2.075623201751709,-12.324153045654295,3.125630267333984
1758273846346703000,9.273703125,-1.831115357208252,-12.580182985687255,2.754678647613525
1758273846356661000,9.283660888671875,-2.0382138008117674,-12.721141608428955,1.8166005096435547
1758273846366618000,9.2936181640625,-2.5194483345031737,-12.906692237091063,0.6738181297302246
1758273846376576300,9.303576171875,-2.5315689804077146,-12.600384062194824,-0.08813654861450194
1758273846386534000,9.313533935546875,-2.2590789039611816,-11.883769577789305,-0.2998737579345703
1758273846396491000,9.323490966796875,-2.0301333702087403,-12.12318974380493,-0.2075473564147949
1758273846406449200,9.33344921875,-1.776048719024658,-13.10615916290283,0.05192424850463867
1758273846416407000,9.343406982421875,-1.258302610015869,-13.750199409484862,0.13287819213867186
1758273846426364200,9.3533642578125,-1.1198878265380858,-15.139584560394287,0.13856442108154296
1758273846436322300,9.363322265625,-1.3416507553100585,-16.363620159149168,0.3939958106994629
1758273846446280000,9.373280029296875,-1.8122610191345214,-15.94822617111206,0.36092590026855464
1758273846456237000,9.383237060546875,-2.9382839874267574,-14.389151977539061,-0.09127893829345703
1758273846466195200,9.3931953125,-4.700117134094238,-13.053636363983154,0.07855974197387695
1758273846476153000,9.403153076171876,-5.149927770996094,-11.991059739685058,0.485873299407959
1758273846486110200,9.413110107421875,-4.605695806121826,-11.305869152069091,0.6262333717346191
1758273846496068000,9.423068115234376,-3.929483474731445,-11.160720676422118,0.6899789909362792
1758273846506026000,9.43302587890625,-2.7938836997985836,-11.477802758789062,0.23478140029907224
1758273846515983000,9.442983154296876,-2.701706935882568,-11.779921080780028,-0.30301614761352536
1758273846525941200,9.452941162109376,-3.370437387084961,-11.972205401611328,-0.9596259529113769
1758273846535899100,9.462899169921876,-2.9248166030883787,-11.95754091644287,-1.087266828918457
1758273846545856000,9.47285595703125,-2.773981898498535,-12.370241427612305,-1.1490671592712403
1758273846555814100,9.482814208984376,-3.1247324417114255,-12.655151425170898,-1.5566799919128418
1758273846565772000,9.49277197265625,-2.8796260467529295,-12.458078701019286,-1.803582038116455
1758273846575729200,9.502729248046874,-2.217928562927246,-12.399570397949217,-1.8020856620788572
1758273846585687000,9.51268701171875,-1.4847043045043944,-12.310087110900879,-1.479915901184082
1758273846595645200,9.522645263671874,-0.37888241271972656,-11.978340543365478,-0.679953271484375
1758273846605602000,9.53260205078125,0.8780734588623046,-11.477802758789062,0.023642741394042967
1758273846615560000,9.542559814453124,0.9706991355895995,-10.996418587493896,-0.15023615417480468
1758273846625518000,9.55251806640625,0.25827450408935543,-10.87820488052368,-0.8463502868652343
1758273846635475200,9.56247509765625,0.2651578338623047,-10.702530333709715,-1.3510779243469238
1758273846645433000,9.57243310546875,0.5416881256103515,-9.947010072326659,-1.3952210174560546
1758273846655391000,9.582390869140625,0.2980781066894531,-9.143306502532958,-1.3251906188964844
1758273846665348000,9.59234814453125,-0.6416460449218749,-9.102305799102783,-2.7225065628051754
1758273846675306000,9.602305908203125,-1.2255319747924804,-8.909572565460204,-3.3451486320495603
1758273846685264100,9.61226416015625,-1.0561422073364257,-9.427318674468994,-2.0808605178833006
1758273846695221200,9.62222119140625,-1.9259855979919434,-10.466402194976807,-1.303642803955078
1758273846705179000,9.632178955078125,-3.3611598556518554,-10.94808564147949,-0.5113116920471191
1758273846715137000,9.642136962890625,-3.5474586723327635,-10.541071359252928,-0.3597287994384765
1758273846725094100,9.65209423828125,-3.1235353408813475,-10.283545043182372,-0.7734767738342284
1758273846735052000,9.662052001953125,-2.6454431968688965,-9.580996493530273,-0.041748891448974604
1758273846745010200,9.67201025390625,-2.7754782745361326,-8.857049766540527,1.1462240447998047
1758273846754967000,9.681967041015625,-1.258302610015869,-8.95745659866333,1.9744681816101073
1758273846764925000,9.691925048828125,0.35224691925048823,-7.6653358901977535,0.9796773918151855
1758273846774883000,9.701883056640625,-0.4079121078491211,-5.308393993377686,0.21951836471557615
1758273846784840200,9.711840087890625,-1.3805565322875977,-3.372233038330078,-0.1158195053100586
1758273846794798000,9.721798095703125,-0.7377133865356444,-2.6075848831176756,-0.5526116706848144
1758273846804756200,9.731756103515625,-0.3344400444030762,-2.218527113342285,-1.7528548904418944
1758273846814713000,9.741713134765625,-1.1206360145568848,-1.9782091217041013,-3.0252234352111813
1758273846824671000,9.7516708984375,-1.9476830505371092,-2.6001030029296874,-4.602403778839111
1758273846834629000,9.761629150390625,-1.9806033233642577,-2.8918963302612304,-4.781370352935791
1758273846844586200,9.771586181640625,-2.1384709953308105,-3.3448493568420408,-4.8713025527954095
1758273846854544100,9.781544189453125,-2.273593751525879,-3.927538185882568,-4.802918167877197
1758273846864502300,9.791502197265626,-2.3452701637268065,-4.501548033905029,-4.516212519073486
1758273846874459100,9.801459228515625,-2.352452768707275,-4.290708650207519,-4.421940828704834
1758273846884417000,9.8114169921875,-2.7448025657653807,-4.238036213684082,-4.384531427764892
1758273846894375200,9.821375244140626,-3.1459809814453124,-3.6942531616210936,-4.090792811584472
1758273846904332300,9.831332275390626,-3.3928830276489257,-2.6900352027893066,-3.749918350219726
1758273846914290200,9.841290283203126,-3.732859663391113,-2.155978594970703,-3.6528035453796384
1758273846924248000,9.851248046875,-4.176834433746338,-2.343474512481689,-3.7502176254272457
1758273846934205000,9.861204833984376,-4.82641127166748,-2.7545290100097652,-3.937114992523193
1758273846944163000,9.8711630859375,-5.8862944190979,-3.3885435371398924,-4.370465493011475
1758273846954120200,9.8811201171875,-7.247398062896728,-3.6969466384887695,-5.058798470306396
1758273846964078000,9.891078125,-8.565555714416503,-3.864241479492187,-5.981314297485351
1758273846974036000,9.901035888671874,-9.656563483428954,-3.9336733276367184,-6.58225891418457
1758273846983993000,9.9109931640625,-10.321253719329833,-4.128501487731933,-6.676380966949463
1758273846993951000,9.920950927734374,-11.578059953308104,-4.903325,-6.840084505462646
1758273847003909000,9.9309091796875,-13.265074298095703,-6.613084260559082,-6.919990985870361
1758273847013866200,9.9408662109375,-13.944578656768797,-9.385420145416258,-6.181379773712158
1758273847023824000,9.950823974609374,-8.767416841888426,-13.948319596862792,-4.708796115112304
1758273847033782000,9.960781982421874,2.2082021186828613,-14.612261644744873,-0.8976759849548339
1758273847043739100,9.9707392578125,-1.3654431343078612,-12.017096682739258,-0.8502408645629882
1758273847053697000,9.980697021484374,-2.156726782989502,-9.858723886108399,-3.537432952880859
1758273847063655200,9.9906552734375,-3.864391117095947,-9.1554271484375,-4.733635957336426
1758273847073612000,10.000612060546874,-10.484957257843018,-9.434351641845703,-7.573907314300537
1758273847083570000,10.01056982421875,-6.800580178070068,-7.576301515960693,-6.234800398254394
1758273847093528000,10.020528076171875,-3.120542588806152,-6.062118603515625,-3.2857425033569334
1758273847103485200,10.030485107421875,-2.8221652069091796,-6.992415586090088,-2.258629991149902
1758273847113443000,10.040443115234375,-2.136076793670654,-9.0788126953125,-2.591424021911621
1758273847123401200,10.050401123046875,-2.4097639709472656,-10.52805288772583,-2.7186159851074216
1758273847133358000,10.060358154296875,-3.3948283164978026,-11.491419780731201,-2.122310134124756
1758273847143316000,10.07031591796875,-3.140294752502441,-12.077250999450683,-1.578227806854248
1758273847153274000,10.080274169921875,-3.228730576324463,-12.112864749145507,-1.5322890624999999
1758273847163231200,10.090231201171875,-3.8180034599304196,-11.740267115783691,-1.9502268898010253
1758273847173189000,10.100189208984375,-4.055478337097168,-10.938957747650147,-2.0694880599975587
1758273847183147300,10.110147216796875,-3.6540006462097168,-9.80665,-1.8840870689392089
1758273847193104100,10.120104248046875,-2.839074256134033,-8.768913217926025,-1.5310919616699217
1758273847203062000,10.13006201171875,-1.9755156448364257,-7.9563810295104975,-0.7628525039672851
1758273847213020200,10.140020263671875,-1.4110826034545898,-7.649324666595459,-0.1605611488342285
1758273847222977300,10.149977294921875,-1.010053825378418,-8.123226957702636,0.1292868896484375
1758273847232935200,10.15993505859375,-0.8774749084472656,-8.926631252288818,0.5201403106689453
1758273847242892000,10.16989208984375,-1.0919055946350098,-9.437643669128418,0.9288006065368651
1758273847252850200,10.17985009765625,-1.3117232345581054,-10.238953037261963,0.6952163070678711
1758273847262808000,10.18980810546875,-2.1306898399353025,-10.850222648620605,0.34401685104370117
1758273847272765200,10.19976513671875,-2.9212253005981443,-10.737545532989502,0.035464112091064454
1758273847282723000,10.20972314453125,-3.399018169403076,-10.256909549713134,-0.49200844116210934
1758273847292680200,10.21968017578125,-3.7747581924438474,-9.550021509552002,-1.0311527275085448
1758273847302637300,10.22963720703125,-3.783437173461914,-8.479813367462159,-0.7682394577026367
1758273847312595500,10.239595458984375,-3.235613906097412,-7.558195365905761,0.23403321228027343
1758273847322553300,10.24955322265625,-1.5373767410278318,-7.958775231170653,0.3206733848571777
1758273847332510200,10.25951025390625,-0.26171616897583005,-8.566603177642822,0.256029940032959
1758273847342468400,10.26946826171875,-0.7106289802551269,-8.875155916595459,0.5425859512329101
1758273847352426200,10.27942626953125,-1.617133583831787,-9.430461064147948,1.6009727226257324
1758273847362383400,10.28938330078125,-2.3573908096313474,-9.459041846466064,2.928557543182373
1758273847372341500,10.299341552734376,-3.3324294357299804,-9.284714038085937,2.958036151123047
1758273847382299100,10.309299072265626,-3.614795594024658,-9.177124600982665,2.5980080764770506
1758273847392256300,10.31925634765625,-3.1420904037475585,-8.732252005004883,2.745700391387939
1758273847402214400,10.32921435546875,-2.3198317710876464,-8.418910862731932,2.771438059234619
1758273847412172300,10.33917236328125,-1.7998410980224608,-8.950124356079101,1.7293617866516113
1758273847422129400,10.34912939453125,-2.3075614875793455,-8.800935665130615,0.7249941902160644
1758273847432087300,10.35908740234375,-2.947711156463623,-8.002768686676024,0.23687632675170897
1758273847442045200,10.369045166015624,-2.9204771125793454,-8.05080235748291,-0.47884033203125
1758273847452002300,10.379002197265624,-2.5368062965393063,-8.491485100555419,-0.6941688438415526
1758273847461960200,10.388960205078124,-2.201318788909912,-8.552387605285643,-0.08080430603027343
1758273847471917300,10.398917236328124,-1.5822680221557617,-8.619724526977539,0.27189152603149414
1758273847481875500,10.40887548828125,-1.663670878601074,-8.692598040008544,0.10504559783935546
1758273847491833000,10.4188330078125,-1.6736965980529783,-8.719233533477782,-0.19931728820800781
1758273847501790200,10.428790283203124,-1.6949451377868652,-8.68840818710327,-0.008828618621826172
1758273847511748400,10.438748291015624,-1.5261539207458494,-8.770409593963622,0.04908113403320312
1758273847521706200,10.448706298828125,-1.1701660614013671,-8.763526264190673,0.21532851181030271
1758273847531663400,10.458663330078124,-1.0263643241882323,-8.858995055389403,0.589272883605957
1758273847541621200,10.468621337890625,-1.09804073638916,-9.237877468109131,0.6530185028076172
1758273847551579100,10.4785791015625,-1.2328642173767088,-9.629179801940918,0.6298246742248534
1758273847561536300,10.488536376953125,-1.512536898803711,-9.823858324432372,0.6169558403015136
1758273847571494400,10.498494384765625,-1.6398784996032714,-9.926210445404053,0.912340470123291
1758273847581452300,10.508452392578125,-1.690605647277832,-9.776722479248047,1.4827590156555175
1758273847591409200,10.5184091796875,-1.661127039337158,-9.6917283203125,1.998859111022949
1758273847601367300,10.5283671875,-1.5951368560791015,-9.632022916412353,2.628534147644043
1758273847611325200,10.5383251953125,-1.992424694061279,-10.027964015960693,2.699013459014892
1758273847621282300,10.5482822265625,-2.5884312698364256,-10.296114601898193,2.586934893798828
1758273847631240400,10.558240478515625,-2.8760347442626952,-10.694749178314208,2.4347534507751463
1758273847641198300,10.5681982421875,-3.067121964263916,-11.652729117584228,1.917755529785156
1758273847651155200,10.5781552734375,-3.193565739440918,-12.34061318206787,1.1745055519104004
1758273847661113300,10.58811328125,-2.8829180740356444,-13.205368894195557,0.26650457229614255
1758273847671071200,10.5980712890625,-2.5641899780273434,-13.836390669250488,-0.5838859298706054
1758273847681028400,10.6080283203125,-2.329707852935791,-14.581885211181639,-1.358559804534912
1758273847690986500,10.617986572265625,-1.8429367279052733,-14.787337641143798,-1.5508441253662109
1758273847700943000,10.627943115234375,-0.6316203254699707,-13.832799366760254,-0.7685387329101562
1758273847710901200,10.6379013671875,0.4354454269409179,-12.796110047912597,0.45714287948608395
1758273847720859400,10.647859375,0.5360018966674804,-12.434286322021483,1.100584575653076
1758273847730816300,10.657816162109375,0.9961375282287597,-13.185766368103026,1.162534543609619
1758273847740774400,10.6677744140625,0.9721955116271972,-14.182951359558105,0.6388029304504395
1758273847750732300,10.677732177734375,0.31648353195190426,-13.634230266571045,0.07885901718139648
1758273847760689200,10.687689208984375,-0.5234323379516601,-12.591405805969238,-0.015861585998535155
1758273847770647300,10.697647216796875,-1.363048932647705,-11.503839701843262,0.0025438392639160153
1758273847780605400,10.70760546875,-1.9608511596679685,-10.63624087524414,-0.2171241630554199
1758273847790562300,10.717562255859375,-2.6613047828674317,-10.101286441802978,-0.2775777549743652
1758273847800520400,10.7275205078125,-3.061286097717285,-9.771185887908935,-0.1879448303222656
1758273847810478300,10.737478271484376,-2.8235119453430175,-9.65252326812744,0.12375029830932617
1758273847820435200,10.747435302734376,-2.1742343826293946,-9.441683884429931,0.9132382957458496
1758273847830393300,10.757393310546876,-2.2198738517761227,-9.635763856506347,1.1245265922546386
1758273847840351200,10.767351318359376,-2.5884312698364256,-9.75562357711792,1.336263801574707
1758273847850308400,10.777308349609376,-2.5225907241821286,-9.626336687469482,1.4390648353576658
1758273847860266200,10.787266357421874,-2.3636755889892576,-9.376142613983154,1.284489190673828
1758273847870224100,10.79722412109375,-2.2035633529663086,-9.158719175720215,1.294065997314453
1758273847880181200,10.80718115234375,-1.9590555084228514,-9.4358480178833,0.9115922821044922
1758273847890139400,10.817139404296874,-1.4555249717712402,-10.55379055557251,0.2998737579345703
1758273847900097300,10.82709716796875,-1.0313023651123046,-12.124835757446288,-0.17896657409667968
1758273847910054100,10.83705419921875,-0.6627449470520019,-13.392864811706541,-0.6362590911865234
1758273847920012300,10.84701220703125,-0.4664204109191894,-12.024877838134765,-0.6833949363708496
1758273847929970200,10.85697021484375,-0.4352957893371582,-10.018686484527587,-1.1686696853637695
1758273847939927300,10.86692724609375,0.17702128524780272,-8.574833245849609,-1.8245313026428223
1758273847949885400,10.876885498046875,1.3407529296874998,-7.126640516662597,-2.212840884399414
1758273847959842300,10.88684228515625,2.4506150367736814,-6.526444087982178,-2.6363153030395505
1758273847969800200,10.89680029296875,3.367145359802246,-6.845471459197998,-2.9700071594238278
1758273847979758300,10.90675830078125,3.889829509735107,-7.512855171966552,-3.0761002204895016
1758273847989715500,10.916715576171875,3.125181354522705,-7.844601739501953,-3.3527801498413083
1758273847999673300,10.92667333984375,-1.4181155708312987,-8.53667565689087,-4.3068695114135735
1758273848009631500,10.936631591796875,-6.234650760650634,-8.236352986145018,-4.068945721435546
1758273848019588400,10.94658837890625,-4.135085542297363,-7.073219892120361,-2.7726351600646972
1758273848029546200,10.956546142578125,-2.10046304397583,-6.561010374450683,-2.0573674140930174
1758273848039504400,10.96650439453125,-1.002871220397949,-6.56325493850708,-1.3007996894836424
1758273848049461200,10.976461181640625,-0.48991351470947264,-6.843226895141601,-0.6910264541625977
1758273848059419400,10.98641943359375,-0.0805050308227539,-6.947524304962158,-0.1158195053100586
1758273848069377300,10.996377197265625,0.3049614364624023,-7.197419103240966,0.8467991996765136
1758273848079334100,11.006334228515625,0.11611878051757812,-7.647529015350341,2.001552587890625
1758273848089292300,11.016292236328125,0.8059481338500976,-8.216002272033691,3.1938650146484373
1758273848099250400,11.02625048828125,1.3431471313476562,-8.659378491973877,3.5242648437499997
1758273848109207300,11.036207275390625,0.7486369316101074,-9.053374302673339,2.903119150543213
1758273848119165400,11.04616552734375,0.17732056045532227,-9.511863920593262,1.6482582054138182
1758273848129123300,11.056123291015625,0.22774843292236327,-9.235034353637694,-0.043245267486572266
1758273848139080200,11.066080078125,0.2883516624450683,-9.631274728393555,-2.2073042930603024
1758273848149038300,11.076038330078125,-1.2524667434692383,-9.962871658325195,-3.993378731536865
1758273848158996200,11.085996337890625,-1.5529390518188475,-8.443301792144775,-3.207930949401855
1758273848168953300,11.095953369140625,-0.33922844772338867,-7.056310842895507,-1.9340660285949707
1758273848178911200,11.1059111328125,-0.5909188972473144,-6.649146923065185,-1.2176011817932129
1758273848188868400,11.115868408203125,-1.1917138763427733,-6.5583168975830075,-0.9609726913452148
1758273848198826200,11.125826171875,-1.1939584403991699,-6.857442467498779,-0.7109282554626465
1758273848208784400,11.135784423828126,-1.0395324333190918,-7.623886273956298,-0.6479308242797851
1758273848218741500,11.145741455078126,-1.0244190353393554,-7.190984686279297,-0.48662148742675776
1758273848228699100,11.15569921875,-0.17088614349365233,-7.876175273895263,-0.4358943397521972
1758273848238657300,11.1656572265625,1.8969559028625487,-9.088539139556884,-0.6175543907165527
1758273848248614400,11.175614501953126,2.9933506256103515,-8.962095364379882,-0.7802104660034179
1758273848258572300,11.185572265625,2.0216040267944333,-8.594735047149658,-1.0296563514709471
1758273848268530400,11.195530517578124,-0.4474164352416992,-9.66015478591919,-1.874959175109863
1758273848278487300,11.2054873046875,-3.447051840209961,-13.288268126678465,-3.7579987808227537
1758273848288445700,11.21544580078125,-2.5354595581054684,-19.502717810821533,-7.059602870178222
1758273848298403800,11.22540380859375,-3.9737762054443357,-17.769914359283447,-7.183802081298828
1758273848308360700,11.235360595703124,-5.6964042999267575,-12.836961113739013,-4.542698374938965
1758273848318318600,11.245318603515624,-7.645134813690185,-12.958766123199462,-2.3861212295532224
1758273848328276700,11.25527685546875,-9.41639512939453,-15.470882215118408,-2.0789152290344237
1758273848338233600,11.265233642578124,-10.914716455841063,-16.269198831176755,-2.03043264541626
1758273848348191700,11.275191650390624,-8.722525560760497,-15.640421620178222,-2.2993314193725585
1758273848358150000,11.28514990234375,-2.6414029815673827,-15.585953532409667,-2.3210288719177243
1758273848368106500,11.2951064453125,4.172345305633545,-17.30020192108154,-2.0751742889404294
1758273848378064600,11.305064697265625,9.948207173156737,-19.62452282028198,-1.9304747261047361
1758273848388022800,11.315022705078125,11.924321368408203,-17.073949864196777,-0.6197989547729492
1758273848397979600,11.324979736328125,8.436717737579345,-11.457003131866454,0.730979694366455
1758273848407937800,11.334937744140625,4.216787673950195,-8.506299223327636,0.32127193527221676
1758273848417895700,11.344895751953125,-0.11866261978149413,-7.940070530700683,-0.7220014381408691
1758273848427852500,11.3548525390625,-1.8243816650390623,-9.25762963180542,-0.5412392127990723
1758273848437810700,11.364810791015625,-4.199130436706542,-11.902923191070556,-0.0016460136413574218
1758273848447767800,11.374767822265625,-5.916371577453613,-17.611747412109374,-0.9290998817443847
1758273848457725700,11.3847255859375,-1.0917559570312498,-17.680431072235105,-0.8520365158081055
1758273848467683800,11.394683837890625,5.62457825012207,-15.439159043121338,-2.2526444869995115
1758273848477640700,11.404640625,4.718821834564209,-18.48129152755737,-1.5164274765014647
1758273848487598600,11.4145986328125,-10.32319900817871,-17.254412814331054,4.076277964019775
1758273848497556700,11.424556640625,4.529380628204345,-13.618368680572509,5.842899514007568
1758273848507513900,11.434513916015625,13.738078763580322,-8.63798031463623,8.442553604125976
1758273848517471700,11.4444716796875,-6.59467883529663,-7.454646144104004,8.998307664489746
1758273848527429600,11.4544296875,0.6551134292602538,-12.69166300048828,6.765864253997802
1758273848537386800,11.46438671875,-3.218255944061279,-9.88296517791748,6.778134537506103
1758273848547344600,11.4743447265625,-5.513996060943604,-6.063016429138183,6.212504395294189
1758273848557302800,11.484302734375,-9.284863675689696,-5.160402403259277,6.561758562469482
1758273848567260000,11.494260009765625,6.081571492004394,-6.445190869140625,6.844423995971679
1758273848577217500,11.504217529296875,4.981286191558838,-7.394192552185058,7.369801622772217
1758273848587175700,11.51417578125,-9.396493328094483,-4.884321024322509,11.541398740386962
1758273848597132800,11.5241328125,-1.3401543792724608,-3.1157541854858395,16.998382874298095
1758273848607090700,11.534090576171875,2.3165397438049316,-4.555567208862304,17.37636746139526
1758273848617048800,11.544048828125,5.946897648620605,-7.308749480438232,16.56862367630005
1758273848627005700,11.554005615234376,8.353668867492676,-8.763675901794434,15.2968536819458
1758273848636963600,11.563963623046876,8.7210291847229,-9.417741867828369,13.848960227966307
1758273848646921700,11.573921630859376,8.635735750579833,-8.584260414886474,12.695403940582274
1758273848656878600,11.583878662109376,7.403769358825683,-8.399906887054442,10.169072276306151
1758273848666836700,11.593836669921876,6.154893917846679,-7.7033438415527336,7.624933737182617
1758273848676795000,11.603794921875,5.227589687347412,-6.284480082702636,5.363610269165039
1758273848686751500,11.61375146484375,4.383334326934814,-4.6538791145324705,2.9851205574035644
1758273848696709600,11.623709716796874,3.4198177963256833,-2.319981408691406,1.0070610733032226
1758273848706667800,11.633667724609374,2.453009238433838,-0.8041524826049804,-0.6359598159790039
1758273848716624600,11.643624755859374,1.5753846923828123,0.17298106994628906,-2.3699603683471677
1758273848726582800,11.653582763671874,1.8195932617187498,1.4645032279968262,-3.3123779968261715
1758273848736540700,11.663540771484374,2.995595189666748,1.684171230316162,-3.838354174041748
1758273848746497500,11.67349755859375,4.771045358276367,1.6083049652099608,-4.599560664367676
1758273848756455700,11.68345556640625,6.731896517944335,0.9771335525512694,-5.096357508850097
1758273848766412800,11.693412841796874,8.653243350219727,-0.11926117019653319,-5.316773699188232
1758273848776370700,11.70337060546875,10.497826091766356,-0.7276876670837402,-5.117905323791503
1758273848786328800,11.713328857421875,11.002254454040527,-1.401356159210205,-4.5213001976013185
1758273848796285700,11.72328564453125,10.577732572174071,-1.993172882080078,-3.9700352653503415
1758273848806243600,11.73324365234375,9.81278514175415,-2.1538836685180662,-3.4400188728332517
1758273848816201700,11.74320166015625,8.533533267211913,-2.5941174987792968,-3.020285394287109
1758273848826158800,11.753158935546875,7.55909319152832,-2.968211508178711,-2.736123584747314
1758273848836116700,11.76311669921875,6.810306622314453,-2.836530416870117,-2.729838805389404
1758273848846074600,11.77307470703125,5.927744035339355,-2.325069087219238,-2.855684030151367
1758273848856031700,11.78303173828125,4.989665897369385,-1.8363526733398436,-2.9887118598937987
1758273848865989600,11.79298974609375,4.405331054687499,-1.8014871116638183,-3.3090859695434567
1758273848875947800,11.80294775390625,6.632387511444091,-1.7335516395568846,-2.336142269897461
1758273848885905000,11.81290478515625,8.698284268951415,-2.075473564147949,-1.905036333465576
1758273848895862500,11.822862548828125,8.672247325897215,-2.0971710166931152,-2.902969512939453
1758273848905820700,11.832820556640625,9.894786548614501,-1.3488333602905274,-2.0923826133728025
1758273848915777800,11.84277783203125,9.317335035705566,-0.8836100502014159,-2.2768857788085937
1758273848925735700,11.852735595703125,8.72761323928833,0.0469862075805664,-2.187851404571533
1758273848935693800,11.86269384765625,8.004713975524902,0.7166144844055176,-2.0033482391357422
1758273848945650700,11.872650634765625,10.51488477859497,1.0512041664123535,0.22385785522460935
1758273848955608600,11.882608642578125,16.606930902862548,1.001075569152832,9.412205276489257
1758273848965566700,11.892566650390625,7.60398447265625,1.178545767211914,14.434342533874512
1758273848975523600,11.902523681640625,4.084059119415283,2.2363339881896973,17.151761418151853
1758273848985481700,11.912481689453125,9.043348583221436,-1.9979612854003905,10.040383937072754
1758273848995439900,11.92243994140625,8.781931689453124,-2.900276036071777,2.2650644081115723
1758273849005396500,11.932396484375,7.314734984588623,-0.5548562347412109,-1.6617255897521972
1758273849015354600,11.942354736328125,8.170961353302001,0.4999392341613769,-5.708524945831298
1758273849025312800,11.952312744140626,9.686042091369629,1.648557480621338,-3.283348301696777
1758273849035269600,11.96226953125,9.817573545074461,2.372354570007324,-0.4572925170898437
1758273849045227800,11.972227783203126,10.461164878845214,1.958157682800293,1.1109095703125
1758273849055184600,11.9821845703125,10.779444062042236,-0.07272387542724609,-0.4161421760559082
1758273849065142500,11.992142578125,9.064447485351561,-0.8249521095275878,-1.439663385772705
1758273849075100700,12.0021005859375,8.65114842376709,0.08170213165283202,-0.127042325592041
1758273849085057800,12.012057861328126,9.945214421081543,0.7835024932861328,1.8695722213745116
1758273849095015700,12.022015625,9.344868354797363,1.6023194610595701,2.79014275970459
1758273849104973800,12.031973876953124,8.433126435089111,1.7711106781005859,2.065298207092285
1758273849114930700,12.0419306640625,8.557325646209716,1.85131643371582,1.3003507766723632
1758273849124888600,12.051888671875,8.714145854949951,1.9117700256347656,0.5572504364013672
1758273849134846700,12.0618466796875,8.769960681152343,2.1287445510864256,0.18854338073730467
1758273849144803800,12.071803955078124,8.570344117736816,2.404526654815674,0.3694552436828613
1758273849154761700,12.08176171875,8.533982180023193,2.3808839134216306,0.37229835815429685
1758273849164719600,12.0917197265625,8.44629454421997,2.4033295539855954,0.5995978782653808
1758273849174676700,12.1016767578125,8.259995727539062,2.470067925262451,1.0443208366394043
1758273849184634600,12.111634521484374,8.285583757781982,2.4133552734375,1.16193599319458
1758273849194592800,12.1215927734375,8.537423844909668,2.309357138824463,1.2069769119262694
1758273849204550000,12.1315498046875,8.794201972961424,2.170194167327881,1.3067851936340331
1758273849214507500,12.141507568359375,8.879345769500732,2.0331261222839356,1.3733739273071288
1758273849224465700,12.151465576171875,8.860790706634521,2.063951468658447,1.1345523117065428
1758273849234422800,12.1614228515625,8.582464763641356,2.2463597076416013,0.8716390419006347
1758273849244380700,12.171380615234375,8.313416352081298,2.5450363647460934,0.7079355033874511
1758273849254338800,12.1813388671875,8.358457270812988,2.6964696197509763,0.5731120223999023
1758273849264295700,12.191295654296875,8.557026371002197,2.728641704559326,0.519092847442627
1758273849274253600,12.201253662109375,8.741978449249267,2.742109088897705,0.5741594856262207
1758273849284211700,12.211211669921875,8.774898722076415,2.70065947265625,0.7857470573425293
1758273849294168800,12.2211689453125,8.805574430847168,2.582595403289795,0.9246107536315917
1758273849304126700,12.231126708984375,8.780136038208008,2.5215432609558106,0.9867103591918944
1758273849314084900,12.2410849609375,8.851513175201415,2.5704747573852536,0.9781810157775879
1758273849324041700,12.251041748046875,9.1163717338562,2.6550200035095215,0.9302969825744628
1758273849333999900,12.260999755859375,9.133131145477295,2.6414029815673827,0.8538321670532226
1758273849343956700,12.270956787109375,8.949076892852784,2.424278818511963,0.6118681617736816
1758273849353914600,12.28091455078125,9.21887349243164,2.73253228225708,0.5654805046081542
1758273849363872800,12.290872802734375,8.870816426086424,3.3864486106872556,0.45878889312744137
1758273849373830000,12.300829833984375,7.389104873657226,3.86244582824707,0.3067570877075195
1758273849383787800,12.310787841796875,9.124601802062987,3.1275755561828613,0.22819734573364256
1758273849393746000,12.320745849609375,9.21812530441284,3.555239827728271,0.6718728408813476
1758273849403702800,12.330702880859375,8.773252708435058,4.01597400970459,1.2687772422790526
1758273849413660700,12.34066064453125,8.685565072631835,3.7743092796325683,1.133205573272705
1758273849423618800,12.350618896484375,8.699930282592772,3.094356008148193,0.5704185455322265
