time,seconds_elapsed,z,y,x
1758273837124591600,0.051591552734375,9.43018107816279,-1.4716780880622564,2.253048976147175
1758273837134549500,0.061549560546875,9.418780563226342,-1.4683967283040285,2.3023400996692476
1758273837144507600,0.071507568359375,9.406968544879556,-1.4720812620356678,2.347829054429382
1758273837154465500,0.081465576171875,9.396999524050951,-1.4786698466457426,2.3833421202287077
1758273837164422400,0.09142236328125,9.389675464773177,-1.47932261146605,2.411636340690404
1758273837174380500,0.101380615234375,9.384614089730382,-1.464731629925221,2.4400750841893255
1758273837184338700,0.111338623046875,9.382626130783557,-1.4314631281822918,2.4673110277697443
1758273837194296600,0.121296630859375,9.383430432903767,-1.3862836777627467,2.4899480992525813
1758273837204253400,0.13125341796875,9.383855380317568,-1.3401383049204945,2.5134976094052193
1758273837214211600,0.141211669921875,9.381319724360107,-1.3014343341253698,2.5431276085153223
1758273837224169500,0.15116943359375,9.37540202474892,-1.2725272424623368,2.579320034880936
1758273837234127600,0.161127685546875,9.367318087014555,-1.2515652645848692,2.618649297967553
1758273837244084500,0.17108447265625,9.358709833145141,-1.2370374114081262,2.6560633750826117
1758273837254042600,0.181042724609375,9.348373732569813,-1.2282559929288923,2.6962334729075432
1758273837264000800,0.191000732421875,9.3347835986346,-1.2238779239751398,2.744872708392143
1758273837273958400,0.20095849609375,9.316758697122335,-1.221727833269164,2.8063816545829177
1758273837283915800,0.210915771484375,9.2943510504812,-1.2185316675763576,2.8810768300831318
1758273837293873700,0.220873779296875,9.269044175267219,-1.2112660604875534,2.964462384778261
1758273837303831600,0.23083154296875,9.243402369010449,-1.1999657179899512,3.0479470159336923
1758273837313788700,0.24078857421875,9.218450298583507,-1.1852838432952761,3.1282039172142744
1758273837323746600,0.25074658203125,9.19433234089315,-1.165566677847132,3.2056340706363318
1758273837333704700,0.26070458984375,9.170398507598042,-1.1358729658510536,3.2838957064464687
1758273837343662800,0.270662841796875,9.143906221991777,-1.0922943016916513,3.3713884041994806
1758273837353619500,0.280619384765625,9.110025579699874,-1.0373684602182358,3.478747247417271
1758273837363577600,0.29057763671875,9.0659812707901,-0.9767473297126591,3.608924363903701
1758273837373535700,0.30053564453125,9.012373599243164,-0.9163148536469787,3.7560447241455313
1758273837383493600,0.31049365234375,8.949619913688302,-0.8612243231311439,3.915735227625072
1758273837393450800,0.32045068359375,8.876678596118092,-0.8154851199369877,4.087779308982193
1758273837403408600,0.33040869140625,8.795689581170677,-0.78104574778378,4.265699588896334
1758273837413366800,0.34036669921875,8.71905057812631,-0.7582301048636436,4.424209942680597
1758273837423324700,0.35032470703125,8.659342251616716,-0.7487551511622965,4.541534884117543
1758273837433281500,0.360281494140625,8.611475169548392,-0.7613887150250375,4.62959632166922
1758273837443239700,0.37023974609375,8.56798790999949,-0.8011040548197924,4.702999119271338
1758273837453197800,0.38019775390625,8.524228847771882,-0.8601824128627776,4.771581657110154
1758273837463155700,0.39015576171875,8.474425829204916,-0.9244757290750741,4.847663318532705
1758273837473112600,0.400112548828125,8.410975978079438,-0.9833145792737603,4.945600545671582
1758273837483070700,0.41007080078125,8.327135080832242,-1.030869965044409,5.076072845712304
1758273837493028600,0.420028564453125,8.219784128659963,-1.0691569525364786,5.2404614438802
1758273837502986800,0.42998681640625,8.088328078278899,-1.1028505478236823,5.434432110363245
1758273837512943900,0.43994384765625,7.931365246197581,-1.1351282118983566,5.654671775090694
1758273837522901800,0.44990185546875,7.752441342198848,-1.1718296837646514,5.890403607982397
1758273837532859600,0.459859619140625,7.557741192397475,-1.2181549432184546,6.129194828444719
1758273837542817500,0.469817626953125,7.346342421251535,-1.2778542827039956,6.3693585063040254
1758273837552774700,0.479774658203125,7.117594455897808,-1.3583644280932843,6.607955665498972
1758273837562732800,0.48973291015625,6.867817146518826,-1.4630384161412715,6.8456549990713595
1758273837572690700,0.499690673828125,6.598547785684466,-1.5941148195549846,7.077312129870057
1758273837582648800,0.50964892578125,6.319250367310643,-1.7479865537531674,7.292599725148081
1758273837592605700,0.519605712890625,6.0338452797114845,-1.9179424306593835,7.488964593291282
1758273837602563600,0.5295634765625,5.742662193232775,-2.0983657794356345,7.6674039286434645
1758273837612521700,0.539521728515625,5.442948594295978,-2.2839329208411274,7.831241907191276
1758273837622479600,0.549479736328125,5.134159123978018,-2.4719310887858272,7.981250682350993
1758273837632436700,0.559436767578125,4.82090069155246,-2.665412510447204,8.113252676177025
1758273837642395000,0.569394775390625,4.506657632003725,-2.869567301814258,8.22350344144404
1758273837652352500,0.5793525390625,4.19405357183367,-3.081299250437319,8.31179196574986
1758273837662310700,0.589310546875,3.8912852615013716,-3.290961407049,8.378415770736336
1758273837672267800,0.599267822265625,3.6102909760817883,-3.4855315007299184,8.425393795010446
1758273837682225700,0.6092255859375,3.355482686798274,-3.6596868751525875,8.456821198931335
1758273837692183800,0.619183837890625,3.124464730685949,-3.8234479890719055,8.472859310540557
1758273837702141700,0.6291416015625,2.9240836126387117,-3.9820927828907964,8.471307989445329
1758273837712098600,0.6390986328125,2.748754518261552,-4.131498915982246,8.45845493761301
1758273837722056700,0.649056640625,2.5793504300191996,-4.280275811259449,8.43780670185983
1758273837732014600,0.6590146484375,2.412941870331019,-4.434192699773609,8.407499241879583
1758273837741972700,0.66897265625,2.2416331175111233,-4.589936219193041,8.371258300197123
1758273837751929900,0.678929931640625,2.0782677249111234,-4.748184122648835,8.325017942547797
1758273837761887700,0.6888876953125,1.9298468034647405,-4.912363461980223,8.265275129246712
1758273837771845600,0.698845703125,1.796735240961611,-5.079022927689552,8.194245198255777
1758273837781803500,0.708803466796875,1.6879063251912594,-5.243153751704097,8.113611572617291
1758273837791760600,0.7187607421875,1.5872444953940807,-5.426933279040456,8.01245479891002
1758273837801718800,0.72871875,1.4824245230041444,-5.6307630762368435,7.890963677704334
1758273837811676700,0.7386767578125,1.366528153065592,-5.8251779793560505,7.769832037460803
1758273837821634800,0.748634765625,1.2406193615481256,-5.998141513645648,7.6585601124525065
1758273837831591700,0.758591796875,1.133296758687496,-6.179062728941441,7.530285614717006
1758273837841549600,0.768549560546875,1.0372976600043475,-6.380628088337183,7.374412915959954
1758273837851507700,0.7785078125,0.9316810573440044,-6.603104133814573,7.190365677598118
1758273837861465600,0.788465576171875,0.8179851931244134,-6.845600638535618,6.9741709043473
1758273837871422700,0.798422607421875,0.6833042624127119,-7.095058214440941,6.735251089069247
1758273837881380600,0.808380615234375,0.5293704592963681,-7.3358905853420495,6.486515397697687
1758273837891338500,0.81833837890625,0.38401992173865435,-7.561952088090777,6.2321589438349
1758273837901296600,0.828296630859375,0.26532422167146574,-7.770606528964638,5.976427694487572
1758273837911253800,0.838253662109375,0.2167689198769629,-7.953573570874333,5.732721813976764
1758273837921211600,0.848211669921875,0.26184635296044867,-8.107623145857453,5.510742027583718
1758273837931169800,0.858169677734375,0.29627703035054725,-8.24097596977055,5.307442391741276
1758273837941127700,0.868127685546875,0.2883912090041674,-8.35235661585033,5.130825595641136
1758273837951084500,0.87808447265625,0.2801025972768664,-8.441418462616205,4.983410344105959
1758273837961042700,0.888042724609375,0.3040706616351381,-8.512197049194574,4.860086746776104
1758273837971000600,0.89800048828125,0.352219446721673,-8.570849144649506,4.75256540647298
1758273837980958700,0.907958740234375,0.39761107858717437,-8.623408183926344,4.6528623387053605
1758273837990915800,0.917915771484375,0.43059016892947255,-8.663210617482662,4.575341876651346
1758273838000873500,0.92787353515625,0.4673121355945244,-8.67322756910622,4.552708896821737
1758273838010831600,0.93783154296875,0.49401028250381346,-8.66675691178739,4.562200655527413
1758273838020789500,0.94778955078125,0.5133417731026187,-8.653076761481165,4.585971991737186
1758273838030746600,0.95774658203125,0.54044963332396,-8.633328689438104,4.6199487878799435
1758273838040704800,0.967704833984375,0.5647118948558345,-8.620006851050258,4.6418706968307495
1758273838050662700,0.97766259765625,0.5623441428111866,-8.634853122526406,4.614484677255153
1758273838060620800,0.987620849609375,0.5017880403658375,-8.680565656909346,4.535014542438089
1758273838070578700,0.99757861328125,0.3728529598297551,-8.743587053489685,4.4250490238532425
1758273838080535600,1.00753564453125,0.19544543347703291,-8.80724733249545,4.308663409093022
1758273838090493700,1.01749365234375,-0.008094032153405714,-8.861770949843525,4.199922463867068
1758273838100451600,1.02745166015625,-0.19026600327882914,-8.907410418990255,4.097832793223858
1758273838110409700,1.03740966796875,-0.3151762852782383,-8.946270603260398,4.004410705421865
1758273838120366600,1.04736669921875,-0.351779995858483,-8.984139438405633,3.9155964036762714
1758273838130324500,1.057324462890625,-0.32404432259500027,-9.018916152754425,3.8372564419329165
1758273838140282600,1.06728271484375,-0.29454479973046105,-9.04626768553853,3.7747394877433775
1758273838150240800,1.07724072265625,-0.30881716204248366,-9.065690178889035,3.726697925890982
1758273838160197600,1.08719775390625,-0.3675218279348686,-9.079202571412921,3.6882796401694415
1758273838170155800,1.09715576171875,-0.4383282889008522,-9.08945800796747,3.655137249024212
1758273838180114000,1.107114013671875,-0.48458523235879836,-9.098339818081259,3.6270883816257116
1758273838190071600,1.117071533203125,-0.4960565475091338,-9.106140847221017,3.6059023857340216
1758273838200028700,1.127028564453125,-0.49066499066390096,-9.112384125524759,3.590830196547508
1758273838209986600,1.136986572265625,-0.4905670467147603,-9.117656512969731,3.5774352929234503
1758273838219944700,1.14694482421875,-0.5028163605002686,-9.122513889873026,3.5633258112892507
1758273838229902800,1.15690283203125,-0.5192914022220299,-9.127067315393687,3.549277704453468
1758273838239859500,1.166859375,-0.5309664597835392,-9.131369396501778,3.536463815587759
1758273838249817600,1.176817626953125,-0.537097948275879,-9.13539850588739,3.5251156153604386
1758273838259775700,1.186775634765625,-0.5432863911198452,-9.13910729727745,3.51453810724467
1758273838269733600,1.196733642578125,-0.5524260484522209,-9.142451347008347,3.5043969447195527
1758273838279691000,1.20669091796875,-0.5639719266761094,-9.145627054435014,3.494260166108608
1758273838289649000,1.21664892578125,-0.576629967392981,-9.148875242576002,3.4836750592082737
1758273838299607000,1.22660693359375,-0.5889406194442883,-9.152371267998218,3.472410153350234
1758273838309565200,1.236565185546875,-0.6003940701443702,-9.155784875833987,3.4614313709571958
1758273838319522000,1.24652197265625,-0.6106999217119068,-9.159034817540645,3.451016652187705
1758273838329480000,1.25647998046875,-0.6200096749141812,-9.162135121643542,3.4411139745935797
1758273838339438000,1.26643798828125,-0.6290529591999947,-9.1647163703084,3.4325884305715557
1758273838349396000,1.27639599609375,-0.6376470384135842,-9.16680077536702,3.42542832968384
1758273838359353000,1.28635302734375,-0.6438188589163124,-9.168920836260915,3.4185935152277347
1758273838369311000,1.29631103515625,-0.6461125228114426,-9.17150383849144,3.4112235709816217
1758273838379269000,1.30626904296875,-0.6451104330968112,-9.174684222093225,3.402847080041468
1758273838389227300,1.316227294921875,-0.6422734561052174,-9.178333976772427,3.39352775529325
1758273838399185000,1.326184814453125,-0.6378831121917814,-9.182223969948291,3.383821477054059
1758273838409142000,1.33614208984375,-0.6312515652228147,-9.186241388896107,3.374144717170298
1758273838419100200,1.34610009765625,-0.6226557324435561,-9.190485602337121,3.3641733582541344
1758273838429058000,1.35605810546875,-0.6126192724019288,-9.19498349827826,3.353707493819296
1758273838439016200,1.36601611328125,-0.6019122196223586,-9.19960765094757,3.342944400003552
1758273838448973000,1.37597314453125,-0.5914135854290798,-9.204277396324276,3.331948374214768
1758273838458931000,1.385930908203125,-0.5820700030224397,-9.208903302559255,3.3207936507329343
1758273838468889000,1.39588916015625,-0.5741016910243779,-9.213631500124931,3.3090462220549584
1758273838478847000,1.405846923828125,-0.5672414498660713,-9.218674170467256,3.296160729257762
1758273838488804000,1.41580419921875,-0.5612563475744798,-9.223858879628777,3.282657104562223
1758273838498762200,1.42576220703125,-0.5557560331251472,-9.229189134740828,3.26857217284739
1758273838508720000,1.43572021484375,-0.5511518637979402,-9.23452055889666,3.254262200205028
1758273838518678000,1.445677978515625,-0.5476405677413567,-9.239808143910766,3.2398142803966996
1758273838528635100,1.45563525390625,-0.5760448975140229,-9.2446859790802,3.220919318051636
1758273838538593000,1.465593017578125,-0.6742862586986273,-9.252697436100243,3.178573045231402
1758273838548551200,1.47555126953125,-0.8199217141449451,-9.266012260225414,3.1046982462033625
1758273838558509000,1.485509033203125,-0.9566161035709082,-9.286113383489846,3.0038895552814004
1758273838568467200,1.49546728515625,-1.038061045592278,-9.317491687572002,2.8770018357291818
1758273838578424000,1.505424072265625,-1.0595561804983764,-9.358900971803068,2.73105870257318
1758273838588382000,1.5153818359375,-1.0376500536385922,-9.400443527024985,2.593327517445385
1758273838598340000,1.525340087890625,-1.0074454695109278,-9.432458959966898,2.486797526267171
1758273838608298000,1.535298095703125,-0.9901659795384854,-9.450269341945647,2.4253593072250483
1758273838618255000,1.545255126953125,-0.9819348884183913,-9.454323001250625,2.4128742119222877
1758273838628213200,1.555213134765625,-0.9744790925197303,-9.446803127139805,2.4451342672750354
1758273838638171000,1.5651708984375,-0.9602571634870022,-9.42870749847889,2.519479021902382
1758273838648129000,1.57512890625,-0.9331159124527126,-9.400158864864707,2.633765326295793
1758273838658086100,1.585086181640625,-0.9422953903388231,-9.360451123854517,2.7684733642101285
1758273838668044000,1.5950439453125,-1.0349765966456383,-9.318230523240565,2.8757278702706097
1758273838678002200,1.605002197265625,-1.098181752295047,-9.315810018095373,2.8600846031978726
1758273838687960000,1.6149599609375,-1.1062393134791404,-9.359638638427853,2.7099422647863625
1758273838697917000,1.6249169921875,-1.093666612958163,-9.410867890405655,2.5317674255892633
1758273838707875000,1.634875,-1.1052619928795844,-9.44146059706807,2.4098918351106344
1758273838717833000,1.6448330078125,-1.1332558421552181,-9.455126718848943,2.3423672818921504
1758273838727791000,1.654791015625,-1.1537222916007042,-9.459152321103215,2.3159769953556357
1758273838737748200,1.664748291015625,-1.1627301392469553,-9.46108124333918,2.30356218881011
1758273838747705900,1.674705810546875,-1.1589095580454916,-9.465337147217989,2.2879500475279984
1758273838757664000,1.6846640625,-1.149700342608243,-9.466867425525187,2.28626896257326
1758273838767622000,1.694621826171875,-1.1550092626713215,-9.468716268262266,2.2759049510776994
1758273838777580000,1.704580078125,-1.1582580353341996,-9.471292256230115,2.263510310537368
1758273838787537200,1.714537109375,-1.1580447579097002,-9.473989240229129,2.2522961119532585
1758273838797495000,1.7244951171875,-1.162889056135714,-9.475818793743848,2.242078377060592
1758273838807453200,1.734453125,-1.1730093950685112,-9.47864846421182,2.2247794517353174
1758273838817411000,1.7444111328125,-1.1820982720617204,-9.483538574340939,2.1989802629597484
1758273838827368000,1.754367919921875,-1.1915135314650833,-9.489145308306812,2.1695206519804895
1758273838837326000,1.764326171875,-1.2099329852528868,-9.493636189985274,2.139467166761309
1758273838847284000,1.774283935546875,-1.2376048360325396,-9.496420267745853,2.1110953510187564
1758273838857242000,1.7842421875,-1.2719503193572164,-9.498190200027823,2.0825299124002457
1758273838867199000,1.794198974609375,-1.3133541967608033,-9.499139463576673,2.0522744748681783
1758273838877156900,1.804156982421875,-1.36262924593091,-9.49896059987843,2.0207352811358867
1758273838887115000,1.814114990234375,-1.4197947560898958,-9.497322769543528,1.9888314918749033
1758273838897073200,1.8240732421875,-1.488227071803063,-9.494030157738923,1.9542162516981363
1758273838907031000,1.834031005859375,-1.5713975224427879,-9.489089194205404,1.9126722351714966
1758273838916988200,1.84398828125,-1.6708488074064254,-9.481641800808905,1.864702715642005
1758273838926946000,1.853946044921875,-1.785375642557442,-9.471109885400534,1.8113167240217327
1758273838936904000,1.863904052734375,-1.9115959842421113,-9.456676286378503,1.7571140091910957
1758273838946862000,1.873862060546875,-2.0422524086780847,-9.438632680165767,1.7064071736522017
1758273838956819000,1.88381884765625,-2.168406699389219,-9.418114792793988,1.6635815928824245
1758273838966777000,1.893777099609375,-2.2838022801987825,-9.396018111798167,1.633860116096586
1758273838976735200,1.9037353515625,-2.3863218666918575,-9.373266766285896,1.6179362785167992
1758273838986693000,1.913693115234375,-2.4757737356886267,-9.351937562531232,1.6069278316378592
1758273838996650000,1.92364990234375,-2.5554285794228315,-9.333259165546297,1.5907479734703898
1758273839006608100,1.933608154296875,-2.6324434300422666,-9.317143897047638,1.5593112171992658
1758273839016566000,1.94356591796875,-2.713150413177907,-9.302870457023381,1.505261354842782
1758273839026524200,1.953524169921875,-2.7921239966496825,-9.290887173762917,1.433135006917268
1758273839036482000,1.96348193359375,-2.862179821911454,-9.281405644190311,1.3541830507554113
1758273839046439000,1.97343896484375,-2.9207550527378916,-9.273847776156664,1.2788117295593022
1758273839056397000,1.98339697265625,-2.96995659828037,-9.267053293710946,1.2130440299455076
1758273839066355000,1.99335498046875,-3.0132053728982804,-9.259626943102479,1.1620102274745703
1758273839076313000,2.00331298828125,-3.0529797494038937,-9.25033421410024,1.1318111963048576
1758273839086270200,2.013270263671875,-3.0880685984417795,-9.240131969037652,1.1199143492188304
1758273839096228000,2.02322802734375,-3.116029787556827,-9.230782541412115,1.1195577908661216
1758273839106186200,2.033186279296875,-3.136130618560314,-9.22345906665623,1.123770220929384
1758273839116143900,2.043143798828125,-3.150500796957314,-9.217775175800918,1.1302033957820385
1758273839126101000,2.05310107421875,-3.1602944612190127,-9.213625654906034,1.1366640431635082
1758273839136059100,2.06305908203125,-3.1655346999600527,-9.211232622289657,1.141494897386059
1758273839146017000,2.07301708984375,-3.1665643352687356,-9.21040435477197,1.145284937318787
1758273839155975200,2.08297509765625,-3.1631349453419446,-9.211081231120229,1.1493263947293162
1758273839165933000,2.09293310546875,-3.1555481434747574,-9.212877466887235,1.155770164041221
1758273839175890000,2.102889892578125,-3.1432240839526053,-9.215708306398987,1.1667417129758744
1758273839185848000,2.11284814453125,-3.1257617847591637,-9.219776578751206,1.1814010105125605
1758273839195806000,2.122805908203125,-3.1040666703015565,-9.224830939531326,1.1990385932076721
1758273839205764000,2.13276416015625,-3.0778847658187147,-9.230936855190992,1.2193456873729824
1758273839215721200,2.14272119140625,-3.0471926904350517,-9.238114199474454,1.2418586940847336
1758273839225679000,2.15267919921875,-3.0145363292410967,-9.245573283308744,1.2658275986932217
1758273839235637000,2.162636962890625,-2.982536093868315,-9.252502205789089,1.2907495662428439
1758273839245595000,2.172594970703125,-2.951429884725809,-9.258688785469532,1.317633189254254
1758273839255552000,2.182552001953125,-2.9197730559632182,-9.264356309711932,1.347961253631115
1758273839265510100,2.19251025390625,-2.886481027214229,-9.269998699513078,1.3804884354874492
1758273839275468000,2.202468017578125,-2.85057735466212,-9.276342515581845,1.4121226140268146
1758273839285425200,2.212425048828125,-2.812317474372685,-9.283591756057739,1.4408930736981331
1758273839295383300,2.22238330078125,-2.7740476572111246,-9.291260683250426,1.465436855585128
1758273839305340400,2.23234033203125,-2.740456645515561,-9.29830534106493,1.4838373124115167
1758273839315298300,2.24229833984375,-2.7175845962330696,-9.30335736375749,1.4942149140410124
1758273839325256400,2.25225634765625,-2.709072203953564,-9.305308497825264,1.4975108868464826
1758273839335214300,2.26221435546875,-2.7133348298341033,-9.304495427876711,1.4948418137677013
1758273839345171200,2.272171142578125,-2.726274975427985,-9.302234497207403,1.48535151636675
1758273839355129300,2.28212939453125,-2.7464742983698844,-9.299089184919,1.4677112302578985
1758273839365087200,2.292087158203125,-2.770822557684779,-9.295436507630347,1.4449169223867355
1758273839375045400,2.30204541015625,-2.7902427129477263,-9.292790961557627,1.4244219774991274
1758273839385002500,2.31200244140625,-2.7940692854985594,-9.293334566915036,1.413316353856027
1758273839394960400,2.32196044921875,-2.780679058049619,-9.297609760016202,1.4116200713321565
1758273839404918300,2.331918212890625,-2.760680810637772,-9.301960356441139,1.4221701069191097
1758273839414876200,2.341876220703125,-2.7460280159071084,-9.302229236510396,1.4485330670572816
1758273839424834300,2.351834228515625,-2.740486456131935,-9.29714740320146,1.491028685220331
1758273839434791400,2.36179150390625,-2.7394866314396262,-9.288367299896478,1.5465461359113455
1758273839444749300,2.371749267578125,-2.7338240756332874,-9.28006592001915,1.6052902935639022
1758273839454707500,2.38170751953125,-2.715399945670366,-9.275974851313233,1.6592966090396046
1758273839464665300,2.391665283203125,-2.6819144401758908,-9.277476488047837,1.7047398249618708
1758273839474622200,2.401622314453125,-2.63796686963886,-9.28379458515346,1.7385887569412588
1758273839484580400,2.411580322265625,-2.589376441732049,-9.293352102571726,1.7604354086987672
1758273839494538200,2.421538330078125,-2.5379846926689145,-9.304193814581632,1.7779283952914178
1758273839504496400,2.431496337890625,-2.481834350901842,-9.314684228935837,1.802092091819644
1758273839514454300,2.441454345703125,-2.4174101017862557,-9.323909153398871,1.8415362134575843
1758273839524411100,2.4514111328125,-2.3462882547281683,-9.330667980009316,1.8984065400622785
1758273839534369300,2.461369384765625,-2.2744445231363177,-9.33450419717133,1.965783355373144
1758273839544327200,2.4713271484375,-2.205764516272396,-9.335887175962329,2.03622262699455
1758273839554285300,2.481285400390625,-2.138132995548099,-9.335150093859433,2.11039860092625
1758273839564242400,2.491242431640625,-2.063586726999283,-9.333976373904942,2.188352778222412
1758273839574200300,2.501200439453125,-1.980403855269402,-9.333656640431284,2.2652207677170635
1758273839584158500,2.511158447265625,-1.8989315868496894,-9.33353330631256,2.334435465979576
1758273839594116000,2.5211162109375,-1.8232853942349552,-9.334414180800318,2.390551320955157
1758273839604074200,2.53107421875,-1.7586790665507315,-9.335559259182213,2.4340846116028723
1758273839614031400,2.54103125,-1.7051486980237065,-9.336514367949961,2.468266428798437
1758273839623989200,2.5509892578125,-1.6589504259504377,-9.33726489405632,2.4967528108313677
1758273839633947400,2.560947509765625,-1.615487716320902,-9.338547335082293,2.520342652994394
1758273839643905300,2.5709052734375,-1.570603595586121,-9.340016823112965,2.543167063742876
1758273839653862100,2.580862060546875,-1.52427424447909,-9.339771323919296,2.5720956365853547
1758273839663820300,2.5908203125,-1.4794954838149248,-9.33681656576693,2.608710672277212
1758273839673778200,2.600778076171875,-1.4383211773835123,-9.330540554237365,2.6537980604991316
1758273839683736300,2.610736328125,-1.3974040605835616,-9.322432651105522,2.7036811585649847
1758273839693693400,2.620693359375,-1.3549005513750016,-9.315327203014492,2.7494202886939045
1758273839703651000,2.630651123046875,-1.3102790270991622,-9.310252968490124,2.7879630775779485
1758273839713609200,2.640609130859375,-1.2670942576281725,-9.306206907969713,2.8212404932796953
1758273839723567400,2.6505673828125,-1.2261141585946083,-9.303842516925931,2.8470255073994397
1758273839733525200,2.660525146484375,-1.1843876981731503,-9.303788156390189,2.864813093024492
1758273839743482400,2.670482421875,-1.1434722618736326,-9.304549203890561,2.8789252050071954
1758273839753440300,2.680440185546875,-1.1003653068792074,-9.30290845094621,2.9009482362449166
1758273839763398400,2.6903984375,-1.0525902139432728,-9.298865897557139,2.9314693389758464
1758273839773356300,2.700356201171875,-1.0004350062269718,-9.293868819922208,2.9653859293639657
1758273839783313200,2.710313232421875,-0.9492527351960539,-9.288882263681291,2.9976565061107276
1758273839793271300,2.720271240234375,-0.9013581805989146,-9.284264540752767,3.026607875306904
1758273839803229400,2.7302294921875,-0.8576664845190942,-9.280372209489345,3.0511440584093332
1758273839813187300,2.740187255859375,-0.816031428708136,-9.277007116970418,3.072723729793727
1758273839823145500,2.7501455078125,-0.775798640910536,-9.274621683138609,3.0902953345805404
1758273839833102300,2.760102294921875,-0.7370750886321067,-9.273161547458171,3.1041259992733594
1758273839843060200,2.770060302734375,-0.6981088867042213,-9.271694397515057,3.1174875851497053
1758273839853018400,2.780018310546875,-0.6581134878590703,-9.269398980054259,3.132974784877896
1758273839862976300,2.789976318359375,-0.6166349377840757,-9.26645065164268,3.1500875399813055
1758273839872933400,2.799933349609375,-0.5751627809172496,-9.263209477764368,3.167421536619961
1758273839882891500,2.8098916015625,-0.5349284952823072,-9.259805806800722,3.1843717946380377
1758273839892849200,2.81984912109375,-0.49861565740741787,-9.256876767611503,3.1987478182539344
1758273839902807300,2.829807373046875,-0.4625460171712562,-9.25388050840497,3.212809076832235
1758273839912765200,2.83976513671875,-0.42348804530669,-9.250908214595913,3.2267239126771687
1758273839922722300,2.849722412109375,-0.386756324432604,-9.248301831489801,3.238788152219355
1758273839932680400,2.859680419921875,-0.3538483630977571,-9.24688670399487,3.2465809980526563
1758273839942638300,2.869638427734375,-0.3228573413001373,-9.247154415020345,3.2490427119910716
1758273839952596200,2.87959619140625,-0.2919541804490611,-9.24871684203148,3.2475212015122175
1758273839962553300,2.88955322265625,-0.2624267283979803,-9.251393952286243,3.2424139415010806
1758273839972511200,2.89951123046875,-0.2346403661268763,-9.254915696671604,3.234484025284648
1758273839982469400,2.909469482421875,-0.20694212053064256,-9.259386704605816,3.223561649253964
1758273839992427300,2.91942724609375,-0.17647678484125062,-9.264226545852422,3.211443049176037
1758273840002384100,2.929384033203125,-0.13851842651534824,-9.268515767478942,3.200913471855223
1758273840012342300,2.93934228515625,-0.09351851564748212,-9.27271672630012,3.1903561297446488
1758273840022300200,2.949300048828125,-0.046049881145101966,-9.277512143883108,3.1774259210228917
1758273840032258300,2.95925830078125,0.004194342421545298,-9.282683409041166,3.1626170589476823
1758273840042216200,2.96921630859375,0.059899223138927475,-9.287889745512604,3.146725954593718
1758273840052173300,2.97917333984375,0.12001993440827353,-9.292817265042663,3.1304207164809106
1758273840062131500,2.98913134765625,0.18059720750581473,-9.297807328414917,3.1126454058155417
1758273840072089000,2.999089111328125,0.2379778034538962,-9.303428090906143,3.0919200131729245
1758273840082047200,3.009047119140625,0.2912893963973969,-9.309916868403553,3.0677348354652523
1758273840092004400,3.01900439453125,0.342387569341436,-9.317100057905911,3.040526802805066
1758273840101962200,3.028962158203125,0.39557416593208905,-9.324639221239089,3.0108181855008005
1758273840111920400,3.03892041015625,0.4541148734344169,-9.331771557337046,2.9803049738153815
1758273840121878300,3.048878173828125,0.5189813864247873,-9.336865665605664,2.9536379161641
1758273840131836400,3.05883642578125,0.5891464442146942,-9.339462111839651,2.932186839595437
1758273840141793300,3.068793212890625,0.660567456882447,-9.339997533890605,2.915214954267442
1758273840151751200,3.078751220703125,0.7282878249339759,-9.33955855795145,2.9004531462043524
1758273840161709300,3.088709228515625,0.7879512163233011,-9.339942588832974,2.8835724462911485
1758273840171667500,3.09866748046875,0.8365055500034242,-9.34159152508378,2.8644916059851644
1758273840181624300,3.108624267578125,0.8765988562650978,-9.34390214011371,2.844903985200822
1758273840191582200,3.118582275390625,0.9125280285846441,-9.346041490229963,2.8265169723778962
1758273840201540400,3.128540283203125,0.9469770453490316,-9.34828605428636,2.807699166922271
1758273840211498200,3.138498291015625,0.9776080381952226,-9.350577380093931,2.7895126451075076
1758273840221456400,3.148456298828125,0.9969739790529012,-9.354414181777834,2.769722487488389
1758273840231413200,3.158413330078125,0.9981821857988834,-9.360935107979177,2.7471640341997143
1758273840241371400,3.168371337890625,0.9800296393189578,-9.369732746940851,2.7236113091766834
1758273840251329300,3.178329345703125,0.9392045847166329,-9.379540439727903,2.7041663117334247
1758273840261287200,3.188287109375,0.8729084773145616,-9.388960594502091,2.6936639146804806
1758273840271244300,3.198244384765625,0.7853450524128973,-9.399824518343806,2.68270792864114
1758273840281203000,3.208202880859375,0.6747097448077053,-9.413012501218914,2.6665248556032775
1758273840291160800,3.218160888671875,0.5363836259940639,-9.42732451968789,2.6473084062188863
1758273840301119000,3.228118896484375,0.3724793772770092,-9.44103214252293,2.626510240601003
1758273840311076900,3.238076904296875,0.18589178851628674,-9.452871633398532,2.603661864455044
1758273840321034000,3.248033935546875,-0.02250810220777057,-9.4622760060817,2.575888306866586
1758273840330991900,3.257991943359375,-0.24931124450350178,-9.468803362023829,2.539681559714675
1758273840340950000,3.267949951171875,-0.4893920846512541,-9.471924708914756,2.492690383698046
1758273840350908200,3.277908203125,-0.7390652395360171,-9.471270044398308,2.4329420174390077
1758273840360864800,3.28786474609375,-0.9969896880786865,-9.466721879574656,2.3574511615164577
1758273840370823000,3.297822998046875,-1.2642534812442958,-9.457475327801705,2.264562888330221
1758273840380781000,3.307781005859375,-1.5367570016942917,-9.442180143514275,2.1573105742268264
1758273840390739000,3.317739013671875,-1.8037943656928836,-9.420603687000273,2.0418024729534983
1758273840400697000,3.327697021484375,-2.0587997849836945,-9.393332233715057,1.922768681772053
1758273840410654000,3.337654052734375,-2.298849481074512,-9.361121570461988,1.8041838034018873
1758273840420611800,3.34761181640625,-2.524287883488834,-9.325454044753313,1.6835273794546723
1758273840430570000,3.357570068359375,-2.7321576037257906,-9.289871274718642,1.5504817217946052
1758273840440528000,3.36752783203125,-2.9235736172899602,-9.255154766124486,1.4018608938619495
1758273840450485000,3.377485107421875,-3.104638624970615,-9.218841343727707,1.242819501940906
1758273840460443100,3.387443115234375,-3.2750445837318893,-9.18114435801804,1.0728924858029931
1758273840470400800,3.39740087890625,-3.4314456902772186,-9.142934746611118,0.8957356645420194
1758273840480359000,3.40735888671875,-3.5845196982264516,-9.10074395661354,0.7057331710375845
1758273840490316800,3.41731689453125,-3.7543025566533204,-9.04583806194961,0.49841176886577154
1758273840500274000,3.42727392578125,-3.9508971418991683,-8.97110752287507,0.2828747471376322
1758273840510232000,3.437232177734375,-4.166682165305316,-8.877117572057246,0.07729630704247392
1758273840520190000,3.44718994140625,-4.388879393841326,-8.76912656841576,-0.10282257889448665
1758273840530148000,3.457148193359375,-4.609244730775058,-8.652496331244707,-0.24409106216980142
1758273840540105000,3.46710498046875,-4.8182890477493405,-8.534651457586884,-0.3379385175107047
1758273840550062800,3.477062744140625,-4.993352476927638,-8.43072288107872,-0.3996159521361813
1758273840560021000,3.48702099609375,-5.126204365581274,-8.34823281391859,-0.44655335213895886
1758273840569979000,3.496978759765625,-5.231899951761961,-8.280269869282842,-0.48454837094713
1758273840579936000,3.50693603515625,-5.329145689505339,-8.214914476796984,-0.534570731353201
1758273840589894000,3.516893798828125,-5.438136810100079,-8.138454337450861,-0.6021766061795875
1758273840599851800,3.526851806640625,-5.554952340710162,-8.050922768992185,-0.7039541786663234
1758273840609810000,3.536809814453125,-5.667427211767435,-7.956288675051927,-0.8649326030645519
1758273840619767800,3.546767822265625,-5.779508699592948,-7.850473261883854,-1.0666306489292532
1758273840629725000,3.556724853515625,-5.88670533798635,-7.739922052365541,-1.2691279554128647
1758273840639683000,3.56668310546875,-5.975522270080447,-7.639032989683747,-1.452138251942396
1758273840649641000,3.576640869140625,-6.039013037738203,-7.554659592995047,-1.6210576254077256
1758273840659598800,3.586598876953125,-6.082137309193611,-7.486801277777552,-1.7679858240783213
1758273840669556000,3.596555908203125,-6.115061089152097,-7.431158301010727,-1.8852884075529872
1758273840679513900,3.606513916015625,-6.143160809955001,-7.383622058331966,-1.978401283275336
1758273840689472000,3.616471923828125,-6.1659250149488445,-7.341339498397708,-2.06313036153391
1758273840699430000,3.626429931640625,-6.182183491310477,-7.303916653454303,-2.1456385488726197
1758273840709388000,3.636387939453125,-6.193021111667156,-7.271387425771355,-2.223460185830295
1758273840719345000,3.646344970703125,-6.200712250691652,-7.243745385608077,-2.2912220549359916
1758273840729302800,3.656302734375,-6.204963478395342,-7.222148470827936,-2.3472106302700935
1758273840739261000,3.666260986328125,-6.203872760549188,-7.2095134456604715,-2.3885708146624265
1758273840749218800,3.67621875,-6.1974015187084674,-7.207155484357476,-2.4123691850095987
1758273840759176000,3.686176025390625,-6.188410987523198,-7.214114217454195,-2.4146453132480383
1758273840769134000,3.696134033203125,-6.177763336780667,-7.23150315915048,-2.389759001533687
1758273840779091700,3.706091796875,-6.166686062449217,-7.259098437562584,-2.334063271666318
1758273840789049900,3.7160498046875,-6.155773623290657,-7.296908235996961,-2.243204312350601
1758273840799008000,3.726008056640625,-6.14368395704627,-7.344509360605477,-2.117481398794055
1758273840808964900,3.73596484375,-6.127322604832053,-7.400237093046307,-1.9653858804881572
1758273840818923000,3.745923095703125,-6.10276450215876,-7.461926948761939,-1.801766366996616
1758273840828881200,3.755881103515625,-6.066674951645732,-7.5276429912537335,-1.6433008752673863
1758273840838838800,3.7658388671875,-6.018850539675355,-7.595068175750971,-1.5029165452823041
1758273840848796000,3.7757958984375,-5.959654838863015,-7.662046785524487,-1.394957398083806
1758273840858753800,3.78575390625,-5.8948114875525235,-7.722998974615335,-1.3330066994749008
1758273840868712000,3.7957119140625,-5.839233977237344,-7.766397971358895,-1.325442840091884
1758273840878670000,3.805670166015625,-5.808021677371859,-7.783613310053944,-1.3611078815825284
1758273840888628000,3.8156279296875,-5.799145127955079,-7.783690466943383,-1.398012109479308
1758273840898584800,3.825584716796875,-5.786151206347346,-7.796857407030463,-1.3783409020647406
1758273840908543000,3.83554296875,-5.757099883908033,-7.834812166893482,-1.2813659440867602
1758273840918500900,3.8455009765625,-5.714398806300759,-7.887998982679844,-1.1382043314080685
1758273840928459000,3.855458984375,-5.642938667199015,-7.958996764966845,-0.9909471930440514
1758273840938416000,3.865416015625,-5.568876821166277,-8.022914818125964,-0.8893065082773566
1758273840948374000,3.8753740234375,-5.506528793802857,-8.070857303518057,-0.8425132659856229
1758273840958332000,3.885331787109375,-5.43940229999125,-8.11851863388121,-0.8203370169475674
1758273840968289800,3.895289794921875,-5.360768323737383,-8.173490579518676,-0.7915610773835331
1758273840978247000,3.905246826171875,-5.270236404418945,-8.23774882441759,-0.7310751175649464
1758273840988205000,3.915205078125,-5.172124405235052,-8.306911792492865,-0.6439861783072353
1758273840998163000,3.925162841796875,-5.073968566909432,-8.373686404126882,-0.5537098411850631
1758273841008121000,3.93512109375,-4.9765714379966255,-8.43741565671563,-0.46278059311211106
1758273841018079000,3.945078857421875,-4.878030984267592,-8.499401865029334,-0.3678740023734048
1758273841028035800,3.955035888671875,-4.779960778398811,-8.558576523053645,-0.2703666545517742
1758273841037994000,3.964993896484375,-4.670099012449383,-8.621264157634974,-0.18547794701838866
1758273841047952000,3.974951904296875,-4.544928910470008,-8.689133578768372,-0.1137528368375264
1758273841057910000,3.984909912109375,-4.411281779785454,-8.758393577477335,-0.03899490743256174
1758273841067867100,3.9948671875,-4.270710695056617,-8.827779832914471,0.04156884500721935
1758273841077824800,4.00482470703125,-4.128580690447986,-8.894375580850243,0.12368000955209135
1758273841087783000,4.014782958984375,-3.9877880719229575,-8.956872661295533,0.20578069380214437
1758273841097740800,4.02474072265625,-3.8473108029574155,-9.015846243789792,0.28828723717303945
1758273841107698000,4.034697998046875,-3.705721773357689,-9.071990155816078,0.37017241550888863
1758273841117656000,4.044656005859375,-3.56024041249454,-9.126485131591558,0.449793503103964
1758273841127614000,4.054614013671875,-3.413668041524291,-9.178433345493675,0.5230733684461564
1758273841137571800,4.06457177734375,-3.268877585534751,-9.226684458443522,0.5942607915537431
1758273841147529700,4.07452978515625,-3.122648328913748,-9.271800780498982,0.6731722330421209
1758273841157486800,4.08448681640625,-2.9688430840805173,-9.315207376027107,0.7637184731468558
1758273841167445000,4.094445068359375,-2.8017259377315638,-9.358012498530744,0.8650543297480792
1758273841177403000,4.10440283203125,-2.616665138413012,-9.400847431650757,0.9734229345303028
1758273841187361000,4.114361083984375,-2.412573475410044,-9.442847667512297,1.0874180739574133
1758273841197318000,4.12431787109375,-2.198067239768058,-9.480821132075786,1.2053577132266013
1758273841207275800,4.13427587890625,-1.9894557612530885,-9.511832940933107,1.318135731948912
1758273841217234000,4.14423388671875,-1.8053182142592965,-9.534483748680353,1.4159170378737151
1758273841227191800,4.15419189453125,-1.6534297628328203,-9.549128360104561,1.5002417731150983
1758273841237149000,4.16414892578125,-1.5264773074813187,-9.558349192914367,1.5742283619545399
1758273841247107000,4.174107177734375,-1.41103554944247,-9.565451718395948,1.6375336900427937
1758273841257064700,4.184064697265625,-1.2947891970224679,-9.573122399154306,1.687969307424873
1758273841267022800,4.19402294921875,-1.1769291257955132,-9.582262567943333,1.7220622772932053
1758273841276981000,4.20398095703125,-1.0654918541576712,-9.592265491041541,1.7388453620508313
1758273841286937000,4.21393701171875,-0.9681845224201678,-9.601918870049715,1.7424556615024804
1758273841296895000,4.22389501953125,-0.8909531795058399,-9.611584524017571,1.7303277090743183
1758273841306853000,4.23385302734375,-0.8320026125609874,-9.619954292955994,1.7130743764564393
1758273841316811000,4.24381103515625,-0.7802409342069179,-9.626913026052712,1.6982799812979996
1758273841326768000,4.25376806640625,-0.7251706427615136,-9.633872928193211,1.6831586922727524
1758273841336726000,4.26372607421875,-0.6688889296997338,-9.64044003162384,1.6687945052251218
1758273841346684000,4.273683837890625,-0.6114220985066146,-9.645428341430424,1.6619968079090117
1758273841356642000,4.28364208984375,-0.5462122519712895,-9.64925988241732,1.6624696861177681
1758273841366600000,4.293599853515625,-0.4763556756086647,-9.652888594308495,1.6628890805736183
1758273841376557000,4.30355712890625,-0.4178856587223708,-9.657021748590468,1.6545912078276275
1758273841386515200,4.31351513671875,-0.3820415343377739,-9.6622228243649,1.6327568310298024
1758273841396473000,4.32347314453125,-0.36906861898545174,-9.66884311928749,1.5961352194666862
1758273841406431000,4.333430908203125,-0.3684858141288161,-9.676869773876666,1.546873906560987
1758273841416388000,4.34338818359375,-0.3647046150896698,-9.684834469145535,1.497121741398424
1758273841426346000,4.353345947265625,-0.3432815225064754,-9.69098305490315,1.4619804315209388
1758273841436304100,4.36330419921875,-0.29672479238435623,-9.69452467303276,1.4486327280394733
1758273841446262000,4.373261962890625,-0.22536128205750136,-9.69483914580941,1.4593540285401045
1758273841456219000,4.383218994140625,-0.1388464072275441,-9.692785135889054,1.4835814379543064
1758273841466177000,4.393177001953125,-0.05358262387064751,-9.690109779199958,1.5064198772281407
1758273841476135000,4.403135009765625,0.018792778328934216,-9.68809142511487,1.5201755769886076
1758273841486093000,4.413093017578125,0.079092095284909,-9.687616793340444,1.5212486130475997
1758273841496051200,4.42305126953125,0.13167592194313182,-9.689280342638492,1.5069516460172832
1758273841506008000,4.433008056640625,0.16951708363015203,-9.693311790111661,1.4769405386351049
1758273841515966000,4.442966064453125,0.17870282686026767,-9.699134797176718,1.4370939736761152
1758273841525923800,4.452923828125,0.15380002066884188,-9.705755092099308,1.3946546157449482
1758273841535882000,4.462882080078125,0.10451398431384004,-9.711928812298178,1.3556962317973376
1758273841545839000,4.472839111328125,0.04672121366856154,-9.716190561395884,1.328097592384368
1758273841555797000,4.482796875,-0.01210667103647138,-9.717982705509662,1.3156946224071084
1758273841565755100,4.492755126953125,-0.0797768170129042,-9.718318805596232,1.310833153850585
1758273841575713300,4.50271337890625,-0.17558372672535477,-9.71828490332663,1.3017229418084024
1758273841585670000,4.512669921875,-0.31229985305909064,-9.718181442952156,1.27662897869274
1758273841595628000,4.5226279296875,-0.4886274934869259,-9.71705156213939,1.2290429055228829
1758273841605586200,4.532586181640625,-0.6981736225035041,-9.71308265850842,1.1571454709824174
1758273841615544000,4.5425439453125,-0.9366617683660239,-9.704212538832426,1.0589067036136983
1758273841625501200,4.552501220703125,-1.2022975219383836,-9.687708563277125,0.9344427771423012
1758273841635459000,4.562458984375,-1.4895758560635148,-9.660573303592205,0.7904934481520205
1758273841645417000,4.5724169921875,-1.7879226966917514,-9.621500937876105,0.6328064665146171
1758273841655375000,4.582375,-2.0907418604284524,-9.569886485973,0.46524051695223895
1758273841665333000,4.5923330078125,-2.3915111058980223,-9.505864387917518,0.29928958310475573
1758273841675290000,4.6022900390625,-2.6746546783059832,-9.433638525140285,0.15180226184721105
1758273841685248300,4.612248291015625,-2.9270564909696577,-9.359574925541876,0.03272542154190596
1758273841695206100,4.6222060546875,-3.1490055899634957,-9.28709538026452,-0.06341420442336239
1758273841705164000,4.6321640625,-3.358253320555389,-9.212541951322555,-0.14687329927873796
1758273841715121200,4.64212109375,-3.5597269100144504,-9.134747933024167,-0.23485917824301866
1758273841725079000,4.6520791015625,-3.7528798303738236,-9.053700465887784,-0.34180545860454437
1758273841735037200,4.662037109375,-3.95055811920315,-8.963968172514438,-0.4590718017220497
1758273841744995000,4.6719951171875,-4.155085251013935,-8.863929004660248,-0.5800383145317435
1758273841754952000,4.681951904296875,-4.369828656412661,-8.751266502076387,-0.7002135308332741
1758273841764910000,4.69191015625,-4.589359588348866,-8.62714503236711,-0.8249134580176323
1758273841774868000,4.701867919921875,-4.7833182721331715,-8.506843413206935,-0.9611662411559373
1758273841784826000,4.711826171875,-4.928277654948831,-8.406893092679978,-1.0984737940441816
1758273841794783200,4.721783203125,-5.036424141412973,-8.325821075624226,-1.218817717976123
1758273841804741000,4.7317412109375,-5.139772872206568,-8.246560491904615,-1.3218912850901483
1758273841814699000,4.741698974609375,-5.261889431834221,-8.152863971075416,-1.4190532900728285
1758273841824657000,4.751656982421875,-5.398775106048584,-8.043595202583074,-1.5245157981500028
1758273841834614000,4.761614013671875,-5.54119386447072,-7.918616823783516,-1.6616517938636242
1758273841844572200,4.771572265625,-5.693181830748915,-7.770408960565924,-1.838149055237323
1758273841854530000,4.781530029296875,-5.845578962349891,-7.607514400348067,-2.031087748324126
1758273841864488200,4.79148828125,-5.976227788001299,-7.453604526096582,-2.213332321178168
1758273841874445000,4.801445068359375,-6.073824823400378,-7.326255326512456,-2.367486963970959
1758273841884403000,4.81140283203125,-6.143160225433111,-7.227605567190051,-2.4887092051073907
1758273841894361000,4.821361083984375,-6.184646082031726,-7.1548542192339895,-2.5939570475205778
1758273841904319000,4.831319091796875,-6.212609609234333,-7.0998448641955845,-2.6769533106371757
1758273841914277000,4.841277099609375,-6.239557237392663,-7.058959896099567,-2.7220237477242946
1758273841924234200,4.851234130859375,-6.261653918388485,-7.029716850480437,-2.74683670194149
1758273841934191900,4.86119189453125,-6.279966404670477,-7.005121338406204,-2.767792103947699
1758273841944150000,4.87114990234375,-6.2991328774332995,-6.9828960625946515,-2.7803704304918644
1758273841954108000,4.88110791015625,-6.320465003797412,-6.963604502147436,-2.780358155532181
1758273841964065000,4.89106494140625,-6.342692617696524,-6.951223744001984,-2.760639601844549
1758273841974023200,4.901023193359375,-6.362607278478145,-6.94945848789513,-2.718937472146749
1758273841983981000,4.91098095703125,-6.376199750500917,-6.960243501281738,-2.6588448224946855
1758273841993939200,4.920939208984375,-6.38270314104557,-6.983586382946371,-2.580882461892068
1758273842003896000,4.93089599609375,-6.382229093793034,-7.018369527035952,-2.485973058141768
1758273842013854000,4.94085400390625,-6.372262411051988,-7.063714981672168,-2.3808878589443863
1758273842023812000,4.95081201171875,-6.349688760194182,-7.117344865050912,-2.2793106678679584
1758273842033770000,4.96077001953125,-6.312507322791219,-7.176444119751453,-2.195738650690019
1758273842043727000,4.97072705078125,-6.260576644545793,-7.237737085103988,-2.1426021037861704
1758273842053685000,4.98068505859375,-6.194920223286748,-7.297658762103318,-2.130145942316949
1758273842063643000,4.990642822265625,-6.1200587513089175,-7.352068982204795,-2.1592434419855473
1758273842073601000,5.00060107421875,-6.038185939264297,-7.404602887040376,-2.2096463261418045
1758273842083558100,5.01055810546875,-5.948340248644351,-7.467650002583861,-2.2409531724229454
1758273842093516000,5.02051611328125,-5.868976789072156,-7.539047013321518,-2.210944403128326
1758273842103474200,5.03047412109375,-5.83594078091085,-7.5886553860992185,-2.1270830476149913
1758273842113432000,5.04043212890625,-5.823876833629607,-7.624532755166292,-2.0296074466384946
1758273842123389000,5.050388916015625,-5.770941946777701,-7.6787068284243345,-1.975876587103307
1758273842133347000,5.06034716796875,-5.672672126683593,-7.73897278881669,-2.024714267769456
1758273842143305000,5.070304931640625,-5.597580937603116,-7.795424159356951,-2.0171325804688034
1758273842153263000,5.08026318359375,-5.538243782493471,-7.8748297045052045,-1.8668962801635265
1758273842163220200,5.09022021484375,-5.467684391623735,-7.97023302925229,-1.6583594743199646
1758273842173177900,5.100177734375,-5.384013005724549,-8.058210587912798,-1.499330795750022
1758273842183136000,5.110135986328125,-5.293025743854045,-8.126923474133013,-1.4516723879963158
1758273842193094000,5.120093994140625,-5.203177130624652,-8.181288686048983,-1.4710174321964382
1758273842203051000,5.130051025390625,-5.111930341035127,-8.242183007472754,-1.4508508424803614
1758273842213009200,5.140009033203125,-5.009085468110442,-8.323642562541366,-1.3403082546599208
1758273842222967000,5.149967041015625,-4.887053664156794,-8.422408641719818,-1.1619492910675704
1758273842232925000,5.159925048828125,-4.750419334354996,-8.524076872080563,-0.9716264795675873
1758273842242882000,5.169882080078125,-4.61086385640949,-8.617553028157353,-0.8050579800773412
1758273842252840000,5.17983984375,-4.478737359420955,-8.69864667252302,-0.6669578155066818
1758273842262798000,5.189798095703125,-4.350752492281794,-8.771735874131322,-0.5458616484353318
1758273842272756200,5.199756103515625,-4.221046792699396,-8.841115115305781,-0.43339861394632606
1758273842282713300,5.20971337890625,-4.087803566640615,-8.908028258627652,-0.32752573496997356
1758273842292671500,5.21967138671875,-3.9519446051254867,-8.972292348745464,-0.2246452427426353
1758273842302629000,5.229629150390625,-3.8137773666679857,-9.03379048128128,-0.1270287354581058
1758273842312587300,5.239587158203125,-3.674770754776895,-9.092023474541305,-0.03908184593049809
1758273842322544400,5.24954443359375,-3.5333959524497387,-9.147888569626211,0.040459970449865795
1758273842332502300,5.259502197265625,-3.3883182039514184,-9.202019972786307,0.11177903428021818
1758273842342460400,5.26946044921875,-3.239142372484505,-9.254598885807395,0.17534666656646877
1758273842352418300,5.279418212890625,-3.086105773936212,-9.30557737789452,0.2292963016851805
1758273842362375200,5.289375244140625,-2.9319261428326366,-9.354064053165912,0.2751242060760967
1758273842372333300,5.299333251953125,-2.7797321325883266,-9.399065224409103,0.31791155546102673
1758273842382291200,5.309291259765625,-2.630628197313845,-9.440299736595152,0.36185748203024265
1758273842392249300,5.319249267578125,-2.481639997373521,-9.478474861210584,0.41275253361761566
1758273842402206500,5.32920654296875,-2.330565346547961,-9.513875260415674,0.47439120713528243
1758273842412164400,5.339164306640625,-2.180029917165637,-9.54571650583446,0.5451486413277685
1758273842422122200,5.349122314453125,-2.0346606383748354,-9.573106032541393,0.6214230488434433
1758273842432080400,5.359080322265625,-1.8896933645136653,-9.597411621758342,0.6993904509473592
1758273842442037200,5.369037353515625,-1.739548103492707,-9.619356911584735,0.7825175008367746
1758273842451995400,5.378995361328125,-1.5864847630679606,-9.638583005580305,0.8667170022632926
1758273842461953300,5.388953369140625,-1.4405704176150262,-9.654498367592693,0.9411809993561356
1758273842471911400,5.398911376953125,-1.3145239711925387,-9.666393388047814,1.001636637101695
1758273842481868300,5.408868408203125,-1.2094712129600345,-9.675292733818292,1.0470336027294396
1758273842491826200,5.418826171875,-1.120263893308863,-9.682834235239028,1.076165077732876
1758273842501784300,5.428784423828125,-1.045090505837649,-9.689328857955337,1.093195999771729
1758273842511742500,5.438742431640625,-0.9765000769533216,-9.694955465665458,1.1066583426088095
1758273842521699300,5.44869921875,-0.9047776336535811,-9.700483289176224,1.11910120620504
1758273842531657500,5.458657470703125,-0.8302440053906291,-9.705969027110934,1.1292577854949981
1758273842541615400,5.468615478515625,-0.7574475031185894,-9.711061966335773,1.1366302139591424
1758273842551573200,5.4785732421875,-0.6891779036864638,-9.716115742594003,1.1369012129202485
1758273842561530400,5.4885302734375,-0.6276120396766811,-9.721443075096607,1.126958641707152
1758273842571488300,5.49848828125,-0.5733355654900893,-9.726922383290528,1.1084539207886903
1758273842581446400,5.5084462890625,-0.5257245405420661,-9.732357852342725,1.0840711016170679
1758273842591404500,5.518404541015625,-0.48358895133044566,-9.737502814015745,1.0571521150313317
1758273842601361200,5.528361083984375,-0.44238275192342696,-9.742404614582657,1.029691276653856
1758273842611319300,5.5383193359375,-0.40125579176507886,-9.74706150047779,1.0020857691086829
1758273842621277400,5.54827734375,-0.3615864465365186,-9.751038587415218,0.9782130183510481
1758273842631235300,5.5582353515625,-0.317129099846445,-9.75384838413894,0.9655501553285867
1758273842641192400,5.5681923828125,-0.25943200356140733,-9.75537983148992,0.9672915921684354
1758273842651150300,5.578150390625,-0.1883122936614789,-9.755726452970505,0.980170728290081
1758273842661108200,5.588108154296875,-0.10991447338419966,-9.754927411547303,0.9998419357046484
1758273842671065300,5.5980654296875,-0.032229742412874476,-9.7534427259475,1.0196646073538809
1758273842681023200,5.608023193359375,0.03515037681664107,-9.751912447640299,1.0340978410497308
1758273842690981400,5.6179814453125,0.08544437778792344,-9.750711839678884,1.042441306503117
1758273842700939500,5.627939453125,0.11931133861434645,-9.75021382702887,1.0437846839360891
1758273842710896000,5.637896240234375,0.142656750162784,-9.750728790813683,1.0360096660204232
1758273842720854300,5.647854248046875,0.1557818604021333,-9.75265537496209,1.0157970452055334
1758273842730812400,5.6578125,0.14929311943734064,-9.756023974612354,0.9839183903858065
1758273842740770300,5.667770263671875,0.11526352452826685,-9.760458742189407,0.9436865524362772
1758273842750727400,5.6777275390625,0.054765929070813575,-9.764869544368981,0.9026057695072144
1758273842760685600,5.687685546875,-0.018181326191482366,-9.768272046288848,0.8665389422826468
1758273842770643200,5.697643310546875,-0.08402925942614674,-9.770615979066491,0.8356845159441232
1758273842780601300,5.707601318359375,-0.1419208371036686,-9.772328043681382,0.8073735635433346
1758273842790558500,5.717558349609375,-0.21795730767762286,-9.77363737271428,0.7738910537235438
1758273842800516400,5.727516357421875,-0.34037549886666235,-9.773908590871095,0.7247338587794453
1758273842810474500,5.737474609375,-0.519249207048118,-9.771215698525308,0.6512384144578128
1758273842820432400,5.747432373046875,-0.7431775702256709,-9.76321300933361,0.5456452292056754
1758273842830389200,5.75738916015625,-0.9768270438853651,-9.74889046947062,0.41869810761641707
1758273842840347400,5.767347412109375,-1.219874752748385,-9.726110482385755,0.29166360000465064
1758273842850305300,5.77730517578125,-1.4752335885867476,-9.693637368804216,0.16569357981923966
1758273842860263400,5.787263427734375,-1.737368567496538,-9.651465868028998,0.03377117230175063
1758273842870220500,5.797220458984375,-2.0046220584638417,-9.598987492772936,-0.1063897881230805
1758273842880178400,5.807178466796875,-2.2678001166857777,-9.53758522182703,-0.24883891428401692
1758273842890136300,5.81713623046875,-2.514318570399284,-9.471605559962986,-0.37053083702512085
1758273842900093400,5.827093505859375,-2.7429809032961723,-9.40380861954391,-0.4634659450277686
1758273842910051300,5.83705126953125,-2.95914002071172,-9.333575391888617,-0.5461202628389
1758273842920009500,5.847009521484375,-3.1656112723276015,-9.260072348782419,-0.6327333282131702
1758273842929967400,5.85696728515625,-3.366453578145802,-9.181485134279727,-0.7333057261612266
1758273842939924200,5.86692431640625,-3.5704432420790195,-9.094125415256618,-0.8480783527668565
1758273842949882400,5.87688232421875,-3.7768674396827815,-8.997104133918882,-0.9786507521811872
1758273842959840300,5.88684033203125,-3.969092723803222,-8.895112078431248,-1.1373950608517973
1758273842969798400,5.89679833984375,-4.15300552213043,-8.785448757663369,-1.3186515725165604
1758273842979755500,5.906755615234375,-4.342842449809611,-8.660967222470045,-1.5158410549156367
1758273842989713400,5.91671337890625,-4.552980407239496,-8.513257371902466,-1.7219874584913253
1758273842999671600,5.926671630859375,-4.767474221791327,-8.351042610642313,-1.9239745504304766
1758273843009628400,5.93662841796875,-4.951003281497955,-8.201970239549874,-2.094185278880596
1758273843019586300,5.94658642578125,-5.083738265773654,-8.087853446504473,-2.216448991893977
1758273843029544400,5.95654443359375,-5.184217578610777,-8.001941588202119,-2.294157962257415
1758273843039502300,5.96650244140625,-5.273371779835224,-7.928831928327679,-2.344266978033632
1758273843049459500,5.97645947265625,-5.362039658847451,-7.855344082790613,-2.390077127572149
1758273843059417300,5.986417236328125,-5.4613084268510335,-7.770452215185761,-2.442251405315101
1758273843069375200,5.996375244140625,-5.575941937246919,-7.666551695728302,-2.510633452145755
1758273843079333400,6.00633349609375,-5.704060367637872,-7.538892699542641,-2.6075290612772104
1758273843089290500,6.01629052734375,-5.823110525432229,-7.396531224265694,-2.748291284663975
1758273843099248400,6.026248291015625,-5.92105710492134,-7.24903589323163,-2.926252773371339
1758273843109206500,6.03620654296875,-5.9914925771504635,-7.111702475249767,-3.113853028039634
1758273843119164200,6.0461640625,-6.030528117987513,-7.00475776579082,-3.276657279625535
1758273843129121300,6.056121337890625,-6.052302142900228,-6.931818786308169,-3.3896813089981674
1758273843139079400,6.066079345703125,-6.069899174389243,-6.880431713420152,-3.462130459137261
1758273843149037300,6.076037353515625,-6.085912151557206,-6.842891379576921,-3.5081235640272497
1758273843158994400,6.085994384765625,-6.102669225090742,-6.813758224073052,-3.5356089523240923
1758273843168952300,6.095952392578125,-6.12124883787632,-6.793342628031969,-3.5427658383414147
1758273843178910200,6.10591015625,-6.144196582743525,-6.783536688810586,-3.5217668894544243
1758273843188868400,6.115868408203125,-6.169730252450704,-6.787096427118778,-3.4698914485275743
1758273843198825500,6.125825439453125,-6.19515812369585,-6.803546042138338,-3.391483097723126
1758273843208783400,6.135783447265625,-6.2172057048529386,-6.831253548753261,-3.2940441754952072
1758273843218741500,6.145741455078125,-6.233571733242273,-6.8684098517149685,-3.1840038381084796
1758273843228699400,6.155699462890625,-6.241918121305107,-6.914259164220094,-3.066253949257731
1758273843238656300,6.16565625,-6.238157307466865,-6.968424469649792,-2.949047958025336
1758273843248614400,6.175614501953125,-6.218799111524224,-7.030948438102007,-2.839482836934924
1758273843258572300,6.185572265625,-6.180478440958261,-7.1021215769559145,-2.7444357782796023
1758273843268529400,6.195529296875,-6.119798054546117,-7.181703647714853,-2.6723785500675437
1758273843278487600,6.205487548828125,-6.037462301164865,-7.265684830215573,-2.632344353581965
1758273843288445700,6.21544580078125,-5.943999004569649,-7.344547939050197,-2.6261905071273444
1758273843298403800,6.22540380859375,-5.847657522189617,-7.4130755318313835,-2.649833833043277
1758273843308360700,6.235360595703125,-5.745352747491002,-7.479870017209649,-2.6856743772312996
1758273843318318600,6.245318603515625,-5.652656343615055,-7.54652304829061,-2.695895911516249
1758273843328276700,6.25527685546875,-5.624740747207403,-7.578381244844198,-2.6647420638397334
1758273843338234600,6.265234619140625,-5.652064222940802,-7.582520828866958,-2.5942165752395985
1758273843348191700,6.275191650390625,-5.658014071255922,-7.614771239608526,-2.484464114883542
1758273843358150000,6.28514990234375,-5.615901607191562,-7.672143816646933,-2.4021258772842584
1758273843368107800,6.295107666015625,-5.584971046876907,-7.731498507413268,-2.2808728026181457
1758273843378064600,6.305064697265625,-5.566846192121505,-7.7990645616859195,-2.086910027180612
1758273843388022800,6.315022705078125,-5.527088766750693,-7.880792412301898,-1.8747873256742953
1758273843397980700,6.324980712890625,-5.456313687303662,-7.965154703074694,-1.7191094188369809
1758273843407938800,6.334938720703125,-5.369975128021836,-8.036351807326078,-1.658544329367578
1758273843417895700,6.344895751953125,-5.279208230903745,-8.096682649648189,-1.6565100470609961
1758273843427853600,6.354853515625,-5.182424849975109,-8.16096778255403,-1.6466541312180458
1758273843437811700,6.364811767578125,-5.075049932405352,-8.238218780016899,-1.595621570856124
1758273843447768600,6.3747685546875,-4.9596834315598,-8.324139406147598,-1.5101815678492188
1758273843457726700,6.384726806640625,-4.840452071979642,-8.41031663738787,-1.416692990682274
1758273843467684900,6.394684814453125,-4.720404427580535,-8.49019798335433,-1.3433984757602213
1758273843477642800,6.404642822265625,-4.599436453466117,-8.5631755412817,-1.299078126388043
1758273843487599600,6.414599609375,-4.4721664565980435,-8.634048820406198,-1.2741102738700807
1758273843497557800,6.424557861328125,-4.3386096345454455,-8.704805195152758,-1.2542895749822258
1758273843507515600,6.434515625,-4.201362433542311,-8.775629958960414,-1.2277255393140016
1758273843517472800,6.44447265625,-4.063813034722209,-8.845027320313454,-1.1921742603961378
1758273843527430700,6.4544306640625,-3.9227965443134307,-8.914085074448584,-1.1494134884908795
1758273843537388500,6.464388427734375,-3.7792224783763286,-8.981920008790492,-1.101359140222147
1758273843547346700,6.4743466796875,-3.639038931660354,-9.045733432531357,-1.050000708906725
1758273843557303600,6.484303466796875,-3.504893203803897,-9.104826842013,-0.994104999487847
1758273843567261700,6.49426171875,-3.376492449340224,-9.159780082949995,-0.9317327144660055
1758273843577219800,6.5042197265625,-3.249844968284666,-9.212047445803881,-0.8643173207104206
1758273843587177700,6.514177734375,-3.1195439331576225,-9.263736131986976,-0.7887097065404057
1758273843597134600,6.524134521484375,-2.988905921161175,-9.314002676412462,-0.6972836879264563
1758273843607092700,6.5340927734375,-2.856698467890918,-9.363245138487219,-0.5824802277911454
1758273843617050600,6.544050537109375,-2.7201477247193453,-9.41111923481822,-0.4495151245540008
1758273843627007700,6.5540078125,-2.5786340984433886,-9.456498591724037,-0.3093418800363317
1758273843636965600,6.563965576171875,-2.4339557245261965,-9.498172079849242,-0.17591555249560623
1758273843646923800,6.573923828125,-2.2858779174290595,-9.536343697333335,-0.05743083743113093
1758273843656881700,6.583881591796875,-2.131979879745841,-9.571983750513196,0.046381798246898684
1758273843666838500,6.593838623046875,-1.9779373190253973,-9.604170448368787,0.13444419934637844
1758273843676796700,6.603796630859375,-1.83734811411798,-9.630804772794246,0.20523012898098678
1758273843686754800,6.6137548828125,-1.7146010015018283,-9.651995444861054,0.2636747922303155
1758273843696711700,6.623711669921875,-1.6082826072476804,-9.668734398216008,0.3152546112114563
1758273843706669600,6.633669677734375,-1.5136217714309692,-9.682450788879393,0.3598500877305865
1758273843716627700,6.643627685546875,-1.4224166290260851,-9.694738608044386,0.3989537984330207
1758273843726585600,6.653585693359375,-1.3249521339654922,-9.706828274288773,0.43862475109677757
1758273843736542700,6.663542724609375,-1.21830582293123,-9.719087451881169,0.47482477624695746
1758273843746500600,6.67350048828125,-1.112095930552855,-9.730625329461693,0.49857222012449054
1758273843756458800,6.683458740234375,-1.0159245440427214,-9.740354696315526,0.5136005336366594
1758273843766415600,6.69341552734375,-0.9332627005122601,-9.747852358594535,0.5279909145714715
1758273843776373500,6.70337353515625,-0.8603152454622089,-9.753678872790932,0.5440607730258256
1758273843786331600,6.71333154296875,-0.7907235305808484,-9.758696408692002,0.5594640938628465
1758273843796289800,6.723289794921875,-0.7220731882028282,-9.763518129760026,0.5680926233353093
1758273843806246700,6.73324658203125,-0.6539919509496539,-9.76828549029231,0.5685890285501256
1758273843816204800,6.743204833984375,-0.5870779308449476,-9.772785724321007,0.5642882991489022
1758273843826162700,6.75316259765625,-0.5254019940568134,-9.77690192746818,0.5536445208638906
1758273843836119600,6.76311962890625,-0.4732386030340567,-9.780546421450376,0.5360503023864701
1758273843846077700,6.77307763671875,-0.4275626378018409,-9.783739080011845,0.5157783525997772
1758273843856035600,6.78303564453125,-0.38028095440603793,-9.786642400237918,0.49740781598761674
1758273843865993700,6.79299365234375,-0.3251303277334198,-9.789388484075666,0.48223402959015216
1758273843875950600,6.80295068359375,-0.2638994678316638,-9.7918972520262,0.46851460671946404
1758273843885908500,6.812908447265625,-0.2036039890838787,-9.79391209897995,0.45633422998432066
1758273843895866600,6.82286669921875,-0.14925686081387102,-9.795444130852818,0.4442745204867795
1758273843905823700,6.83282373046875,-0.10107288568294606,-9.796549461746215,0.43337073955871164
1758273843915781600,6.84278173828125,-0.05681326722179073,-9.797164963296055,0.4274737174093723
1758273843925739800,6.85273974609375,-0.014753098458604653,-9.797318692553043,0.427460456069
1758273843935698000,6.862697998046875,0.025217313217406626,-9.79725030349195,0.4285506259258836
1758273843945654500,6.872654541015625,0.06343288629094604,-9.797198281043768,0.4257516793897375
1758273843955612700,6.88261279296875,0.0950003791025374,-9.797468330156802,0.4135087953450158
1758273843965570800,6.89257080078125,0.10635870799822732,-9.79846084832549,0.38631965004839003
1758273843975527700,6.902527587890625,0.08548349508875981,-9.800199800947308,0.34520817972011864
1758273843985485800,6.91248583984375,0.03253416186968097,-9.8020252628088,0.2994053001726046
1758273843995443500,6.922443359375,-0.043515686492365785,-9.803044084462522,0.26234637490445745
1758273844005401600,6.932401611328125,-0.13026003639637493,-9.802729611685871,0.24477677941164
1758273844015358700,6.942358642578125,-0.22186534796683116,-9.801194657203554,0.24027915746513753
1758273844025316600,6.952316650390625,-0.32710933618880805,-9.798417593705654,0.2332316866390407
1758273844035274800,6.962274658203125,-0.45597211867365983,-9.79378350416422,0.2104693630750291
1758273844045231600,6.972231689453125,-0.6149882665555924,-9.785998841637372,0.16242813001619652
1758273844055189500,6.982189453125,-0.8118130072955042,-9.772622058191894,0.08481258269040845
1758273844065147600,6.992147705078125,-1.0469251008536666,-9.750581491297483,-0.022568823985639027
1758273844075104800,7.002104736328125,-1.3113367194585501,-9.71727835663259,-0.15899837476322426
1758273844085062700,7.012062744140625,-1.592536318191886,-9.671047351333499,-0.324101751870662
1758273844095020800,7.022020751953125,-1.8762335789598523,-9.611474633902311,-0.5193194227401167
1758273844104978700,7.031978759765625,-2.15282305354923,-9.538513442587853,-0.7433003198225051
1758273844114935600,7.041935546875,-2.422726328372955,-9.451481640344857,-0.985031758455187
1758273844124893700,7.051893798828125,-2.688448810380697,-9.352531436771153,-1.2135771139089018
1758273844134851600,7.0618515625,-2.9535104903921483,-9.246374662819504,-1.3970292359218
1758273844144808700,7.07180859375,-3.2084286697909232,-9.141701405423879,-1.5184348708011208
1758273844154766600,7.0817666015625,-3.434323291540146,-9.048359104859829,-1.5820909120231865
1758273844164724500,7.091724365234375,-3.629049744826555,-8.96683642142713,-1.6112871958911419
1758273844174682600,7.1016826171875,-3.8033524187654253,-8.891341912242769,-1.6275453799918294
1758273844184639700,7.1116396484375,-3.9587615916639565,-8.819484882777928,-1.6478268282592297
1758273844194597600,7.12159765625,-4.077667080290615,-8.757273049014806,-1.6891450732059776
1758273844204555800,7.1315556640625,-4.166548309792578,-8.701821795427799,-1.7574258516192436
1758273844214512600,7.1415126953125,-4.231756987284124,-8.646303906345366,-1.8719068018019198
1758273844224470500,7.151470458984375,-4.292958182699978,-8.57501737024486,-2.0518295075796544
1758273844234428700,7.1614287109375,-4.370486535799503,-8.472305768311022,-2.2998400995470583
1758273844244385800,7.1713857421875,-4.472969297413528,-8.335088085663319,-2.5863565093889833
1758273844254343700,7.18134375,-4.604622623932362,-8.166132033449411,-2.8778637132555245
1758273844264301800,7.1913017578125,-4.758835572783648,-7.9755843271523705,-3.148635879868269
1758273844274259500,7.201259521484375,-4.918664023429155,-7.777177139526605,-3.3900779071003195
1758273844284216600,7.211216552734375,-5.069661809626221,-7.590437593340873,-3.585272562420368
1758273844294174700,7.2211748046875,-5.194411640366911,-7.434923206502199,-3.7296620363935826
1758273844304132600,7.231132568359375,-5.2885108967781065,-7.313330963009595,-3.8363054248183963
1758273844314089700,7.24108984375,-5.3591719944566485,-7.213754736492037,-3.92573522811383
1758273844324047600,7.251047607421875,-5.406784224981069,-7.12396925162673,-4.02319957704395
1758273844334005500,7.261005615234375,-5.429961102429032,-7.04201986721456,-4.134717001245916
1758273844343963600,7.270963623046875,-5.438959232398867,-6.968915468037128,-4.245273471461236
1758273844353920800,7.280920654296875,-5.4470040071666235,-6.904938962689042,-4.338478409381211
1758273844363878700,7.290878662109375,-5.4614381907105445,-6.847205151122808,-4.4112209895089265
1758273844373836800,7.3008369140625,-5.479603377476335,-6.795021374899148,-4.469004193174839
1758273844383793700,7.310793701171875,-5.499068540924787,-6.750270379024744,-4.512701003821194
1758273844393751600,7.32075146484375,-5.526136580592394,-6.717779729786515,-4.52809555682987
1758273844403709700,7.330709716796875,-5.556548085469007,-6.703198831248283,-4.512458427236974
1758273844413666800,7.340666748046875,-5.583187086069583,-6.7056865564107895,-4.475732332386076
1758273844423624700,7.350624755859375,-5.604674110734463,-6.722728876626491,-4.422997644281387
1758273844433582800,7.360582763671875,-5.621440536618232,-6.752709588870406,-4.355538265253603
1758273844443540500,7.37054052734375,-5.636937380957603,-6.792106948757171,-4.273477821682393
1758273844453497600,7.38049755859375,-5.654554870712757,-6.838446675127744,-4.1751711767092345
1758273844463455700,7.390455810546875,-5.672435979840159,-6.891984204047918,-4.061336415475607
1758273844473413600,7.40041357421875,-5.6863224663734435,-6.955538684591651,-3.9314875080302354
1758273844483370800,7.410370849609375,-5.686821648067236,-7.032379347687959,-3.791583070516586
1758273844493328600,7.42032861328125,-5.6625324254631995,-7.1257391839087,-3.651023676225543
1758273844503286500,7.43028662109375,-5.607853909814358,-7.230519993332028,-3.5273113718390463
1758273844513243600,7.44024365234375,-5.528298727062344,-7.329016023397445,-3.448742569775879
1758273844523201800,7.450201904296875,-5.437310880669951,-7.404050513854623,-3.433083812873065
1758273844533159700,7.46015966796875,-5.341202038002014,-7.46604782808423,-3.4496517935752866
1758273844543117800,7.470117919921875,-5.2634384148418905,-7.518919586572051,-3.4543390746086833
1758273844553074700,7.48007470703125,-5.22503766477704,-7.5556392516821616,-3.432439085228741
1758273844563032600,7.490032470703125,-5.203761067992448,-7.60562405655682,-3.353463163669407
1758273844572990700,7.49999072265625,-5.176372125807404,-7.668686954191327,-3.250657161450386
1758273844582947800,7.50994775390625,-5.160100205442309,-7.725388500100374,-3.1404063961833715
1758273844592905700,7.51990576171875,-5.166357512271404,-7.780840338209271,-2.9895892272502183
1758273844602863900,7.52986376953125,-5.155470207554101,-7.853855305537581,-2.8122020312994715
1758273844612820700,7.53982080078125,-5.111811098569631,-7.945321290835738,-2.629001765155792
1758273844622778600,7.549778564453125,-5.049769360676407,-8.039496535092592,-2.456979311108589
1758273844632736800,7.55973681640625,-4.974029352298379,-8.126656932151317,-2.3209654512926936
1758273844642693600,7.569693603515625,-4.889566231499612,-8.204641504585743,-2.2240452922418714
1758273844652651800,7.57965185546875,-4.801553893786669,-8.278011861222982,-2.142432592438161
1758273844662609700,7.589609619140625,-4.707647821860015,-8.35448310648501,-2.052078660035133
1758273844672567600,7.599567626953125,-4.5992555439412595,-8.438736676186323,-1.95062363403365
1758273844682524700,7.609524658203125,-4.473180894337594,-8.528385967451333,-1.8514007509984074
1758273844692482800,7.61948291015625,-4.336770144158601,-8.61563579635918,-1.7702070072591303
1758273844702440700,7.629440673828125,-4.19383992908299,-8.697699747061728,-1.7123472312256693
1758273844712397600,7.6393974609375,-4.048295732116699,-8.774568467208743,-1.6699173717752098
1758273844722355700,7.649355712890625,-3.908856866288185,-8.845227226799725,-1.62884944832772
1758273844732313600,7.659313720703125,-3.7788811175927517,-8.911410302281379,-1.5739171040482818
1758273844742270700,7.669270751953125,-3.6538682520017027,-8.976195785924793,-1.4991918256707488
1758273844752228900,7.679228759765625,-3.5193951918870208,-9.044543930485844,-1.4073014774806796
1758273844762186800,7.689186767578125,-3.3727056242778897,-9.115902362778783,-1.3021423362642526
1758273844772145000,7.699144775390625,-3.2243700430274007,-9.184754365208745,-1.1891573237277566
1758273844782101500,7.7091015625,-3.0814199542075396,-9.247976252797246,-1.0724527792114764
1758273844792059600,7.7190595703125,-2.943979276458919,-9.305735198804735,-0.9521694263603537
1758273844802017800,7.729017822265625,-2.813590563048422,-9.357602164164184,-0.8302962470345199
1758273844811974700,7.738974609375,-2.692897021961212,-9.402934174796938,-0.7095772792451083
1758273844821932800,7.748932861328125,-2.5748861440867183,-9.444114326447249,-0.5907949786067008
1758273844831890700,7.758890625,-2.4548747400447724,-9.482515661033988,-0.4752566648581996
1758273844841847600,7.76884765625,-2.329002919536829,-9.519161676385998,-0.3629151013243943
1758273844851805700,7.7788056640625,-2.189167747867107,-9.555953237688541,-0.24836793577140195
1758273844861763800,7.788763916015625,-2.0245872803889213,-9.594452771952747,-0.1339285597081296
1758273844871720700,7.798720703125,-1.8461438533835113,-9.631249009430407,-0.03475849598880158
1758273844881678600,7.8086787109375,-1.6693024547472595,-9.663402974060178,0.04968015937227756
1758273844891636700,7.81863671875,-1.5039198771059512,-9.689773094591498,0.13002009016065857
1758273844901594600,7.8285947265625,-1.3640622013434767,-9.70907400738895,0.20875760898739099
1758273844911551700,7.8385517578125,-1.2559415799729525,-9.721905431911349,0.2784382625275291
1758273844921509600,7.848509521484375,-1.1715803851787001,-9.730637019899486,0.33538514323346313
1758273844931467800,7.8584677734375,-1.097243229335919,-9.737814948704838,0.3760570165680721
1758273844941424600,7.868424560546875,-1.0209775165833532,-9.745061851093173,0.40217349113188683
1758273844951382500,7.878382568359375,-0.9364308822195977,-9.752738377070427,0.42138164761196817
1758273844961340700,7.888340576171875,-0.8422562955498695,-9.760662740328907,0.43641164162456986
1758273844971297800,7.8982978515625,-0.7493054785214364,-9.767814950171113,0.44577787425443527
1758273844981255700,7.908255615234375,-0.6663614570487291,-9.773754861614108,0.4472975581023842
1758273844991213600,7.918213623046875,-0.5966631399877369,-9.778409409421682,0.4439606687646359
1758273845001170700,7.928170654296875,-0.5340823633143678,-9.78214508881867,0.44133737105634063
1758273845011128600,7.938128662109375,-0.4677329182898625,-9.785403213831781,0.44439306883253155
1758273845021086700,7.948086669921875,-0.39066633748318996,-9.788327576845884,0.4543076925927773
1758273845031044600,7.958044677734375,-0.3077063147237524,-9.790823485314846,0.46418026730958367
1758273845041001500,7.96800146484375,-0.2357057851349935,-9.792785725298524,0.4649232311639935
1758273845050959600,7.977959716796875,-0.18803800676474347,-9.794334708306193,0.4539144920241087
1758273845060917500,7.98791748046875,-0.16068006250616163,-9.795545253139734,0.4380175059186294
1758273845070874600,7.99787451171875,-0.13725884577515535,-9.796586871147156,0.42242556717433033
1758273845080832800,8.007832763671875,-0.1009146172481589,-9.797550747743248,0.41013836906384676
1758273845090790700,8.017790771484375,-0.04551131728899199,-9.79818027781844,0.4049518332714215
1758273845100747500,8.02774755859375,0.02344243989883689,-9.798006674817204,0.41096280065663154
1758273845110705700,8.03770556640625,0.0959125529108569,-9.79693115454018,0.4258507193174213
1758273845120663600,8.04766357421875,0.16047679501902312,-9.795419580933451,0.4408964223558083
1758273845130620700,8.05762060546875,0.20621274681016802,-9.794294376295804,0.4468446267031133
1758273845140578800,8.067578857421875,0.2292881183787249,-9.793960614296793,0.442892929935269
1758273845150536700,8.07753662109375,0.23511444991203023,-9.794415956848859,0.4295645156761631
1758273845160493600,8.08749365234375,0.22931222990667446,-9.795518949654697,0.4069480851225555
1758273845170451700,8.09745166015625,0.21309941931767387,-9.79710066588819,0.3765389548661187
1758273845180409600,8.10740966796875,0.1865611756778322,-9.798865337473153,0.3432520406836644
1758273845190367700,8.11736767578125,0.1575026197801344,-9.800201554512977,0.3187884113607928
1758273845200324900,8.127324951171875,0.13545056337732822,-9.800984229323268,0.3045661900671199
1758273845210282500,8.137282470703125,0.11170753081343136,-9.80170611385703,0.29061765288198366
1758273845220240600,8.14724072265625,0.0577018820580095,-9.80282371971011,0.2677554491400719
1758273845230197800,8.15719775390625,-0.049759275323362086,-9.803830266404152,0.22981842586314305
1758273845240155600,8.16715576171875,-0.2138258704287,-9.802805599531531,0.17230176417892798
1758273845250113800,8.17711376953125,-0.41644499492738396,-9.797301741418242,0.09923317610039376
1758273845260070700,8.187070556640625,-0.640027576874569,-9.78572353182733,0.01923294157817727
1758273845270028500,8.197028564453126,-0.8700308760516345,-9.767787477642297,-0.06112914395979605
1758273845279986700,8.206986572265626,-1.1038387551434337,-9.743264446282387,-0.14387904023304582
1758273845289943800,8.21694384765625,-1.3473695713482796,-9.71095616787374,-0.22873472227966413
1758273845299901700,8.226901611328126,-1.6050665678106248,-9.66906874473691,-0.3213321044942364
1758273845309859800,8.23685986328125,-1.871870853705704,-9.616863925725221,-0.4271118618270382
1758273845319816700,8.246816650390626,-2.1440240994133055,-9.553919101512431,-0.5442295171888545
1758273845329774800,8.25677490234375,-2.4136986800476907,-9.481497423902153,-0.6675780662968754
1758273845339733000,8.26673291015625,-2.665479145942628,-9.403983976110815,-0.794166583706811
1758273845349689600,8.276689697265626,-2.889882944612205,-9.32556861104369,-0.9234300194144248
1758273845359647700,8.286647705078124,-3.09266440179944,-9.246150790935754,-1.055706665463373
1758273845369606000,8.29660595703125,-3.2873315261140466,-9.162306386557221,-1.1899615527827292
1758273845379563800,8.306563720703124,-3.490406997811794,-9.068048724713922,-1.3258778705082832
1758273845389521000,8.31652099609375,-3.711214525555074,-8.95864902331829,-1.4628256501734256
1758273845399479000,8.32647900390625,-3.94534622977376,-8.833765921586751,-1.6028746107243002
1758273845409436700,8.336436767578125,-4.1828555937319996,-8.697143282222747,-1.7417763009361922
1758273845419393800,8.346393798828124,-4.413327606399357,-8.554295484733581,-1.8753617645613847
1758273845429351700,8.3563515625,-4.62158807951957,-8.413781683149933,-2.0048947379253805
1758273845439309800,8.366309814453125,-4.794544307285547,-8.28513952114582,-2.130547947246581
1758273845449267000,8.376266845703125,-4.922030869513749,-8.179590065437555,-2.2446248466730117
1758273845459224600,8.386224609375,-5.015599380049109,-8.097676336860657,-2.3327606646351513
1758273845469182700,8.3961826171875,-5.094044555732608,-8.027142080432176,-2.4054176123060285
1758273845479139800,8.406139892578125,-5.182438293978572,-7.94429019422233,-2.4901810312256214
1758273845489097700,8.41609765625,-5.276619383454323,-7.843688131788372,-2.608491184307635
1758273845499055900,8.426055908203125,-5.385277326571941,-7.7173641835987565,-2.7588886665239927
1758273845509012700,8.4360126953125,-5.518406278601288,-7.557905443048477,-2.9318326193302866
1758273845518970600,8.445970703125,-5.647855665335059,-7.383301740336417,-3.1239418758556243
1758273845528928800,8.4559287109375,-5.741699485680461,-7.220784781259298,-3.326187910991907
1758273845538886000,8.465885986328125,-5.789336850646138,-7.090094454553723,-3.519168689654767
1758273845548843800,8.47584375,-5.811237132287025,-6.991414300093054,-3.676965049950778
1758273845558802000,8.485802001953125,-5.825852517616749,-6.914114202791452,-3.798008135128021
1758273845568759800,8.495759765625,-5.838315693348646,-6.85553926422596,-3.884078106601536
1758273845578716700,8.505716552734375,-5.848444288653135,-6.811988876312971,-3.944983533941209
1758273845588674800,8.5156748046875,-5.860866547852754,-6.777928201279043,-3.985012761990726
1758273845598632700,8.5256328125,-5.876296756696701,-6.75160075084567,-4.006922980503738
1758273845608589800,8.53558984375,-5.895797575980424,-6.735633366385102,-4.005141942305863
1758273845618548000,8.5455478515625,-5.9219151830554,-6.733253193250298,-3.970470441897213
1758273845628505600,8.555505615234376,-5.953939968347549,-6.745866591107845,-3.9005429191902277
1758273845638462700,8.565462646484375,-5.9864446461111305,-6.773136290827393,-3.8022999871030447
1758273845648420900,8.5754208984375,-6.012707799136638,-6.811320767793059,-3.691015202613175
1758273845658378800,8.585378662109376,-6.028386429783701,-6.85656334657669,-3.5800180028930306
1758273845668335900,8.5953359375,-6.033827744054794,-6.907010508266091,-3.4722447336554527
1758273845678293800,8.605293701171876,-6.030699382901191,-6.962723043137788,-3.3647505736202
1758273845688251600,8.615251708984376,-6.0148407195121045,-7.02560766159594,-3.260815859632194
1758273845698208800,8.625208740234376,-5.980167465537786,-7.097158986112475,-3.168336021116376
1758273845708167000,8.6351669921875,-5.920602346891164,-7.177202829164266,-3.0991333055526016
1758273845718124800,8.645124755859374,-5.834803301313519,-7.261682608836889,-3.064865125247836
1758273845728081700,8.65508154296875,-5.733744727283716,-7.338535546892881,-3.0725279149606823
1758273845738039800,8.665039794921874,-5.638403361856937,-7.3934250749439,-3.117060591909289
1758273845747997700,8.674997802734374,-5.568507403331995,-7.421278127509355,-3.175963447254896
1758273845757954800,8.684954833984374,-5.536033120706677,-7.4325436178892845,-3.206249279925227
1758273845767913000,8.694912841796874,-5.527495593985915,-7.457843478840589,-3.161923523725569
1758273845777870800,8.704870849609375,-5.49039014442861,-7.522021644240617,-3.073300068376958
1758273845787827700,8.71482763671875,-5.411164047500491,-7.620822794732451,-2.9686303181126714
1758273845797785900,8.724785888671875,-5.338948121595382,-7.70424575882852,-2.88281402913928
1758273845807743700,8.73474365234375,-5.265785270228982,-7.7696128417521715,-2.8416560893207787
1758273845817700900,8.744700927734375,-5.1861032462269065,-7.8400524056345215,-2.794332612609863
1758273845827659000,8.754658935546875,-5.112493820136785,-7.917015818327664,-2.71176509629935
1758273845837617000,8.764616943359375,-5.045260943341255,-7.994986362236737,-2.6068928092002865
1758273845847573800,8.77457373046875,-4.976300804361701,-8.068346782001852,-2.511692605809867
1758273845857532000,8.784531982421875,-4.903135907168686,-8.138314636719226,-2.428463849111646
1758273845867489800,8.79448974609375,-4.825755438107252,-8.211819433391094,-2.3342006343103945
1758273845877447000,8.804447021484375,-4.740768877956271,-8.293132273465394,-2.2179911067694422
1758273845887404800,8.81440478515625,-4.6471802014157175,-8.379003215235471,-2.089590790697187
1758273845897362700,8.82436279296875,-4.546324164220691,-8.464428166803717,-1.9633529133558272
1758273845907320800,8.83432080078125,-4.439958131432533,-8.547721367040277,-1.8421712964907286
1758273845917277700,8.844277587890625,-4.329821932455897,-8.629278537264465,-1.7200453845128416
1758273845927235800,8.85423583984375,-4.216602965033054,-8.709328810057043,-1.5931864526636899
1758273845937194000,8.864194091796875,-4.10106490701288,-8.787356052589416,-1.4608293617896735
1758273845947150600,8.874150634765625,-3.9802202670171853,-8.864553858560324,-1.322080085660517
1758273845957108700,8.884108642578125,-3.8485280697926876,-8.942433801576495,-1.1798800845555961
1758273845967067000,8.89406689453125,-3.703849257484078,-9.020275166147947,-1.0423900877725332
1758273845977023700,8.904023681640625,-3.550333643247187,-9.095544634404778,-0.9146598529815674
1758273845986982000,8.91398193359375,-3.3939071099996565,-9.16561127332151,-0.8020786720056087
1758273845996939800,8.923939697265626,-3.2426582716509698,-9.227761732286215,-0.7098902176517993
1758273846006896600,8.933896728515625,-3.1044957093685865,-9.28021380405724,-0.6404035705801099
1758273846016854800,8.943854736328126,-2.9817613101035354,-9.324137116935848,-0.5830241619421169
1758273846026812700,8.953812744140626,-2.8686671381041404,-9.362727252092958,-0.5296129262827336
1758273846036769800,8.963769775390626,-2.7550428047507998,-9.39931130812466,-0.48278863126561045
1758273846046728000,8.97372802734375,-2.6315517418995498,-9.436944580948353,-0.43520975502151993
1758273846056685600,8.983685546875,-2.491873222096264,-9.477342642310262,-0.3753980777353048
1758273846066642700,8.993642578125,-2.3355228228248652,-9.519672548517585,-0.3025330768043175
1758273846076600800,9.003600830078126,-2.16649326698333,-9.561842880249023,-0.21879505540970712
1758273846086558700,9.013558837890624,-1.9976855371989308,-9.600096330797673,-0.13344381753164342
1758273846096515800,9.023515869140626,-1.8472624821498989,-9.630930445000528,-0.056144099255953914
1758273846106473700,9.0334736328125,-1.7196851728983222,-9.654680153900385,0.01424751099855639
1758273846116431600,9.043431640625,-1.6062746284261344,-9.673816816046834,0.0868171365790069
1758273846126388700,9.053388671875,-1.496228007429093,-9.690452309027314,0.16375435538496821
1758273846136347000,9.063346923828124,-1.3842546561531721,-9.705525959518551,0.23870946046300232
1758273846146304800,9.0733046875,-1.2726878398515282,-9.718785838586092,0.3095944300252944
1758273846156261600,9.08326171875,-1.1613549053709953,-9.730136084640025,0.3822358513334766
1758273846166219800,9.0932197265625,-1.0490595555990934,-9.74006594250202,0.44832891044411805
1758273846176177700,9.103177734375,-0.9427287402547896,-9.748523389723896,0.4979555860634893
1758273846186134800,9.113134765625,-0.8481216073866933,-9.75519219996333,0.5360074861580506
1758273846196093000,9.123093017578125,-0.7641262502301484,-9.760464587408304,0.5655326731868088
1758273846206050800,9.13305078125,-0.6864984553441404,-9.765177002882957,0.5834693849589675
1758273846216007700,9.143007568359375,-0.6122955203402787,-9.769679574999213,0.5906243347475305
1758273846225965800,9.1529658203125,-0.5400407237295061,-9.77395535262227,0.5903890646869316
1758273846235923700,9.162923828125,-0.4683132023958489,-9.777934193125366,0.5857276487471536
1758273846245880800,9.172880859375,-0.39771731544062494,-9.781423204284906,0.5796275783063843
1758273846255839000,9.1828388671875,-0.330431904740259,-9.784294960328936,0.5734079366065561
1758273846265796900,9.192796875,-0.2674295599202625,-9.786630709800123,0.5663380712855607
1758273846275753700,9.202753662109375,-0.20954466771185398,-9.788696994680166,0.5548644911129027
1758273846285712100,9.212712158203125,-0.15707659465409815,-9.790801858004928,0.5346946134611964
1758273846295670000,9.222669921875,-0.10950395635454915,-9.792974525868892,0.5059904239591211
1758273846305627100,9.232627197265625,-0.0666214851652272,-9.795074713018536,0.4716649605091661
1758273846315585000,9.2425849609375,-0.028042574655031783,-9.796945183065533,0.4352809936268255
1758273846325543200,9.252543212890625,0.00931805409809458,-9.79840298065841,0.4019938602486625
1758273846335500000,9.2625,0.052085215786588375,-9.799198514950275,0.3786498095402494
1758273846345458000,9.2724580078125,0.10622235000114888,-9.799056476131081,0.3709416828483343
1758273846355416000,9.282416015625,0.17046391775989905,-9.79790438348651,0.3773457046717405
1758273846365373200,9.292373291015625,0.23608744139634072,-9.796009363520145,0.39096144797224547
1758273846375331000,9.3023310546875,0.2898163647027686,-9.793995685610174,0.4050195282127708
1758273846385289200,9.312289306640626,0.3204235017493367,-9.79269921605885,0.4131982680911198
1758273846395246000,9.32224609375,0.32761012531779704,-9.792662975701688,0.40843459735326465
1758273846405204000,9.332203857421876,0.3145904847469181,-9.793894563323258,0.38866445960886775
1758273846415162000,9.342162109375,0.2861674137411639,-9.796094703716038,0.35361006082985547
1758273846425119200,9.352119140625,0.24643455655602736,-9.798712777259945,0.308035071754083
1758273846435077000,9.3620771484375,0.20441430081976578,-9.800928699743746,0.2653370994193479
1758273846445035000,9.372034912109376,0.17473213313100858,-9.802206464594603,0.2378847183429636
1758273846454992100,9.3819921875,0.15770426156576722,-9.802945884785055,0.21849294892428442
1758273846464950000,9.391949951171876,0.12776684960746207,-9.803954769566655,0.19115011090328915
1758273846474908200,9.401908203125,0.056963302117772396,-9.80534359357655,0.14961187566346487
1758273846484865300,9.411865234375,-0.06313159265627619,-9.806002934268117,0.09332741352217272
1758273846494823000,9.421822998046874,-0.22379927517147732,-9.804063490638136,0.025386808582395313
1758273846504781000,9.431781005859374,-0.4060243578737601,-9.798103705450892,-0.05210481096962467
1758273846514738200,9.44173828125,-0.601843684430793,-9.787210555514692,-0.13659824470826423
1758273846524696000,9.451696044921874,-0.8199042515534907,-9.769657947689295,-0.22787638841727748
1758273846534654200,9.461654296875,-1.0582559846200048,-9.743961196374892,-0.32510585087928917
1758273846544611000,9.471611083984374,-1.308649672331661,-9.709490186974406,-0.42854105437994
1758273846554569000,9.48156884765625,-1.5704920980356634,-9.66475848032236,-0.5444273778485134
1758273846564527000,9.491527099609375,-1.841816491703689,-9.608283728906512,-0.6775031018532812
1758273846574484200,9.501484130859374,-2.113249752573669,-9.540091067168117,-0.8314150949966161
1758273846584442000,9.511442138671875,-2.3738133905135093,-9.461627771306038,-1.0064683681070803
1758273846594400300,9.521400146484375,-2.6152348133489487,-9.375946214628218,-1.1927175734926014
1758273846604357000,9.531357177734375,-2.8288346016705033,-9.288484204274415,-1.375566761176288
1758273846614315000,9.54131494140625,-3.0153871008515356,-9.202129862901568,-1.5487430614337325
1758273846624273200,9.551273193359375,-3.1869860687896607,-9.113972271499037,-1.7172708052329717
1758273846634230000,9.56122998046875,-3.353124433234334,-9.020705374258757,-1.8851570362582801
1758273846644188200,9.571188232421875,-3.520882800096273,-8.921586828380823,-2.044278653808683
1758273846654146300,9.581146240234375,-3.701514384795725,-8.81653713888824,-2.176661902037263
1758273846664103000,9.59110302734375,-3.9031259214207528,-8.70070009792149,-2.287756132391095
1758273846674061000,9.60106103515625,-4.11471641574651,-8.572828920289874,-2.3971068800784647
1758273846684019200,9.611019287109375,-4.309984428563713,-8.444576049864292,-2.5067007888719437
1758273846693976000,9.62097607421875,-4.462973096317053,-8.328502862054108,-2.624562905925512
1758273846703934200,9.630934326171875,-4.590618356238306,-8.21883837224245,-2.747228623868525
1758273846713892000,9.64089208984375,-4.721798220026493,-8.104259222382307,-2.862861082173884
1758273846723849000,9.650848876953125,-4.860770929647982,-7.977982035943866,-2.982463320893049
1758273846733807000,9.66080712890625,-5.0055011798828835,-7.838570058122277,-3.110013011485338
1758273846743765000,9.670764892578125,-5.149266092216968,-7.683423920074105,-3.2589009659215806
1758273846753722000,9.68072216796875,-5.29924622580409,-7.512514980226754,-3.4132845951646567
1758273846763680000,9.690679931640625,-5.464805621317029,-7.329584178674221,-3.5473175102964043
1758273846773638000,9.700637939453125,-5.631311942291259,-7.143184239706397,-3.665189856483042
1758273846783595000,9.710594970703125,-5.756081062254309,-6.971549323672056,-3.7993952055722473
1758273846793553200,9.72055322265625,-5.817145479547977,-6.834256237700581,-3.9527392626345157
1758273846803511000,9.730510986328126,-5.843122216847538,-6.729415222522616,-4.091851965248584
1758273846813468000,9.740468017578126,-5.859712701642513,-6.647251318576932,-4.200977818138897
1758273846823426000,9.750426025390626,-5.873720768728852,-6.576460457038879,-4.291842622673511
1758273846833384000,9.760384033203126,-5.8859115572601555,-6.514249207797646,-4.369319245585799
1758273846843341000,9.770341064453126,-5.897260049748421,-6.459472492471337,-4.434848241072893
1758273846853299200,9.78029931640625,-5.909295939978957,-6.410291989716887,-4.489851166370511
1758273846863257000,9.790257080078124,-5.921936225843429,-6.368623762288689,-4.53230031504333
1758273846873214000,9.8002138671875,-5.938925939089059,-6.3456830316841595,-4.542231341949105
1758273846883172000,9.810172119140624,-5.957254791983962,-6.343958107587695,-4.520585035069287
1758273846893130000,9.8201298828125,-5.97100391587317,-6.362182915586232,-4.476615544961392
1758273846903087000,9.830087158203124,-5.981108545780182,-6.3995028846770525,-4.409433521570265
1758273846913045200,9.840045166015624,-5.985678337913751,-6.455162228056788,-4.321219231544434
1758273846923003100,9.850003173828124,-5.984273731812834,-6.52593613846004,-4.215563977374136
1758273846932960000,9.8599599609375,-5.975540974780917,-6.611430648133158,-4.092957296141982
1758273846942918100,9.869918212890624,-5.957791967600584,-6.708840052005648,-3.958096698014438
1758273846952875300,9.879875244140624,-5.9308571989238255,-6.81374361102581,-3.8168364619776605
1758273846962833200,9.889833251953124,-5.894359652131795,-6.921919323584437,-3.676129768170416
1758273846972791300,9.899791259765625,-5.844698672384023,-7.030944346448779,-3.546220947231352
1758273846982748000,9.909747802734374,-5.778642438152432,-7.1370210409015415,-3.4410189897865053
1758273846992706000,9.9197060546875,-5.7048979875057935,-7.226740474793314,-3.376207202658057
1758273847002664200,9.929664306640625,-5.648558260646462,-7.280052962785959,-3.356335504235327
1758273847012621000,9.93962109375,-5.633357184383272,-7.2837132388591765,-3.3739006792813537
1758273847022579200,9.9495791015625,-5.646792420017719,-7.252707275220751,-3.4179435268864036
1758273847032537000,9.959537109375,-5.634100111705065,-7.260954879084229,-3.4213752549007532
1758273847042494000,9.969493896484375,-5.584039903506636,-7.3212483120054,-3.374638053645193
1758273847052452000,9.9794521484375,-5.52780363702178,-7.410027834698558,-3.271894010746479
1758273847062410200,9.98941015625,-5.495940764293074,-7.504177944514155,-3.106825321359932
1758273847072367000,9.9993671875,-5.4622582749217745,-7.572776264443993,-2.9978657649472353
1758273847082325000,10.009324951171875,-5.416178660792112,-7.625521181681751,-2.9473440767168997
1758273847092283100,10.019283203125,-5.370891073822975,-7.683390017804503,-2.8791373864531513
1758273847102240000,10.029239990234375,-5.328189996215701,-7.7521479122102255,-2.772185078209638
1758273847112198100,10.0391982421875,-5.2758326169908045,-7.83309893323481,-2.641693196685612
1758273847122156000,10.049156005859375,-5.208481082251668,-7.922821289736032,-2.504203419098258
1758273847132113000,10.05911279296875,-5.136198520851135,-8.011611333823204,-2.36725710073784
1758273847142071000,10.069071044921875,-5.068893163341284,-8.094614611202477,-2.2257383598953484
1758273847152029000,10.07902880859375,-5.003338448891044,-8.172704397577046,-2.0842086592674254
1758273847161986000,10.088986083984375,-4.932524790999293,-8.247287637135386,-1.955193572297692
1758273847171944200,10.098944091796875,-4.8522202511847015,-8.320381514918804,-1.84326902859956
1758273847181902000,10.108902099609375,-4.761389056658745,-8.393539690110087,-1.74585538694337
1758273847191859000,10.11885888671875,-4.65979272249043,-8.467871000733972,-1.6588721000172197
1758273847201817000,10.128817138671875,-4.543253086212277,-8.545749774706364,-1.5809465642936527
1758273847211775000,10.13877490234375,-4.411956318046152,-8.626709563559293,-1.5116000563450156
1758273847221732000,10.148732177734376,-4.2722088246598835,-8.707696240419148,-1.4473013333052396
1758273847231690200,10.158690185546876,-4.128570461314917,-8.786671577456593,-1.3855332977868615
1758273847241647000,10.168647216796876,-3.9854678122818465,-8.862122832021116,-1.3225912500530481
1758273847251605000,10.17860498046875,-3.844276842088997,-8.934021362540125,-1.255081602142751
1758273847261563100,10.188563232421876,-3.7081460778951643,-9.001155455136299,-1.182879631697759
1758273847271520300,10.198520263671876,-3.580334229235351,-9.062622023490071,-1.104747175225243
1758273847281478100,10.20847802734375,-3.461370580680668,-9.1182761061728,-1.0229260203026234
1758273847291435300,10.218435302734376,-3.350862041260302,-9.167571175217628,-0.947484921805933
1758273847301392400,10.228392333984376,-3.2464781222000716,-9.21142902164459,-0.8833662315081805
1758273847311350300,10.238350341796876,-3.144310710145533,-9.252962809038161,-0.8163255162838846
1758273847321308400,10.248308349609376,-3.0378549532473085,-9.295324279427527,-0.7340151896048337
1758273847331265300,10.258265380859376,-2.9179253822699187,-9.34077202539444,-0.6372367771122605
1758273847341223200,10.26822314453125,-2.782152345472574,-9.388446799761056,-0.5357999443545938
1758273847351181300,10.278181396484374,-2.6284099367424845,-9.437633732256293,-0.43921252438947556
1758273847361138400,10.288138427734374,-2.453639060769975,-9.488405303594469,-0.34672000905517486
1758273847371096300,10.298096435546874,-2.2720025368116796,-9.536380522212385,-0.2565698190633207
1758273847381054500,10.308054443359374,-2.1051339583963156,-9.576555880734324,-0.16837153032422064
1758273847391011300,10.31801123046875,-1.9623047194771468,-9.608001989355683,-0.07773882664558478
1758273847400969200,10.32796923828125,-1.8394094305619597,-9.632577627685665,0.020725102664961012
1758273847410927400,10.33792724609375,-1.726026358618587,-9.652816113594174,0.1199196249721106
1758273847420884500,10.347884521484374,-1.6162966946162283,-9.670306762099266,0.20769640949666499
1758273847430842400,10.35784228515625,-1.509637524100393,-9.685603115430474,0.2837078004282899
1758273847440800300,10.36780029296875,-1.4076212109543382,-9.698913263380527,0.346548159619607
1758273847450757400,10.37775732421875,-1.3124077096909283,-9.7104710147053,0.39338293949812647
1758273847460715300,10.38771533203125,-1.2276083426751196,-9.72003729995191,0.4292721816660836
1758273847470672400,10.39767236328125,-1.1521928170111029,-9.727755911505222,0.46214730017725375
1758273847480630300,10.40763037109375,-1.0837563365794718,-9.73417396185398,0.49166773796565827
1758273847490588200,10.417588134765625,-1.0190803777251392,-9.739978848740458,0.514451597508043
1758273847500545300,10.427545166015625,-0.9577356821853666,-9.745424254664778,0.5289944655908272
1758273847510503200,10.437503173828125,-0.9009137247670441,-9.750435360825062,0.5364459141079336
1758273847520461300,10.44746142578125,-0.8487859165143221,-9.754912213978171,0.5400174524517729
1758273847530418400,10.45741845703125,-0.8011388338722288,-9.758851306992769,0.5416428616965189
1758273847540376000,10.4673759765625,-0.7576370343413203,-9.762442024961114,0.5395261983361095
1758273847550334200,10.477334228515625,-0.7181321954920887,-9.76599357996285,0.5291793571710586
1758273847560291300,10.487291259765625,-0.683318144807592,-9.769639242988823,0.5075597191024571
1758273847570249200,10.497249267578125,-0.6522814937699586,-9.773343358203768,0.4760881472462788
1758273847580207400,10.507207275390625,-0.6215628957055509,-9.776844059801101,0.44424723062105476
1758273847590164200,10.517164306640625,-0.5836587335186079,-9.780302091300486,0.4188277253454551
1758273847600122000,10.5271220703125,-0.5303751062942669,-9.783962951895594,0.4039435695443302
1758273847610080300,10.537080322265625,-0.4596780239868909,-9.787669405198097,0.4007407914476469
1758273847620037400,10.547037353515625,-0.37607882654108105,-9.791027483454346,0.40586007069014013
1758273847629995300,10.556995361328125,-0.2890014681233093,-9.79355612514913,0.416058589425683
1758273847639953400,10.566953369140625,-0.20974762467173858,-9.795127904510498,0.42644072109982367
1758273847649910300,10.57691015625,-0.14609725513863375,-9.795897719839214,0.43523368388637895
1758273847659868200,10.5868681640625,-0.09703619577907957,-9.79612743694186,0.4436561328601092
1758273847669826300,10.596826416015626,-0.05569844241426326,-9.795970200553535,0.454144355257228
1758273847679783400,10.606783447265625,-0.018693168720736866,-9.795690799090266,0.46309371418189255
1758273847689741300,10.6167412109375,0.007814924663546843,-9.79562708620429,0.4647744338104501
1758273847699698200,10.6266982421875,0.011284438250638776,-9.795928699499369,0.45830213252380486
1758273847709656300,10.63665625,-0.013951554551062872,-9.79631623751223,0.4498819851050153
1758273847719614200,10.6466142578125,-0.0623146593833575,-9.796509129735826,0.4415140793301165
1758273847729571300,10.6565712890625,-0.12078643440189771,-9.796195826002954,0.43628626167923207
1758273847739529500,10.666529541015626,-0.17007612401871008,-9.795511935392021,0.4352317111250013
1758273847749487400,10.6764873046875,-0.1961659480376169,-9.795028535789251,0.4351091807238757
1758273847759444200,10.6864443359375,-0.20135619189077988,-9.795193955484033,0.42900563968438654
1758273847769402400,10.69640234375,-0.2076002373795025,-9.795759772673248,0.4127874222679063
1758273847779360300,10.7063603515625,-0.23948521234216166,-9.796218622356653,0.38358101886473595
1758273847789317400,10.7163173828125,-0.3102357601361349,-9.79584862000048,0.3398442415341735
1758273847799275500,10.726275634765624,-0.41786231437940147,-9.793734404325484,0.2802425720031373
1758273847809233200,10.736233154296874,-0.5508639502346515,-9.789037770941853,0.20414244334213436
1758273847819190300,10.746190185546874,-0.6980501422543078,-9.78108008993566,0.11666670585707761
1758273847829148400,10.7561484375,-0.8562077370781451,-9.769179224261642,0.021108996549167203
1758273847839106300,10.766106201171874,-1.0234530398514121,-9.752775786471366,-0.07937797215473838
1758273847849063400,10.7760634765625,-1.1948512975856662,-9.731924721622466,-0.179929464312084
1758273847859021300,10.786021240234374,-1.367560272592306,-9.706831196898221,-0.27849483328666536
1758273847868979200,10.795979248046875,-1.5409868943490088,-9.677600426238774,-0.3739201141372323
1758273847878936300,10.805936279296875,-1.715135985161364,-9.644163436061143,-0.46779692343678325
1758273847888894200,10.815894287109375,-1.8875965383648872,-9.606734745898843,-0.5639626473911106
1758273847898852400,10.825852294921875,-2.0518401751041413,-9.566651157313585,-0.6629736412413418
1758273847908809200,10.835809326171875,-2.2040707179665566,-9.525562191078066,-0.7590154100224376
1758273847918767000,10.84576708984375,-2.342612488824874,-9.485598429480195,-0.8402205519385635
1758273847928725200,10.855725341796875,-2.469911273396015,-9.446880284029245,-0.9090684627152978
1758273847938682400,10.865682373046875,-2.588231655611098,-9.408048156809807,-0.9798515793383121
1758273847948640300,10.87564013671875,-2.6980338003277775,-9.368958255437017,-1.0552817180495708
1758273847958597000,10.88559716796875,-2.8040152177125215,-9.329873614761233,-1.1230979476910083
1758273847968555300,10.89555517578125,-2.9094419238239526,-9.293544994795322,-1.155653698054701
1758273847978513200,10.90551318359375,-3.006264175458252,-9.266592105939983,-1.1238511772111057
1758273847988470300,10.91547021484375,-3.081458240391314,-9.252489930829405,-1.032694038666412
1758273847998428400,10.925428466796875,-3.138178783261776,-9.241749341106415,-0.9551561870861798
1758273848008386300,10.93538623046875,-3.205930423234403,-9.21948899398148,-0.9452058709580451
1758273848018343200,10.94534326171875,-3.275736949910223,-9.193366126209497,-0.9601800796627997
1758273848028301300,10.95530126953125,-3.339843511378765,-9.16848186032176,-0.9771206200044602
1758273848038259200,10.96525927734375,-3.403352106954157,-9.143287213310598,-0.9939182447440922
1758273848048216300,10.97521630859375,-3.4725372868612405,-9.114705846470594,-1.0168721270911394
1758273848058174500,10.985174560546875,-3.5476509800344704,-9.082700350400804,-1.0435855811674146
1758273848068132400,10.99513232421875,-3.61755161473453,-9.053471917828917,-1.0575290585849433
1758273848078089200,11.005089111328125,-3.6655507987499236,-9.03257876740396,-1.0708332882508635
1758273848088047400,11.01504736328125,-3.6726544932752847,-9.024742666950822,-1.1117799234062433
1758273848098005200,11.025005126953126,-3.6342148725047707,-9.031910074362159,-1.1778958519358187
1758273848107962400,11.03496240234375,-3.568690845453739,-9.04844853670895,-1.249161710574478
1758273848117920500,11.04492041015625,-3.4995816533923145,-9.06724559163749,-1.3070341999590396
1758273848127878100,11.054878173828126,-3.4396740049183365,-9.08602978708446,-1.3353317814216017
1758273848137835300,11.064835205078126,-3.39601694176048,-9.105214380025863,-1.316247580114752
1758273848147793400,11.07479345703125,-3.341452700141072,-9.134659085696935,-1.2502272939793764
1758273848157751300,11.084751220703126,-3.263918794083595,-9.17080942648649,-1.1888901972241699
1758273848167708400,11.09470849609375,-3.1745807607248424,-9.208496475324035,-1.1384387246858327
1758273848177666300,11.104666259765626,-3.0868165525540707,-9.244359231343864,-1.0880203506994992
1758273848187623200,11.114623046875,-3.0037624217703938,-9.277749459770321,-1.0349733817752451
1758273848197581300,11.124581298828126,-2.9245988686844706,-9.308141675424576,-0.9877192439734935
1758273848207539200,11.134539306640624,-2.8458453577041625,-9.335365197914838,-0.960456047059968
1758273848217496300,11.144496337890626,-2.7350825512617827,-9.36831411231458,-0.9614538989908993
1758273848227454200,11.1544541015625,-2.5669834081381557,-9.413099010458588,-0.9871751271594316
1758273848237412000,11.164412109375,-2.368213963071257,-9.46223859668076,-1.0139006369996815
1758273848247369200,11.174369140625,-2.1637338852725923,-9.5102974019289,-1.021211398404464
1758273848257327400,11.184327392578124,-1.931563251993805,-9.56024479740262,-1.0203609921202064
1758273848267285200,11.19428515625,-1.6426102626547217,-9.613506431990862,-1.0260082042269407
1758273848277242000,11.2042421875,-1.3122503271721302,-9.663926705673337,-1.0280646253000945
1758273848287200800,11.21420068359375,-1.0018046140797436,-9.702623808336257,-1.012850031968206
1758273848297158700,11.22415869140625,-0.751749729868397,-9.72643430751264,-1.0008652874030173
1758273848307115800,11.23411572265625,-0.5692174261141568,-9.738421097904443,-1.0047535270132124
1758273848317073700,11.24407373046875,-0.4603908118987456,-9.745558694699406,-0.9912135158300399
1758273848327031600,11.254031494140625,-0.43013928335681556,-9.752159700399636,-0.9384933677073568
1758273848336988700,11.26398876953125,-0.48240536756906655,-9.757918994578718,-0.8489275169420987
1758273848346946800,11.27394677734375,-0.5986643602749332,-9.761655258497596,-0.7225288960810751
1758273848356904700,11.28390478515625,-0.7253403733052313,-9.763727388596534,-0.5602673730697483
1758273848366861600,11.293861572265625,-0.8003261292498558,-9.76726082341969,-0.3612440993722528
1758273848376819700,11.30381982421875,-0.7830585489109158,-9.774279762271046,-0.14383025092156604
1758273848386777600,11.313777587890625,-0.6764204211831092,-9.783025963306427,0.0723725458055036
1758273848396734700,11.323734619140625,-0.5102889614032581,-9.788695825636387,0.30238192309690637
1758273848406692900,11.33369287109375,-0.36851514982115474,-9.782754160627722,0.5764666665900499
1758273848416650800,11.343650634765625,-0.3391617756953463,-9.76028397014439,0.8900625142764299
1758273848426607600,11.353607666015625,-0.4522831644952297,-9.718702251955866,1.229900691395998
1758273848436565800,11.363565673828125,-0.6842419085890055,-9.656778587484359,1.56487995724231
1758273848446522600,11.373522705078125,-0.9488383822415023,-9.579386135724187,1.8722892252482473
1758273848456480800,11.383480712890625,-1.1139761182762682,-9.49843803730905,2.1700525669001043
1758273848466438700,11.393438720703125,-1.0196626345925033,-9.435578553292155,2.469927640008926
1758273848476395500,11.4033955078125,-0.5934641612833366,-9.391281730926035,2.7607971304938195
1758273848486353700,11.413353759765625,-0.19147855740636585,-9.341230290555954,2.9791160562917587
1758273848496311600,11.4233115234375,0.07394013304894324,-9.295026757785678,3.1252824768096206
1758273848506268700,11.4332685546875,0.44886429596245286,-9.2363658945024,3.2647289414227005
1758273848516226800,11.443226806640626,0.8443001494023948,-9.164991095596552,3.3853350964874025
1758273848526184400,11.453184326171876,1.2497240206323563,-9.088124129015206,3.466206914795935
1758273848536141600,11.4631416015625,1.6754754442937672,-9.005839229038358,3.5011464184910057
1758273848546099700,11.473099609375,2.0880631427384913,-8.91312353594005,3.5166210509985683
1758273848556057600,11.4830576171875,2.4449450283132492,-8.822879785913228,3.5141736578464506
1758273848566014700,11.4930146484375,2.8260934862688183,-8.721817120230197,3.480442653158307
1758273848575972900,11.502972900390626,3.2954312459394335,-8.592421509510277,3.3883345705643295
1758273848585930500,11.512930419921876,3.69853010828793,-8.460193890234828,3.303995660667121
1758273848595887600,11.5228876953125,4.065307949455082,-8.310100359401106,3.2535973065555095
1758273848605845800,11.532845703125,4.456250510063767,-8.104946620124577,3.2591508490294214
1758273848615803600,11.5428037109375,4.890983697082102,-7.833671180164814,3.2988293639451265
1758273848625760800,11.5527607421875,5.384400543737411,-7.481046075251698,3.348517816221714
1758273848635718700,11.56271875,5.925423483437299,-7.041655125555396,3.3874542805984613
1758273848645676500,11.572676513671874,6.5006052978485815,-6.513228632578254,3.3897432683184743
1758273848655633700,11.582633544921874,7.084352111509442,-5.906608308330178,3.330813524965942
1758273848665591800,11.592591796875,7.643967523476481,-5.244931867292523,3.198567493250966
1758273848675549700,11.6025498046875,8.15093387979567,-4.551843219903112,3.0022303898975253
1758273848685506600,11.612506591796874,8.586313255763054,-3.8525755916178226,2.757403396402299
1758273848695464700,11.622464599609375,8.939963027548789,-3.175588476462662,2.482556235435605
1758273848705422600,11.632422607421875,9.21223624637425,-2.550910517476499,2.190420962798595
1758273848715379700,11.642379638671875,9.407115844395756,-2.0059962694264946,1.9111597847819328
1758273848725337900,11.652337890625,9.536030978122353,-1.5517318679861722,1.681256219652295
1758273848735295700,11.662295654296875,9.61601052376628,-1.1835598690468818,1.5172053290061651
1758273848745252600,11.672252685546875,9.663709263530373,-0.8882068764723837,1.4121585621230304
1758273848755210800,11.682210693359375,9.691748194056748,-0.6420237921930849,1.3521134048745036
1758273848765167600,11.692167724609375,9.708957687532902,-0.42040524032786486,1.3152109305433928
1758273848775125800,11.702125732421875,9.722622640269995,-0.20248221851233392,1.2649109222397208
1758273848785083600,11.712083740234375,9.735259419003128,0.027126973630476274,1.1808351933233439
1758273848795040500,11.72204052734375,9.745249482619762,0.2700212386475876,1.061877682248503
1758273848804998700,11.73199853515625,9.74997125044465,0.520193575226143,0.9153376791778951
1758273848814956500,11.74195654296875,9.746396314567328,0.7735579493116587,0.7614144339881836
1758273848824913700,11.75191357421875,9.734179222550988,1.022297878466919,0.6091327089278027
1758273848834871800,11.761871826171875,9.716070149886608,1.2509236056804656,0.4511712211979553
1758273848844829400,11.771829345703125,9.69489759799838,1.446365075368434,0.2955828923402354
1758273848854786600,11.78178662109375,9.673885789629816,1.5995611022621392,0.16651249498669057
1758273848864744700,11.79174462890625,9.657211718204618,1.7032563084058463,0.08699466683669015
1758273848874702600,11.80170263671875,9.643488313278555,1.7785037109613417,0.10216933001698926
1758273848884659700,11.81165966796875,9.626490416726469,1.8543961334221064,0.2495641415523365
1758273848894617600,11.82161767578125,9.608600539770721,1.9143449906893073,0.4248096127666533
1758273848904575500,11.831575439453125,9.59012263379395,1.9677834431491792,0.5725071883745492
1758273848914532600,11.84153271484375,9.576405658608675,2.0100237713769076,0.6501102872107177
1758273848924490800,11.85149072265625,9.569088029071688,2.041368903841823,0.6601118220694363
1758273848934448600,11.86144873046875,9.563494154587387,2.0686988093160092,0.6560830049447715
1758273848944405800,11.87140576171875,9.556920621415973,2.1025115009382365,0.6442846497971564
1758273848954363600,11.88136376953125,9.543612811553478,2.188663743867725,0.5473510832754894
1758273848964321500,11.891321533203126,9.52380161114633,2.2872475983470677,0.48588794898781923
1758273848974278700,11.901278564453126,9.502755315986276,2.3576083979047833,0.5565160577122121
1758273848984236800,11.91123681640625,9.48066564925313,2.4233367153562604,0.6440531791288405
1758273848994194700,11.921194580078126,9.464690666007995,2.477581954154372,0.6720108611125498
1758273849004151600,11.931151611328126,9.462093635252117,2.4916204163789746,0.6565021071396767
1758273849014109700,11.941109619140626,9.472076684606074,2.4610084204941987,0.627368001787737
1758273849024067600,11.951067626953124,9.493484214293956,2.399152560561895,0.5368459097435697
1758273849034024700,11.961024658203126,9.51843277758956,2.325061488434672,0.40486382619440553
1758273849043982800,11.97098291015625,9.53297860481441,2.2786456280879674,0.3169861111791804
1758273849053939500,11.980939453125,9.527903785768151,2.297381015957147,0.33387481173574923
1758273849063897600,11.990897705078124,9.510436518138647,2.354093667782098,0.42453517973944543
1758273849073855700,12.000855712890624,9.490969016602635,2.4105242877952753,0.5303386832740158
1758273849083812600,12.0108125,9.473630928310751,2.458573594562709,0.6132798552025109
1758273849093770800,12.020770751953124,9.461882622849942,2.495733404655754,0.643797231606394
1758273849103729000,12.03072900390625,9.457280682012438,2.5159046705469486,0.6328078547541052
1758273849113685500,12.040685546875,9.456677455422282,2.526763918213546,0.597582958246395
1758273849123643600,12.0506435546875,9.45565395759344,2.539498896624148,0.5585126748895273
1758273849133601800,12.060601806640625,9.451586269763112,2.559401574707031,0.5360701761307195
1758273849143558700,12.07055859375,9.444724567300081,2.5843603671357034,0.5372551846642046
1758273849153516800,12.080516845703125,9.436468780130147,2.6105615608409045,0.5553453334324061
1758273849163474400,12.090474365234375,9.427656528121233,2.6367817515075207,0.5805669415157289
1758273849173431600,12.100431640625,9.419173361936211,2.6613807707130905,0.6054881053477525
1758273849183389700,12.1103896484375,9.411299267560244,2.6850699815973638,0.6230844792496413
1758273849193347600,12.12034765625,9.402955217584967,2.7122105019792913,0.6314532983399928
1758273849203304700,12.1303046875,9.39334626224041,2.7455823179662224,0.6302491832472383
1758273849213262600,12.1402626953125,9.3826407438308,2.784748499445617,0.6177507170062512
1758273849223220500,12.150220458984375,9.370862043231725,2.8285101920217275,0.5973766220193356
1758273849233177600,12.160177490234375,9.358165643265842,2.8740409400969744,0.5788003702346235
1758273849243135700,12.1701357421875,9.34531902117431,2.917439644579589,0.5691584624685346
1758273849253093600,12.18009375,9.333095499417185,2.9565222394287582,0.5680558715214953
1758273849263050800,12.19005078125,9.322060310661792,2.990418079289794,0.5718178178709
1758273849273008600,12.200008544921875,9.312746538871526,3.0183126329094168,0.5770003716079518
1758273849282966500,12.209966552734375,9.305475671085714,3.0398616168946027,0.5811641036912798
1758273849292923600,12.219923583984375,9.300414880564809,3.055183689188957,0.581827499503456
1758273849302881800,12.2298818359375,9.297675810989737,3.0642844027504323,0.5777253248816355
1758273849312839700,12.239839599609375,9.297208193477987,3.067233607944846,0.569546731133759
1758273849322796800,12.249796875,9.298105434578657,3.0664421653062104,0.5590622715963051
1758273849332755000,12.2597548828125,9.299220117822289,3.0647762779206036,0.5495805228279903
1758273849342711800,12.2697119140625,9.29800840394497,3.0698271315693852,0.5418392610514536
1758273849352669700,12.279669677734375,9.28836320824325,3.100632311938703,0.5317625055320561
1758273849362627800,12.2896279296875,9.256079479753971,3.1989684752672907,0.5118360812474042
1758273849372584700,12.299584716796875,9.223586492428183,3.290888049551844,0.5156459218591452
1758273849382542800,12.30954296875,9.20423238813877,3.3434307222157713,0.5234130487293005
1758273849392501000,12.3195009765625,9.199746182635426,3.356585679604113,0.518060800981149
1758273849402457600,12.32945751953125,9.209335848757624,3.3328257415711877,0.5007942435555159
1758273849412415700,12.339415771484376,9.22775237993598,3.2858237518995996,0.47151883003674444
1758273849422374000,12.349373779296876,9.24425869357884,3.243765648370981,0.43823575177919116
