time,seconds_elapsed,z,y,x
1758273837112144400,0.039144287109375,0.019518574699759483,-0.5782052874565125,0.17221570014953613
1758273837122101500,0.0491015625,0.09576141089200974,-0.5550547242164612,0.11769254505634308
1758273837132059600,0.0590595703125,0.1906903237104416,-0.5469642877578735,0.05874400585889816
1758273837142017500,0.069017578125,0.2724613547325134,-0.5092374086380005,0.010328804142773151
1758273837151975700,0.0789755859375,0.35880956053733826,-0.4011104106903076,0.015115036629140377
1758273837161932500,0.0889326171875,0.41649627685546875,-0.35393890738487244,0.12394271790981293
1758273837171890400,0.098890380859375,0.44837164878845215,-0.38339054584503174,0.3200560212135315
1758273837181848600,0.1088486328125,0.45703813433647156,-0.3440428674221039,0.5217409729957581
1758273837191806500,0.118806396484375,0.4536449909210205,-0.2969134449958801,0.6228246688842773
1758273837201763600,0.128763671875,0.4821400046348572,-0.32757121324539185,0.610214114189148
1758273837211721700,0.1387216796875,0.5729625821113586,-0.41327226161956787,0.5404520630836487
1758273837221679400,0.148679443359375,0.7038217782974243,-0.49859222769737244,0.47281014919281006
1758273837231637500,0.158637451171875,0.8364240527153015,-0.5316252708435059,0.43632087111473083
1758273837241594600,0.1685947265625,0.9661775231361389,-0.5198349356651306,0.410129189491272
1758273837251552500,0.178552490234375,1.0495171546936035,-0.5836823582649231,0.3807545304298401
1758273837261510700,0.1885107421875,1.076469898223877,-0.689571738243103,0.3474671542644501
1758273837271468500,0.198468505859375,1.054110050201416,-0.8363699913024902,0.33194491267204285
1758273837281425700,0.20842578125,0.99605393409729,-0.969301164150238,0.34576964378356934
1758273837291383800,0.2183837890625,0.9306166172027588,-1.0363587141036987,0.38327229022979736
1758273837301341700,0.228341796875,0.8359917998313904,-1.0043959617614746,0.40135008096694946
1758273837311298600,0.238298583984375,0.7089031338691711,-0.953769862651825,0.40474748611450195
1758273837321256700,0.248256591796875,0.6243916749954224,-0.914008617401123,0.44318142533302307
1758273837331214600,0.258214599609375,0.6296280026435852,-0.9401949048042297,0.5816636681556702
1758273837341172700,0.2681728515625,0.7382868528366089,-1.0843422412872314,0.7830953001976013
1758273837351129900,0.2781298828125,0.9057826399803162,-1.3473362922668457,0.9702132940292358
1758273837361087500,0.28808740234375,1.0928430557250977,-1.6175726652145386,1.1072152853012085
1758273837371045600,0.298045654296875,1.2457149028778076,-1.799330472946167,1.1745145320892334
1758273837381003500,0.30800341796875,1.332824468612671,-1.9515767097473145,1.1696935892105103
1758273837390960600,0.317960693359375,1.3244928121566772,-2.095353603363037,1.0853166580200195
1758273837400918800,0.327918701171875,1.2371035814285278,-2.1396243572235107,0.9469934701919556
1758273837410876700,0.337876708984375,1.1126892566680908,-1.812791347503662,0.7873268127441406
1758273837420834800,0.347834716796875,0.9966853857040405,-1.323454737663269,0.5808351635932922
1758273837430791700,0.357791748046875,1.0330942869186401,-1.0505073070526123,0.3256625235080719
1758273837440749600,0.36774951171875,1.1951587200164795,-0.9330430030822754,0.10353278368711472
1758273837450707700,0.377707763671875,1.3797677755355835,-0.9390601515769958,0.029625270515680313
1758273837460665600,0.38766552734375,1.519080638885498,-1.0976319313049316,0.09909196197986603
1758273837470622700,0.397622802734375,1.5596197843551636,-1.425399661064148,0.23267851769924164
1758273837480580600,0.40758056640625,1.5950195789337158,-1.867855429649353,0.4241981506347656
1758273837490538500,0.41753857421875,1.747052788734436,-2.3220720291137695,0.6525186896324158
1758273837500496600,0.42749658203125,1.9668006896972656,-2.747140407562256,0.8939089179039001
1758273837510453800,0.437453857421875,2.2334840297698975,-3.1642138957977295,1.1567230224609375
1758273837520411600,0.44741162109375,2.513211727142334,-3.4422311782836914,1.3779001235961914
1758273837530369800,0.457369873046875,2.672910213470459,-3.568532943725586,1.4852337837219238
1758273837540327700,0.46732763671875,2.808476686477661,-3.7385830879211426,1.5263609886169434
1758273837550284500,0.477284423828125,3.0268023014068604,-3.8887112140655518,1.550307273864746
1758273837560242700,0.48724267578125,3.233269453048706,-4.109960079193115,1.554783582687378
1758273837570200600,0.49720068359375,3.412642478942871,-4.243444442749023,1.5138459205627441
1758273837580158700,0.50715869140625,3.52601957321167,-4.246665954589844,1.493292212486267
1758273837590115800,0.51711572265625,3.5906333923339844,-4.252650737762451,1.5187608003616333
1758273837600073500,0.527073486328125,3.6212964057922363,-4.280052185058594,1.591121792793274
1758273837610031600,0.537031494140625,3.5761544704437256,-4.368452548980713,1.6527292728424072
1758273837619989800,0.54698974609375,3.4749953746795654,-4.435246467590332,1.6624926328659058
1758273837629946600,0.556946533203125,3.4369966983795166,-4.432638645172119,1.6557817459106445
1758273837639904800,0.56690478515625,3.4607272148132324,-4.41790771484375,1.6458146572113037
1758273837649862700,0.576862548828125,3.434622287750244,-4.37743616104126,1.6595834493637085
1758273837659820800,0.58682080078125,3.322906017303467,-4.263450622558594,1.7287633419036865
1758273837669777700,0.596777587890625,3.060746669769287,-4.018195152282715,1.8277498483657837
1758273837679735600,0.606735595703125,2.7520864009857178,-3.734077215194702,1.8231041431427002
1758273837689693700,0.616693603515625,2.5537238121032715,-3.4099574089050293,1.6601046323776245
1758273837699651800,0.62665185546875,2.3707032203674316,-2.947666645050049,1.4674105644226074
1758273837709608700,0.636608642578125,2.135636568069458,-2.6352648735046387,1.1876763105392456
1758273837719566600,0.646566650390625,2.0284793376922607,-2.4011268615722656,0.822788655757904
1758273837729524700,0.656524658203125,2.0023257732391357,-2.2575981616973877,0.4886445105075836
1758273837739482600,0.666482666015625,1.9078768491744995,-2.1318016052246094,0.14371642470359802
1758273837749439700,0.676439697265625,1.9055445194244385,-1.8968305587768555,-0.06516728550195694
1758273837759397600,0.686397705078125,1.9570633172988892,-1.6126532554626465,-0.23111684620380402
1758273837769355800,0.696355712890625,1.9545543193817139,-1.3494993448257446,-0.3936772644519806
1758273837779313700,0.706313720703125,1.8384602069854736,-0.6834206581115723,-0.877779483795166
1758273837789270500,0.7162705078125,2.1868746280670166,-0.5956748127937317,-1.0304747819900513
1758273837799228700,0.726228759765625,2.4749560356140137,-0.7598959803581238,-0.7760674953460693
1758273837809186800,0.736186767578125,2.293917179107666,-1.0383150577545166,-0.7214074730873108
1758273837819144700,0.746144775390625,2.0579395294189453,-0.9278112053871155,-0.9260082840919495
1758273837829101600,0.7561015625,2.289210081100464,-0.37903866171836853,-1.1847460269927979
1758273837839059700,0.766059814453125,2.581817388534546,-0.021811023354530334,-1.5071007013320923
1758273837849017600,0.776017578125,2.9194111824035645,0.14300855994224548,-1.811152458190918
1758273837858975700,0.785975830078125,3.300412178039551,0.19404244422912598,-1.923656940460205
1758273837868932600,0.7959326171875,3.4893453121185303,-0.1873840093612671,-1.8420674800872803
1758273837878890800,0.805890869140625,3.5118706226348877,-0.6578269004821777,-1.5680955648422241
1758273837888849000,0.815848876953125,3.4631035327911377,-0.7485772967338562,-1.2514691352844238
1758273837898806500,0.825806640625,3.3460516929626465,-0.5451828837394714,-1.042516827583313
1758273837908763600,0.835763671875,3.0071237087249756,0.6720510721206665,-0.7456738948822021
1758273837918721800,0.8457216796875,2.6427090167999268,1.935855507850647,-0.5702751874923706
1758273837928679700,0.8556796875,2.371521234512329,1.5991395711898804,-0.7886112332344055
1758273837938637800,0.865637939453125,1.998681902885437,0.9750831127166748,-0.792158305644989
1758273837948594700,0.8755947265625,1.672237753868103,0.2884027659893036,-0.22276677191257477
1758273837958552600,0.885552490234375,1.3937679529190063,-0.08453299105167389,0.44498410820961
1758273837968510700,0.8955107421875,1.2402617931365967,-0.2634452283382416,0.7617365121841431
1758273837978468600,0.905468505859375,1.173972249031067,-0.65093594789505,0.8359050154685974
1758273837988425700,0.91542578125,0.828023374080658,-0.8217308521270752,0.7961280345916748
1758273837998383900,0.9253837890625,0.12891218066215515,-0.5101322531700134,0.7171599864959717
1758273838008341800,0.935341796875,-0.1380622684955597,-0.46776214241981506,0.49147093296051025
1758273838018299600,0.945299560546875,-0.28983715176582336,-0.3793758153915405,0.4384508430957794
1758273838028256800,0.9552568359375,-0.4067661762237549,-0.18374958634376526,0.43319565057754517
1758273838038214700,0.965214599609375,-0.16747207939624786,-0.07266142219305038,0.2835842967033386
1758273838048172800,0.9751728515625,0.49900633096694946,-0.040896568447351456,-0.11411938071250916
1758273838058130700,0.985130615234375,1.0881787538528442,-0.5460649132728577,-0.6207770109176636
1758273838068088800,0.9950888671875,1.3841500282287598,-1.0784063339233398,-1.1234475374221802
1758273838078045700,1.005045654296875,1.3374520540237427,-1.0057311058044434,-1.6460074186325073
1758273838088003600,1.015003662109375,1.221858024597168,-1.1473881006240845,-1.8111122846603394
1758273838097961700,1.024961669921875,1.1155076026916504,-1.1863362789154053,-1.3773674964904785
1758273838107919600,1.034919677734375,0.964161217212677,-1.8834152221679688,-0.36347222328186035
1758273838117876700,1.044876708984375,0.9146568179130554,-1.7539949417114258,0.6192986369132996
1758273838127834600,1.054834716796875,0.789535641670227,-1.1761635541915894,0.9321111440658569
1758273838137792500,1.06479248046875,0.631060004234314,-0.5958932042121887,0.5079444646835327
1758273838147750700,1.074750732421875,0.4864705801010132,-0.2246144711971283,-0.21533174812793732
1758273838157707800,1.084707763671875,0.4022957682609558,-0.1262330412864685,-0.7018079161643982
1758273838167665700,1.094665771484375,0.35211968421936035,-0.07443481683731079,-0.7441878914833069
1758273838177623800,1.104623779296875,0.30009937286376953,0.05146798491477966,-0.4340859353542328
1758273838187581700,1.114581787109375,0.22455906867980957,0.16899195313453674,-0.10674775391817093
1758273838197538600,1.12453857421875,0.17294462025165558,0.3046722710132599,-0.0465824156999588
1758273838207496700,1.13449658203125,0.16989129781723022,0.35938161611557007,-0.1785372495651245
1758273838217454600,1.14445458984375,0.1753252148628235,0.2754555344581604,-0.27954909205436707
1758273838227412700,1.154412841796875,0.16722626984119415,0.20002976059913635,-0.26140284538269043
1758273838237369900,1.164369873046875,0.1517447829246521,0.21439245343208313,-0.19618335366249084
1758273838247327500,1.174327392578125,0.13718608021736145,0.24476607143878937,-0.15471048653125763
1758273838257285600,1.18428564453125,0.12981978058815002,0.2346029132604599,-0.16904973983764648
1758273838267243500,1.194243408203125,0.12386415153741837,0.215038001537323,-0.19403977692127228
1758273838277201000,1.204200927734375,0.12497255951166153,0.18796271085739136,-0.20633000135421753
1758273838287159000,1.214158935546875,0.12833400070667267,0.15477173030376434,-0.20234112441539764
1758273838297117000,1.224116943359375,0.13466060161590576,0.13042005896568298,-0.1858886480331421
1758273838307075000,1.234074951171875,0.12775635719299316,0.11671783030033112,-0.16847902536392212
1758273838317032200,1.2440322265625,0.1202225461602211,0.10176470875740051,-0.1508912444114685
1758273838326990000,1.253989990234375,0.1137116476893425,0.0858326181769371,-0.1349325180053711
1758273838336948200,1.2639482421875,0.09601175040006638,0.08819537609815598,-0.13463078439235687
1758273838346905900,1.27390576171875,0.08290953189134598,0.0942295640707016,-0.12943069636821747
1758273838356863000,1.283863037109375,0.08154146373271942,0.08799989521503448,-0.09465912729501724
1758273838366821000,1.293821044921875,0.08979380130767822,0.09235576540231705,-0.05060112476348877
1758273838376779000,1.303779052734375,0.10120358318090439,0.08287171274423599,-0.016160594299435616
1758273838386737200,1.313737060546875,0.1090196967124939,0.055393218994140625,0.011707521975040436
1758273838396695000,1.323695068359375,0.10961651057004929,0.02851925976574421,0.040639039129018784
1758273838406652000,1.33365185546875,0.105697400867939,0.0011310444679111242,0.07645030319690704
1758273838416610000,1.343610107421875,0.10916537046432495,-0.021769477054476738,0.10478314012289047
1758273838426568000,1.35356787109375,0.11340512335300446,-0.04568706080317497,0.1258077323436737
1758273838436526000,1.363526123046875,0.11486826092004776,-0.07920613884925842,0.143960103392601
1758273838446483200,1.373483154296875,0.11525974422693253,-0.11642195284366608,0.15314774215221405
1758273838456441000,1.383441162109375,0.11369407176971436,-0.16183070838451385,0.15293441712856293
1758273838466399000,1.39339892578125,0.12060044705867767,-0.19621025025844574,0.15097352862358093
1758273838476356900,1.40335693359375,0.13064801692962646,-0.24270692467689514,0.1548289954662323
1758273838486314000,1.41331396484375,0.13276870548725128,-0.27338707447052,0.1571241021156311
1758273838496272100,1.423272216796875,0.13935042917728424,-0.2969698905944824,0.15988340973854065
1758273838506230000,1.43322998046875,0.13989025354385376,-0.3263397514820099,0.15956169366836548
1758273838516188200,1.443188232421875,0.13818344473838806,-0.34314244985580444,0.15697017312049866
1758273838526145000,1.45314501953125,0.22012224793434143,-0.17821341753005981,-0.4407443702220917
1758273838536103000,1.46310302734375,0.5330319404602051,-0.22161121666431427,-1.1749483346939087
1758273838546061000,1.47306103515625,0.8482210636138916,-0.5385252833366394,-1.4967396259307861
1758273838556019000,1.48301904296875,1.0444449186325073,-1.0990197658538818,-1.0171294212341309
1758273838565977000,1.49297705078125,1.291036605834961,-1.454837441444397,-0.2565348446369171
1758273838575934000,1.502933837890625,1.4423046112060547,-1.354693055152893,0.3280700147151947
1758273838585891800,1.512891845703125,1.3412739038467407,-0.7490886449813843,0.522045373916626
1758273838595850000,1.52285009765625,1.0040391683578491,-0.27490052580833435,0.3757190406322479
1758273838605808000,1.53280810546875,0.5107429027557373,-0.10916297137737274,0.16959409415721893
1758273838615765000,1.542764892578125,-0.004224039614200592,-0.13661856949329376,0.10634641349315643
1758273838625723100,1.55272314453125,-0.5167312622070312,-0.547831118106842,0.23045717179775238
1758273838635681300,1.562681396484375,-1.0078240633010864,-1.0033341646194458,0.4311402142047882
1758273838645639000,1.572638916015625,-1.4593403339385986,-1.4044222831726074,0.7168588042259216
1758273838655596000,1.582595947265625,-1.7297478914260864,-2.479887008666992,0.35091328620910645
1758273838665554000,1.592553955078125,-1.51457941532135,-4.767387866973877,0.35271012783050537
1758273838675512000,1.602511962890625,0.019662383943796158,-5.180095195770264,1.0621391534805298
1758273838685470200,1.61247021484375,1.5013610124588013,-3.4180305004119873,1.076080083847046
1758273838695426800,1.6224267578125,1.7911581993103027,-0.38549095392227173,0.21285288035869598
1758273838705385000,1.632385009765625,1.2045462131500244,0.6841514110565186,-0.3933161199092865
1758273838715343000,1.642343017578125,0.6100777387619019,0.2117077261209488,-0.36790478229522705
1758273838725301000,1.652301025390625,0.15738029778003693,-0.300773948431015,-0.10939999669790268
1758273838735258000,1.662258056640625,0.07797788828611374,-0.3383876383304596,0.009558884426951408
1758273838745216300,1.67221630859375,0.27122962474823,0.630987286567688,-0.05873175710439682
1758273838755174100,1.682174072265625,-0.003184075467288494,-0.04965516924858093,0.06897187978029251
1758273838765132000,1.692132080078125,0.0465744249522686,-0.713474452495575,0.08843585848808289
1758273838775090000,1.70208984375,0.01383805088698864,-0.9593411684036255,0.21449525654315948
1758273838785047000,1.712047119140625,-0.028231637552380562,-1.147208571434021,0.27113428711891174
1758273838795005200,1.722005126953125,-0.04360739886760712,-1.2516814470291138,0.22193080186843872
1758273838804963000,1.731963134765625,0.06245219334959984,-1.271832823753357,0.18430273234844208
1758273838814921200,1.741921142578125,0.15282949805259705,-1.1003941297531128,0.16798581182956696
1758273838824878000,1.751878173828125,0.197907492518425,-0.9951154589653015,0.11729387193918228
1758273838834836000,1.7618359375,0.18298447132110596,-1.0501188039779663,0.007481618318706751
1758273838844794000,1.771794189453125,0.14156699180603027,-1.1887328624725342,-0.05032362416386604
1758273838854752000,1.781751953125,0.13188053667545319,-1.3228216171264648,-0.08955198526382446
1758273838864709000,1.791709228515625,0.13885429501533508,-1.362981915473938,-0.1655423641204834
1758273838874667300,1.801667236328125,0.1425856500864029,-1.3608508110046387,-0.25319284200668335
1758273838884625000,1.811625,0.13521693646907806,-1.3720574378967285,-0.34120792150497437
1758273838894583000,1.8215830078125,0.15147234499454498,-1.4799004793167114,-0.4562130868434906
1758273838904541000,1.831541015625,0.18798960745334625,-1.675374150276184,-0.583994448184967
1758273838914498000,1.841498046875,0.2022297978401184,-1.8716200590133667,-0.7289295792579651
1758273838924456200,1.851456298828125,0.19848832488059998,-2.0184619426727295,-0.8666799664497375
1758273838934414000,1.8614140625,0.16229383647441864,-2.080658197402954,-0.9799394011497498
1758273838944372000,1.8713720703125,0.10098627209663391,-1.971867561340332,-1.0369441509246826
1758273838954329000,1.8813291015625,0.03395557031035423,-1.7534215450286865,-1.0166531801223755
1758273838964287000,1.891286865234375,-0.07551419734954834,-1.458418369293213,-0.9477710723876953
1758273838974245000,1.9012451171875,-0.1962699145078659,-1.3242299556732178,-0.8374528288841248
1758273838984203000,1.911203125,-0.25440752506256104,-1.4213320016860962,-0.6822904348373413
1758273838994159900,1.921159912109375,-0.25154992938041687,-1.6527926921844482,-0.5561513900756836
1758273839004118000,1.931117919921875,-0.14052169024944305,-1.906036376953125,-0.5126451849937439
1758273839014076000,1.941075927734375,0.08208368718624115,-1.9419342279434204,-0.5689321756362915
1758273839024034000,1.951033935546875,0.27608004212379456,-1.8309777975082397,-0.5546115636825562
1758273839033992000,1.960991943359375,0.3942900598049164,-1.5101529359817505,-0.5098363757133484
1758273839043949000,1.970948974609375,0.4340670108795166,-1.1658685207366943,-0.44328582286834717
1758273839053907200,1.9809072265625,0.4097563624382019,-0.857312798500061,-0.401190847158432
1758273839063864800,1.99086474609375,0.33772343397140503,-0.5149195194244385,-0.394849568605423
1758273839073823000,2.000822998046875,0.20751804113388062,-0.18331550061702728,-0.4039924740791321
1758273839083780000,2.010780029296875,0.09022283554077148,0.015385880134999752,-0.371123731136322
1758273839093738000,2.020738037109375,0.016939036548137665,0.1188315749168396,-0.3013087213039398
1758273839103696100,2.030696044921875,-0.014541658572852612,0.10980559140443802,-0.21437914669513702
1758273839113654000,2.040654052734375,-0.04303135722875595,0.09144922345876694,-0.15775048732757568
1758273839123611000,2.05061083984375,-0.05548003688454628,0.03256326913833618,-0.10081715881824493
1758273839133569000,2.060569091796875,-0.06543919444084167,-0.050630152225494385,-0.04268035292625427
1758273839143527000,2.07052685546875,-0.07574748992919922,-0.10608915239572525,0.011500595137476921
1758273839153485000,2.080485107421875,-0.08833066374063492,-0.12373792380094528,0.06189718842506409
1758273839163443200,2.090443115234375,-0.11514469981193542,-0.1051437258720398,0.1031237244606018
1758273839173400000,2.100400146484375,-0.155786395072937,-0.06172088906168938,0.15336079895496368
1758273839183358000,2.11035791015625,-0.18228858709335327,-0.04093225300312042,0.20599257946014404
1758273839193316000,2.120316162109375,-0.19736100733280182,0.010041449218988419,0.2424619048833847
1758273839203274000,2.13027392578125,-0.20092324912548065,0.08017180114984512,0.28342798352241516
1758273839213231000,2.140231201171875,-0.20618192851543427,0.13494157791137695,0.3228273093700409
1758273839223189000,2.15018896484375,-0.20527805387973785,0.17795082926750183,0.3297635316848755
1758273839233147100,2.160147216796875,-0.20395100116729736,0.2122020125389099,0.3105866312980652
1758273839243105000,2.17010498046875,-0.2053835093975067,0.28786295652389526,0.29267874360084534
1758273839253062000,2.180061767578125,-0.21030743420124054,0.40776750445365906,0.28532496094703674
1758273839263020000,2.19002001953125,-0.20041485130786896,0.5030037760734558,0.2873974144458771
1758273839272978200,2.199978271484375,-0.15912200510501862,0.5735855102539062,0.3068030774593353
1758273839282935300,2.209935302734375,-0.10429365187883377,0.6486530900001526,0.3166389465332031
1758273839292893400,2.2198935546875,-0.03503068909049034,0.7325852513313293,0.292556494474411
1758273839302850300,2.229850341796875,0.04002438113093376,0.7449654936790466,0.2232075184583664
1758273839312808200,2.23980810546875,0.09629964083433151,0.6382797956466675,0.10835789889097214
1758273839322766300,2.249766357421875,0.11013822257518768,0.4419206976890564,-0.022894131019711494
1758273839332724200,2.25972412109375,0.10411974042654037,0.2086930274963379,-0.11030653119087219
1758273839342681300,2.269681396484375,0.11282455176115036,-0.03767121210694313,-0.15572914481163025
1758273839352639200,2.27963916015625,0.13912992179393768,-0.24505023658275604,-0.19941191375255585
1758273839362597000,2.28959716796875,0.1802251636981964,-0.2470713108778,-0.23350542783737183
1758273839372555300,2.29955517578125,0.22541314363479614,0.0731586292386055,-0.1968904286623001
1758273839382512400,2.309512451171875,0.26337143778800964,0.5821422338485718,-0.07876192033290863
1758273839392470300,2.31947021484375,0.26376426219940186,0.9090439081192017,0.04819096624851227
1758273839402428400,2.329428466796875,0.12683570384979248,0.938669741153717,0.07248911261558533
1758273839412386300,2.33938623046875,-0.11638147383928299,0.7210410237312317,0.019823506474494934
1758273839422344200,2.34934423828125,-0.32043448090553284,0.6188467144966125,-0.06583600491285324
1758273839432301300,2.35930126953125,-0.3998704254627228,0.7745553851127625,-0.12323644757270813
1758273839442259200,2.36925927734375,-0.33287543058395386,1.0180524587631226,-0.0918031558394432
1758273839452217300,2.37921728515625,-0.19465550780296326,1.2667386531829834,0.01366414688527584
1758273839462175500,2.389175537109375,-0.05528855696320534,1.4128512144088745,0.14139068126678467
1758273839472132000,2.399132080078125,0.07637333124876022,1.440784215927124,0.2262057065963745
1758273839482090200,2.40909033203125,0.18611207604408264,1.3984450101852417,0.2668260931968689
1758273839492048400,2.41904833984375,0.19719882309436798,1.4262734651565552,0.2884799838066101
1758273839502006300,2.42900634765625,0.0873359739780426,1.4084300994873047,0.3506440222263336
1758273839511964400,2.43896435546875,-0.10282651335000992,1.42426598072052,0.4365997016429901
1758273839521921300,2.44892138671875,-0.303353488445282,1.397294044494629,0.49401798844337463
1758273839531879200,2.458879150390625,-0.4347352087497711,1.2503104209899902,0.5030223727226257
1758273839541837300,2.46883740234375,-0.5107319951057434,1.0586531162261963,0.4963149428367615
1758273839551795200,2.478795166015625,-0.610223650932312,0.8793145418167114,0.5307184457778931
1758273839561752300,2.48875244140625,-0.6559562683105469,0.8705817461013794,0.6231170892715454
1758273839571710500,2.49871044921875,-0.604766309261322,0.9714314341545105,0.6766203045845032
1758273839581668400,2.50866845703125,-0.47383227944374084,1.1911879777908325,0.5664138793945312
1758273839591626500,2.51862646484375,-0.3284924030303955,1.2059653997421265,0.48323217034339905
1758273839601584000,2.528584228515625,-0.21879678964614868,1.1299203634262085,0.36482828855514526
1758273839611541200,2.538541259765625,-0.15796779096126556,1.0444928407669067,0.26991403102874756
1758273839621499400,2.54849951171875,-0.08683689683675766,1.1274268627166748,0.17965471744537354
1758273839631457300,2.558457275390625,-0.026502979919314384,1.251965045928955,0.12568388879299164
1758273839641415400,2.56841552734375,-0.03188282996416092,1.2596434354782104,0.14237871766090393
1758273839651372300,2.578372314453125,-0.12332699447870255,1.2676793336868286,0.15321218967437744
1758273839661330200,2.588330078125,-0.20015786588191986,1.3552289009094238,0.09208891540765762
1758273839671288300,2.598288330078125,-0.26526176929473877,1.5288068056106567,-0.001281779375858605
1758273839681246200,2.60824609375,-0.3024027347564697,1.672252893447876,-0.03755270317196846
1758273839691203300,2.618203369140625,-0.2013312429189682,1.795103669166565,-0.0702936053276062
1758273839701161500,2.628161376953125,-0.16942578554153442,1.6515393257141113,-0.008108792826533318
1758273839711119400,2.638119384765625,-0.14827442169189453,1.3981199264526367,0.030474020168185234
1758273839721077200,2.6480771484375,-0.10513893514871597,1.1422159671783447,0.09038475900888443
1758273839731035100,2.65803515625,-0.043470513075590134,0.9613127112388611,0.15455389022827148
1758273839740992300,2.6679921875,-0.04331817850470543,0.8810349106788635,0.16367600858211517
1758273839750950400,2.677950439453125,-0.18831664323806763,0.6754351854324341,0.26227661967277527
1758273839760908300,2.687908203125,-0.27951791882514954,0.565762460231781,0.3528518080711365
1758273839770866400,2.697866455078125,-0.3227125406265259,0.42264899611473083,0.43188828229904175
1758273839780823300,2.7078232421875,-0.3097839653491974,0.2877127528190613,0.4509623944759369
1758273839790781200,2.71778125,-0.2860032618045807,0.1548905074596405,0.45388466119766235
1758273839800739300,2.7277392578125,-0.24078305065631866,0.1332741677761078,0.4172699451446533
1758273839810697200,2.737697265625,-0.20558218657970428,0.21848386526107788,0.373847097158432
1758273839820655400,2.7476552734375,-0.14286048710346222,0.385733038187027,0.29879894852638245
1758273839830612200,2.7576123046875,-0.0962759330868721,0.5380488038063049,0.23544500768184662
1758273839840570000,2.767570068359375,-0.09825412929058075,0.6103973388671875,0.21658450365066528
1758273839850528300,2.7775283203125,-0.13207414746284485,0.5928798317909241,0.23281700909137726
1758273839860486100,2.787486083984375,-0.15001612901687622,0.5170996189117432,0.27513381838798523
1758273839870443300,2.797443359375,-0.1663285195827484,0.3527255654335022,0.3273099660873413
1758273839880401400,2.8074013671875,-0.1637018471956253,0.21504919230937958,0.35204485058784485
1758273839890359300,2.817359375,-0.1382787823677063,0.13135190308094025,0.3338858187198639
1758273839900317200,2.827317138671875,-0.14801476895809174,0.1313263326883316,0.35376259684562683
1758273839910275300,2.837275390625,-0.1374734342098236,0.13657940924167633,0.37731853127479553
1758273839920232200,2.847232177734375,-0.11883557587862015,0.06844457238912582,0.36219656467437744
1758273839930190300,2.8571904296875,-0.0651470422744751,0.038300782442092896,0.334245890378952
1758273839940148500,2.8671484375,-0.009659817442297935,0.03316674008965492,0.3207617700099945
1758273839950106400,2.8771064453125,0.034016288816928864,0.04020760580897331,0.31918516755104065
1758273839960063200,2.887063232421875,0.06759821623563766,0.02756131999194622,0.3025420308113098
1758273839970021000,2.897021240234375,0.09929116815328598,0.0663185715675354,0.2748965322971344
1758273839979979300,2.906979248046875,0.13180916011333466,0.12673930823802948,0.2549944818019867
1758273839989937400,2.9169375,0.13838370144367218,0.21027281880378723,0.26934173703193665
1758273839999894300,2.926894287109375,0.11575775593519211,0.3061564564704895,0.32863062620162964
1758273840009852400,2.936852294921875,0.12419358640909195,0.3821851909160614,0.36609089374542236
1758273840019810300,2.946810302734375,0.1515170931816101,0.452339768409729,0.36005911231040955
1758273840029768200,2.956768310546875,0.1651623249053955,0.5167802572250366,0.3756210207939148
1758273840039726300,2.966726318359375,0.17285139858722687,0.5203127264976501,0.43930599093437195
1758273840049683500,2.976683349609375,0.1731446236371994,0.40710464119911194,0.5194636583328247
1758273840059641300,2.986641357421875,0.19745634496212006,0.20775079727172852,0.5777802467346191
1758273840069599500,2.996599609375,0.2334686815738678,-0.007174023427069187,0.6086284518241882
1758273840079557400,3.006557373046875,0.27705398201942444,-0.15138685703277588,0.6114439368247986
1758273840089514200,3.01651416015625,0.30893680453300476,-0.18148723244667053,0.6057314872741699
1758273840099472400,3.026472412109375,0.3339601457118988,-0.11055873334407806,0.616874098777771
1758273840109430300,3.03643017578125,0.32530778646469116,0.06241384148597717,0.6245973110198975
1758273840119388400,3.046388427734375,0.2600478231906891,0.25940415263175964,0.6301763653755188
1758273840129346300,3.05634619140625,0.1940179467201233,0.4209434986114502,0.6320993900299072
1758273840139303200,3.06630322265625,0.1362028419971466,0.5359172224998474,0.5976913571357727
1758273840149261300,3.07626123046875,0.1209956631064415,0.561421811580658,0.5395945310592651
1758273840159219200,3.08621923828125,0.1564154326915741,0.4504531919956207,0.4762669503688812
1758273840169177300,3.09617724609375,0.18640822172164917,0.3017153739929199,0.3969143331050873
1758273840179134500,3.106134521484375,0.1946488469839096,0.15613314509391785,0.3676914572715759
1758273840189092400,3.11609228515625,0.20239783823490143,-0.07780824601650238,0.39784136414527893
1758273840199050200,3.12605029296875,0.24419376254081726,-0.40178632736206055,0.48720213770866394
1758273840209008000,3.136008056640625,0.29011064767837524,-0.9135039448738098,0.5843145847320557
1758273840218966300,3.14596630859375,0.3696715235710144,-1.3968769311904907,0.5789815783500671
1758273840228923400,3.15592333984375,0.41703876852989197,-1.5713169574737549,0.42040207982063293
1758273840238881300,3.16588134765625,0.3945086896419525,-1.3295879364013672,0.13810274004936218
1758273840248839400,3.17583935546875,0.28007400035858154,-0.8701450228691101,-0.25374332070350647
1758273840258797300,3.18579736328125,0.13810381293296814,-0.5234243273735046,-0.6297369003295898
1758273840268754200,3.195754150390625,0.1666363775730133,-0.4097667336463928,-0.8716768622398376
1758273840278713000,3.205713134765625,0.22840628027915955,-0.5714954733848572,-1.0912818908691406
1758273840288671000,3.2156708984375,0.26805034279823303,-0.9110205173492432,-1.295073390007019
1758273840298629000,3.225629150390625,0.2807488441467285,-1.2562588453292847,-1.459540843963623
1758273840308586800,3.235586669921875,0.2916867136955261,-1.5797908306121826,-1.6080656051635742
1758273840318544000,3.2455439453125,0.31799155473709106,-1.8861808776855469,-1.7555952072143555
1758273840328502000,3.255501953125,0.3682800233364105,-2.110841989517212,-1.8817079067230225
1758273840338460000,3.2654599609375,0.4284277856349945,-2.253692150115967,-1.9824858903884888
1758273840348418000,3.27541796875,0.5081233978271484,-2.2752561569213867,-2.0822219848632812
1758273840358375000,3.285375,0.6291142702102661,-2.2008016109466553,-2.2081897258758545
1758273840368332800,3.295332763671875,0.7496742606163025,-2.2393245697021484,-2.3244402408599854
1758273840378291000,3.305291015625,0.8102454543113708,-2.3362679481506348,-2.362858772277832
1758273840388248800,3.315248779296875,0.823089063167572,-2.290761947631836,-2.3178281784057617
1758273840398207000,3.32520703125,0.8385338187217712,-2.060167074203491,-2.2627668380737305
1758273840408164000,3.3351640625,0.8681803941726685,-1.6530874967575073,-2.212587833404541
1758273840418121700,3.345121826171875,0.949509859085083,-1.369809627532959,-2.1361918449401855
1758273840428079900,3.355079833984375,1.0968776941299438,-1.326375126838684,-1.9697530269622803
1758273840438037800,3.365037841796875,1.203468680381775,-1.4263629913330078,-1.818782091140747
1758273840447995000,3.374994873046875,1.2511357069015503,-1.5394346714019775,-1.734925389289856
1758273840457953000,3.384953125,1.2718839645385742,-1.7330403327941895,-1.6238569021224976
1758273840467911000,3.394910888671875,1.2349495887756348,-1.9633874893188477,-1.470961570739746
1758273840477869000,3.404869140625,1.1508890390396118,-2.544062376022339,-1.4911142587661743
1758273840487827000,3.414826904296875,1.0816301107406616,-3.0870654582977295,-1.7633010149002075
1758273840497783800,3.42478369140625,1.0354684591293335,-3.1736819744110107,-2.1589081287384033
1758273840507742000,3.434741943359375,1.006907343864441,-2.7333905696868896,-2.436129331588745
1758273840517699800,3.444699951171875,0.9796643257141113,-2.0067663192749023,-2.561450242996216
1758273840527658000,3.454657958984375,0.938828706741333,-1.0677928924560547,-2.5681045055389404
1758273840537614800,3.46461474609375,0.8732449412345886,-0.14620594680309296,-2.4141392707824707
1758273840547572700,3.47457275390625,0.809040904045105,0.22938552498817444,-1.9380704164505005
1758273840557531000,3.48453076171875,0.501502275466919,-0.01788259483873844,-1.4915105104446411
1758273840567489000,3.494489013671875,0.01236505713313818,-0.709136426448822,-1.2506660223007202
1758273840577446000,3.50444580078125,-0.37293627858161926,-1.601642370223999,-1.3001259565353394
1758273840587404000,3.514404052734375,-0.5562707185745239,-2.18994140625,-1.555829405784607
1758273840597362000,3.52436181640625,-0.6132304072380066,-2.95902419090271,-1.698164939880371
1758273840607319800,3.53431982421875,-0.5231164693832397,-3.8972842693328857,-1.8035759925842285
1758273840617278000,3.54427783203125,-0.32608169317245483,-4.075876712799072,-1.9608793258666992
1758273840627234800,3.55423486328125,-0.16539748013019562,-3.632741689682007,-1.9323809146881104
1758273840637193000,3.56419287109375,-0.10892461985349655,-3.1374359130859375,-1.668351650238037
1758273840647151000,3.574151123046875,-0.0669310986995697,-2.853541612625122,-1.3512170314788818
1758273840657109000,3.58410888671875,-0.07238418608903885,-2.3969335556030273,-1.0823323726654053
1758273840667065900,3.59406591796875,-0.18823648989200592,-2.0345876216888428,-0.9333993196487427
1758273840677024000,3.60402392578125,-0.29767802357673645,-1.7987802028656006,-0.850049614906311
1758273840686982000,3.61398193359375,-0.3188687860965729,-1.7485051155090332,-0.7775588631629944
1758273840696940000,3.62393994140625,-0.27733972668647766,-1.6587773561477661,-0.6874425411224365
1758273840706898000,3.63389794921875,-0.22046339511871338,-1.4951138496398926,-0.5903066992759705
1758273840716854800,3.643854736328125,-0.1743403822183609,-1.2498910427093506,-0.4942592680454254
1758273840726813000,3.65381298828125,-0.16018781065940857,-1.044684886932373,-0.3867538273334503
1758273840736770800,3.663770751953125,-0.20325085520744324,-0.8390392661094666,-0.24319986999034882
1758273840746729000,3.67372900390625,-0.2583295404911041,-0.6090404391288757,-0.10316713154315948
1758273840756686000,3.68368603515625,-0.32569339871406555,-0.3151337206363678,0.023152723908424377
1758273840766644000,3.69364404296875,-0.43099987506866455,0.015305186621844769,0.15211470425128937
1758273840776602000,3.70360205078125,-0.5522122979164124,0.39006948471069336,0.27984923124313354
1758273840786559700,3.713559814453125,-0.68537437915802,0.8193454742431641,0.40053170919418335
1758273840796518000,3.723517822265625,-0.8115568161010742,1.2271881103515625,0.5271037817001343
1758273840806475000,3.73347509765625,-0.9046294689178467,1.485903024673462,0.6443142890930176
1758273840816433000,3.743432861328125,-0.9597741961479187,1.5406112670898438,0.7414557337760925
1758273840826391000,3.75339111328125,-0.9428200125694275,1.410076379776001,0.8348301649093628
1758273840836349000,3.763348876953125,-0.8855873346328735,1.1341241598129272,0.8970621228218079
1758273840846305800,3.773305908203125,-0.7857869863510132,0.6560021042823792,0.931425154209137
1758273840856264000,3.783263916015625,-0.6145121455192566,0.03158056363463402,0.8521857261657715
1758273840866221800,3.793221923828125,-0.4097331762313843,-0.6476887464523315,0.5534511804580688
1758273840876180000,3.803179931640625,-0.2909082770347595,-1.149908423423767,0.10938721150159836
1758273840886137900,3.813137939453125,-0.3043138086795807,-0.9609601497650146,-0.11214065551757812
1758273840896095000,3.823094970703125,-0.33326852321624756,0.23919208347797394,0.26947009563446045
1758273840906052900,3.833052978515625,-0.3248734176158905,1.5664598941802979,0.6645292639732361
1758273840916010800,3.8430107421875,-0.20202499628067017,2.3689799308776855,0.9645793437957764
1758273840925969000,3.852968994140625,0.021042168140411377,2.5840537548065186,1.3299880027770996
1758273840935926000,3.862926025390625,0.15365400910377502,1.754741907119751,1.0760281085968018
1758273840945884000,3.8728837890625,0.17574173212051392,0.9043580889701843,0.8477909564971924
1758273840955842000,3.882842041015625,0.20882084965705872,0.658099353313446,0.9284003376960754
1758273840965800000,3.892800048828125,0.2207246571779251,0.9683384299278259,1.0981563329696655
1758273840975756800,3.9027568359375,0.27410799264907837,1.7641910314559937,1.2985423803329468
1758273840985715000,3.91271484375,0.40734192728996277,2.413813829421997,1.3943184614181519
1758273840995672800,3.9226728515625,0.4888644814491272,2.5626020431518555,1.3441942930221558
1758273841005631000,3.932630859375,0.4078548550605774,2.536487340927124,1.3080456256866455
1758273841015589000,3.942589111328125,0.31151634454727173,2.5002496242523193,1.2788981199264526
1758273841025545700,3.952545654296875,0.20856758952140808,2.429515838623047,1.2215688228607178
1758273841035503900,3.96250390625,0.0557924248278141,1.7915505170822144,1.3836627006530762
1758273841045462000,3.9724619140625,-0.059426043182611465,1.433010220527649,1.499880075454712
1758273841055420000,3.982419921875,-0.16678392887115479,1.405502438545227,1.566131830215454
1758273841065377000,3.992376953125,-0.23604315519332886,1.4240329265594482,1.6100395917892456
1758273841075335000,4.0023349609375,-0.2632100582122803,1.4174379110336304,1.5846972465515137
1758273841085292800,4.012292724609375,-0.2929258942604065,1.3996893167495728,1.544929027557373
1758273841095251000,4.0222509765625,-0.2974631190299988,1.4413440227508545,1.5195674896240234
1758273841105207800,4.032207763671875,-0.27674850821495056,1.528795838356018,1.5145138502120972
1758273841115166000,4.042166015625,-0.2204277068376541,1.636090874671936,1.5320683717727661
1758273841125124000,4.0521240234375,-0.08853492885828018,1.8338282108306885,1.4991490840911865
1758273841135082000,4.06208203125,-0.013967480510473251,2.147278070449829,1.4343007802963257
1758273841145040100,4.0720400390625,-0.05348612740635872,2.4238412380218506,1.4211677312850952
1758273841154997000,4.0819970703125,-0.16644197702407837,2.620577573776245,1.474169373512268
1758273841164955000,4.091954833984375,-0.2865055203437805,2.715536117553711,1.5895963907241821
1758273841174913000,4.1019130859375,-0.3699386417865753,2.8300657272338867,1.743965983390808
1758273841184871000,4.111870849609375,-0.4888218939304352,2.830071449279785,1.9005281925201416
1758273841194828000,4.121828125,-0.6356278657913208,2.6193509101867676,1.9610114097595215
1758273841204786000,4.131785888671875,-0.6835165619850159,2.233170747756958,1.861719012260437
1758273841214743800,4.141743896484375,-0.6406574845314026,1.7881624698638916,1.593358039855957
1758273841224702000,4.151701904296875,-0.6190935969352722,1.3474050760269165,1.3006620407104492
1758273841234659000,4.1616591796875,-0.5862757563591003,1.0133074522018433,1.1125028133392334
1758273841244617000,4.171616943359375,-0.5116198658943176,0.8195609450340271,1.0531212091445923
1758273841254575000,4.1815751953125,-0.39906084537506104,0.6673082709312439,1.1108838319778442
1758273841264533000,4.191532958984375,-0.24501800537109375,0.505463182926178,1.1405240297317505
1758273841274491000,4.201490966796875,-0.0822000652551651,0.4363293945789337,1.0561093091964722
1758273841284447000,4.211447021484375,0.060027383267879486,0.5678058862686157,0.8642295598983765
1758273841294404900,4.22140478515625,0.2221611589193344,0.5453519821166992,0.6505522131919861
1758273841304363000,4.231363037109375,0.22352762520313263,0.51047682762146,0.477254718542099
1758273841314321200,4.241321044921875,0.20234139263629913,0.6556550860404968,0.4194478690624237
1758273841324278000,4.251278076171875,0.23317758738994598,0.8448167443275452,0.434104323387146
1758273841334236200,4.261236083984375,0.21742846071720123,1.0970745086669922,0.3918985426425934
1758273841344194000,4.271194091796875,0.13810648024082184,1.3620377779006958,0.366522878408432
1758273841354152000,4.28115185546875,0.06999479979276657,1.5477426052093506,0.4383315443992615
1758273841364110000,4.291110107421875,0.07873688638210297,1.4053610563278198,0.4804355800151825
1758273841374067000,4.30106689453125,0.155821293592453,0.8223830461502075,0.41907715797424316
1758273841384025000,4.311025146484375,0.2664599120616913,0.008070709183812141,0.30116304755210876
1758273841393983200,4.320983154296875,0.39169347286224365,-0.7662699818611145,0.20554304122924805
1758273841403941000,4.330941162109375,0.49415460228919983,-1.2910453081130981,0.1947987824678421
1758273841413898000,4.34089794921875,0.4481375813484192,-1.3752909898757935,0.27659618854522705
1758273841423856000,4.350856201171875,0.28181782364845276,-1.0638526678085327,0.4392109215259552
1758273841433814000,4.36081396484375,0.06666558235883713,-0.45075705647468567,0.6178200840950012
1758273841443772200,4.370772216796875,-0.15789109468460083,0.25602272152900696,0.7599974870681763
1758273841453729300,4.380729248046875,-0.25305357575416565,0.7720967531204224,0.8013600707054138
1758273841463687000,4.39068701171875,-0.2111750841140747,0.9618749022483826,0.712648868560791
1758273841473645000,4.40064501953125,-0.11407623440027237,0.9041112065315247,0.565760612487793
1758273841483603000,4.41060302734375,0.022170282900333405,0.7069688439369202,0.4873347878456116
1758273841493561000,4.42056103515625,0.18542471528053284,0.4764328598976135,0.44870296120643616
1758273841503518200,4.430518310546875,0.3477582335472107,0.32813766598701477,0.28703415393829346
1758273841513476000,4.44047607421875,0.4239557981491089,0.3872601091861725,-0.05426616966724396
1758273841523434200,4.450434326171875,0.43159109354019165,0.5784188508987427,-0.43096843361854553
1758273841533392000,4.460391845703125,0.38095879554748535,0.6823013424873352,-0.6555810570716858
1758273841543349000,4.470348876953125,0.2440347671508789,0.6469427943229675,-0.6956701278686523
1758273841553307100,4.48030712890625,0.09157119691371918,0.4092487692832947,-0.6667527556419373
1758273841563265000,4.49026513671875,0.042759448289871216,-0.039733029901981354,-0.7357720136642456
1758273841573223200,4.50022314453125,0.10524279624223709,-0.7402016520500183,-0.98649001121521
1758273841583180000,4.510179931640625,0.2714352309703827,-1.5452710390090942,-1.3235729932785034
1758273841593138000,4.520137939453125,0.44869762659072876,-2.2960102558135986,-1.6254736185073853
1758273841603096000,4.530095947265625,0.6131643652915955,-2.933539628982544,-1.893877387046814
1758273841613054000,4.540053955078125,0.7851715087890625,-3.3829305171966553,-2.1637167930603027
1758273841623011000,4.550010986328125,0.9258381128311157,-3.696871280670166,-2.45656418800354
1758273841632969200,4.55996923828125,0.976705014705658,-3.8040692806243896,-2.705721139907837
1758273841642927000,4.569927001953125,1.0229781866073608,-3.7000231742858887,-2.874190330505371
1758273841652885000,4.579885009765625,1.0581724643707275,-3.392474412918091,-3.0036323070526123
1758273841662843000,4.5898427734375,1.0786536931991577,-2.678764581680298,-3.0657148361206055
1758273841672800000,4.599800048828125,1.055535912513733,-1.6025744676589966,-2.9156124591827393
1758273841682758100,4.609758056640625,1.0192090272903442,-0.5725271701812744,-2.613286256790161
1758273841692716000,4.619716064453125,0.9761454463005066,-0.03211719170212746,-2.3209824562072754
1758273841702674200,4.629674072265625,0.944425642490387,0.22153984010219574,-2.268015146255493
1758273841712631000,4.639631103515625,1.033279299736023,0.042880620807409286,-2.178619861602783
1758273841722589000,4.6495888671875,1.1398507356643677,-0.22729893028736115,-2.1437666416168213
1758273841732547000,4.659547119140625,1.1639686822891235,-0.3852211833000183,-2.2424800395965576
1758273841742505000,4.6695048828125,1.16028892993927,-0.4562562108039856,-2.365394115447998
1758273841752462000,4.679462158203125,1.1519240140914917,-0.4324329197406769,-2.5256659984588623
1758273841762420000,4.689419921875,1.1770391464233398,-0.582271158695221,-2.599081039428711
1758273841772377900,4.6993779296875,0.9768794178962708,-1.1807502508163452,-2.2924821376800537
1758273841782336000,4.7093359375,0.5940591096878052,-1.7557885646820068,-1.799357295036316
1758273841792293000,4.719293212890625,0.07100386917591095,-2.1850368976593018,-1.5329147577285767
1758273841802251000,4.7292509765625,-0.3115192651748657,-2.459146499633789,-1.6747791767120361
1758273841812209200,4.739209228515625,-0.5111231803894043,-2.6588573455810547,-2.02581524848938
1758273841822167000,4.7491669921875,-0.6478975415229797,-3.0094120502471924,-2.2886080741882324
1758273841832124000,4.7591240234375,-0.6700747609138489,-3.6551012992858887,-2.5710391998291016
1758273841842082000,4.76908203125,-0.5269309282302856,-4.030803680419922,-2.913425922393799
1758273841852040000,4.7790400390625,-0.45274749398231506,-3.945768356323242,-3.0105950832366943
1758273841861998000,4.788998046875,-0.4673624038696289,-3.5795376300811768,-2.6850340366363525
1758273841871955200,4.798955078125,-0.4558578133583069,-2.971465826034546,-2.1710407733917236
1758273841881912800,4.808912841796875,-0.44470396637916565,-2.388124704360962,-1.6816424131393433
1758273841891871000,4.81887109375,-0.3735152781009674,-2.126289129257202,-1.2426620721817017
1758273841901829000,4.8288291015625,-0.4578160345554352,-1.7074681520462036,-1.0364540815353394
1758273841911787000,4.838787109375,-0.629574716091156,-1.2980574369430542,-0.8764159679412842
1758273841921744100,4.848744140625,-0.6788206100463867,-1.1143110990524292,-0.7355847954750061
1758273841931702000,4.858701904296875,-0.6399267315864563,-1.0505717992782593,-0.6724580526351929
1758273841941660200,4.86866015625,-0.6082609295845032,-0.8232858777046204,-0.6144634485244751
1758273841951618000,4.8786181640625,-0.573462724685669,-0.5734400749206543,-0.5486495494842529
1758273841961575000,4.888574951171875,-0.5884494185447693,-0.2431226372718811,-0.4223927855491638
1758273841971533000,4.898532958984375,-0.6172075271606445,0.061472415924072266,-0.25412681698799133
1758273841981491200,4.9084912109375,-0.6637071371078491,0.29174238443374634,-0.06059250608086586
1758273841991449000,4.918448974609375,-0.6827735304832458,0.5549330115318298,0.13201236724853516
1758273842001406000,4.928406005859375,-0.6782261729240417,0.8110899329185486,0.3215188980102539
1758273842011364000,4.938364013671875,-0.6719655990600586,0.9402191638946533,0.4952233135700226
1758273842021322000,4.948322021484375,-0.6412641406059265,0.8485260009765625,0.6401466727256775
1758273842031280000,4.958280029296875,-0.6020256876945496,0.5600950121879578,0.7416653037071228
1758273842041237000,4.968237060546875,-0.514805793762207,0.11582326889038086,0.8051135540008545
1758273842051195100,4.978195068359375,-0.3762364685535431,-0.4163471460342407,0.8245082497596741
1758273842061153000,4.988153076171875,-0.1995309442281723,-0.8711003065109253,0.7857345342636108
1758273842071111000,4.99811083984375,-0.05760497227311134,-0.9514300227165222,0.8579536080360413
1758273842081068000,5.008068115234375,-0.05258384719491005,-0.42842379212379456,1.1006008386611938
1758273842091026200,5.018026123046875,-0.1378425508737564,0.6535295844078064,1.1721203327178955
1758273842100984000,5.027984130859375,0.0959443747997284,1.724191427230835,0.7333677411079407
1758273842110942200,5.037942138671875,0.29062357544898987,2.1001925468444824,0.7275974154472351
1758273842120899000,5.047899169921875,0.29304227232933044,0.9325721859931946,1.1579099893569946
1758273842130857000,5.05785693359375,0.3236486315727234,-0.8741008639335632,1.1133800745010376
1758273842140815000,5.067815185546875,-0.22861959040164948,0.521979033946991,0.9583854079246521
1758273842150773000,5.07777294921875,-0.4549832344055176,2.6380505561828613,1.4099807739257812
1758273842160730000,5.087730224609375,-0.26322150230407715,3.5114457607269287,1.6913983821868896
1758273842170688300,5.097688232421875,0.11928724497556686,2.7240419387817383,1.5925698280334473
1758273842180646000,5.10764599609375,0.4744810163974762,1.0373529195785522,1.322118878364563
1758273842190604000,5.11760400390625,0.4365408420562744,0.18878376483917236,1.1216776371002197
1758273842200561200,5.12756103515625,0.17861847579479218,1.0563753843307495,1.3122084140777588
1758273842210519000,5.13751904296875,-0.06762724369764328,2.5702342987060547,1.7165969610214233
1758273842220477200,5.147477294921875,-0.24219772219657898,3.475343942642212,2.0181946754455566
1758273842230435000,5.15743505859375,-0.3510752022266388,3.322721242904663,2.0394487380981445
1758273842240392000,5.167391845703125,-0.44370126724243164,2.613463878631592,1.875632405281067
1758273842250350000,5.17735009765625,-0.5050567984580994,1.9583866596221924,1.6540099382400513
1758273842260308000,5.187307861328125,-0.6166320443153381,1.4809482097625732,1.5594115257263184
1758273842270266000,5.19726611328125,-0.6541202664375305,1.2597860097885132,1.5463290214538574
1758273842280223500,5.207223388671875,-0.641517698764801,1.1565018892288208,1.557917833328247
1758273842290181400,5.217181396484375,-0.6387889981269836,1.157586693763733,1.5569188594818115
1758273842300139500,5.227139404296875,-0.5910286903381348,1.10416841506958,1.559139370918274
1758273842310097400,5.237097412109375,-0.4873496890068054,1.1249879598617554,1.5419327020645142
1758273842320054300,5.24705419921875,-0.36137285828590393,1.258414387702942,1.5568748712539673
1758273842330012400,5.257012451171875,-0.1761222928762436,1.554924726486206,1.5762264728546143
1758273842339970300,5.26697021484375,0.0037140443455427885,1.900968074798584,1.5964593887329102
1758273842349928400,5.276928466796875,0.17877347767353058,2.173931360244751,1.6063319444656372
1758273842359885600,5.286885498046875,0.2798827886581421,2.3813440799713135,1.5862746238708496
1758273842369843200,5.29684326171875,0.32156842947006226,2.576064348220825,1.5284932851791382
1758273842379801300,5.30680126953125,0.28007665276527405,2.674307107925415,1.4774386882781982
1758273842389759200,5.31675927734375,0.11455667018890381,2.5551915168762207,1.4691951274871826
1758273842399716400,5.32671630859375,-0.11225170642137527,2.2764697074890137,1.492925763130188
1758273842409674500,5.336674560546875,-0.30805477499961853,1.9715232849121094,1.4612165689468384
1758273842419632400,5.34663232421875,-0.4547901451587677,1.6439785957336426,1.407393217086792
1758273842429590300,5.35659033203125,-0.5613016486167908,1.2860289812088013,1.4252129793167114
1758273842439547400,5.36654736328125,-0.6651180982589722,1.2049707174301147,1.4866327047348022
1758273842449505300,5.37650537109375,-0.6692395806312561,1.1875886917114258,1.4861536026000977
1758273842459463400,5.38646337890625,-0.5783467292785645,1.0428411960601807,1.3810551166534424
1758273842469421300,5.39642138671875,-0.4806286692619324,0.8001970648765564,1.1589142084121704
1758273842479378400,5.40637841796875,-0.33408716320991516,0.7241989970207214,0.9582967162132263
1758273842489336300,5.41633642578125,-0.16722813248634338,0.7656625509262085,0.7955373525619507
1758273842499294200,5.426294189453125,-0.06600111722946167,0.7791131138801575,0.6525048017501831
1758273842509252400,5.43625244140625,-0.05414632707834244,0.8143587112426758,0.6090878248214722
1758273842519209500,5.44620947265625,-0.03701953589916229,0.8921195268630981,0.6511527299880981
1758273842529167400,5.45616748046875,-0.01696912944316864,0.9310752153396606,0.6607558131217957
1758273842539125500,5.46612548828125,0.006439523305743933,0.9238987565040588,0.632255494594574
1758273842549083100,5.476083251953125,0.09028489142656326,0.9206888675689697,0.5808828473091125
1758273842559040300,5.486040283203125,0.1914120316505432,0.9147705435752869,0.5068306922912598
1758273842568998400,5.495998291015625,0.25983476638793945,0.8272721171379089,0.4437657296657562
1758273842578956300,5.505956298828125,0.2980008125305176,0.5778185725212097,0.40364786982536316
1758273842588914400,5.51591455078125,0.2887396514415741,0.14043700695037842,0.40602126717567444
1758273842598871300,5.525871337890625,0.27029168605804443,-0.32642072439193726,0.4579659700393677
1758273842608829200,5.5358291015625,0.25564855337142944,-0.733285665512085,0.49286189675331116
1758273842618787300,5.545787353515625,0.19281445443630219,-1.016993522644043,0.5056027173995972
1758273842628745200,5.5557451171875,0.06041860207915306,-1.0140630006790161,0.5779719948768616
1758273842638702300,5.565702392578125,-0.07294078916311264,-0.7447713613510132,0.7055198550224304
1758273842648660500,5.575660400390625,-0.16386136412620544,-0.40490275621414185,0.7989382147789001
1758273842658618400,5.585618408203125,-0.21196845173835754,-0.0719735249876976,0.824212908744812
1758273842668575200,5.5955751953125,-0.19271644949913025,0.18565401434898376,0.7665741443634033
1758273842678533400,5.605533447265625,-0.12750069797039032,0.2606571614742279,0.6274982690811157
1758273842688491300,5.6154912109375,-0.0645877793431282,0.15460875630378723,0.4538167715072632
1758273842698449400,5.625449462890625,0.0073047843761742115,-0.02623746357858181,0.31247639656066895
1758273842708406500,5.635406494140625,0.11085940897464752,-0.08139658719301224,0.22705233097076416
1758273842718364200,5.6453642578125,0.24354314804077148,0.07034846395254135,0.09179197251796722
1758273842728322300,5.655322265625,0.3483382761478424,0.4778491258621216,-0.1800730973482132
1758273842738280200,5.6652802734375,0.41894984245300293,1.059771180152893,-0.5327746868133545
1758273842748237300,5.6752373046875,0.40447771549224854,1.5203955173492432,-0.8316633701324463
1758273842758195500,5.685195556640625,0.3564494550228119,1.476280689239502,-0.8977398872375488
1758273842768153300,5.6951533203125,0.3112036883831024,0.8049950003623962,-0.7132866978645325
1758273842778111500,5.705111572265625,0.28729328513145447,-0.3051431179046631,-0.565472424030304
1758273842788068400,5.715068359375,0.3402204215526581,-1.491790771484375,-0.7472358345985413
1758273842798026200,5.725026123046875,0.48337599635124207,-2.3073089122772217,-1.2270631790161133
1758273842807984400,5.734984375,0.7000625133514404,-2.7007758617401123,-1.801587462425232
1758273842817942300,5.7449423828125,0.966179370880127,-2.9215481281280518,-2.2313976287841797
1758273842827899400,5.7548994140625,1.0134015083312988,-3.439692974090576,-2.2385687828063965
1758273842837857300,5.764857177734375,0.8662402629852295,-3.65950870513916,-2.4297432899475098
1758273842847815200,5.774815185546875,0.7790771722793579,-3.626692533493042,-2.595728874206543
1758273842857773300,5.784773193359375,0.794249951839447,-3.459322452545166,-2.718433380126953
1758273842867730400,5.79473046875,0.8691588044166565,-3.0548198223114014,-2.8301689624786377
1758273842877688300,5.804688232421875,0.9464400410652161,-2.3600056171417236,-2.798039197921753
1758273842887646500,5.814646484375,0.8469778895378113,-1.360593557357788,-2.6087636947631836
1758273842897603300,5.824603271484375,0.7938622236251831,-0.4812915325164795,-2.4242656230926514
1758273842907561200,5.834561279296875,0.8703942894935608,-0.02766997739672661,-2.2967522144317627
1758273842917519400,5.844519287109375,1.0031193494796753,0.12818379700183868,-2.2065789699554443
1758273842927477200,5.854477294921875,1.1416374444961548,-0.007562845014035702,-2.183708667755127
1758273842937434400,5.864434326171875,1.256677269935608,-0.10157642513513565,-2.2941348552703857
1758273842947392300,5.874392333984375,1.3652665615081787,-0.3942338526248932,-2.3193764686584473
1758273842957350100,5.88435009765625,1.412621021270752,-1.0310544967651367,-2.251077890396118
1758273842967308300,5.894308349609375,1.3912204504013062,-1.5588773488998413,-2.31288743019104
1758273842977265400,5.904265380859375,1.435982346534729,-1.782973051071167,-2.530977487564087
1758273842987223300,5.914223388671875,1.6185632944107056,-1.569230318069458,-2.8474793434143066
1758273842997181400,5.924181396484375,1.6407541036605835,-1.2989099025726318,-2.8358359336853027
1758273843007138300,5.93413818359375,1.176496148109436,-1.28355073928833,-2.429392099380493
1758273843017096200,5.94409619140625,0.4217000901699066,-1.5155935287475586,-1.8939248323440552
1758273843027054300,5.954054443359375,-0.16897277534008026,-1.5577197074890137,-1.641842246055603
1758273843037012200,5.96401220703125,-0.5027549862861633,-1.641984224319458,-1.5889414548873901
1758273843046969300,5.97396923828125,-0.6512477993965149,-1.8251903057098389,-1.710282564163208
1758273843056927500,5.983927490234375,-0.7181927561759949,-2.0516529083251953,-1.9557799100875854
1758273843066885000,5.993885009765625,-0.7479208111763,-2.3352818489074707,-2.325674057006836
1758273843076843300,6.00384326171875,-0.6181817650794983,-2.719897508621216,-2.6439554691314697
1758273843086800400,6.01380029296875,-0.549848735332489,-3.335777521133423,-2.7751007080078125
1758273843096758300,6.02375830078125,-0.5303349494934082,-3.8279223442077637,-2.7810475826263428
1758273843106716400,6.03371630859375,-0.4862700402736664,-3.694606065750122,-2.4921000003814697
1758273843116674300,6.04367431640625,-0.45407429337501526,-3.098590612411499,-1.8746103048324585
1758273843126631200,6.053631103515625,-0.46708810329437256,-2.1992008686065674,-1.355444312095642
1758273843136589300,6.06358935546875,-0.508670449256897,-1.6338144540786743,-1.0684000253677368
1758273843146547200,6.073547119140625,-0.5419114828109741,-1.279998540878296,-0.8907397389411926
1758273843156504300,6.08350439453125,-0.5012218356132507,-0.9393877387046814,-0.7443692088127136
1758273843166462500,6.09346240234375,-0.48039510846138,-0.559482216835022,-0.5785685181617737
1758273843176420400,6.10342041015625,-0.5115476846694946,-0.09273206442594528,-0.41243231296539307
1758273843186378200,6.113378173828125,-0.5890550017356873,0.32052287459373474,-0.22210922837257385
1758273843196335400,6.12333544921875,-0.6488264799118042,0.6547024846076965,-0.04862319678068161
1758273843206293200,6.133293212890625,-0.7093401551246643,0.853864312171936,0.10214021801948547
1758273843216251400,6.14325146484375,-0.7671024799346924,0.9692279100418091,0.2329975664615631
1758273843226209300,6.153209228515625,-0.8118494749069214,1.0179486274719238,0.36487889289855957
1758273843236166100,6.163166259765625,-0.8214293718338013,0.9575217366218567,0.5090067982673645
1758273843246124300,6.173124267578125,-0.8026629090309143,0.8243700861930847,0.6703757047653198
1758273843256082200,6.183082275390625,-0.7686213254928589,0.5957014560699463,0.8421844840049744
1758273843266039300,6.193039306640625,-0.7206002473831177,0.22908031940460205,1.0162372589111328
1758273843275997400,6.20299755859375,-0.6114452481269836,-0.20971114933490753,1.12771475315094
1758273843285955600,6.21295556640625,-0.4451367259025574,-0.583390474319458,1.0876256227493286
1758273843295913700,6.222913818359375,-0.3119741380214691,-0.910879909992218,0.9818041324615479
1758273843305870800,6.232870849609375,-0.324161559343338,-1.0486034154891968,1.025422215461731
1758273843315828500,6.242828369140625,-0.4774014353752136,-0.632188081741333,0.9369655847549438
1758273843325786600,6.25278662109375,-0.39266204833984375,0.1866532415151596,0.11937858909368515
1758273843335744500,6.26274462890625,-0.3129797577857971,1.0681883096694946,-0.07883436232805252
1758273843345701600,6.27270166015625,-0.4346262812614441,1.4385051727294922,0.5669382810592651
1758273843355659800,6.28265966796875,-0.50277179479599,0.5776614546775818,0.8491742014884949
1758273843365617700,6.29261767578125,-0.8571298718452454,1.4195908308029175,0.7039650678634644
1758273843375574500,6.302574462890625,-0.9328083992004395,2.456141948699951,0.9168834686279297
1758273843385532700,6.31253271484375,-0.7327860593795776,2.768749237060547,1.287992000579834
1758273843395490600,6.322490478515625,-0.29052478075027466,2.0398924350738525,1.4271429777145386
1758273843405448700,6.33244873046875,0.24006026983261108,1.0356799364089966,1.3145275115966797
1758273843415405800,6.34240576171875,0.46438097953796387,0.594011127948761,1.2561105489730835
1758273843425363700,6.35236376953125,0.49540975689888,1.1141752004623413,1.4407477378845215
1758273843435321600,6.362321533203125,0.5043225288391113,2.0452089309692383,1.7442104816436768
1758273843445278700,6.37227880859375,0.4732391834259033,2.642899990081787,1.8970245122909546
1758273843455236600,6.382236572265625,0.3907235562801361,2.5833749771118164,1.873460054397583
1758273843465194800,6.39219482421875,0.339775413274765,2.0012707710266113,1.7373613119125366
1758273843475152600,6.402152587890625,0.3068438172340393,1.3828325271606445,1.636023759841919
1758273843485109500,6.412109619140625,0.24453091621398926,0.9422197341918945,1.6439677476882935
1758273843495067600,6.422067626953125,0.1758916676044464,0.8123786449432373,1.6725953817367554
1758273843505025500,6.432025634765625,0.086736761033535,0.870613157749176,1.7015577554702759
1758273843514982700,6.441982666015625,0.04710173234343529,1.0259838104248047,1.6978418827056885
1758273843524940800,6.45194091796875,-0.05048554390668869,1.0178791284561157,1.7369484901428223
1758273843534898700,6.461898681640625,-0.09708313643932343,1.061650037765503,1.7334911823272705
1758273843544856800,6.47185693359375,-0.09505434334278107,1.1938059329986572,1.6786998510360718
1758273843554813700,6.481813720703125,-0.09552891552448273,1.386452317237854,1.6150753498077393
1758273843564771600,6.491771484375,-0.09552758932113647,1.6196458339691162,1.5533965826034546
1758273843574729700,6.501729736328125,-0.12475551664829254,1.7501490116119385,1.5549254417419434
1758273843584687600,6.5116875,-0.21710647642612457,1.8527063131332397,1.5816473960876465
1758273843594644700,6.521644775390625,-0.3615821599960327,2.0936858654022217,1.566019892692566
1758273843604602600,6.5316025390625,-0.5780918598175049,2.3301022052764893,1.578627347946167
1758273843614560500,6.541560546875,-0.7271822690963745,2.5008177757263184,1.5969091653823853
1758273843624517600,6.551517578125,-0.7777910828590393,2.5988247394561768,1.6070685386657715
1758273843634475800,6.561475830078125,-0.7116962671279907,2.5570833683013916,1.5868871212005615
1758273843644433700,6.57143359375,-0.6294988393783569,2.362776279449463,1.5885190963745117
1758273843654391800,6.581391845703125,-0.589667797088623,2.0460448265075684,1.6220448017120361
1758273843664348700,6.5913486328125,-0.5176956057548523,1.69929838180542,1.5700716972351074
1758273843674306600,6.601306640625,-0.4212076961994171,1.3923530578613281,1.3848499059677124
1758273843684264700,6.6112646484375,-0.3918417990207672,1.0602893829345703,1.1955795288085938
1758273843694221800,6.621221923828125,-0.3750998377799988,0.8394888043403625,1.0287377834320068
1758273843704179700,6.6311796875,-0.33143970370292664,0.6833154559135437,0.9243155717849731
1758273843714137900,6.641137939453125,-0.3070089519023895,0.5869300961494446,0.9155729413032532
1758273843724095500,6.651095458984375,-0.3357947766780853,0.5759719610214233,1.0055606365203857
1758273843734052600,6.661052490234375,-0.2766209542751312,0.5888283848762512,1.089520812034607
1758273843744010800,6.6710107421875,-0.1425531506538391,0.5699865221977234,1.047918438911438
1758273843753968600,6.68096875,-0.07292374223470688,0.6165550947189331,0.9228516221046448
1758273843763925800,6.69092578125,-0.08119898289442062,0.7394644618034363,0.7713249325752258
1758273843773883600,6.700883544921875,-0.08260007202625275,0.92612224817276,0.6793670654296875
1758273843783841500,6.710841552734375,-0.06527487933635712,1.0608350038528442,0.6488682627677917
1758273843793799700,6.720799560546875,0.022248048335313797,1.1044400930404663,0.636299729347229
1758273843803756800,6.7307568359375,0.08848059922456741,1.100653886795044,0.629788875579834
1758273843813714700,6.740714599609375,0.12158448994159698,1.0852175951004028,0.6163439154624939
1758273843823672800,6.7506728515625,0.18499168753623962,0.9503727555274963,0.5555503368377686
1758273843833629700,6.760629638671875,0.22565416991710663,0.6116681694984436,0.47220349311828613
1758273843843587600,6.770587646484375,0.21741753816604614,0.1373586505651474,0.44664034247398376
1758273843853545700,6.780545654296875,0.16919168829917908,-0.29837098717689514,0.5107468962669373
1758273843863503600,6.790503662109375,0.1305771768093109,-0.5724315643310547,0.6139678359031677
1758273843873460700,6.800460693359375,0.1193423718214035,-0.7016896605491638,0.6674414277076721
1758273843883418600,6.810418701171875,0.1077490970492363,-0.6911454200744629,0.6373549103736877
1758273843893376500,6.82037646484375,0.12014398723840714,-0.5428928136825562,0.5594398379325867
1758273843903333600,6.830333740234375,0.10417753458023071,-0.2347765564918518,0.48805728554725647
1758273843913291800,6.840291748046875,0.04782478138804436,0.1675349324941635,0.4360620081424713
1758273843923249700,6.850249755859375,-0.005297559779137373,0.4125305712223053,0.40467238426208496
1758273843933207800,6.860207763671875,-0.005082909017801285,0.3908633589744568,0.3855234682559967
1758273843943164700,6.87016455078125,0.04254160076379776,0.2344982624053955,0.3739139437675476
1758273843953122600,6.88012255859375,0.1562868058681488,0.09935774654150009,0.2910051941871643
1758273843963080700,6.890080810546875,0.32233384251594543,0.014079333283007145,0.043777573853731155
1758273843973037800,6.900037841796875,0.45216134190559387,0.17273609340190887,-0.3141174614429474
1758273843982995700,6.90999560546875,0.46706971526145935,0.5822791457176208,-0.6410287022590637
1758273843992953900,6.919953857421875,0.3474231958389282,0.9507412910461426,-0.8581780791282654
1758273844002911500,6.929911376953125,0.13708728551864624,1.029358148574829,-0.93023282289505
1758273844012868600,6.93986865234375,0.043478235602378845,0.7152707576751709,-0.9731512665748596
1758273844022826800,6.94982666015625,0.09618725627660751,0.04224732145667076,-1.1305392980575562
1758273844032784600,6.95978466796875,0.25701582431793213,-0.7287311553955078,-1.3757532835006714
1758273844042741800,6.96974169921875,0.48009762167930603,-1.502940058708191,-1.6898398399353027
1758273844052699600,6.97969970703125,0.6907169222831726,-2.3605570793151855,-2.1053574085235596
1758273844062657500,6.989657470703125,0.8645329475402832,-3.176891326904297,-2.5133590698242188
1758273844072614700,6.99961474609375,0.9769284129142761,-3.955483913421631,-2.847759962081909
1758273844082572800,7.00957275390625,1.052614450454712,-4.688587665557861,-3.084214210510254
1758273844092530700,7.01953076171875,1.1261682510375977,-5.281559944152832,-3.2094662189483643
1758273844102488800,7.02948876953125,1.2176721096038818,-5.543164253234863,-3.28478741645813
1758273844112445700,7.03944580078125,1.264283299446106,-5.328240871429443,-3.371417284011841
1758273844122403600,7.049403564453125,1.2376271486282349,-4.05179500579834,-3.3435614109039307
1758273844132361700,7.05936181640625,1.1627910137176514,-2.149505138397217,-3.193956136703491
1758273844142318800,7.06931884765625,1.0533661842346191,-0.2851127088069916,-2.7915546894073486
1758273844152276700,7.07927685546875,0.9605883359909058,1.085135817527771,-2.226588726043701
1758273844162235000,7.08923486328125,0.915212094783783,1.6379988193511963,-1.801891803741455
1758273844172192500,7.099192626953125,0.9685741066932678,1.9146026372909546,-1.5834330320358276
1758273844182149600,7.109149658203125,1.0531272888183594,1.739806890487671,-1.3566603660583496
1758273844192107800,7.119107666015625,1.0226221084594727,1.056943416595459,-1.0564427375793457
1758273844202065700,7.129065673828125,0.9417928457260132,0.13568831980228424,-0.9262151718139648
1758273844212022800,7.139022705078125,0.7111793160438538,-1.5866857767105103,-1.0315488576889038
1758273844221980700,7.148980712890625,0.4809351861476898,-3.694084882736206,-1.5930746793746948
1758273844231938600,7.1589384765625,0.4825786352157593,-5.145863056182861,-2.3272688388824463
1758273844241895700,7.168895751953125,0.5114794969558716,-5.638666152954102,-3.0129055976867676
1758273844251853800,7.178853759765625,0.5349782109260559,-5.430626392364502,-3.5459682941436768
1758273844261811700,7.188811767578125,0.6040424704551697,-4.562414646148682,-3.757523536682129
1758273844271769900,7.198769775390625,0.6427203416824341,-3.7953763008117676,-3.6662380695343018
1758273844281726700,7.208726806640625,0.5230546593666077,-2.7917587757110596,-3.2447969913482666
1758273844291684600,7.2186845703125,0.340488076210022,-2.105266809463501,-2.608823776245117
1758273844301642800,7.228642822265625,0.17503386735916138,-1.6063191890716553,-2.043602466583252
1758273844311599600,7.238599609375,0.15509051084518433,-1.4507935047149658,-1.6880632638931274
1758273844321557800,7.248557861328125,0.21388378739356995,-1.5999661684036255,-1.4865440130233765
1758273844331516000,7.258515869140625,0.22587893903255463,-1.8213834762573242,-1.3103444576263428
1758273844341473500,7.2684736328125,0.20729300379753113,-1.7389634847640991,-1.1510206460952759
1758273844351430700,7.2784306640625,0.18090906739234924,-1.3812415599822998,-0.9990814328193665
1758273844361388800,7.288388916015625,0.18555521965026855,-1.0200873613357544,-0.8935467600822449
1758273844371346700,7.2983466796875,0.1565035879611969,-0.8046642541885376,-0.8069902658462524
1758273844381303800,7.3083037109375,0.09088463336229324,-0.6142823100090027,-0.7099734544754028
1758273844391261700,7.31826171875,-0.09729006886482239,-0.23004917800426483,-0.6063660979270935
1758273844401219600,7.328219482421875,-0.3086997866630554,0.030484938994050026,-0.4372047483921051
1758273844411176700,7.3381767578125,-0.46143820881843567,0.17951276898384094,-0.2629767656326294
1758273844421134600,7.348134521484375,-0.5670128464698792,0.33178165555000305,-0.0887269377708435
1758273844431092700,7.3580927734375,-0.6822360754013062,0.45130112767219543,0.05573516711592674
1758273844441051000,7.36805078125,-0.752405047416687,0.6163111329078674,0.15185824036598206
1758273844451007500,7.378007568359375,-0.8454868197441101,0.7989184856414795,0.22011132538318634
1758273844460965600,7.387965576171875,-0.9290852546691895,0.9755364060401917,0.31169265508651733
1758273844470923800,7.397923828125,-0.9964326620101929,1.141912817955017,0.47147539258003235
1758273844480880600,7.407880615234375,-1.0316311120986938,1.2339016199111938,0.7240437269210815
1758273844490838800,7.4178388671875,-1.047028660774231,1.1593890190124512,1.0439388751983643
1758273844500796700,7.427796630859375,-0.969382643699646,0.8574776649475098,1.2873589992523193
1758273844510753500,7.43775341796875,-0.7989888191223145,0.10944073647260666,1.2087739706039429
1758273844520711700,7.447711669921875,-0.6312512159347534,-0.8635470271110535,0.8567953705787659
1758273844530669600,7.457669677734375,-0.5802825689315796,-1.1575032472610474,0.7708176374435425
1758273844540627700,7.467627685546875,-0.5492210388183594,-0.7759617567062378,0.5536187291145325
1758273844550584800,7.477584716796875,-0.39794284105300903,0.008728510700166225,0.3997846841812134
1758273844560542500,7.48754248046875,-0.5346415638923645,1.0781456232070923,0.725288987159729
1758273844570500600,7.49750048828125,-0.450616717338562,1.2831794023513794,0.9584634304046631
1758273844580457700,7.507457763671875,-0.4959239959716797,1.544564962387085,0.7368290424346924
1758273844590415600,7.51741552734375,-0.744256854057312,2.0184881687164307,0.66484135389328
1758273844600373800,7.527373779296875,-0.8780170679092407,2.212236166000366,1.051787257194519
1758273844610330600,7.53733056640625,-0.8516756892204285,2.272517204284668,1.4069576263427734
1758273844620288500,7.54728857421875,-0.6369391679763794,2.3059093952178955,1.5326526165008545
1758273844630246700,7.55724658203125,-0.3658253848552704,1.916582465171814,1.532755970954895
1758273844640203800,7.567203857421875,-0.18743540346622467,1.4984818696975708,1.4594745635986328
1758273844650161700,7.57716162109375,-0.07987645268440247,1.5489588975906372,1.4785065650939941
1758273844660119800,7.587119873046875,-0.03369830921292305,1.9403051137924194,1.6369116306304932
1758273844670077400,7.597077392578125,-0.07316955178976059,2.116325616836548,1.84013032913208
1758273844680034600,7.60703466796875,-0.11151587218046188,1.9533828496932983,1.9626389741897583
1758273844689992700,7.61699267578125,-0.09705650806427002,1.5384067296981812,1.9258472919464111
1758273844699950600,7.62695068359375,-0.16724704205989838,0.9005303382873535,1.848885416984558
1758273844709907700,7.63690771484375,-0.20809008181095123,0.5292094945907593,1.7640043497085571
1758273844719865600,7.646865478515625,-0.2306222915649414,0.561351478099823,1.6594302654266357
1758273844729823500,7.656823486328125,-0.3082824647426605,0.8473222255706787,1.587662935256958
1758273844739780600,7.666780517578125,-0.4224148988723755,1.1476277112960815,1.5897958278656006
1758273844749738800,7.67673876953125,-0.5750116109848022,1.2432775497436523,1.7289454936981201
1758273844759696600,7.686696533203125,-0.6737642884254456,1.3847780227661133,1.848300576210022
1758273844769654800,7.69665478515625,-0.6445081233978271,1.7016435861587524,1.8351531028747559
1758273844779611600,7.706611572265625,-0.5927221775054932,2.0358967781066895,1.7760589122772217
1758273844789569500,7.716569580078125,-0.5775014162063599,2.277099132537842,1.7082029581069946
1758273844799527700,7.726527587890625,-0.6030699014663696,2.327148914337158,1.5852991342544556
1758273844809484800,7.73648486328125,-0.6181545853614807,2.3017475605010986,1.4412904977798462
1758273844819442700,7.746442626953125,-0.5936561822891235,2.399322748184204,1.4089304208755493
1758273844829400800,7.75640087890625,-0.529299795627594,2.6044256687164307,1.4102423191070557
1758273844839357700,7.766357666015625,-0.4935641884803772,2.746673583984375,1.453474998474121
1758273844849315600,7.776315673828125,-0.5475019812583923,2.8746960163116455,1.5885937213897705
1758273844859273700,7.786273681640625,-0.6471047401428223,2.4872283935546875,1.832737922668457
1758273844869230800,7.79623095703125,-0.6289518475532532,1.7887494564056396,1.8805989027023315
1758273844879188700,7.806188720703125,-0.6404588222503662,1.1630942821502686,1.816664695739746
1758273844889146600,7.816146728515625,-0.686574399471283,0.9057418704032898,1.6567966938018799
1758273844899104500,7.8261044921875,-0.6552984714508057,1.0184082984924316,1.3410019874572754
1758273844909061600,7.8360615234375,-0.5574187636375427,0.9848294854164124,1.0051968097686768
1758273844919019800,7.846019775390625,-0.4664316177368164,0.6902737617492676,0.7934030890464783
1758273844928977700,7.855977783203125,-0.33610716462135315,0.3026061952114105,0.7400253415107727
1758273844938934500,7.8659345703125,-0.2371979057788849,-0.011210043914616108,0.7951642274856567
1758273844948892700,7.875892578125,-0.19486083090305328,-0.07543137669563293,0.8979982137680054
1758273844958850600,7.8858505859375,-0.14525359869003296,-0.01739496923983097,0.9835570454597473
1758273844968807700,7.8958076171875,-0.0646466389298439,0.15468278527259827,0.928882360458374
1758273844978765800,7.905765869140625,0.042400721460580826,0.5213524103164673,0.7919766902923584
1758273844988723700,7.9157236328125,0.10201744735240936,0.9429669976234436,0.63539057970047
1758273844998680600,7.9256806640625,0.0914369747042656,1.2441737651824951,0.5752305388450623
1758273845008638700,7.935638671875,0.022527413442730904,1.4866551160812378,0.6310551762580872
1758273845018596600,7.9455966796875,-0.04681863635778427,1.6249895095825195,0.7429391145706177
1758273845028554800,7.9555546875,-0.03929973393678665,1.5348132848739624,0.777738630771637
1758273845038511900,7.965511962890625,0.05588936433196068,1.1421096324920654,0.6318541169166565
1758273845048469800,7.9754697265625,0.15123505890369415,0.5099292993545532,0.3926897644996643
1758273845058427600,7.985427734375,0.1644483357667923,-0.20418775081634521,0.24460148811340332
1758273845068384800,7.995384765625,0.14618544280529022,-0.8817691802978516,0.28429538011550903
1758273845078342700,8.0053427734375,0.09957186132669449,-1.3660598993301392,0.47492310404777527
1758273845088300800,8.01530078125,0.021327659487724304,-1.6305408477783203,0.6798741221427917
1758273845098257700,8.025257568359375,-0.09118450433015823,-1.6127797365188599,0.7955501079559326
1758273845108215600,8.035215576171876,-0.15677976608276367,-1.2703078985214233,0.7929967045783997
1758273845118173700,8.045173583984376,-0.13258548080921173,-0.6359884142875671,0.6555821299552917
1758273845128130600,8.055130615234376,-0.033000826835632324,0.2233409434556961,0.3980613648891449
1758273845138088700,8.065088623046876,0.040584977716207504,1.0561015605926514,0.12837502360343933
1758273845148046800,8.075046875,0.12693797051906586,1.6373451948165894,-0.05012814700603485
1758273845158003500,8.08500341796875,0.21624255180358887,1.8863977193832397,-0.1674949824810028
1758273845167961600,8.094961669921876,0.2928830087184906,1.833498477935791,-0.2682887017726898
1758273845177919700,8.104919677734374,0.30797407031059265,1.4701921939849854,-0.3503801226615906
1758273845187877600,8.114877685546874,0.20558485388755798,0.929706871509552,-0.32600927352905273
1758273845197834800,8.124834716796874,0.12401462346315384,0.21119479835033417,-0.2101321965456009
1758273845207792600,8.134792724609374,0.16266854107379913,-0.5862139463424683,-0.2545430660247803
1758273845217750800,8.144750732421874,0.2738986611366272,-1.2551935911178589,-0.6297422647476196
1758273845227707600,8.154707763671874,0.43247711658477783,-1.6315553188323975,-1.2174500226974487
1758273845237665500,8.16466552734375,0.6114221215248108,-1.7212060689926147,-1.7865948677062988
1758273845247623700,8.174623779296875,0.7250184416770935,-1.5538333654403687,-2.13615083694458
1758273845257580800,8.184580810546874,0.7485759854316711,-1.341417670249939,-2.33506441116333
1758273845267538700,8.19453857421875,0.7323152422904968,-1.1232643127441406,-2.3694615364074707
1758273845277496600,8.20449658203125,0.7259185910224915,-1.2530268430709839,-2.440129041671753
1758273845287454000,8.214453857421875,0.690311849117279,-1.4814038276672363,-2.5882182121276855
1758273845297411800,8.224411865234375,0.7132954597473145,-1.7370105981826782,-2.764598846435547
1758273845307369700,8.23436962890625,0.7749980092048645,-1.9633119106292725,-2.883746385574341
1758273845317326800,8.244326904296875,0.8041321635246277,-2.066999912261963,-2.98190975189209
1758273845327284700,8.25428466796875,0.8187867403030396,-2.01265025138855,-2.9700303077697754
1758273845337243000,8.264242919921875,0.8412257432937622,-1.8534892797470093,-2.7705910205841064
1758273845347200000,8.274199951171875,0.9033868312835693,-1.6371045112609863,-2.4969165325164795
1758273845357157600,8.28415771484375,0.976851224899292,-1.3999502658843994,-2.3080785274505615
1758273845367115800,8.29411572265625,1.0375795364379883,-1.2372015714645386,-2.2826526165008545
1758273845377073700,8.30407373046875,1.1085189580917358,-1.041837453842163,-2.4350736141204834
1758273845387030800,8.31403076171875,1.2049435377120972,-0.8093162775039673,-2.6540002822875977
1758273845396989000,8.323989013671875,1.3304548263549805,-0.604685366153717,-2.786057710647583
1758273845406946800,8.33394677734375,1.4013230800628662,-0.3868180215358734,-2.8110668659210205
1758273845416903700,8.343903564453125,1.410519003868103,-0.26792946457862854,-2.72167706489563
1758273845426861800,8.35386181640625,1.3153163194656372,-0.4001234471797943,-2.492074966430664
1758273845436819700,8.36381982421875,1.100521445274353,-0.702348530292511,-2.142171621322632
1758273845446776800,8.37377685546875,0.732896625995636,-1.0517494678497314,-1.701079249382019
1758273845456735000,8.38373486328125,0.1335306316614151,-1.3678251504898071,-1.4772205352783203
1758273845466692600,8.393692626953126,-0.2891199588775635,-1.8833752870559692,-1.5286864042282104
1758273845476649700,8.403649658203125,-0.27336814999580383,-2.164837598800659,-1.835062026977539
1758273845486608000,8.41360791015625,-0.28480562567710876,-2.8941667079925537,-2.1597392559051514
1758273845496565800,8.423565673828126,-0.27820125222206116,-3.3357889652252197,-2.655229091644287
1758273845506523000,8.43352294921875,-0.12802773714065552,-3.4406614303588867,-3.1482763290405273
1758273845516480800,8.443480712890626,-0.11980922520160675,-3.670865297317505,-3.2069225311279297
1758273845526438700,8.453438720703126,-0.2135722041130066,-3.844482660293579,-2.8862383365631104
1758273845536395800,8.463395751953126,-0.2198047935962677,-3.5302929878234863,-2.2370433807373047
1758273845546354000,8.47335400390625,-0.16283152997493744,-2.743241786956787,-1.6985102891921997
1758273845556311800,8.483311767578124,-0.10323157906532288,-2.0654592514038086,-1.3249346017837524
1758273845566270000,8.49327001953125,-0.1671208143234253,-1.5355981588363647,-1.0412431955337524
1758273845576226800,8.503226806640624,-0.205100417137146,-1.1840403079986572,-0.8333758115768433
1758273845586184700,8.513184814453124,-0.21789664030075073,-0.8596939444541931,-0.7057933211326599
1758273845596142800,8.523142822265624,-0.2175150066614151,-0.5453016757965088,-0.5689683556556702
1758273845606100000,8.533099853515624,-0.24275511503219604,-0.13803216814994812,-0.3955020606517792
1758273845616057900,8.543057861328125,-0.3045575022697449,0.3927307724952698,-0.19270846247673035
1758273845626016000,8.55301611328125,-0.406388521194458,0.8680741190910339,0.0062397862784564495
1758273845635972900,8.562972900390625,-0.5492433905601501,1.1328866481781006,0.1625359207391739
1758273845645930800,8.5729306640625,-0.6646972894668579,1.1376291513442993,0.2597666084766388
1758273845655889000,8.582888916015625,-0.7441455125808716,0.9813671112060547,0.3276015818119049
1758273845665845800,8.592845703125,-0.8027997612953186,0.8727269172668457,0.38824519515037537
1758273845675804000,8.602803955078125,-0.8317539095878601,0.8338125348091125,0.4806846082210541
1758273845685761800,8.61276171875,-0.8266845941543579,0.7499285936355591,0.6250228881835938
1758273845695718700,8.62271875,-0.8083553910255432,0.5334625840187073,0.8038645386695862
1758273845705676800,8.6326767578125,-0.7532886862754822,0.14076830446720123,0.9868998527526855
1758273845715635000,8.642635009765625,-0.6302596926689148,-0.3533782958984375,1.1246318817138672
1758273845725591800,8.652591796875,-0.42510947585105896,-0.8642565011978149,1.0466006994247437
1758273845735549700,8.6625498046875,-0.26410675048828125,-1.2768968343734741,0.7168760895729065
1758273845745507800,8.6725078125,-0.1482107788324356,-1.2739877700805664,0.27665236592292786
1758273845755464700,8.682464599609375,-0.07372881472110748,-0.4081243872642517,0.13638180494308472
1758273845765422800,8.6924228515625,-0.08908700197935104,1.0799040794372559,0.513382077217102
1758273845775380700,8.702380615234375,-0.07478556036949158,1.5850346088409424,1.3592060804367065
1758273845785337600,8.712337646484375,-0.08104904741048813,1.9278303384780884,1.856811285018921
1758273845795295700,8.722295654296875,-0.14040984213352203,1.1610580682754517,1.3282954692840576
1758273845805253600,8.732253662109375,-0.22202880680561066,0.3214118480682373,1.0935442447662354
1758273845815210800,8.742210693359375,-0.2961192727088928,0.595498263835907,1.2390186786651611
1758273845825169000,8.7521689453125,-0.2841039001941681,1.3792484998703003,1.3743224143981934
1758273845835126800,8.762126708984376,-0.17072780430316925,1.863586664199829,1.4464492797851562
1758273845845083600,8.772083740234375,0.0026852653827518225,1.8196932077407837,1.440119743347168
1758273845855041800,8.782041748046876,-0.0006319681415334344,1.677264928817749,1.416851282119751
1758273845864999700,8.791999755859376,-0.09844188392162323,1.8980306386947632,1.5044372081756592
1758273845874956800,8.801956787109376,-0.21839545667171478,2.1842072010040283,1.6499500274658203
1758273845884915000,8.8119150390625,-0.38463714718818665,2.108888626098633,1.6776798963546753
1758273845894872800,8.821872802734376,-0.5465000867843628,1.7293657064437866,1.6238124370574951
1758273845904830700,8.831830810546874,-0.7062860131263733,1.3560811281204224,1.5585098266601562
1758273845914787800,8.841787841796876,-0.8231034874916077,1.207816481590271,1.5350375175476074
1758273845924745700,8.851745849609374,-0.8552408814430237,1.284781813621521,1.5540746450424194
1758273845934703900,8.861703857421874,-0.8234257102012634,1.5059078931808472,1.5784204006195068
1758273845944661000,8.871660888671874,-0.8090813755989075,1.7336688041687012,1.6555469036102295
1758273845954618600,8.88161865234375,-0.7798832654953003,1.8903971910476685,1.7695612907409668
1758273845964576800,8.89157666015625,-0.6985111832618713,1.9541908502578735,1.8769553899765015
1758273845974534000,8.901533935546874,-0.5786689519882202,2.034414052963257,1.9230217933654785
1758273845984491800,8.91149169921875,-0.4130088686943054,2.061286211013794,1.892054796218872
1758273845994450000,8.921449951171875,-0.21879306435585022,2.0307908058166504,1.7771859169006348
1758273846004406800,8.93140673828125,-0.03754204884171486,1.9271605014801025,1.5796537399291992
1758273846014364700,8.94136474609375,-0.04098151996731758,1.7501330375671387,1.385320782661438
1758273846024322800,8.95132275390625,-0.10138068348169327,1.479026436805725,1.274523138999939
1758273846034280000,8.961280029296875,-0.1355501115322113,1.1599856615066528,1.281564474105835
1758273846044237800,8.97123779296875,-0.2542668879032135,0.9458999633789062,1.3898470401763916
1758273846054196000,8.981196044921875,-0.4409129321575165,0.8659675717353821,1.5535634756088257
1758273846064152800,8.99115283203125,-0.6074451804161072,0.7792699337005615,1.7151939868927002
1758273846074110700,9.00111083984375,-0.7344886660575867,0.7210679054260254,1.8152939081192017
1758273846084068900,9.01106884765625,-0.7246503829956055,0.7523994445800781,1.752556562423706
1758273846094025700,9.021025634765625,-0.6141422390937805,0.8343284130096436,1.5058099031448364
1758273846103983900,9.03098388671875,-0.5401495099067688,0.9888703227043152,1.2666138410568237
1758273846113942000,9.04094189453125,-0.5660426616668701,1.1906495094299316,1.1381725072860718
1758273846123898600,9.050898681640625,-0.6087679862976074,1.2422285079956055,1.1187047958374023
1758273846133856800,9.060856689453125,-0.5889807343482971,1.1650466918945312,1.1335183382034302
1758273846143815000,9.07081494140625,-0.5905541181564331,1.0343173742294312,1.1134636402130127
1758273846153771800,9.080771728515625,-0.6361373066902161,0.9581020474433899,1.1120511293411255
1758273846163730000,9.09072998046875,-0.5425828695297241,0.953920304775238,1.1116218566894531
1758273846173687800,9.100687744140625,-0.3700944483280182,0.9206933975219727,1.0212916135787964
1758273846183644700,9.110644775390625,-0.2934366762638092,0.8766273856163025,0.8890747427940369
1758273846193602800,9.120602783203125,-0.20808875560760498,0.8588321805000305,0.7881702184677124
1758273846203560700,9.130560791015625,-0.0956927016377449,0.7612467408180237,0.7369328737258911
1758273846213517800,9.140517822265625,-0.009829727932810783,0.5842972993850708,0.7176913022994995
1758273846223475700,9.150475830078125,0.04424096271395683,0.4783327579498291,0.7056697607040405
1758273846233433600,9.16043359375,0.08294814825057983,0.5039270520210266,0.7034806609153748
1758273846243390700,9.170390625,0.08823291957378387,0.5790897011756897,0.6812419295310974
1758273846253348900,9.180348876953126,0.08848512172698975,0.6439248919487,0.6392409205436707
1758273846263306800,9.190306640625,0.09552039951086044,0.6279784440994263,0.5955515503883362
1758273846273263600,9.200263671875,0.1458381563425064,0.4927811920642853,0.5481722950935364
1758273846283222300,9.21022216796875,0.23777979612350464,0.2563396394252777,0.505540668964386
1758273846293180000,9.220179931640626,0.3150959014892578,-0.006143912672996521,0.47299259901046753
1758273846303137000,9.230136962890626,0.3636578321456909,-0.2132720649242401,0.43450164794921875
1758273846313095200,9.24009521484375,0.37443485856056213,-0.3212920129299164,0.3974091410636902
1758273846323053000,9.250052978515624,0.3287414014339447,-0.38367414474487305,0.3973787724971771
1758273846333010200,9.26001025390625,0.20929037034511566,-0.4142738878726959,0.4736112356185913
1758273846342968000,9.269968017578124,0.039432626217603683,-0.3646000623703003,0.5974631309509277
1758273846352926000,9.279926025390624,-0.09089262038469315,-0.27163124084472656,0.6876487135887146
1758273846362883000,9.289883056640624,-0.14396223425865173,-0.16816450655460358,0.6698635816574097
1758273846372841200,9.29984130859375,-0.1400814801454544,0.08143014460802078,0.4987450838088989
1758273846382799000,9.309799072265625,-0.07238391786813736,0.43895021080970764,0.22620970010757446
1758273846392756000,9.319755859375,0.07128962874412537,0.6777020692825317,-0.011896606534719467
1758273846402714000,9.329714111328125,0.22065621614456177,0.7212671041488647,-0.21422627568244934
1758273846412672000,9.339672119140625,0.3821002244949341,0.627780556678772,-0.35147708654403687
1758273846422629000,9.349629150390625,0.47946274280548096,0.34867435693740845,-0.4475167989730835
1758273846432587300,9.359587158203125,0.41781988739967346,-0.18075700104236603,-0.42016398906707764
1758273846442545200,9.369545166015625,0.25070464611053467,-0.9018645882606506,-0.23881150782108307
1758273846452502000,9.379501953125,0.2265138328075409,-1.6322780847549438,-0.11881426721811295
1758273846462460200,9.389460205078125,0.34542316198349,-2.24889874458313,-0.33214759826660156
1758273846472418000,9.39941796875,0.4847496449947357,-2.436112642288208,-0.8126689195632935
1758273846482375200,9.409375244140625,0.6071447730064392,-2.1310362815856934,-1.3356746435165405
1758273846492333000,9.4193330078125,0.6911653876304626,-1.6077351570129395,-1.7295047044754028
1758273846502291200,9.429291259765625,0.7858873605728149,-1.0157443284988403,-1.910513162612915
1758273846512248000,9.439248046875,0.8399945497512817,-0.6459457278251648,-2.058297872543335
1758273846522206000,9.4492060546875,0.9121624827384949,-0.6393120288848877,-2.3231606483459473
1758273846532164000,9.4591640625,0.9189769625663757,-0.900274395942688,-2.526179790496826
1758273846542121200,9.469121337890625,0.9086700081825256,-1.423378348350525,-2.6768531799316406
1758273846552079000,9.4790791015625,0.9175564646720886,-2.1030423641204834,-2.8627028465270996
1758273846562037000,9.489037109375,0.9386566877365112,-2.701819896697998,-3.0351107120513916
1758273846571994000,9.498994140625,1.0086815357208252,-3.126397132873535,-3.102877616882324
1758273846581952000,9.508951904296875,1.0959810018539429,-3.3341596126556396,-3.0619618892669678
1758273846591910100,9.51891015625,1.1249234676361084,-3.2271194458007812,-2.9167373180389404
1758273846601867300,9.5288671875,1.093723177909851,-2.8685028553009033,-2.6333353519439697
1758273846611825000,9.538824951171875,1.0885356664657593,-2.378924608230591,-2.3584136962890625
1758273846621783000,9.548782958984376,1.2032742500305176,-1.8766896724700928,-2.2091362476348877
1758273846631740200,9.558740234375,1.3656476736068726,-1.352142572402954,-2.1145102977752686
1758273846641698000,9.568697998046876,1.4600647687911987,-0.7142525911331177,-2.062045097351074
1758273846651656200,9.57865625,1.4155611991882324,0.0070528495125472546,-2.106814384460449
1758273846661613000,9.588613037109376,1.4724642038345337,0.5317696332931519,-2.2475156784057617
1758273846671571000,9.598571044921876,1.5612560510635376,0.5704837441444397,-2.32283616065979
1758273846681529000,9.608529052734376,1.34506094455719,0.09730204939842224,-2.1950490474700928
1758273846691486200,9.618486328125,0.9985189437866211,-0.8697298169136047,-1.975967526435852
1758273846701444000,9.628444091796876,0.6051468849182129,-1.5841898918151855,-2.0415456295013428
1758273846711402200,9.63840234375,0.3220265209674835,-1.8926135301589966,-2.31451416015625
1758273846721359000,9.648359130859374,0.24097825586795807,-2.126164674758911,-2.5523128509521484
1758273846731317000,9.65831689453125,0.17348337173461914,-2.3089656829833984,-2.7856221199035645
1758273846741275100,9.668275146484374,0.05771496146917343,-2.997857093811035,-3.1129167079925537
1758273846751232300,9.678232177734374,-0.038773760199546814,-2.952787399291992,-3.357268810272217
1758273846761190100,9.688190185546874,0.11924436688423157,-2.194730520248413,-3.3611743450164795
1758273846771148300,9.698148193359375,0.2509155869483948,-1.7629563808441162,-3.1838526725769043
1758273846781105200,9.708105224609374,0.2769959270954132,-2.1572725772857666,-2.7227187156677246
1758273846791063000,9.71806298828125,0.13177160918712616,-2.5267741680145264,-2.1229069232940674
1758273846801021200,9.728021240234375,0.005304217804223299,-2.2804999351501465,-1.686910629272461
1758273846810978000,9.73797802734375,-0.09686582535505295,-1.862091302871704,-1.4081873893737793
1758273846820936200,9.747936279296875,-0.047027163207530975,-1.5476171970367432,-1.2114437818527222
1758273846830894000,9.75789404296875,-0.014537929557263851,-1.2806382179260254,-1.03937828540802
1758273846840851000,9.767850830078125,-0.020624319091439247,-1.0902878046035767,-0.926577627658844
1758273846850809000,9.77780908203125,-0.016335297375917435,-0.9143036603927612,-0.8369060754776001
1758273846860767200,9.787767333984375,-0.01242417935281992,-0.6729698777198792,-0.6815455555915833
1758273846870724000,9.79772412109375,-0.20837371051311493,-0.21826043725013733,-0.45929673314094543
1758273846880682000,9.807681884765625,-0.3502959609031677,0.10001208633184433,-0.21244648098945618
1758273846890640100,9.81764013671875,-0.4479074776172638,0.3566601276397705,0.04951615259051323
1758273846900597000,9.827596923828125,-0.5633555054664612,0.6285179853439331,0.28505197167396545
1758273846910555100,9.83755517578125,-0.6827831268310547,0.826968789100647,0.5104305148124695
1758273846920513300,9.84751318359375,-0.7626233100891113,1.0156041383743286,0.701449990272522
1758273846930470000,9.857469970703125,-0.8501835465431213,1.1945337057113647,0.9076995849609375
1758273846940428000,9.867427978515625,-0.9081616401672363,1.297094464302063,1.071014404296875
1758273846950385200,9.87738525390625,-0.948395848274231,1.3242899179458618,1.178449273109436
1758273846960343000,9.887343017578125,-0.9391658902168274,1.2833997011184692,1.255492925643921
1758273846970301200,9.89730126953125,-0.8887162804603577,1.0995478630065918,1.3233261108398438
1758273846980258000,9.907258056640625,-0.7827781438827515,0.7311024069786072,1.3468159437179565
1758273846990216000,9.9172158203125,-0.5687023401260376,0.21511976420879364,1.1207410097122192
1758273847000174000,9.927174072265625,-0.3508791923522949,-0.2848253548145294,0.5522525310516357
1758273847010131200,9.937131103515625,-0.16972166299819946,-0.696219265460968,-0.29923439025878906
1758273847020089000,9.947089111328125,-0.01787034422159195,-0.8698430061340332,-0.6224750280380249
1758273847030047200,9.957047119140626,-0.2522719204425812,-0.045459095388650894,0.29314878582954407
1758273847040004000,9.967004150390625,-0.45692598819732666,0.3672856092453003,0.9765729308128357
1758273847049962000,9.9769619140625,-0.6853546500205994,1.3545047044754028,1.3027416467666626
1758273847059920100,9.986920166015626,-0.8100899457931519,2.0434229373931885,1.214774250984192
1758273847069877200,9.996877197265626,-0.5284281373023987,0.7897380590438843,0.8098318576812744
1758273847079835100,10.006835205078126,-0.4834340512752533,0.16025066375732422,0.6915952563285828
1758273847089793300,10.016793212890626,-0.5984479784965515,0.6102337837219238,0.8006226420402527
1758273847099750100,10.026750244140626,-0.7159351706504822,1.1462668180465698,0.9680798053741455
1758273847109708000,10.0367080078125,-0.7219001650810242,1.4870274066925049,1.2286133766174316
1758273847119666200,10.046666259765624,-0.672004222869873,1.6358405351638794,1.4205684661865234
1758273847129623300,10.056623291015624,-0.6210281252861023,1.7072523832321167,1.4138463735580444
1758273847139581200,10.066581298828124,-0.5650729537010193,1.9360147714614868,1.3531981706619263
1758273847149539000,10.0765390625,-0.5027850866317749,1.9899911880493164,1.3247652053833008
1758273847159496200,10.08649609375,-0.45268306136131287,1.7836097478866577,1.3117344379425049
1758273847169454000,10.0964541015625,-0.4417382478713989,1.4647045135498047,1.3302655220031738
1758273847179412200,10.106412109375,-0.43021848797798157,1.226499080657959,1.3741692304611206
1758273847189369000,10.116369140625,-0.4045749008655548,1.0862418413162231,1.4543893337249756
1758273847199327000,10.126326904296874,-0.40266916155815125,0.9096497893333435,1.5884578227996826
1758273847209285000,10.13628515625,-0.38804253935813904,0.7692708373069763,1.7030673027038574
1758273847219242000,10.146241943359374,-0.30806541442871094,0.8579235076904297,1.7718098163604736
1758273847229200100,10.1562001953125,-0.19651305675506592,1.0690966844558716,1.8153167963027954
1758273847239157200,10.1661572265625,-0.12100951373577118,1.3214190006256104,1.812113642692566
1758273847249115000,10.176114990234375,-0.06714761257171631,1.6257301568984985,1.8097130060195923
1758273847259073000,10.186072998046875,-0.039148733019828796,1.8771445751190186,1.7437046766281128
1758273847269030100,10.196030029296875,-0.0666448101401329,2.05043363571167,1.64040207862854
1758273847278988000,10.205988037109375,-0.0824916809797287,2.1430180072784424,1.5259947776794434
1758273847288945200,10.215945068359375,-0.01164254080504179,2.1380491256713867,1.4093352556228638
1758273847298902300,10.22590234375,0.02767130918800831,1.964849591255188,1.314435601234436
1758273847308860400,10.2358603515625,-0.15188567340373993,1.7658507823944092,1.2600970268249512
1758273847318818300,10.245818359375,-0.3282620310783386,1.8453106880187988,1.315190076828003
1758273847328775400,10.255775390625,-0.39123299717903137,2.1588969230651855,1.4836028814315796
1758273847338733300,10.2657333984375,-0.3672938644886017,2.3860690593719482,1.6314258575439453
1758273847348691200,10.275691162109375,-0.3685569763183594,2.267599582672119,1.7980833053588867
1758273847358648300,10.2856484375,-0.4856114387512207,1.8592236042022705,1.9738678932189941
1758273847368606200,10.295606201171875,-0.5790085196495056,1.4942208528518677,1.9468085765838623
1758273847378564400,10.305564453125,-0.6275382041931152,1.3089947700500488,1.7158576250076294
1758273847388521200,10.315521240234375,-0.6991727352142334,1.2464579343795776,1.436793565750122
1758273847398479000,10.32547900390625,-0.8048043251037598,1.2738416194915771,1.235149621963501
1758273847408437200,10.335437255859375,-0.7684623003005981,1.3569804430007935,1.1477422714233398
1758273847418394400,10.345394287109375,-0.6570490002632141,1.2907670736312866,1.1048041582107544
1758273847428352300,10.355352294921875,-0.5960764288902283,1.0305618047714233,1.0643882751464844
1758273847438310400,10.365310302734375,-0.49922284483909607,0.7522399425506592,1.013375163078308
1758273847448267300,10.375267333984375,-0.3581027388572693,0.5954697728157043,0.9355008602142334
1758273847458225200,10.38522509765625,-0.2787541449069977,0.5590204000473022,0.8204573392868042
1758273847468182300,10.395182373046875,-0.2523254454135895,0.7053760290145874,0.7200167775154114
1758273847478140400,10.405140380859375,-0.19796501100063324,0.8418300151824951,0.6458429098129272
1758273847488098300,10.415098388671876,-0.10829771310091019,0.9730862975120544,0.6058595776557922
1758273847498055200,10.42505517578125,-0.022538864985108376,1.0609700679779053,0.5608845949172974
1758273847508013300,10.435013427734376,0.04682636260986328,1.1408590078353882,0.5057244300842285
1758273847517971200,10.44497119140625,0.08059897273778915,1.2419073581695557,0.45300397276878357
1758273847527928300,10.45492822265625,0.09586714208126068,1.2888306379318237,0.4037139117717743
1758273847537886500,10.464886474609376,0.13021180033683777,1.1930407285690308,0.36724910140037537
1758273847547844400,10.47484423828125,0.20228572189807892,0.9479886889457703,0.3399583697319031
1758273847557801200,10.48480126953125,0.29621806740760803,0.5722938776016235,0.31180688738822937
1758273847567759400,10.49475927734375,0.35594239830970764,0.16882283985614777,0.29815977811813354
1758273847577717200,10.50471728515625,0.3053987920284271,-0.212833970785141,0.3259698450565338
1758273847587674400,10.51467431640625,0.20845787227153778,-0.5283847451210022,0.43717414140701294
1758273847597632500,10.524632568359374,0.07952944934368134,-0.7275087833404541,0.6201404929161072
1758273847607590100,10.534590087890624,-0.031748343259096146,-0.8178314566612244,0.7989667057991028
1758273847617547300,10.54454736328125,-0.10342572629451752,-0.7969956994056702,0.9136541485786438
1758273847627505400,10.55450537109375,-0.12772254645824432,-0.5663132071495056,0.9109297394752502
1758273847637463300,10.56446337890625,-0.10411814600229263,-0.16738739609718323,0.7871094942092896
1758273847647420400,10.57442041015625,-0.07939575612545013,0.2752475440502167,0.59235680103302
1758273847657378300,10.58437841796875,-0.08296758681535721,0.6480773091316223,0.43885084986686707
1758273847667336200,10.594336181640625,-0.10268163681030273,0.8523987531661987,0.3688323497772217
1758273847677293300,10.604293212890624,-0.07763780653476715,0.9258748292922974,0.3204818665981293
1758273847687251500,10.61425146484375,0.01203695498406887,1.03819739818573,0.1833445280790329
1758273847697208300,10.624208251953124,0.08179126679897308,1.4402191638946533,-0.10811661928892136
1758273847707166200,10.634166259765625,0.08722997456789017,1.9641481637954712,-0.4239608645439148
1758273847717124000,10.6441240234375,0.09566953033208847,2.209583044052124,-0.6510193347930908
1758273847727081200,10.654081298828125,0.06868026405572891,2.158531665802002,-0.7068530321121216
1758273847737039400,10.664039306640625,0.026943733915686607,1.7148346900939941,-0.5409324765205383
1758273847746997200,10.673997314453125,0.02430081181228161,0.8845066428184509,-0.23960460722446442
1758273847756954000,10.6839541015625,0.0805470421910286,-0.19340701401233673,-0.006010221783071756
1758273847766912300,10.693912353515625,0.1692121922969818,-1.239119529724121,-0.044913411140441895
1758273847776870100,10.7038701171875,0.2913471460342407,-2.001495838165283,-0.3352499008178711
1758273847786827300,10.7138271484375,0.41045063734054565,-2.505352020263672,-0.7438557744026184
1758273847796785400,10.723785400390625,0.5466614961624146,-2.782759666442871,-1.108303189277649
1758273847806743300,10.733743408203125,0.6733818650245667,-2.85520076751709,-1.353524923324585
1758273847816700200,10.7437001953125,0.7350289821624756,-2.7328505516052246,-1.5030945539474487
1758273847826658300,10.753658203125,0.7908123731613159,-2.5549466609954834,-1.6463675498962402
1758273847836616200,10.7636162109375,0.7960649132728577,-2.449673891067505,-1.7576532363891602
1758273847846573300,10.7735732421875,0.7516753673553467,-2.3873486518859863,-1.81587553024292
1758273847856531500,10.783531494140625,0.6998864412307739,-2.3196935653686523,-1.851889729499817
1758273847866489300,10.7934892578125,0.6314978003501892,-2.2466142177581787,-1.8838067054748535
1758273847876446200,10.8034462890625,0.6056952476501465,-2.142118453979492,-1.917475938796997
1758273847886404400,10.813404296875,0.6397746205329895,-1.959004521369934,-1.903519630432129
1758273847896362200,10.8233623046875,0.6791694760322571,-1.7399758100509644,-1.8135823011398315
1758273847906319400,10.8333193359375,0.6550194025039673,-1.4943710565567017,-1.6960456371307373
1758273847916277500,10.843277587890626,0.4965711534023285,-1.2728506326675415,-1.5365946292877197
1758273847926235100,10.853235107421876,0.41526004672050476,-1.1581517457962036,-1.4420270919799805
1758273847936192300,10.863192138671875,0.48892706632614136,-1.0457419157028198,-1.344757080078125
1758273847946150400,10.873150390625,0.6120652556419373,-0.717728853225708,-1.238003134727478
1758273847956107300,10.883107177734376,0.6656054258346558,-0.08037766069173813,-1.1497726440429688
1758273847966065400,10.8930654296875,0.47160694003105164,0.8161757588386536,-1.040432095527649
1758273847976023300,10.903023193359376,0.04095861688256264,1.8260341882705688,-0.7912682890892029
1758273847985980200,10.912980224609376,-0.2457738071680069,2.643446445465088,-0.44057074189186096
1758273847995938300,10.922938232421876,0.08702784031629562,2.2920732498168945,-0.35887452960014343
1758273848005896400,10.932896484375,0.4128269851207733,1.0406911373138428,-0.6735429763793945
1758273848015853300,10.942853271484376,0.2620830237865448,0.21839597821235657,-0.7325929999351501
1758273848025811200,10.952811279296874,0.1679522544145584,-0.03369325026869774,-0.691143274307251
1758273848035769300,10.962769287109374,0.24577008187770844,0.14325542747974396,-0.6929540038108826
1758273848045726200,10.972726318359374,0.4760570824146271,0.5239777565002441,-0.7291500568389893
1758273848055684400,10.982684326171874,0.6952717304229736,1.0413825511932373,-0.7270621657371521
1758273848065642200,10.992642333984374,0.7158465385437012,1.5520426034927368,-0.5719876289367676
1758273848075599000,11.00259912109375,0.7632992267608643,1.435609221458435,-0.29101771116256714
1758273848085557200,11.01255712890625,0.8216565847396851,0.6638008952140808,0.1326557844877243
1758273848095515100,11.02251513671875,0.7071108222007751,-0.20036132633686066,0.5151816010475159
1758273848105472300,11.03247216796875,0.4504918158054352,-0.8250073790550232,0.6568779945373535
1758273848115430400,11.042430419921875,0.1660425066947937,-1.099607229232788,0.5941587090492249
1758273848125388300,11.05238818359375,-0.13946548104286194,-0.921339750289917,0.48862773180007935
1758273848135345200,11.06234521484375,-0.47482243180274963,-0.315120130777359,0.36522671580314636
1758273848145303300,11.07230322265625,-0.9219722747802734,-0.2564277946949005,0.6362614035606384
1758273848155261200,11.08226123046875,-0.8181092143058777,-0.5763040781021118,0.8315044045448303
1758273848165218300,11.09221826171875,-0.7270547151565552,-0.5366504192352295,0.9158653616905212
1758273848175176400,11.102176513671875,-0.6912455558776855,-0.4039839506149292,0.8886656761169434
1758273848185133300,11.11213330078125,-0.7061834931373596,-0.3801499903202057,0.8413650393486023
1758273848195091200,11.12209130859375,-0.6071964502334595,-0.39908134937286377,0.7966827750205994
1758273848205049300,11.13204931640625,-0.39197656512260437,-0.5356844663619995,0.7917572259902954
1758273848215006500,11.14200634765625,-0.23730096220970154,-1.1245287656784058,1.2151820659637451
1758273848224964400,11.15196435546875,-0.1395573616027832,-1.6787850856781006,1.769063115119934
1758273848234922500,11.161922607421875,-0.11136860400438309,-1.4283041954040527,1.9931966066360474
1758273848244879400,11.17187939453125,-0.1392713338136673,-0.6779047250747681,2.092907190322876
1758273848254837200,11.181837158203125,-0.06427645683288574,-0.2897284924983978,2.527799367904663
1758273848264795400,11.19179541015625,-0.031208785250782967,-0.6123648881912231,3.1152701377868652
1758273848274752300,11.201752197265625,-0.2289615422487259,-1.5227299928665161,3.354935884475708
1758273848284710700,11.211710693359375,-0.4326275885105133,-2.0295181274414062,2.8679137229919434
1758273848294668800,11.221668701171875,-0.26183372735977173,-2.244135856628418,2.169085741043091
1758273848304625700,11.231625732421875,-0.02400280348956585,-1.5145652294158936,1.5462933778762817
1758273848314583800,11.241583740234375,-0.23951351642608643,-0.22769175469875336,0.8999188542366028
1758273848324541700,11.251541748046876,-0.5982351899147034,0.9982097744941711,0.19343523681163788
1758273848334498600,11.26149853515625,-0.9377778172492981,1.7113089561462402,-0.6140176057815552
1758273848344456700,11.271456787109376,-1.2683755159378052,2.0401852130889893,-1.1658618450164795
1758273848354414600,11.28141455078125,-1.5780848264694214,2.6815032958984375,-1.1077075004577637
1758273848364371700,11.291371826171876,-1.8076740503311157,3.9987375736236572,-0.40763142704963684
1758273848374329600,11.30132958984375,-1.7768656015396118,5.858173370361328,0.5515925884246826
1758273848384287500,11.31128759765625,-1.6886987686157227,7.071173667907715,1.2950448989868164
1758273848394244600,11.32124462890625,-2.120835304260254,5.595175743103027,1.652885913848877
1758273848404202800,11.33120263671875,-2.8576815128326416,2.0221478939056396,1.2121995687484741
1758273848414160600,11.34116064453125,-3.393418312072754,-2.2721004486083984,0.12004438042640686
1758273848424117500,11.351117431640626,-3.774585723876953,-5.071589946746826,-0.9505836367607117
1758273848434075600,11.36107568359375,-3.7390522956848145,-5.020252704620361,-1.9062925577163696
1758273848444032800,11.37103271484375,-3.440006732940674,-3.091259002685547,-2.1803789138793945
1758273848453990700,11.38099072265625,-3.1068806648254395,0.4477415680885315,-1.3954225778579712
1758273848463948800,11.39094873046875,-2.4690186977386475,6.2087202072143555,0.28678223490715027
1758273848473905700,11.40090576171875,-2.1813461780548096,12.325064659118652,2.025164842605591
1758273848483863600,11.410863525390624,-1.7508518695831299,5.542245388031006,2.018272638320923
1758273848493821700,11.42082177734375,-1.6013195514678955,2.107287645339966,2.0315539836883545
1758273848503778800,11.43077880859375,-1.5939682722091675,4.054301738739014,3.0824499130249023
1758273848513736700,11.44073681640625,-1.6922955513000488,4.667342662811279,2.4461984634399414
1758273848523694800,11.45069482421875,-1.3529009819030762,5.675983428955078,2.6279282569885254
1758273848533651700,11.460651611328124,-1.200930118560791,4.880062580108643,2.736614942550659
1758273848543609600,11.470609619140625,-1.2101694345474243,5.035120487213135,2.603053331375122
1758273848553567700,11.480567626953125,-1.2902336120605469,4.889039993286133,1.7327364683151245
1758273848563524600,11.490524658203125,-1.2460675239562988,5.934312343597412,2.39752197265625
1758273848573482800,11.500482666015625,-1.1637848615646362,6.3331170082092285,3.028949499130249
1758273848583441000,11.51044091796875,-1.4735504388809204,5.590546607971191,2.2190918922424316
1758273848593397500,11.5203974609375,-2.4977564811706543,6.334161758422852,2.024998426437378
1758273848603355600,11.530355712890625,-3.63962459564209,6.297329425811768,2.3450682163238525
1758273848613313800,11.540313720703125,-4.517381191253662,6.603065490722656,2.973827838897705
1758273848623270700,11.550270751953125,-5.24152135848999,6.560678958892822,3.8212523460388184
1758273848633228800,11.560228759765625,-5.761123180389404,6.564793586730957,4.639552593231201
1758273848643186700,11.570186767578125,-6.233792304992676,6.669173240661621,5.374263763427734
1758273848653143600,11.5801435546875,-6.478667259216309,6.784830093383789,5.8987836837768555
1758273848663101700,11.590101806640625,-6.518255710601807,6.708645343780518,6.190203666687012
1758273848673059600,11.6000595703125,-6.422579765319824,6.426116943359375,6.287784099578857
1758273848683016700,11.6100166015625,-6.211812496185303,5.962734699249268,6.19509220123291
1758273848692974600,11.619974609375,-5.966898441314697,5.437305450439453,5.853816509246826
1758273848702932500,11.629932373046875,-5.644946098327637,4.900012969970703,5.27113151550293
1758273848712889600,11.6398896484375,-5.28218412399292,4.125662803649902,4.488316535949707
1758273848722847700,11.64984765625,-5.017570495605469,3.136967897415161,3.641998529434204
1758273848732805600,11.6598056640625,-4.774241924285889,2.174678325653076,2.8532116413116455
1758273848742762500,11.669762451171875,-4.603695869445801,1.4090648889541626,2.2160818576812744
1758273848752720600,11.679720703125,-4.38674259185791,0.8406323790550232,1.8294830322265625
1758273848762677800,11.689677734375,-4.121713638305664,0.5576227903366089,1.681954026222229
1758273848772635600,11.6996357421875,-3.8941516876220703,0.6966978311538696,1.748216152191162
1758273848782593800,11.70959375,-3.7837300300598145,0.9770181775093079,1.9364908933639526
1758273848792550700,11.719550537109376,-3.7557177543640137,1.239396333694458,2.1058108806610107
1758273848802508500,11.729508544921876,-3.8157057762145996,1.3895463943481445,2.214564800262451
1758273848812466700,11.739466796875,-3.9062252044677734,1.2994345426559448,2.289872407913208
1758273848822423800,11.749423828125,-3.847740650177002,1.1934276819229126,2.2826225757598877
1758273848832381700,11.759381591796876,-3.6532702445983887,1.2058182954788208,2.103600263595581
1758273848842339800,11.76933984375,-3.4275963306427,1.0933027267456055,1.8076690435409546
1758273848852296700,11.779296630859376,-3.215398073196411,0.7239822149276733,1.4024360179901123
1758273848862254600,11.789254638671874,-3.009683847427368,0.15971723198890686,0.9082407355308533
1758273848872212700,11.799212646484374,-2.8404648303985596,-1.1027127504348755,0.7837775945663452
1758273848882169600,11.809169677734374,-2.52156662940979,-2.2232019901275635,0.6772562265396118
1758273848892127700,11.819127685546874,-2.002046585083008,-2.2309577465057373,0.5170378088951111
1758273848902086000,11.8290859375,-1.4388611316680908,-1.7211991548538208,0.46305927634239197
1758273848912042500,11.83904248046875,-0.7086232304573059,-0.7326537370681763,0.35004428029060364
1758273848922000600,11.849000732421874,0.1219237744808197,0.06052326411008835,0.31721392273902893
1758273848931958800,11.858958740234375,0.9857776165008545,0.22783875465393066,0.3399637043476105
1758273848941915600,11.86891552734375,1.5651565790176392,0.5357382297515869,0.49519509077072144
1758273848951873800,11.878873779296875,1.0317192077636719,1.5536417961120605,1.1539298295974731
1758273848961831700,11.888831787109375,-0.08685127645730972,0.280527800321579,0.9640858769416809
1758273848971788500,11.89878857421875,-1.5664443969726562,-1.4345284700393677,0.5905820727348328
1758273848981746700,11.90874658203125,-2.4233851432800293,-1.427241563796997,0.544847846031189
1758273848991704600,11.91870458984375,-2.504135847091675,-0.7723891735076904,0.33242642879486084
1758273849001661700,11.92866162109375,-2.155972480773926,-0.32852622866630554,-0.13365313410758972
1758273849011619600,11.93861962890625,-1.403212070465088,-0.009417470544576645,-0.5318492650985718
1758273849021577500,11.948577392578125,-0.7070969343185425,1.0095160007476807,-0.7658196687698364
1758273849031534600,11.95853466796875,-0.3309853672981262,1.3313629627227783,-0.8080288767814636
1758273849041492700,11.96849267578125,-0.35073938965797424,0.6492312550544739,-0.3675846755504608
1758273849051449900,11.978449951171875,-0.42640697956085205,-0.6224175095558167,0.36639663577079773
1758273849061407500,11.988407470703125,-0.35637569427490234,-1.1308016777038574,0.6264843940734863
1758273849071365600,11.99836572265625,-0.3869224190711975,-1.2336366176605225,0.5526639819145203
1758273849081322800,12.00832275390625,-0.5898997783660889,-0.9162565469741821,0.4530889093875885
1758273849091280600,12.01828076171875,-0.8155558109283447,-0.3924087882041931,0.30008792877197266
1758273849101238800,12.02823876953125,-0.8831076622009277,-0.028202610090374947,0.10818878561258316
1758273849111195600,12.038195556640625,-0.8997244834899902,0.18257513642311096,0.048601891845464706
1758273849121153500,12.048153564453125,-0.8391112089157104,0.17631803452968597,0.10264887660741806
1758273849131111700,12.058111572265625,-0.7161522507667542,-0.019479691982269287,0.19571250677108765
1758273849141068800,12.06806884765625,-0.5920683741569519,-0.23549588024616241,0.24174365401268005
1758273849151026700,12.078026611328125,-0.4364473521709442,-0.3460434377193451,0.2566669285297394
1758273849160984800,12.08798486328125,-0.27858981490135193,-0.3568393588066101,0.2618366777896881
1758273849170941700,12.097941650390625,-0.16931100189685822,-0.30334097146987915,0.2433846890926361
1758273849180899600,12.107899658203126,-0.11577906459569931,-0.19287464022636414,0.24449017643928528
1758273849190857700,12.117857666015626,-0.10877255350351334,-0.09494408965110779,0.2950766384601593
1758273849200814800,12.12781494140625,-0.1255320906639099,0.006834470201283693,0.3639156222343445
1758273849210772700,12.137772705078126,-0.14664669334888458,0.12474779039621353,0.4209405779838562
1758273849220731000,12.14773095703125,-0.13619938492774963,0.19297584891319275,0.46826520562171936
1758273849230687700,12.157687744140626,-0.10549633204936981,0.15288569033145905,0.47956180572509766
1758273849240645600,12.167645751953126,-0.07057323306798935,0.057008955627679825,0.4504348039627075
1758273849250603800,12.177603759765624,-0.01919499970972538,-0.010105897672474384,0.40304839611053467
1758273849260560600,12.187560546875,0.04072985425591469,-0.03536677733063698,0.34921497106552124
1758273849270518800,12.197518798828124,0.08201843500137329,-0.02737330086529255,0.285344660282135
1758273849280476700,12.2074765625,0.08928247541189194,-0.007966047152876854,0.21765083074569702
1758273849290433800,12.217433837890624,0.07653738558292389,0.032635707408189774,0.15192002058029175
1758273849300392000,12.227391845703124,0.0436212457716465,0.0722624808549881,0.08106476068496704
1758273849310349800,12.237349853515624,0.015145396813750267,0.10583668202161789,0.014583736658096313
1758273849320306700,12.247306640625,0.0006151901907287538,0.11943478137254715,-0.017471401020884514
1758273849330264800,12.257264892578124,-0.004960670135915279,0.09659764915704727,-0.020608872175216675
1758273849340222000,12.267221923828124,-0.009987919591367245,0.07913130521774292,0.08218088746070862
1758273849350179800,12.277179931640624,-0.0892648994922638,0.09830792993307114,0.4154278337955475
1758273849360137700,12.2871376953125,-0.22169964015483856,0.11509356647729874,1.213649868965149
1758273849370094800,12.2970947265625,-0.3689972162246704,-0.23131658136844635,0.8765453696250916
1758273849380052700,12.307052734375,-0.27172577381134033,-0.15920910239219666,0.4463535249233246
1758273849390011000,12.317010986328125,-0.15939418971538544,0.04559491574764252,0.02484116703271866
1758273849399968000,12.326968017578125,-0.15165051817893982,0.16914747655391693,-0.37018924951553345
1758273849409925600,12.336925537109375,-0.24387870728969574,0.2570613622665405,-0.5664532780647278
1758273849419883800,12.3468837890625,-0.36690130829811096,0.2317671775817871,-0.43601006269454956
