time,seconds_elapsed,z,y,x
1758273837124591600,0.051591552734375,0.11802438646554947,-0.5545737147331238,0.10536716133356094
1758273837134549500,0.061549560546875,0.21067576110363007,-0.5483709573745728,0.04702476039528847
1758273837144507600,0.071507568359375,0.2916136682033539,-0.48689326643943787,0.005305381957441568
1758273837154465500,0.081465576171875,0.37944844365119934,-0.38455304503440857,0.03907027095556259
1758273837164422400,0.09142236328125,0.42122191190719604,-0.3544926941394806,0.1669180542230606
1758273837174380500,0.101380615234375,0.4523393511772156,-0.3877427875995636,0.380080908536911
1758273837184338700,0.111338623046875,0.4547698497772217,-0.3310311436653137,0.561378538608551
1758273837194296600,0.121296630859375,0.4556649327278137,-0.3003174364566803,0.6330394148826599
1758273837204253400,0.13125341796875,0.4954957962036133,-0.35029691457748413,0.5980822443962097
1758273837214211600,0.141211669921875,0.6025463342666626,-0.436532199382782,0.525883674621582
1758273837224169500,0.15116943359375,0.7373155951499939,-0.5203114748001099,0.4661742150783539
1758273837234127600,0.161127685546875,0.8694219589233398,-0.5293686389923096,0.43301546573638916
1758273837244084500,0.17108447265625,0.9922149777412415,-0.5316641330718994,0.4057779610157013
1758273837254042600,0.181042724609375,1.0618760585784912,-0.6077772378921509,0.37521687150001526
1758273837264000800,0.191000732421875,1.0754326581954956,-0.726658046245575,0.3462110459804535
1758273837273958400,0.20095849609375,1.0399090051651,-0.8741100430488586,0.3355562686920166
1758273837283915800,0.210915771484375,0.981136679649353,-0.9999322295188904,0.3570106625556946
1758273837293873700,0.220873779296875,0.909859836101532,-1.0378937721252441,0.3960246443748474
1758273837303831600,0.23083154296875,0.8045562505722046,-0.9936653971672058,0.4051262140274048
1758273837313788700,0.24078857421875,0.6797780990600586,-0.9463269114494324,0.41481345891952515
1758273837323746600,0.25074658203125,0.6166945099830627,-0.9153618812561035,0.4694371521472931
1758273837333704700,0.26070458984375,0.6478361487388611,-0.965244472026825,0.6339283585548401
1758273837343662800,0.270662841796875,0.7773104310035706,-1.1462031602859497,0.8370752334594727
1758273837353619500,0.280619384765625,0.9522737264633179,-1.422473430633545,1.012550950050354
1758273837363577600,0.29057763671875,1.134067177772522,-1.6764558553695679,1.1357358694076538
1758273837373535700,0.30053564453125,1.2717792987823486,-1.839088797569275,1.1843857765197754
1758273837383493600,0.31049365234375,1.3395916223526,-1.9954289197921753,1.1601893901824951
1758273837393450800,0.32045068359375,1.3060952425003052,-2.1261534690856934,1.0585535764694214
1758273837403408600,0.33040869140625,1.207610011100769,-2.1107842922210693,0.9095364212989807
1758273837413366800,0.34036669921875,1.078195571899414,-1.6824136972427368,0.7484673261642456
1758273837423324700,0.35032470703125,0.9859199523925781,-1.2359181642532349,0.5210220217704773
1758273837433281500,0.360281494140625,1.0648688077926636,-1.0146400928497314,0.26676177978515625
1758273837443239700,0.37023974609375,1.2412993907928467,-0.9248008728027344,0.07097882777452469
1758273837453197800,0.38019775390625,1.4215360879898071,-0.9651727676391602,0.04047738015651703
1758273837463155700,0.39015576171875,1.5380570888519287,-1.1682802438735962,0.1308155357837677
1758273837473112600,0.400112548828125,1.5590413808822632,-1.5312129259109497,0.2777772545814514
1758273837483070700,0.41007080078125,1.6220083236694336,-1.9878259897232056,0.4841626286506653
1758273837493028600,0.420028564453125,1.79831063747406,-2.430326461791992,0.7129265069961548
1758273837502986800,0.42998681640625,2.0276429653167725,-2.8599607944488525,0.9628283381462097
1758273837512943900,0.43994384765625,2.3040616512298584,-3.2491402626037598,1.2238224744796753
1758273837522901800,0.44990185546875,2.568377733230591,-3.487919569015503,1.4180670976638794
1758273837532859600,0.459859619140625,2.699618101119995,-3.6180264949798584,1.5008549690246582
1758273837542817500,0.469817626953125,2.8597726821899414,-3.777395248413086,1.5370111465454102
1758273837552774700,0.479774658203125,3.0792133808135986,-3.9412689208984375,1.5574783086776733
1758273837562732800,0.48973291015625,3.2810659408569336,-4.162493705749512,1.5506216287612915
1758273837572690700,0.499690673828125,3.4452056884765625,-4.254370212554932,1.509035587310791
1758273837582648800,0.50964892578125,3.5453925132751465,-4.247090816497803,1.4986062049865723
1758273837592605700,0.519605712890625,3.6016414165496826,-4.259469509124756,1.5375293493270874
1758273837602563600,0.5295634765625,3.616311550140381,-4.300760746002197,1.6129873991012573
1758273837612521700,0.539521728515625,3.5515849590301514,-4.392181873321533,1.6635326147079468
1758273837622479600,0.549479736328125,3.4538371562957764,-4.444046497344971,1.6634880304336548
1758273837632436700,0.559436767578125,3.4415321350097656,-4.428652763366699,1.6582828760147095
1758273837642395000,0.569394775390625,3.462137460708618,-4.417401313781738,1.6471316814422607
1758273837652352500,0.5793525390625,3.413715124130249,-4.36030387878418,1.6742479801177979
1758273837662310700,0.589310546875,3.271872043609619,-4.217641353607178,1.7591551542282104
1758273837672267800,0.599267822265625,2.9774882793426514,-3.9488043785095215,1.845475673675537
1758273837682225700,0.6092255859375,2.688876152038574,-3.665019989013672,1.7980295419692993
1758273837692183800,0.619183837890625,2.515561580657959,-3.3111376762390137,1.6092287302017212
1758273837702141700,0.6291416015625,2.3161418437957764,-2.8381242752075195,1.428489089012146
1758273837712098600,0.6390986328125,2.101318836212158,-2.588726043701172,1.077570915222168
1758273837722056700,0.649056640625,2.022003412246704,-2.345829486846924,0.7555131912231445
1758273837732014600,0.6590146484375,1.9735867977142334,-2.2455356121063232,0.39395472407341003
1758273837741972700,0.66897265625,1.8984448909759521,-2.0791046619415283,0.08703665435314178
1758273837751929900,0.678929931640625,1.917297601699829,-1.8312608003616333,-0.10450375080108643
1758273837761887700,0.6888876953125,1.9651663303375244,-1.5496433973312378,-0.27119341492652893
1758273837771845600,0.698845703125,1.9191192388534546,-1.2319331169128418,-0.46329495310783386
1758273837781803500,0.708803466796875,1.89092218875885,-0.5788456201553345,-0.9747024178504944
1758273837791760600,0.7187607421875,2.2888522148132324,-0.6578698754310608,-0.9746593236923218
1758273837801718800,0.72871875,2.480999708175659,-0.8134967088699341,-0.7224881649017334
1758273837811676700,0.7386767578125,2.1982505321502686,-1.0624130964279175,-0.7576272487640381
1758273837821634800,0.748634765625,2.084266185760498,-0.8057160973548889,-0.9814480543136597
1758273837831591700,0.758591796875,2.362452745437622,-0.24953831732273102,-1.2547529935836792
1758273837841549600,0.768549560546875,2.6595442295074463,0.008007273077964783,-1.5934492349624634
1758273837851507700,0.7785078125,3.017163038253784,0.1910516619682312,-1.8534581661224365
1758273837861465600,0.788465576171875,3.372391700744629,0.13599151372909546,-1.916885256767273
1758273837871422700,0.798422607421875,3.5022075176239014,-0.32723739743232727,-1.787896990776062
1758273837881380600,0.808380615234375,3.5017595291137695,-0.7211604118347168,-1.4811197519302368
1758273837891338500,0.81833837890625,3.4415175914764404,-0.7185302376747131,-1.1825295686721802
1758273837901296600,0.828296630859375,3.2909317016601562,-0.4118306040763855,-0.9930917024612427
1758273837911253800,0.838253662109375,2.899104595184326,1.1134607791900635,-0.6549503803253174
1758273837921211600,0.848211669921875,2.5749361515045166,1.960052728652954,-0.6011686325073242
1758273837931169800,0.858169677734375,2.288938045501709,1.4273667335510254,-0.8302345871925354
1758273837941127700,0.868127685546875,1.90261971950531,0.8211430311203003,-0.6985470056533813
1758273837951084500,0.87808447265625,1.5955404043197632,0.16246050596237183,-0.03201768547296524
1758273837961042700,0.888042724609375,1.3414562940597534,-0.1530437469482422,0.5640429854393005
1758273837971000600,0.89800048828125,1.2215770483016968,-0.3248879313468933,0.7968413233757019
1758273837980958700,0.907958740234375,1.1438089609146118,-0.7506163716316223,0.8341290950775146
1758273837990915800,0.917915771484375,0.6232584118843079,-0.7546396255493164,0.7903672456741333
1758273838000873500,0.92787353515625,0.030416443943977356,-0.46052587032318115,0.6634199619293213
1758273838010831600,0.93783154296875,-0.17590875923633575,-0.48639872670173645,0.4616394340991974
1758273838020789500,0.94778955078125,-0.331180602312088,-0.3243270218372345,0.44394341111183167
1758273838030746600,0.95774658203125,-0.4005706012248993,-0.14144854247570038,0.41984739899635315
1758273838040704800,0.967704833984375,-0.017420394346117973,-0.04584341496229172,0.20628802478313446
1758273838050662700,0.97766259765625,0.6649461984634399,-0.12777264416217804,-0.23508484661579132
1758273838060620800,0.987620849609375,1.1828813552856445,-0.7180560231208801,-0.7426081299781799
1758273838070578700,0.99757861328125,1.4150738716125488,-1.1269980669021606,-1.2480055093765259
1758273838080535600,1.00753564453125,1.3014861345291138,-1.0223881006240845,-1.7340540885925293
1758273838090493700,1.01749365234375,1.1949114799499512,-1.146252989768982,-1.7673137187957764
1758273838100451600,1.02745166015625,1.0759965181350708,-1.3731142282485962,-1.1482696533203125
1758273838110409700,1.03740966796875,0.9517642855644226,-1.8753149509429932,-0.08862574398517609
1758273838120366600,1.04736669921875,0.8918449878692627,-1.6424983739852905,0.7803828716278076
1758273838130324500,1.057324462890625,0.7482912540435791,-1.0156477689743042,0.8871428370475769
1758273838140282600,1.06728271484375,0.5928568840026855,-0.48416993021965027,0.33368343114852905
1758273838150240800,1.07724072265625,0.4580886662006378,-0.1796899139881134,-0.373662531375885
1758273838160197600,1.08719775390625,0.3880115747451782,-0.1263023316860199,-0.7514974474906921
1758273838170155800,1.09715576171875,0.3401218056678772,-0.04693479835987091,-0.6875658631324768
1758273838180114000,1.107114013671875,0.2812497019767761,0.07527437806129456,-0.3349798917770386
1758273838190071600,1.117071533203125,0.20388676226139069,0.2012868970632553,-0.06255048513412476
1758273838200028700,1.127028564453125,0.1676924228668213,0.3273850381374359,-0.06689708679914474
1758273838209986600,1.136986572265625,0.17063094675540924,0.34802478551864624,-0.20989419519901276
1758273838219944700,1.14694482421875,0.17164739966392517,0.24357911944389343,-0.2804637849330902
1758273838229902800,1.15690283203125,0.16325950622558594,0.19299183785915375,-0.24201998114585876
1758273838239859500,1.166859375,0.14500059187412262,0.2220335304737091,-0.17751041054725647
1758273838249817600,1.176817626953125,0.1339668482542038,0.2387688308954239,-0.14913442730903625
1758273838259775700,1.186775634765625,0.12848693132400513,0.2290789932012558,-0.17199862003326416
1758273838269733600,1.196733642578125,0.12288951128721237,0.2118387520313263,-0.19924809038639069
1758273838279691000,1.20669091796875,0.1229604184627533,0.1710984855890274,-0.20115484297275543
1758273838289649000,1.21664892578125,0.13036879897117615,0.1514350324869156,-0.19538909196853638
1758273838299607000,1.22660693359375,0.1317783147096634,0.12152120471000671,-0.17882148921489716
1758273838309565200,1.236565185546875,0.1254599541425705,0.11076176911592484,-0.16178764402866364
1758273838319522000,1.24652197265625,0.11884532123804092,0.09438478946685791,-0.14245276153087616
1758273838329480000,1.25647998046875,0.10791730880737305,0.08051797747612,-0.12985095381736755
1758273838339438000,1.26643798828125,0.09036340564489365,0.0857493132352829,-0.13148075342178345
1758273838349396000,1.27639599609375,0.08144740760326385,0.0898686945438385,-0.11944113671779633
1758273838359353000,1.28635302734375,0.0838184803724289,0.08599596470594406,-0.07954378426074982
1758273838369311000,1.29631103515625,0.09277309477329254,0.08909322321414948,-0.03660324215888977
1758273838379269000,1.30626904296875,0.10358269512653351,0.07521743327379227,-0.0044904849492013454
1758273838389227300,1.316227294921875,0.10955776274204254,0.04418734461069107,0.021238846704363823
1758273838399185000,1.326184814453125,0.10789334774017334,0.018747813999652863,0.0522761233150959
1758273838409142000,1.33614208984375,0.10706937313079834,-0.007205222733318806,0.08692784607410431
1758273838419100200,1.34610009765625,0.10999777913093567,-0.029988031834363937,0.11449422687292099
1758273838429058000,1.35605810546875,0.1130063533782959,-0.05522095039486885,0.1348455548286438
1758273838439016200,1.36601611328125,0.11241433024406433,-0.08994005620479584,0.1489696353673935
1758273838448973000,1.37597314453125,0.11357840895652771,-0.1302238255739212,0.15744781494140625
1758273838458931000,1.385930908203125,0.11367887258529663,-0.17184968292713165,0.15481862425804138
1758273838468889000,1.39588916015625,0.12238820642232895,-0.2094511091709137,0.15686525404453278
1758273838478847000,1.405846923828125,0.13060583174228668,-0.256549596786499,0.16063618659973145
1758273838488804000,1.41580419921875,0.13365887105464935,-0.2819143533706665,0.16314248740673065
1758273838498762200,1.42576220703125,0.13784898817539215,-0.30521759390830994,0.16078588366508484
1758273838508720000,1.43572021484375,0.1382250189781189,-0.33703839778900146,0.163858100771904
1758273838518678000,1.445677978515625,0.13902679085731506,-0.3412213623523712,0.14326325058937073
1758273838528635100,1.45563525390625,0.28342631459236145,-0.15785501897335052,-0.6551827788352966
1758273838538593000,1.465593017578125,0.6141831874847412,-0.2803723216056824,-1.3018014430999756
1758273838548551200,1.47555126953125,0.9093173742294312,-0.668558657169342,-1.451942801475525
1758273838558509000,1.485509033203125,1.0942833423614502,-1.2315070629119873,-0.8179054856300354
1758273838568467200,1.49546728515625,1.352173924446106,-1.4906699657440186,-0.08383523672819138
1758273838578424000,1.505424072265625,1.438531517982483,-1.225556492805481,0.4256405234336853
1758273838588382000,1.5153818359375,1.2757052183151245,-0.5992609262466431,0.5133945941925049
1758273838598340000,1.525340087890625,0.8926297426223755,-0.21147669851779938,0.3192034065723419
1758273838608298000,1.535298095703125,0.3760492205619812,-0.08790789544582367,0.13937559723854065
1758273838618255000,1.545255126953125,-0.1320585310459137,-0.22324198484420776,0.12104407697916031
1758273838628213200,1.555213134765625,-0.6338265538215637,-0.657030463218689,0.28503888845443726
1758273838638171000,1.5651708984375,-1.1378705501556396,-1.1135355234146118,0.5166631937026978
1758273838648129000,1.57512890625,-1.5274862051010132,-1.5193884372711182,0.7544329166412354
1758273838658086100,1.585086181640625,-1.7781956195831299,-3.096393346786499,0.18502895534038544
1758273838668044000,1.5950439453125,-1.2507212162017822,-5.048072338104248,0.5813027620315552
1758273838678002200,1.605002197265625,0.46146661043167114,-4.957136154174805,1.1368893384933472
1758273838687960000,1.6149599609375,1.7114841938018799,-2.6559228897094727,0.9286495447158813
1758273838697917000,1.6249169921875,1.6622798442840576,0.11253698915243149,0.010056670755147934
1758273838707875000,1.634875,1.0580195188522339,0.6420080065727234,-0.4321063756942749
1758273838717833000,1.6448330078125,0.4555536210536957,0.045213159173727036,-0.30021458864212036
1758273838727791000,1.654791015625,0.10674874484539032,-0.3602991998195648,-0.058604896068573
1758273838737748200,1.664748291015625,0.10303112864494324,-0.23543649911880493,0.008565710857510567
1758273838747705900,1.674705810546875,0.16816513240337372,0.6479630470275879,-0.005254763178527355
1758273838757664000,1.6846640625,0.026794452220201492,-0.2576587200164795,0.05932053551077843
1758273838767622000,1.694621826171875,0.03438393026590347,-0.8098052740097046,0.12208244949579239
1758273838777580000,1.704580078125,0.006351481191813946,-1.0119799375534058,0.24517713487148285
1758273838787537200,1.714537109375,-0.04090471565723419,-1.1829133033752441,0.26602861285209656
1758273838797495000,1.7244951171875,-0.029561936855316162,-1.2739437818527222,0.21155010163784027
1758273838807453200,1.734453125,0.0923629030585289,-1.2438346147537231,0.17755432426929474
1758273838817411000,1.7444111328125,0.1663093864917755,-1.0574326515197754,0.16387395560741425
1758273838827368000,1.754367919921875,0.19849182665348053,-1.0012143850326538,0.0939294844865799
1758273838837326000,1.764326171875,0.17245420813560486,-1.0774229764938354,-0.00914059393107891
1758273838847284000,1.774283935546875,0.13527727127075195,-1.2270747423171997,-0.0587313175201416
1758273838857242000,1.7842421875,0.13312022387981415,-1.3419221639633179,-0.10154145956039429
1758273838867199000,1.794198974609375,0.14081889390945435,-1.3660104274749756,-0.18419240415096283
1758273838877156900,1.804156982421875,0.14039556682109833,-1.3644136190414429,-0.2716588079929352
1758273838887115000,1.814114990234375,0.13367880880832672,-1.386298418045044,-0.36395812034606934
1758273838897073200,1.8240732421875,0.16339145600795746,-1.5260339975357056,-0.48429208993911743
1758273838907031000,1.834031005859375,0.18990322947502136,-1.7244770526885986,-0.6177377700805664
1758273838916988200,1.84398828125,0.21079376339912415,-1.9193897247314453,-0.7598155736923218
1758273838926946000,1.853946044921875,0.19001951813697815,-2.045240879058838,-0.8958381414413452
1758273838936904000,1.863904052734375,0.15223948657512665,-2.075868844985962,-0.9960787892341614
1758273838946862000,1.873862060546875,0.08375070244073868,-1.9388724565505981,-1.0326803922653198
1758273838956819000,1.88381884765625,0.011224335990846157,-1.681913137435913,-1.0000473260879517
1758273838966777000,1.893777099609375,-0.10722720623016357,-1.4028258323669434,-0.9204950332641602
1758273838976735200,1.9037353515625,-0.21832074224948883,-1.3284037113189697,-0.7979151010513306
1758273838986693000,1.913693115234375,-0.26106926798820496,-1.4672210216522217,-0.6428540945053101
1758273838996650000,1.92364990234375,-0.24050648510456085,-1.7419785261154175,-0.5274121761322021
1758273839006608100,1.933608154296875,-0.08924772590398788,-1.9452382326126099,-0.521760106086731
1758273839016566000,1.94356591796875,0.13400936126708984,-1.9296128749847412,-0.5693557858467102
1758273839026524200,1.953524169921875,0.3151048719882965,-1.7665972709655762,-0.5422536134719849
1758273839036482000,1.96348193359375,0.40833044052124023,-1.4229828119277954,-0.4892745316028595
1758273839046439000,1.97343896484375,0.4286447763442993,-1.0891236066818237,-0.42718133330345154
1758273839056397000,1.98339697265625,0.39739668369293213,-0.7808415293693542,-0.391357421875
1758273839066355000,1.99335498046875,0.307851105928421,-0.4269641637802124,-0.39516812562942505
1758273839076313000,2.00331298828125,0.17399218678474426,-0.12388495355844498,-0.39823007583618164
1758273839086270200,2.013270263671875,0.06852087378501892,0.04499860480427742,-0.35109612345695496
1758273839096228000,2.02322802734375,0.004890574142336845,0.11979749798774719,-0.2753429710865021
1758273839106186200,2.033186279296875,-0.02263825573027134,0.10565424710512161,-0.1946134716272354
1758273839116143900,2.043143798828125,-0.05118556320667267,0.07986757159233093,-0.14132539927959442
1758273839126101000,2.05310107421875,-0.058156389743089676,0.009344134479761124,-0.0821707472205162
1758273839136059100,2.06305908203125,-0.06910932809114456,-0.07048876583576202,-0.02485615201294422
1758273839146017000,2.07301708984375,-0.078789122402668,-0.11553986370563507,0.027519702911376953
1758273839155975200,2.08297509765625,-0.09388136118650436,-0.12441126257181168,0.07495708763599396
1758273839165933000,2.09293310546875,-0.1260310411453247,-0.09831548482179642,0.11911869049072266
1758273839175890000,2.102889892578125,-0.1630282700061798,-0.05770517513155937,0.17168168723583221
1758273839185848000,2.11284814453125,-0.188138946890831,-0.0355580598115921,0.218826562166214
1758273839195806000,2.122805908203125,-0.19902870059013367,0.02597677893936634,0.2553495764732361
1758273839205764000,2.13276416015625,-0.20300692319869995,0.09285034984350204,0.2989950478076935
1758273839215721200,2.14272119140625,-0.20597392320632935,0.1455153524875641,0.3319358825683594
1758273839225679000,2.15267919921875,-0.20686554908752441,0.1846824586391449,0.32986822724342346
1758273839235637000,2.162636962890625,-0.20440839231014252,0.2231556624174118,0.30888989567756653
1758273839245595000,2.172594970703125,-0.2079133689403534,0.3129076659679413,0.2918166518211365
1758273839255552000,2.182552001953125,-0.2119661271572113,0.42444589734077454,0.2903045117855072
1758273839265510100,2.19251025390625,-0.192839577794075,0.5232422351837158,0.2953653335571289
1758273839275468000,2.202468017578125,-0.1485605388879776,0.5898141264915466,0.31485098600387573
1758273839285425200,2.212425048828125,-0.08864901214838028,0.6668497920036316,0.3178262710571289
1758273839295383300,2.22238330078125,-0.01622387021780014,0.743833601474762,0.2835356891155243
1758273839305340400,2.23234033203125,0.05641944333910942,0.7248947620391846,0.20004241168498993
1758273839315298300,2.24229833984375,0.10105636715888977,0.5924563407897949,0.07835307717323303
1758273839325256400,2.25225634765625,0.10700986534357071,0.38360750675201416,-0.04791085422039032
1758273839335214300,2.26221435546875,0.10234834253787994,0.14288879930973053,-0.11962325870990753
1758273839345171200,2.272171142578125,0.11666496098041534,-0.10047537833452225,-0.16363652050495148
1758273839355129300,2.28212939453125,0.1481071412563324,-0.2751389145851135,-0.20659181475639343
1758273839365087200,2.292087158203125,0.19167806208133698,-0.20021328330039978,-0.2292822003364563
1758273839375045400,2.30204541015625,0.23551416397094727,0.19388139247894287,-0.1699977070093155
1758273839385002500,2.31200244140625,0.2704375088214874,0.6874093413352966,-0.03863036260008812
1758273839394960400,2.32196044921875,0.24300691485404968,0.9436259865760803,0.06712665408849716
1758273839404918300,2.331918212890625,0.07048121839761734,0.8960888385772705,0.06795036792755127
1758273839414876200,2.341876220703125,-0.1761787235736847,0.6649680733680725,0.003604814875870943
1758273839424834300,2.351834228515625,-0.3554118275642395,0.6380983591079712,-0.0841122567653656
1758273839434791400,2.36179150390625,-0.3960805833339691,0.8299837708473206,-0.12070058286190033
1758273839444749300,2.371749267578125,-0.3029378354549408,1.0805095434188843,-0.06788716465234756
1758273839454707500,2.38170751953125,-0.16184236109256744,1.3141281604766846,0.05146393924951553
1758273839464665300,2.391665283203125,-0.02127939835190773,1.425628900527954,0.17294029891490936
1758273839474622200,2.401622314453125,0.10481318086385727,1.4293620586395264,0.24323320388793945
1758273839484580400,2.411580322265625,0.20126594603061676,1.3982824087142944,0.27871209383010864
1758273839494538200,2.421538330078125,0.1789410561323166,1.419207215309143,0.3018104135990143
1758273839504496400,2.431496337890625,0.04406312480568886,1.4069491624832153,0.37505319714546204
1758273839514454300,2.441454345703125,-0.15500789880752563,1.42255699634552,0.4601162075996399
1758273839524411100,2.4514111328125,-0.345964252948761,1.370415449142456,0.5030807256698608
1758273839534369300,2.461369384765625,-0.4542606472969055,1.2004035711288452,0.5056297779083252
1758273839544327200,2.4713271484375,-0.5350023508071899,1.0016329288482666,0.5024675130844116
1758273839554285300,2.481285400390625,-0.6299159526824951,0.8453832864761353,0.5587331652641296
1758273839564242400,2.491242431640625,-0.6530524492263794,0.8953663110733032,0.6498029232025146
1758273839574200300,2.501200439453125,-0.5779850482940674,1.0235170125961304,0.6551608443260193
1758273839584158500,2.511158447265625,-0.433046817779541,1.2116289138793945,0.5506560206413269
1758273839594116000,2.5211162109375,-0.30243241786956787,1.1903018951416016,0.4575083553791046
1758273839604074200,2.53107421875,-0.1986895203590393,1.092328667640686,0.34586384892463684
1758273839614031400,2.54103125,-0.1465398222208023,1.0493741035461426,0.249378502368927
1758273839623989200,2.5509892578125,-0.06477732956409454,1.1629842519760132,0.1606619507074356
1758273839633947400,2.560947509765625,-0.023341814056038857,1.2557668685913086,0.13299855589866638
1758273839643905300,2.5709052734375,-0.05280756205320358,1.2603328227996826,0.1488417088985443
1758273839653862100,2.580862060546875,-0.13865147531032562,1.2759958505630493,0.14961981773376465
1758273839663820300,2.5908203125,-0.22611021995544434,1.3933161497116089,0.06999396532773972
1758273839673778200,2.600778076171875,-0.2711828649044037,1.5672564506530762,-0.013403190299868584
1758273839683736300,2.610736328125,-0.2879325747489929,1.7171533107757568,-0.04569881036877632
1758273839693693400,2.620693359375,-0.18495532870292664,1.7769191265106201,-0.05603960156440735
1758273839703651000,2.630651123046875,-0.17019689083099365,1.5899964570999146,0.007941246964037418
1758273839713609200,2.640609130859375,-0.1381780058145523,1.3319849967956543,0.041479866951704025
1758273839723567400,2.6505673828125,-0.09511283040046692,1.074753999710083,0.11850914359092712
1758273839733525200,2.660525146484375,-0.03134871646761894,0.9387462139129639,0.15888682007789612
1758273839743482400,2.670482421875,-0.0718306303024292,0.8325856924057007,0.18792752921581268
1758273839753440300,2.680440185546875,-0.22002719342708588,0.6382428407669067,0.2852897047996521
1758273839763398400,2.6903984375,-0.29670146107673645,0.5289818644523621,0.38290175795555115
1758273839773356300,2.700356201171875,-0.3225221633911133,0.38168269395828247,0.44358932971954346
1758273839783313200,2.710313232421875,-0.30645209550857544,0.2553490102291107,0.4563900828361511
1758273839793271300,2.720271240234375,-0.2729097902774811,0.12375403940677643,0.4521998167037964
1758273839803229400,2.7302294921875,-0.2325008362531662,0.1473400592803955,0.4074656367301941
1758273839813187300,2.740187255859375,-0.19271089136600494,0.2535654902458191,0.36199915409088135
1758273839823145500,2.7501455078125,-0.128522589802742,0.425536185503006,0.28213945031166077
1758273839833102300,2.760102294921875,-0.09378377348184586,0.5619120597839355,0.23007872700691223
1758273839843060200,2.770060302734375,-0.10501938313245773,0.6095898151397705,0.22247059643268585
1758273839853018400,2.780018310546875,-0.14005443453788757,0.5781883001327515,0.24704091250896454
1758273839862976300,2.789976318359375,-0.15361711382865906,0.4765365421772003,0.28873881697654724
1758273839872933400,2.799933349609375,-0.17164653539657593,0.3113894462585449,0.34344351291656494
1758273839882891500,2.8098916015625,-0.15692324936389923,0.1874704360961914,0.35253578424453735
1758273839892849200,2.81984912109375,-0.1380101889371872,0.11719781160354614,0.33554893732070923
1758273839902807300,2.829807373046875,-0.14733897149562836,0.14092178642749786,0.3675098121166229
1758273839912765200,2.83976513671875,-0.13575029373168945,0.11735691130161285,0.37972480058670044
1758273839922722300,2.849722412109375,-0.10644593834877014,0.053456488996744156,0.3576168417930603
1758273839932680400,2.859680419921875,-0.050128642469644547,0.03244436904788017,0.33229535818099976
1758273839942638300,2.869638427734375,-0.0014156973920762539,0.032699234783649445,0.32501640915870667
1758273839952596200,2.87959619140625,0.043724555522203445,0.0330912247300148,0.32106727361679077
1758273839962553300,2.88955322265625,0.0744132250547409,0.028980104252696037,0.29806017875671387
1758273839972511200,2.89951123046875,0.10863363742828369,0.07737299799919128,0.2726156711578369
1758273839982469400,2.909469482421875,0.13693638145923615,0.14030694961547852,0.2565581500530243
1758273839992427300,2.91942724609375,0.1308179795742035,0.23309850692749023,0.28433096408843994
1758273840002384100,2.929384033203125,0.11272633075714111,0.32535839080810547,0.3475764989852905
1758273840012342300,2.93934228515625,0.1310085654258728,0.396396666765213,0.37050139904022217
1758273840022300200,2.949300048828125,0.15663322806358337,0.46786391735076904,0.3620509207248688
1758273840032258300,2.95925830078125,0.16694538295269012,0.5247446894645691,0.3919677436351776
1758273840042216200,2.96921630859375,0.17074091732501984,0.5003546476364136,0.46292605996131897
1758273840052173300,2.97917333984375,0.17543025314807892,0.36038199067115784,0.5412024855613708
1758273840062131500,2.98913134765625,0.2060137391090393,0.14875975251197815,0.5924456715583801
1758273840072089000,2.999089111328125,0.24357174336910248,-0.05696484073996544,0.6162033677101135
1758273840082047200,3.009047119140625,0.2855200171470642,-0.17346881330013275,0.6114038228988647
1758273840092004400,3.01900439453125,0.31394851207733154,-0.1740223914384842,0.610314667224884
1758273840101962200,3.028962158203125,0.33711615204811096,-0.07971453666687012,0.6231217980384827
1758273840111920400,3.03892041015625,0.309773713350296,0.11004111170768738,0.6297383308410645
1758273840121878300,3.048878173828125,0.24164417386054993,0.3017197251319885,0.6365538835525513
1758273840131836400,3.05883642578125,0.17849105596542358,0.45169565081596375,0.6308125257492065
1758273840141793300,3.068793212890625,0.12325417250394821,0.551764965057373,0.5871492028236389
1758273840151751200,3.078751220703125,0.1275174766778946,0.5400506854057312,0.5286783576011658
1758273840161709300,3.088709228515625,0.1629479080438614,0.40915632247924805,0.4597429633140564
1758273840171667500,3.09866748046875,0.19278980791568756,0.26471617817878723,0.383513480424881
1758273840181624300,3.108624267578125,0.19303375482559204,0.10091686248779297,0.3752315938472748
1758273840191582200,3.118582275390625,0.21533435583114624,-0.14600083231925964,0.4193373918533325
1758273840201540400,3.128540283203125,0.24943852424621582,-0.5173439979553223,0.5175958275794983
1758273840211498200,3.138498291015625,0.30653274059295654,-1.052990198135376,0.600558340549469
1758273840221456400,3.148456298828125,0.3868025541305542,-1.4778623580932617,0.555569052696228
1758273840231413200,3.158413330078125,0.41869547963142395,-1.5520910024642944,0.3659370243549347
1758273840241371400,3.168371337890625,0.37223342061042786,-1.22722589969635,0.050305821001529694
1758273840251329300,3.178329345703125,0.23737165331840515,-0.7609491348266602,-0.3536106050014496
1758273840261287200,3.188287109375,0.13352195918560028,-0.4741283357143402,-0.6963764429092407
1758273840271244300,3.198244384765625,0.18250460922718048,-0.42573583126068115,-0.9220067262649536
1758273840281203000,3.208202880859375,0.23928241431713104,-0.6491258144378662,-1.1427148580551147
1758273840291160800,3.218160888671875,0.27382874488830566,-1.0023906230926514,-1.3361157178878784
1758273840301119000,3.228118896484375,0.28123047947883606,-1.3400923013687134,-1.4929839372634888
1758273840311076900,3.238076904296875,0.29550549387931824,-1.6614309549331665,-1.6424731016159058
1758273840321034000,3.248033935546875,0.3288320302963257,-1.9566535949707031,-1.7875850200653076
1758273840330991900,3.257991943359375,0.3811652660369873,-2.1574647426605225,-1.9055085182189941
1758273840340950000,3.267949951171875,0.4448222815990448,-2.2773194313049316,-2.0033440589904785
1758273840350908200,3.277908203125,0.5353038311004639,-2.2637596130371094,-2.1079514026641846
1758273840360864800,3.28786474609375,0.6628673672676086,-2.196648359298706,-2.236861228942871
1758273840370823000,3.297822998046875,0.7686522603034973,-2.2721192836761475,-2.340343952178955
1758273840380781000,3.307781005859375,0.8154740929603577,-2.34224271774292,-2.3538818359375
1758273840390739000,3.317739013671875,0.8268134593963623,-2.255798101425171,-2.3008737564086914
1758273840400697000,3.327697021484375,0.8452803492546082,-1.9690160751342773,-2.244868516921997
1758273840410654000,3.337654052734375,0.8805575370788574,-1.5657979249954224,-2.196399688720703
1758273840420611800,3.34761181640625,0.9848626255989075,-1.334951639175415,-2.0996782779693604
1758273840430570000,3.357570068359375,1.1322482824325562,-1.3572551012039185,-1.9169813394546509
1758273840440528000,3.36752783203125,1.2164989709854126,-1.4363642930984497,-1.795325517654419
1758273840450485000,3.377485107421875,1.2603895664215088,-1.6013787984848022,-1.7016056776046753
1758273840460443100,3.387443115234375,1.2661737203598022,-1.7705670595169067,-1.5891398191452026
1758273840470400800,3.39740087890625,1.2134758234024048,-2.091714382171631,-1.4483078718185425
1758273840480359000,3.40735888671875,1.13059401512146,-2.7011094093322754,-1.5324623584747314
1758273840490316800,3.41731689453125,1.0660920143127441,-3.1693127155303955,-1.8560292720794678
1758273840500274000,3.42727392578125,1.0269885063171387,-3.106029748916626,-2.242464780807495
1758273840510232000,3.437232177734375,0.9987348318099976,-2.576902389526367,-2.4766721725463867
1758273840520190000,3.44718994140625,0.9738172292709351,-1.7930258512496948,-2.569559335708618
1758273840530148000,3.457148193359375,0.9213380813598633,-0.8291493654251099,-2.5476832389831543
1758273840540105000,3.46710498046875,0.861513078212738,0.02873205952346325,-2.3196990489959717
1758273840550062800,3.477062744140625,0.7603725790977478,0.1933048516511917,-1.7968401908874512
1758273840560021000,3.48702099609375,0.3817613422870636,-0.13617078959941864,-1.4176801443099976
1758273840569979000,3.496978759765625,-0.09252294898033142,-0.9403359293937683,-1.2254962921142578
1758273840579936000,3.50693603515625,-0.45605191588401794,-1.7802969217300415,-1.3518595695495605
1758273840589894000,3.516893798828125,-0.5718557834625244,-2.3225483894348145,-1.6134202480316162
1758273840599851800,3.526851806640625,-0.612076997756958,-3.2288708686828613,-1.7119249105453491
1758273840609810000,3.536809814453125,-0.4764001965522766,-4.02401065826416,-1.8432847261428833
1758273840619767800,3.546767822265625,-0.28258147835731506,-4.008406162261963,-1.9757798910140991
1758273840629725000,3.556724853515625,-0.14138765633106232,-3.486318826675415,-1.8732579946517944
1758273840639683000,3.56668310546875,-0.10114781558513641,-3.0652008056640625,-1.5896179676055908
1758273840649641000,3.576640869140625,-0.06314501911401749,-2.7569217681884766,-1.2716532945632935
1758273840659598800,3.586598876953125,-0.09572134166955948,-2.2975358963012695,-1.0315368175506592
1758273840669556000,3.596555908203125,-0.22357140481472015,-1.9595444202423096,-0.903592586517334
1758273840679513900,3.606513916015625,-0.31151720881462097,-1.780484914779663,-0.8317815065383911
1758273840689472000,3.616471923828125,-0.3148139417171478,-1.7346409559249878,-0.7541780471801758
1758273840699430000,3.626429931640625,-0.2654547393321991,-1.6284818649291992,-0.6601209044456482
1758273840709388000,3.636387939453125,-0.21163468062877655,-1.4421137571334839,-0.566080629825592
1758273840719345000,3.646344970703125,-0.16631698608398438,-1.1975349187850952,-0.46349963545799255
1758273840729302800,3.656302734375,-0.1678643822669983,-0.9945688843727112,-0.35004445910453796
1758273840739261000,3.666260986328125,-0.21926312148571014,-0.7936781644821167,-0.20166540145874023
1758273840749218800,3.67621875,-0.26992690563201904,-0.5448517203330994,-0.07030579447746277
1758273840759176000,3.686176025390625,-0.3532545566558838,-0.23713622987270355,0.06216622516512871
1758273840769134000,3.696134033203125,-0.45752325654029846,0.10063712298870087,0.18737605214118958
1758273840779091700,3.706091796875,-0.5860722064971924,0.4933418035507202,0.3130820393562317
1758273840789049900,3.7160498046875,-0.7197319269180298,0.922218918800354,0.43823179602622986
1758273840799008000,3.726008056640625,-0.8417962789535522,1.309543251991272,0.5602876543998718
1758273840808964900,3.73596484375,-0.9265179634094238,1.521424651145935,0.6719762682914734
1758273840818923000,3.745923095703125,-0.9627156257629395,1.5192904472351074,0.7709148526191711
1758273840828881200,3.755881103515625,-0.9316422939300537,1.355479121208191,0.8563764691352844
1758273840838838800,3.7658388671875,-0.8663532733917236,1.0221178531646729,0.9132173657417297
1758273840848796000,3.7757958984375,-0.7520831227302551,0.5125006437301636,0.9321799278259277
1758273840858753800,3.78575390625,-0.5595304369926453,-0.14049313962459564,0.8034211993217468
1758273840868712000,3.7957119140625,-0.368293434381485,-0.8149903416633606,0.45016077160835266
1758273840878670000,3.805670166015625,-0.2876949906349182,-1.1934853792190552,0.015318507328629494
1758273840888628000,3.8156279296875,-0.3141174018383026,-0.7430177927017212,-0.06972762197256088
1758273840898584800,3.825584716796875,-0.3399663269519806,0.6033148169517517,0.40748101472854614
1758273840908543000,3.83554296875,-0.30953338742256165,1.8089865446090698,0.7171005606651306
1758273840918500900,3.8455009765625,-0.14798389375209808,2.5005950927734375,1.0896170139312744
1758273840928459000,3.855458984375,0.06757982075214386,2.4609932899475098,1.322652816772461
1758273840938416000,3.865416015625,0.16070149838924408,1.4877197742462158,0.9887062311172485
1758273840948374000,3.8753740234375,0.18056751787662506,0.7882632613182068,0.8541367053985596
1758273840958332000,3.885331787109375,0.2144346833229065,0.6761772036552429,0.9665191769599915
1758273840968289800,3.895289794921875,0.227556511759758,1.131376028060913,1.1531888246536255
1758273840978247000,3.905246826171875,0.3006850481033325,1.9682629108428955,1.3427289724349976
1758273840988205000,3.915205078125,0.440559983253479,2.4873154163360596,1.3936258554458618
1758273840998163000,3.925162841796875,0.47704076766967773,2.5521883964538574,1.332200527191162
1758273841008121000,3.93512109375,0.3807850480079651,2.528557538986206,1.3073171377182007
1758273841018079000,3.945078857421875,0.2842276096343994,2.48319149017334,1.2680538892745972
1758273841028035800,3.955035888671875,0.17160145938396454,2.317849636077881,1.240845799446106
1758273841037994000,3.964993896484375,0.025607233867049217,1.6563785076141357,1.4249857664108276
1758273841047952000,3.974951904296875,-0.08530411124229431,1.410565972328186,1.5173507928848267
1758273841057910000,3.984909912109375,-0.19059431552886963,1.4037690162658691,1.5862475633621216
1758273841067867100,3.9948671875,-0.24727515876293182,1.4222043752670288,1.6143594980239868
1758273841077824800,4.00482470703125,-0.27111896872520447,1.4076626300811768,1.5763311386108398
1758273841087783000,4.014782958984375,-0.30417880415916443,1.398927927017212,1.545333981513977
1758273841097740800,4.02474072265625,-0.2901540696620941,1.461841106414795,1.5160157680511475
1758273841107698000,4.034697998046875,-0.2721239924430847,1.543480396270752,1.527828574180603
1758273841117656000,4.044656005859375,-0.19360120594501495,1.6774669885635376,1.5332523584365845
1758273841127614000,4.054614013671875,-0.05550208315253258,1.9035046100616455,1.4857964515686035
1758273841137571800,4.06457177734375,-0.019324371591210365,2.219627857208252,1.4287384748458862
1758273841147529700,4.07452978515625,-0.0759701356291771,2.479918956756592,1.4326766729354858
1758273841157486800,4.08448681640625,-0.2022380530834198,2.6446781158447266,1.5021114349365234
1758273841167445000,4.094445068359375,-0.31111255288124084,2.7408456802368164,1.6287394762039185
1758273841177403000,4.10440283203125,-0.39294135570526123,2.8505632877349854,1.7882740497589111
1758273841187361000,4.114361083984375,-0.52734375,2.793168067932129,1.9308832883834839
1758273841197318000,4.12431787109375,-0.6626847982406616,2.533426284790039,1.9563641548156738
1758273841207275800,4.13427587890625,-0.6753790974617004,2.1154561042785645,1.8116081953048706
1758273841217234000,4.14423388671875,-0.6326755285263062,1.6709553003311157,1.5186740159988403
1758273841227191800,4.15419189453125,-0.6156310439109802,1.2448657751083374,1.245313286781311
1758273841237149000,4.16414892578125,-0.5717740654945374,0.94902503490448,1.0885924100875854
1758273841247107000,4.174107177734375,-0.4881131649017334,0.7799420952796936,1.0641971826553345
1758273841257064700,4.184064697265625,-0.3660740852355957,0.6221554279327393,1.1295820474624634
1758273841267022800,4.19402294921875,-0.19924579560756683,0.47026804089546204,1.1343764066696167
1758273841276981000,4.20398095703125,-0.05240149423480034,0.4518621265888214,1.0237500667572021
1758273841286937000,4.21393701171875,0.10803291946649551,0.5936568379402161,0.8080497980117798
1758273841296895000,4.22389501953125,0.23405024409294128,0.5193679332733154,0.6067315936088562
1758273841306853000,4.23385302734375,0.2139538675546646,0.5268811583518982,0.4521128535270691
1758273841316811000,4.24381103515625,0.2039204090833664,0.7037680149078369,0.42896145582199097
1758273841326768000,4.25376806640625,0.2384013533592224,0.8926085233688354,0.43079736828804016
1758273841336726000,4.26372607421875,0.197653129696846,1.164516568183899,0.38290974497795105
1758273841346684000,4.273683837890625,0.11716989427804947,1.4167163372039795,0.3808211386203766
1758273841356642000,4.28364208984375,0.06503850966691971,1.5541540384292603,0.4608094394207001
1758273841366600000,4.293599853515625,0.09122267365455627,1.2905503511428833,0.47525885701179504
1758273841376557000,4.30355712890625,0.17960819602012634,0.6256169676780701,0.39727163314819336
1758273841386515200,4.31351513671875,0.29534053802490234,-0.1993289738893509,0.2750495672225952
1758273841396473000,4.32347314453125,0.42055466771125793,-0.932206928730011,0.1961105465888977
1758273841406431000,4.333430908203125,0.498780757188797,-1.3597650527954102,0.2093220353126526
1758273841416388000,4.34338818359375,0.4112061858177185,-1.3335387706756592,0.31601572036743164
1758273841426346000,4.353345947265625,0.23329821228981018,-0.9363735318183899,0.4885437786579132
1758273841436304100,4.36330419921875,0.0022990736179053783,-0.2729470431804657,0.6620660424232483
1758273841446262000,4.373261962890625,-0.19841115176677704,0.40847763419151306,0.7868258357048035
1758273841456219000,4.383218994140625,-0.2529524266719818,0.846045970916748,0.7930390238761902
1758273841466177000,4.393177001953125,-0.19103558361530304,0.9638381004333496,0.6788255572319031
1758273841476135000,4.403135009765625,-0.08370780199766159,0.8599769473075867,0.5403124690055847
1758273841486093000,4.413093017578125,0.05939110368490219,0.6454740166664124,0.48441800475120544
1758273841496051200,4.42305126953125,0.2274072766304016,0.42505401372909546,0.4290684461593628
1758273841506008000,4.433008056640625,0.37430113554000854,0.3181934654712677,0.22035227715969086
1758273841515966000,4.442966064453125,0.4306219220161438,0.43029630184173584,-0.14948490262031555
1758273841525923800,4.452923828125,0.42452573776245117,0.6131827235221863,-0.5018431544303894
1758273841535882000,4.462882080078125,0.3536060154438019,0.6884625554084778,-0.6768205761909485
1758273841545839000,4.472839111328125,0.19961799681186676,0.602030873298645,-0.6854479908943176
1758273841555797000,4.482796875,0.06736276298761368,0.31625741720199585,-0.6637725234031677
1758273841565755100,4.492755126953125,0.04841252416372299,-0.19701352715492249,-0.7801850438117981
1758273841575713300,4.50271337890625,0.13665343821048737,-0.9447641968727112,-1.0633467435836792
1758273841585670000,4.512669921875,0.31666648387908936,-1.7436453104019165,-1.4019558429718018
1758273841595628000,4.5226279296875,0.49120768904685974,-2.4728872776031494,-1.6916160583496094
1758273841605586200,4.532586181640625,0.6536950469017029,-3.066579818725586,-1.9549599885940552
1758273841615544000,4.5425439453125,0.8239741325378418,-3.4759223461151123,-2.2313196659088135
1758273841625501200,4.552501220703125,0.9469772577285767,-3.7534756660461426,-2.5242600440979004
1758273841635459000,4.562458984375,0.9840177893638611,-3.7917232513427734,-2.7504782676696777
1758273841645417000,4.5724169921875,1.0355803966522217,-3.656161069869995,-2.905225992202759
1758273841655375000,4.582375,1.06265389919281,-3.262237310409546,-3.0284385681152344
1758273841665333000,4.5923330078125,1.0769803524017334,-2.432537078857422,-3.0456342697143555
1758273841675290000,4.6022900390625,1.0447933673858643,-1.3242502212524414,-2.844438314437866
1758273841685248300,4.612248291015625,1.0056982040405273,-0.39332547783851624,-2.5282719135284424
1758273841695206100,4.6222060546875,0.978306233882904,0.049878302961587906,-2.2846240997314453
1758273841705164000,4.6321640625,0.9453348517417908,0.2162863165140152,-2.254293918609619
1758273841715121200,4.64212109375,1.0621949434280396,-0.0455428883433342,-2.143829107284546
1758273841725079000,4.6520791015625,1.152506947517395,-0.26283764839172363,-2.1725857257843018
1758273841735037200,4.662037109375,1.1605862379074097,-0.41839051246643066,-2.2631239891052246
1758273841744995000,4.6719951171875,1.1591473817825317,-0.4582282304763794,-2.400085926055908
1758273841754952000,4.681951904296875,1.1577584743499756,-0.43266189098358154,-2.561471939086914
1758273841764910000,4.69191015625,1.1546576023101807,-0.7082230448722839,-2.5555386543273926
1758273841774868000,4.701867919921875,0.8990102410316467,-1.3498351573944092,-2.162334680557251
1758273841784826000,4.711826171875,0.4653359651565552,-1.87099027633667,-1.6998677253723145
1758273841794783200,4.721783203125,-0.04082896560430527,-2.2638964653015137,-1.5233922004699707
1758273841804741000,4.7317412109375,-0.37589573860168457,-2.512786388397217,-1.7560908794403076
1758273841814699000,4.741698974609375,-0.5454022288322449,-2.7188560962677,-2.103783130645752
1758273841824657000,4.751656982421875,-0.6708657741546631,-3.171729326248169,-2.338167428970337
1758273841834614000,4.761614013671875,-0.6458813548088074,-3.7874722480773926,-2.66159725189209
1758273841844572200,4.771572265625,-0.49725690484046936,-4.048948287963867,-2.9654037952423096
1758273841854530000,4.781530029296875,-0.4545288681983948,-3.886199951171875,-2.968695640563965
1758273841864488200,4.79148828125,-0.46425116062164307,-3.447671890258789,-2.5529251098632812
1758273841874445000,4.801445068359375,-0.46080875396728516,-2.8073270320892334,-2.0440948009490967
1758273841884403000,4.81140283203125,-0.4285382628440857,-2.295853853225708,-1.5593725442886353
1758273841894361000,4.821361083984375,-0.37127870321273804,-2.0692577362060547,-1.1610515117645264
1758273841904319000,4.831319091796875,-0.5040140151977539,-1.584086537361145,-0.9948533773422241
1758273841914277000,4.841277099609375,-0.6563489437103271,-1.2404210567474365,-0.8327728509902954
1758273841924234200,4.851234130859375,-0.6751300692558289,-1.1050169467926025,-0.7085983157157898
1758273841934191900,4.86119189453125,-0.6274712085723877,-1.0110523700714111,-0.6558895707130432
1758273841944150000,4.87114990234375,-0.5982019901275635,-0.7777801156044006,-0.6008638739585876
1758273841954108000,4.88110791015625,-0.5725821256637573,-0.4957423210144043,-0.5192757844924927
1758273841964065000,4.89106494140625,-0.5975750088691711,-0.16577839851379395,-0.3790285885334015
1758273841974023200,4.901023193359375,-0.6273813843727112,0.11899182200431824,-0.20450736582279205
1758273841983981000,4.91098095703125,-0.6732203364372253,0.3491170406341553,-0.007779484614729881
1758273841993939200,4.920939208984375,-0.6831629872322083,0.6226191520690918,0.1812167912721634
1758273842003896000,4.93089599609375,-0.6767992377281189,0.8576416969299316,0.37196749448776245
1758273842013854000,4.94085400390625,-0.6643220782279968,0.9406060576438904,0.5379756093025208
1758273842023812000,4.95081201171875,-0.6338303089141846,0.7859567999839783,0.6730073094367981
1758273842033770000,4.96077001953125,-0.5865458846092224,0.45865321159362793,0.7631766200065613
1758273842043727000,4.97072705078125,-0.4866134524345398,-0.015167164616286755,0.8182657957077026
1758273842053685000,4.98068505859375,-0.33244359493255615,-0.5553044676780701,0.8234105110168457
1758273842063643000,4.990642822265625,-0.16137972474098206,-0.9369101524353027,0.7858282327651978
1758273842073601000,5.00060107421875,-0.04071429744362831,-0.8876304626464844,0.9139716029167175
1758273842083558100,5.01055810546875,-0.08064359426498413,-0.20035229623317719,1.1648460626602173
1758273842093516000,5.02051611328125,-0.11883492022752762,0.9576798677444458,1.085667610168457
1758273842103474200,5.03047412109375,0.18177156150341034,1.8774741888046265,0.6728243827819824
1758273842113432000,5.04043212890625,0.2806326448917389,2.0155436992645264,0.8191093802452087
1758273842123389000,5.050388916015625,0.32215961813926697,0.37447884678840637,1.2382516860961914
1758273842133347000,5.06034716796875,0.22102607786655426,-0.8492649793624878,1.0211868286132812
1758273842143305000,5.070304931640625,-0.34833824634552,1.1018307209014893,1.0418102741241455
1758273842153263000,5.08026318359375,-0.434561550617218,3.0128886699676514,1.5218908786773682
1758273842163220200,5.09022021484375,-0.18169519305229187,3.4477858543395996,1.699316382408142
1758273842173177900,5.100177734375,0.22641506791114807,2.3402860164642334,1.5388747453689575
1758273842183136000,5.110135986328125,0.5036897659301758,0.6611641049385071,1.2505406141281128
1758273842193094000,5.120093994140625,0.37869349122047424,0.2681255042552948,1.1383026838302612
1758273842203051000,5.130051025390625,0.11175424605607986,1.427660346031189,1.4079763889312744
1758273842213009200,5.140009033203125,-0.12136555463075638,2.8862144947052,1.8168084621429443
1758273842222967000,5.149967041015625,-0.27130192518234253,3.527716875076294,2.052351236343384
1758273842232925000,5.159925048828125,-0.37669679522514343,3.164849281311035,2.015848159790039
1758273842242882000,5.169882080078125,-0.4587726593017578,2.430708646774292,1.820618987083435
1758273842252840000,5.17983984375,-0.5331984162330627,1.8128275871276855,1.6204015016555786
1758273842262798000,5.189798095703125,-0.6322612166404724,1.4017549753189087,1.5547709465026855
1758273842272756200,5.199756103515625,-0.6531880497932434,1.2237335443496704,1.5526549816131592
1758273842282713300,5.20971337890625,-0.6415622234344482,1.144087553024292,1.5617328882217407
1758273842292671500,5.21967138671875,-0.6341983079910278,1.1500391960144043,1.5611077547073364
1758273842302629000,5.229629150390625,-0.5680718421936035,1.0946509838104248,1.5589549541473389
1758273842312587300,5.239587158203125,-0.4605805277824402,1.1429698467254639,1.547458291053772
1758273842322544400,5.24954443359375,-0.32047930359840393,1.3160637617111206,1.56610107421875
1758273842332502300,5.259502197265625,-0.12991631031036377,1.6435850858688354,1.58366858959198
1758273842342460400,5.26946044921875,0.04805843532085419,1.973164439201355,1.6060532331466675
1758273842352418300,5.279418212890625,0.21176587045192719,2.2272934913635254,1.6076254844665527
1758273842362375200,5.289375244140625,0.29357799887657166,2.429619550704956,1.5791558027267456
1758273842372333300,5.299333251953125,0.32262906432151794,2.6149728298187256,1.517264723777771
1758273842382291200,5.309291259765625,0.2500231862068176,2.66042160987854,1.4747833013534546
1758273842392249300,5.319249267578125,0.05706010386347771,2.494415044784546,1.4745033979415894
1758273842402206500,5.32920654296875,-0.1664809137582779,2.1923892498016357,1.497779369354248
1758273842412164400,5.339164306640625,-0.3505881428718567,1.894229531288147,1.4439127445220947
1758273842422122200,5.349122314453125,-0.4812777042388916,1.5386532545089722,1.4108942747116089
1758273842432080400,5.359080322265625,-0.591089129447937,1.2366009950637817,1.4448095560073853
1758273842442037200,5.369037353515625,-0.6761907935142517,1.2031989097595215,1.4991810321807861
1758273842451995400,5.378995361328125,-0.6534910798072815,1.160885214805603,1.477060317993164
1758273842461953300,5.388953369140625,-0.5539981126785278,0.9786543846130371,1.3351846933364868
1758273842471911400,5.398911376953125,-0.4510887861251831,0.7566252946853638,1.1053760051727295
1758273842481868300,5.408868408203125,-0.29322001338005066,0.7256474494934082,0.9198682904243469
1758273842491826200,5.418826171875,-0.13316349685192108,0.7713313102722168,0.7575148344039917
1758273842501784300,5.428784423828125,-0.05880645662546158,0.7752845287322998,0.6331455707550049
1758273842511742500,5.438742431640625,-0.053623415529727936,0.8328173160552979,0.6183351874351501
1758273842521699300,5.44869921875,-0.03165231645107269,0.9045040011405945,0.6614125370979309
1758273842531657500,5.458657470703125,-0.014435777440667152,0.9285020232200623,0.6606942415237427
1758273842541615400,5.468615478515625,0.02046113833785057,0.9184904098510742,0.6242967844009399
1758273842551573200,5.4785732421875,0.11528698354959488,0.918212354183197,0.5661062002182007
1758273842561530400,5.4885302734375,0.21232104301452637,0.8988643884658813,0.49240344762802124
1758273842571488300,5.49848828125,0.27258995175361633,0.7825961112976074,0.43688663840293884
1758273842581446400,5.5084462890625,0.29795628786087036,0.4789425730705261,0.4012547433376312
1758273842591404500,5.518404541015625,0.28208279609680176,0.017365364357829094,0.41946864128112793
1758273842601361200,5.528361083984375,0.2676173746585846,-0.4393799304962158,0.4750111699104309
1758273842611319300,5.5383193359375,0.2440476268529892,-0.8232908248901367,0.4980246126651764
1758273842621277400,5.54827734375,0.16531626880168915,-1.0513982772827148,0.5180903077125549
1758273842631235300,5.5582353515625,0.022759651765227318,-0.9667001962661743,0.6107861995697021
1758273842641192400,5.5681923828125,-0.09965197741985321,-0.6621003746986389,0.7393931746482849
1758273842651150300,5.578150390625,-0.1836470067501068,-0.3249604105949402,0.8161489367485046
1758273842661108200,5.588108154296875,-0.2151077538728714,0.002881548833101988,0.8224055767059326
1758273842671065300,5.5980654296875,-0.1786794364452362,0.220133975148201,0.7427430152893066
1758273842681023200,5.608023193359375,-0.1118260994553566,0.2453991174697876,0.5879030823707581
1758273842690981400,5.6179814453125,-0.047729671001434326,0.10407155007123947,0.4159190356731415
1758273842700939500,5.627939453125,0.027011511847376823,-0.06200336664915085,0.29200369119644165
1758273842710896000,5.637896240234375,0.14204035699367523,-0.06585457175970078,0.20899058878421783
1758273842720854300,5.647854248046875,0.27357664704322815,0.14590975642204285,0.04097246751189232
1758273842730812400,5.6578125,0.36969971656799316,0.610234797000885,-0.26200631260871887
1758273842740770300,5.667770263671875,0.42339158058166504,1.2006186246871948,-0.614080011844635
1758273842750727400,5.6777275390625,0.3926776051521301,1.5643292665481567,-0.8719163537025452
1758273842760685600,5.687685546875,0.3448079526424408,1.363124966621399,-0.8640754222869873
1758273842770643200,5.697643310546875,0.3008045554161072,0.5544465780258179,-0.6534015536308289
1758273842780601300,5.707601318359375,0.28900089859962463,-0.6163269281387329,-0.5706817507743835
1758273842790558500,5.717558349609375,0.3704683482646942,-1.7410496473312378,-0.8423755764961243
1758273842800516400,5.727516357421875,0.5257081389427185,-2.4423046112060547,-1.3658196926116943
1758273842810474500,5.737474609375,0.773205041885376,-2.755894899368286,-1.933555245399475
1758273842820432400,5.747432373046875,1.0080010890960693,-3.0431463718414307,-2.248725175857544
1758273842830389200,5.75738916015625,0.9743933081626892,-3.537689208984375,-2.2727456092834473
1758273842840347400,5.767347412109375,0.8360612392425537,-3.6653285026550293,-2.4758548736572266
1758273842850305300,5.77730517578125,0.7746862769126892,-3.6040079593658447,-2.6234405040740967
1758273842860263400,5.787263427734375,0.8067250847816467,-3.3883755207061768,-2.747445583343506
1758273842870220500,5.797220458984375,0.8943361639976501,-2.9159457683563232,-2.8370211124420166
1758273842880178400,5.807178466796875,0.9371634125709534,-2.1337103843688965,-2.7563188076019287
1758273842890136300,5.81713623046875,0.814667284488678,-1.1046591997146606,-2.551583766937256
1758273842900093400,5.827093505859375,0.8031644225120544,-0.33900344371795654,-2.3844287395477295
1758273842910051300,5.83705126953125,0.8978826999664307,0.03885890915989876,-2.266655445098877
1758273842920009500,5.847009521484375,1.0403624773025513,0.11236333847045898,-2.1903388500213623
1758273842929967400,5.85696728515625,1.1687865257263184,-0.05336783826351166,-2.187790632247925
1758273842939924200,5.86692431640625,1.2578471899032593,-0.1209934651851654,-2.327913999557495
1758273842949882400,5.87688232421875,1.3886243104934692,-0.5477935075759888,-2.29052734375
1758273842959840300,5.88684033203125,1.4114818572998047,-1.184025764465332,-2.248929023742676
1758273842969798400,5.89679833984375,1.3911917209625244,-1.658679723739624,-2.3486695289611816
1758273842979755500,5.906755615234375,1.4652081727981567,-1.7590525150299072,-2.6143441200256348
1758273842989713400,5.91671337890625,1.6667729616165161,-1.4946743249893188,-2.880796432495117
1758273842999671600,5.926671630859375,1.573892593383789,-1.2729698419570923,-2.7605419158935547
1758273843009628400,5.93662841796875,0.9809743762016296,-1.3471442461013794,-2.2838363647460938
1758273843019586300,5.94658642578125,0.2606429159641266,-1.5407969951629639,-1.7983702421188354
1758273843029544400,5.95654443359375,-0.2814118266105652,-1.568305253982544,-1.6139394044876099
1758273843039502300,5.96650244140625,-0.557729959487915,-1.7026013135910034,-1.590423583984375
1758273843049459500,5.97645947265625,-0.6723955273628235,-1.85833740234375,-1.7626028060913086
1758273843059417300,5.986417236328125,-0.7260667681694031,-2.1469199657440186,-2.0312392711639404
1758273843069375200,5.996375244140625,-0.7208706736564636,-2.3815200328826904,-2.4240505695343018
1758273843079333400,6.00633349609375,-0.5976127982139587,-2.880657434463501,-2.685238838195801
1758273843089290500,6.01629052734375,-0.5431692600250244,-3.4802494049072266,-2.788025140762329
1758273843099248400,6.026248291015625,-0.5267899632453918,-3.877894163131714,-2.736485242843628
1758273843109206500,6.03620654296875,-0.474628210067749,-3.582631826400757,-2.353151559829712
1758273843119164200,6.0461640625,-0.4575536549091339,-2.8482630252838135,-1.712239146232605
1758273843129121300,6.056121337890625,-0.4722929298877716,-2.030459403991699,-1.2679651975631714
1758273843139079400,6.066079345703125,-0.525580644607544,-1.538527488708496,-1.0144314765930176
1758273843149037300,6.076037353515625,-0.5349001288414001,-1.2020329236984253,-0.8518733978271484
1758273843158994400,6.085994384765625,-0.49285680055618286,-0.8507343530654907,-0.7010020017623901
1758273843168952300,6.095952392578125,-0.4842374622821808,-0.4469514489173889,-0.5353440642356873
1758273843178910200,6.10591015625,-0.5318002104759216,0.014289621263742447,-0.3631363809108734
1758273843188868400,6.115868408203125,-0.6042776107788086,0.4128234088420868,-0.17238906025886536
1758273843198825500,6.125825439453125,-0.6651101112365723,0.7136116623878479,-0.0062164622358977795
1758273843208783400,6.135783447265625,-0.7249755859375,0.8870382905006409,0.13914205133914948
1758273843218741500,6.145741455078125,-0.7810704112052917,0.9887062907218933,0.26865339279174805
1758273843228699400,6.155699462890625,-0.8170286417007446,1.007839560508728,0.40299734473228455
1758273843238656300,6.16565625,-0.8212606310844421,0.9286639094352722,0.5487738251686096
1758273843248614400,6.175614501953125,-0.7957878112792969,0.7735826969146729,0.7163636684417725
1758273843258572300,6.185572265625,-0.7594301104545593,0.5194301009178162,0.8908582925796509
1758273843268529400,6.195529296875,-0.701920211315155,0.11500667780637741,1.0585602521896362
1758273843278487600,6.205487548828125,-0.5741031765937805,-0.31078019738197327,1.136879563331604
1758273843288445700,6.21544580078125,-0.40460309386253357,-0.6763432621955872,1.0630738735198975
1758273843298403800,6.22540380859375,-0.30040615797042847,-0.9840124249458313,0.9822044968605042
1758273843308360700,6.235360595703125,-0.3587581515312195,-0.9943795800209045,1.0442577600479126
1758273843318318600,6.245318603515625,-0.49424996972084045,-0.44273892045021057,0.7977802753448486
1758273843328276700,6.25527685546875,-0.3459411859512329,0.3653792142868042,-0.05658204108476639
1758273843338234600,6.265234619140625,-0.34227579832077026,1.3217729330062866,0.058894652873277664
1758273843348191700,6.275191650390625,-0.44277551770210266,1.2058980464935303,0.7180350422859192
1758273843358150000,6.28514990234375,-0.5861976742744446,0.5931901335716248,0.8103286027908325
1758273843368107800,6.295107666015625,-0.9038717746734619,1.7238692045211792,0.7280188202857971
1758273843378064600,6.305064697265625,-0.9097641706466675,2.6266396045684814,1.0123289823532104
1758273843388022800,6.315022705078125,-0.6452766060829163,2.6657819747924805,1.3587369918823242
1758273843397980700,6.324980712890625,-0.1506299078464508,1.769965648651123,1.4160436391830444
1758273843407938800,6.334938720703125,0.32969731092453003,0.8438242077827454,1.2839417457580566
1758273843417895700,6.344895751953125,0.4780200719833374,0.6422905921936035,1.2819089889526367
1758273843427853600,6.354853515625,0.4958603084087372,1.333613634109497,1.521813988685608
1758273843437811700,6.364811767578125,0.5042752027511597,2.248331308364868,1.8051350116729736
1758273843447768600,6.3747685546875,0.45344844460487366,2.6891796588897705,1.909862995147705
1758273843457726700,6.384726806640625,0.37196794152259827,2.466398239135742,1.8492956161499023
1758273843467684900,6.394684814453125,0.33364319801330566,1.8346446752548218,1.7057501077651978
1758273843477642800,6.404642822265625,0.2897210717201233,1.2470990419387817,1.6336196660995483
1758273843487599600,6.414599609375,0.23033951222896576,0.8812357783317566,1.6541802883148193
1758273843497557800,6.424557861328125,0.15182176232337952,0.810347318649292,1.6842199563980103
1758273843507515600,6.434515625,0.07631634920835495,0.9070640206336975,1.70328688621521
1758273843517472800,6.44447265625,0.027993280440568924,1.035523533821106,1.7092373371124268
1758273843527430700,6.4544306640625,-0.07172293215990067,1.0131447315216064,1.7481951713562012
1758273843537388500,6.464388427734375,-0.09844937920570374,1.0857934951782227,1.7282990217208862
1758273843547346700,6.4743466796875,-0.09188282489776611,1.235020637512207,1.6644694805145264
1758273843557303600,6.484303466796875,-0.10332804173231125,1.4385380744934082,1.6067506074905396
1758273843567261700,6.49426171875,-0.09662646800279617,1.6658114194869995,1.5465137958526611
1758273843577219800,6.5042197265625,-0.1464190036058426,1.7648307085037231,1.5669476985931396
1758273843587177700,6.514177734375,-0.24644972383975983,1.8973575830459595,1.5808342695236206
1758273843597134600,6.524134521484375,-0.41340452432632446,2.1597301959991455,1.5681710243225098
1758273843607092700,6.5340927734375,-0.6230438351631165,2.3738176822662354,1.585127592086792
1758273843617050600,6.544050537109375,-0.7517956495285034,2.5325982570648193,1.6040829420089722
1758273843627007700,6.5540078125,-0.772152841091156,2.598874807357788,1.6083184480667114
1758273843636965600,6.563965576171875,-0.6899248957633972,2.52140474319458,1.5848857164382935
1758273843646923800,6.573923828125,-0.6166656017303467,2.2926526069641113,1.599400520324707
1758273843656881700,6.583881591796875,-0.5783783793449402,1.9512466192245483,1.6298917531967163
1758273843666838500,6.593838623046875,-0.4923371970653534,1.6230164766311646,1.534779667854309
1758273843676796700,6.603796630859375,-0.40567755699157715,1.301604151725769,1.3383349180221558
1758273843686754800,6.6137548828125,-0.39199957251548767,0.9940234422683716,1.153463363647461
1758273843696711700,6.623711669921875,-0.3670356571674347,0.7919061183929443,0.9971928000450134
1758273843706669600,6.633669677734375,-0.32039278745651245,0.6491681933403015,0.9159000515937805
1758273843716627700,6.643627685546875,-0.31423455476760864,0.5720295906066895,0.933357834815979
1758273843726585600,6.653585693359375,-0.334761381149292,0.5795074701309204,1.03596830368042
1758273843736542700,6.663542724609375,-0.24185334146022797,0.5800573825836182,1.0955857038497925
1758273843746500600,6.67350048828125,-0.11930344998836517,0.5744109749794006,1.0253432989120483
1758273843756458800,6.683458740234375,-0.0715668722987175,0.6304672956466675,0.8893478512763977
1758273843766415600,6.69341552734375,-0.08587576448917389,0.7795166969299316,0.7431959509849548
1758273843776373500,6.70337353515625,-0.08303745836019516,0.9687214493751526,0.6711841821670532
1758273843786331600,6.71333154296875,-0.04970533400774002,1.0768547058105469,0.6473350524902344
1758273843796289800,6.723289794921875,0.0428544282913208,1.1011919975280762,0.6386076211929321
1758273843806246700,6.73324658203125,0.09695547819137573,1.0972851514816284,0.6330568194389343
1758273843816204800,6.743204833984375,0.1323694884777069,1.064424753189087,0.6106458306312561
1758273843826162700,6.75316259765625,0.19984306395053864,0.8811547756195068,0.536081850528717
1758273843836119600,6.76311962890625,0.2280064821243286,0.4989278018474579,0.4626677632331848
1758273843846077700,6.77307763671875,0.20582236349582672,0.013170942664146423,0.4575372040271759
1758273843856035600,6.78303564453125,0.1549714058637619,-0.38516008853912354,0.5395646095275879
1758273843865993700,6.79299365234375,0.12562443315982819,-0.6232094764709473,0.6392685770988464
1758273843875950600,6.80295068359375,0.11345867067575455,-0.7130411267280579,0.6701705455780029
1758273843885908500,6.812908447265625,0.10724817961454391,-0.670820415019989,0.6236230134963989
1758273843895866600,6.82286669921875,0.11962014436721802,-0.48462820053100586,0.5421128273010254
1758273843905823700,6.83282373046875,0.09244125336408615,-0.13966761529445648,0.4747481644153595
1758273843915781600,6.84278173828125,0.030404696241021156,0.25168922543525696,0.43112483620643616
1758273843925739800,6.85273974609375,-0.011638892814517021,0.4247954785823822,0.40106359124183655
1758273843935698000,6.862697998046875,0.0008082216372713447,0.3548124134540558,0.38630563020706177
1758273843945654500,6.872654541015625,0.06332965940237045,0.19363045692443848,0.3687300980091095
1758273843955612700,6.88261279296875,0.19545669853687286,0.06405715644359589,0.2498788684606552
1758273843965570800,6.89257080078125,0.36142489314079285,0.020602621138095856,-0.03583702817559242
1758273843975527700,6.902527587890625,0.4682944715023041,0.2568926215171814,-0.40080657601356506
1758273843985485800,6.91248583984375,0.44809916615486145,0.6895623207092285,-0.7036378383636475
1758273843995443500,6.922443359375,0.29331138730049133,0.9962183237075806,-0.8850850462913513
1758273844005401600,6.932401611328125,0.09554639458656311,0.9905202388763428,-0.9322008490562439
1758273844015358700,6.942358642578125,0.04488766938447952,0.5651357769966125,-0.9981804490089417
1758273844025316600,6.952316650390625,0.1252536177635193,-0.15211524069309235,-1.1820470094680786
1758273844035274800,6.962274658203125,0.3068910241127014,-0.9234567284584045,-1.4442721605300903
1758273844045231600,6.972231689453125,0.5389626026153564,-1.7112953662872314,-1.7815797328948975
1758273844055189500,6.982189453125,0.7345563173294067,-2.576413869857788,-2.2093183994293213
1758273844065147600,6.992147705078125,0.8982942700386047,-3.3756778240203857,-2.600687026977539
1758273844075104800,7.002104736328125,0.9992306232452393,-4.148894309997559,-2.912924289703369
1758273844085062700,7.012062744140625,1.0681684017181396,-4.861443042755127,-3.122526168823242
1758273844095020800,7.022020751953125,1.14628267288208,-5.3822102546691895,-3.2235000133514404
1758273844104978700,7.031978759765625,1.2373073101043701,-5.566188812255859,-3.3055267333984375
1758273844114935600,7.041935546875,1.263056755065918,-5.101953983306885,-3.371955394744873
1758273844124893700,7.051893798828125,1.2212437391281128,-3.6179068088531494,-3.316896677017212
1758273844134851600,7.0618515625,1.135379433631897,-1.6505898237228394,-3.1198537349700928
1758273844144808700,7.07180859375,1.0229594707489014,0.11399941146373749,-2.6430351734161377
1758273844154766600,7.0817666015625,0.9423845410346985,1.2935879230499268,-2.1006991863250732
1758273844164724500,7.091724365234375,0.9187114238739014,1.7095063924789429,-1.721740961074829
1758273844174682600,7.1016826171875,0.9927946329116821,1.9753448963165283,-1.5503305196762085
1758273844184639700,7.1116396484375,1.0559309720993042,1.5758228302001953,-1.2679494619369507
1758273844194597600,7.12159765625,1.0047527551651,0.8648080229759216,-1.0027955770492554
1758273844204555800,7.1315556640625,0.9039113521575928,-0.21335889399051666,-0.9159263968467712
1758273844214512600,7.1415126953125,0.628993809223175,-2.1263461112976074,-1.1358765363693237
1758273844224470500,7.151470458984375,0.47368812561035156,-4.131885528564453,-1.7711752653121948
1758273844234428700,7.1614287109375,0.47962629795074463,-5.378589153289795,-2.5045340061187744
1758273844244385800,7.1713857421875,0.5202594995498657,-5.619443416595459,-3.167302370071411
1758273844254343700,7.18134375,0.546668529510498,-5.272932529449463,-3.6285207271575928
1758273844264301800,7.1913017578125,0.6198079586029053,-4.376341342926025,-3.7552316188812256
1758273844274259500,7.201259521484375,0.6308810710906982,-3.5813136100769043,-3.599337577819824
1758273844284216600,7.211216552734375,0.4775503873825073,-2.578497886657715,-3.087909698486328
1758273844294174700,7.2211748046875,0.2907947897911072,-1.9879034757614136,-2.4459640979766846
1758273844304132600,7.231132568359375,0.15652751922607422,-1.5229771137237549,-1.9297422170639038
1758273844314089700,7.24108984375,0.16685828566551208,-1.4653159379959106,-1.624764323234558
1758273844324047600,7.251047607421875,0.22346645593643188,-1.6696195602416992,-1.438696026802063
1758273844334005500,7.261005615234375,0.22102400660514832,-1.8320751190185547,-1.2683229446411133
1758273844343963600,7.270963623046875,0.20009902119636536,-1.6727662086486816,-1.108301043510437
1758273844353920800,7.280920654296875,0.18142496049404144,-1.2787777185440063,-0.9669326543807983
1758273844363878700,7.290878662109375,0.18279461562633514,-0.9561055898666382,-0.8687581419944763
1758273844373836800,7.3008369140625,0.14428207278251648,-0.7689281105995178,-0.7787208557128906
1758273844383793700,7.310793701171875,0.05797248333692551,-0.5344122648239136,-0.6809298396110535
1758273844393751600,7.32075146484375,-0.15592774748802185,-0.15376602113246918,-0.564120352268219
1758273844403709700,7.330709716796875,-0.35398995876312256,0.07091662287712097,-0.39194273948669434
1758273844413666800,7.340666748046875,-0.4909871816635132,0.2170834243297577,-0.21391066908836365
1758273844423624700,7.350624755859375,-0.5948784351348877,0.361228346824646,-0.04586600884795189
1758273844433582800,7.360582763671875,-0.7111469507217407,0.4832257330417633,0.08816806972026825
1758273844443540500,7.37054052734375,-0.7774873375892639,0.6629219651222229,0.17202967405319214
1758273844453497600,7.38049755859375,-0.8591996431350708,0.8293969631195068,0.24300773441791534
1758273844463455700,7.390455810546875,-0.9491255283355713,1.0220922231674194,0.34773603081703186
1758273844473413600,7.40041357421875,-1.009788155555725,1.170304298400879,0.5307142734527588
1758273844483370800,7.410370849609375,-1.0482465028762817,1.2251754999160767,0.8030411005020142
1758273844493328600,7.42032861328125,-1.0348494052886963,1.1153764724731445,1.1265770196914673
1758273844503286500,7.43028662109375,-0.9379763007164001,0.7087688446044922,1.3098520040512085
1758273844513243600,7.44024365234375,-0.7458595633506775,-0.1385606825351715,1.1294593811035156
1758273844523201800,7.450201904296875,-0.6064379811286926,-1.031362771987915,0.8076145052909851
1758273844533159700,7.46015966796875,-0.5912653207778931,-1.1051901578903198,0.7660605907440186
1758273844543117800,7.470117919921875,-0.4986373484134674,-0.6239209771156311,0.4598713517189026
1758273844553074700,7.48007470703125,-0.4140985608100891,0.296110600233078,0.47457849979400635
1758273844563032600,7.490032470703125,-0.5514849424362183,1.2059452533721924,0.8088105320930481
1758273844572990700,7.49999072265625,-0.41796165704727173,1.2874784469604492,0.9458663463592529
1758273844582947800,7.50994775390625,-0.5637308359146118,1.6834383010864258,0.6783837676048279
1758273844592905700,7.51990576171875,-0.7911447286605835,2.081294059753418,0.7345917820930481
1758273844602863900,7.52986376953125,-0.8902811408042908,2.2213568687438965,1.167792797088623
1758273844612820700,7.53982080078125,-0.8163458704948425,2.3007681369781494,1.4597697257995605
1758273844622778600,7.549778564453125,-0.5631375312805176,2.2427592277526855,1.5467370748519897
1758273844632736800,7.55973681640625,-0.312075674533844,1.7828173637390137,1.5173479318618774
1758273844642693600,7.569693603515625,-0.1543281227350235,1.4529223442077637,1.4524986743927002
1758273844652651800,7.57965185546875,-0.06078752502799034,1.6341367959976196,1.5103243589401245
1758273844662609700,7.589609619140625,-0.03783906623721123,2.0129141807556152,1.691396713256836
1758273844672567600,7.599567626953125,-0.0888500064611435,2.0980234146118164,1.8874338865280151
1758273844682524700,7.609524658203125,-0.11065730452537537,1.8734228610992432,1.9717857837677002
1758273844692482800,7.61948291015625,-0.10766300559043884,1.380824327468872,1.9075324535369873
1758273844702440700,7.629440673828125,-0.18561133742332458,0.7654575109481812,1.8345274925231934
1758273844712397600,7.6393974609375,-0.21007953584194183,0.5019617080688477,1.7410602569580078
1758273844722355700,7.649355712890625,-0.24691849946975708,0.6159301400184631,1.6420637369155884
1758273844732313600,7.659313720703125,-0.3325042724609375,0.9336543083190918,1.5782663822174072
1758273844742270700,7.669270751953125,-0.462390661239624,1.1767899990081787,1.6221063137054443
1758273844752228900,7.679228759765625,-0.6091121435165405,1.2653006315231323,1.767858624458313
1758273844762186800,7.689186767578125,-0.6804741621017456,1.4474658966064453,1.8608360290527344
1758273844772145000,7.699144775390625,-0.6289193630218506,1.785434365272522,1.8278312683105469
1758273844782101500,7.7091015625,-0.587567150592804,2.109436511993408,1.763636827468872
1758273844792059600,7.7190595703125,-0.5817050337791443,2.3033950328826904,1.689642310142517
1758273844802017800,7.729017822265625,-0.6092029213905334,2.3138227462768555,1.5488837957382202
1758273844811974700,7.738974609375,-0.6220282316207886,2.3014464378356934,1.4306838512420654
1758273844821932800,7.748932861328125,-0.5786935091018677,2.4516940116882324,1.4112215042114258
1758273844831890700,7.758890625,-0.5163558125495911,2.6408140659332275,1.4185513257980347
1758273844841847600,7.76884765625,-0.4974971413612366,2.784980297088623,1.4809566736221313
1758273844851805700,7.7788056640625,-0.5806438326835632,2.834075689315796,1.6514298915863037
1758273844861763800,7.788763916015625,-0.6484963893890381,2.33329701423645,1.864871859550476
1758273844871720700,7.798720703125,-0.6281708478927612,1.6102133989334106,1.8730437755584717
1758273844881678600,7.8086787109375,-0.6528394222259521,1.05063796043396,1.7927918434143066
1758273844891636700,7.81863671875,-0.6905606985092163,0.9146028161048889,1.5916553735733032
1758273844901594600,7.8285947265625,-0.6328915357589722,1.0321943759918213,1.2528666257858276
1758273844911551700,7.8385517578125,-0.536824643611908,0.9297599196434021,0.9417224526405334
1758273844921509600,7.848509521484375,-0.43921181559562683,0.5915259718894958,0.7695296406745911
1758273844931467800,7.8584677734375,-0.3062238097190857,0.21243911981582642,0.7517487406730652
1758273844941424600,7.868424560546875,-0.22456277906894684,-0.059731148183345795,0.8182819485664368
1758273844951382500,7.878382568359375,-0.18269240856170654,-0.06461474299430847,0.9342358708381653
1758273844961340700,7.888340576171875,-0.13185745477676392,0.0049643367528915405,0.9869265556335449
1758273844971297800,7.8982978515625,-0.03811531141400337,0.22420910000801086,0.9047454595565796
1758273844981255700,7.908255615234375,0.062186792492866516,0.6295168995857239,0.7513803839683533
1758273844991213600,7.918213623046875,0.10360901802778244,1.0270938873291016,0.6118547916412354
1758273845001170700,7.928170654296875,0.07905440777540207,1.305367112159729,0.583414614200592
1758273845011128600,7.938128662109375,0.00028513127472251654,1.5334635972976685,0.6615504622459412
1758273845021086700,7.948086669921875,-0.05618640035390854,1.6218808889389038,0.7701155543327332
1758273845031044600,7.958044677734375,-0.02381911501288414,1.463165521621704,0.7628828883171082
1758273845041001500,7.96800146484375,0.0846218690276146,0.9982569813728333,0.5772690773010254
1758273845050959600,7.977959716796875,0.1605728417634964,0.32973533868789673,0.34473833441734314
1758273845060917500,7.98791748046875,0.16025157272815704,-0.3817576766014099,0.2393619418144226
1758273845070874600,7.99787451171875,0.13603010773658752,-1.0314446687698364,0.3257114291191101
1758273845080832800,8.007832763671875,0.08355545252561569,-1.4537937641143799,0.5335008502006531
1758273845090790700,8.017790771484375,-0.006153980270028114,-1.6628892421722412,0.7247804999351501
1758273845100747500,8.02774755859375,-0.11360827088356018,-1.5587072372436523,0.8097635507583618
1758273845110705700,8.03770556640625,-0.16245824098587036,-1.1414954662322998,0.7756108045578003
1758273845120663600,8.04766357421875,-0.11100224405527115,-0.4401986300945282,0.602138876914978
1758273845130620700,8.05762060546875,-0.012549723498523235,0.4423712491989136,0.32950031757354736
1758273845140578800,8.067578857421875,0.0582064725458622,1.2279376983642578,0.07646006345748901
1758273845150536700,8.07753662109375,0.14867748320102692,1.7236347198486328,-0.07858168333768845
1758273845160493600,8.08749365234375,0.2331492155790329,1.898833155632019,-0.18873614072799683
1758273845170451700,8.09745166015625,0.3096185028553009,1.7685695886611938,-0.2922195494174957
1758273845180409600,8.10740966796875,0.28948497772216797,1.3478436470031738,-0.35353830456733704
1758273845190367700,8.11736767578125,0.1740277260541916,0.761286735534668,-0.29581570625305176
1758273845200324900,8.127324951171875,0.12199809402227402,0.010669761337339878,-0.19123096764087677
1758273845210282500,8.137282470703125,0.18487858772277832,-0.7774156332015991,-0.3151019513607025
1758273845220240600,8.14724072265625,0.30617839097976685,-1.380738615989685,-0.7596535682678223
1758273845230197800,8.15719775390625,0.48059332370758057,-1.6855107545852661,-1.369497299194336
1758273845240155600,8.16715576171875,0.6455303430557251,-1.700508713722229,-1.8918838500976562
1758273845250113800,8.17711376953125,0.7396050095558167,-1.5003095865249634,-2.1924664974212646
1758273845260070700,8.187070556640625,0.742336094379425,-1.2802072763442993,-2.3552520275115967
1758273845270028500,8.197028564453126,0.7353752255439758,-1.1252803802490234,-2.3788015842437744
1758273845279986700,8.206986572265626,0.7122078537940979,-1.3128228187561035,-2.4611058235168457
1758273845289943800,8.21694384765625,0.6890910863876343,-1.5458818674087524,-2.632065773010254
1758273845299901700,8.226901611328126,0.7253561615943909,-1.8019647598266602,-2.795557737350464
1758273845309859800,8.23685986328125,0.7853374481201172,-2.0079410076141357,-2.9090797901153564
1758273845319816700,8.246816650390626,0.8084917664527893,-2.0653820037841797,-2.9903266429901123
1758273845329774800,8.25677490234375,0.8213908076286316,-1.9879217147827148,-2.9336111545562744
1758273845339733000,8.26673291015625,0.8507398962974548,-1.804208517074585,-2.6973607540130615
1758273845349689600,8.276689697265626,0.9243694543838501,-1.5770787000656128,-2.4329657554626465
1758273845359647700,8.286647705078124,0.9904531240463257,-1.3583686351776123,-2.2799201011657715
1758273845369606000,8.29660595703125,1.0554956197738647,-1.1973751783370972,-2.3021011352539062
1758273845379563800,8.306563720703124,1.1249303817749023,-0.9891685247421265,-2.485761880874634
1758273845389521000,8.31652099609375,1.2361561059951782,-0.7544607520103455,-2.698035478591919
1758273845399479000,8.32647900390625,1.3526175022125244,-0.557090163230896,-2.799830436706543
1758273845409436700,8.336436767578125,1.4092555046081543,-0.33785000443458557,-2.7959766387939453
1758273845419393800,8.346393798828124,1.393039584159851,-0.28370392322540283,-2.6696858406066895
1758273845429351700,8.3563515625,1.2795207500457764,-0.46036219596862793,-2.419826030731201
1758273845439309800,8.366309814453125,1.0169306993484497,-0.7945159673690796,-2.027719736099243
1758273845449267000,8.376266845703125,0.6102299094200134,-1.1328047513961792,-1.6076823472976685
1758273845459224600,8.386224609375,-0.02581946924328804,-1.515455722808838,-1.4457299709320068
1758273845469182700,8.3961826171875,-0.304243266582489,-1.9477248191833496,-1.600010871887207
1758273845479139800,8.406139892578125,-0.27606144547462463,-2.316023826599121,-1.8984534740447998
1758273845489097700,8.41609765625,-0.29149115085601807,-3.0483429431915283,-2.2618565559387207
1758273845499055900,8.426055908203125,-0.24558916687965393,-3.3743748664855957,-2.793464422225952
1758273845509012700,8.4360126953125,-0.1105058416724205,-3.490541934967041,-3.202969789505005
1758273845518970600,8.445970703125,-0.1445106714963913,-3.7368662357330322,-3.1542067527770996
1758273845528928800,8.4559287109375,-0.2233048379421234,-3.8319804668426514,-2.744126796722412
1758273845538886000,8.465885986328125,-0.21143406629562378,-3.3509342670440674,-2.0744519233703613
1758273845548843800,8.47584375,-0.14195184409618378,-2.5582804679870605,-1.5888493061065674
1758273845558802000,8.485802001953125,-0.11765103042125702,-1.9118077754974365,-1.2487601041793823
1758273845568759800,8.495759765625,-0.17425011098384857,-1.449901819229126,-0.9778500199317932
1758273845578716700,8.505716552734375,-0.215032696723938,-1.0999268293380737,-0.7937004566192627
1758273845588674800,8.5156748046875,-0.2176041305065155,-0.7883310317993164,-0.6709441542625427
1758273845598632700,8.5256328125,-0.22414273023605347,-0.4569381773471832,-0.5254967212677002
1758273845608589800,8.53558984375,-0.254980206489563,-0.01612577773630619,-0.34258830547332764
1758273845618548000,8.5455478515625,-0.32558006048202515,0.520132839679718,-0.1379866898059845
1758273845628505600,8.555505615234376,-0.4395325481891632,0.9562668800354004,0.05149073526263237
1758273845638462700,8.565462646484375,-0.5829610228538513,1.1535611152648926,0.19557920098304749
1758273845648420900,8.5754208984375,-0.6906214952468872,1.107651710510254,0.2824164628982544
1758273845658378800,8.585378662109376,-0.7606977820396423,0.9384883046150208,0.3457094132900238
1758273845668335900,8.5953359375,-0.8136937618255615,0.8589995503425598,0.40900102257728577
1758273845678293800,8.605293701171876,-0.8359314203262329,0.8155056238174438,0.517217218875885
1758273845688251600,8.615251708984376,-0.8241454362869263,0.707773745059967,0.6705272197723389
1758273845698208800,8.625208740234376,-0.800918698310852,0.4491019546985626,0.8534823656082153
1758273845708167000,8.6351669921875,-0.7304275631904602,0.02047564648091793,1.0332642793655396
1758273845718124800,8.645124755859374,-0.583696186542511,-0.48465755581855774,1.1367179155349731
1758273845728081700,8.65508154296875,-0.375371515750885,-0.9842760562896729,0.9787722826004028
1758273845738039800,8.665039794921874,-0.23731377720832825,-1.3329126834869385,0.6213909983634949
1758273845747997700,8.674997802734374,-0.12215162068605423,-1.1702052354812622,0.18457169830799103
1758273845757954800,8.684954833984374,-0.06606225669384003,-0.02828802913427353,0.2001674324274063
1758273845767913000,8.694912841796874,-0.09919708967208862,1.3000905513763428,0.6736071705818176
1758273845777870800,8.704870849609375,-0.0695185586810112,1.661575198173523,1.6022194623947144
1758273845787827700,8.71482763671875,-0.09802320599555969,1.8877108097076416,1.7776960134506226
1758273845797785900,8.724785888671875,-0.15671981871128082,0.8433945775032043,1.2083770036697388
1758273845807743700,8.73474365234375,-0.24710120260715485,0.3058328330516815,1.1253355741500854
1758273845817700900,8.744700927734375,-0.301726371049881,0.7734397053718567,1.2816157341003418
1758273845827659000,8.754658935546875,-0.26935267448425293,1.5457314252853394,1.402635097503662
1758273845837617000,8.764616943359375,-0.12307561933994293,1.8929460048675537,1.4552024602890015
1758273845847573800,8.77457373046875,0.020313497632741928,1.7648171186447144,1.4341459274291992
1758273845857532000,8.784531982421875,-0.02246539108455181,1.6909441947937012,1.4291199445724487
1758273845867489800,8.79448974609375,-0.12653064727783203,1.984844446182251,1.547786831855774
1758273845877447000,8.804447021484375,-0.25681063532829285,2.203329086303711,1.673000454902649
1758273845887404800,8.81440478515625,-0.4252747893333435,2.028064727783203,1.6722402572631836
1758273845897362700,8.82436279296875,-0.5883292555809021,1.622236728668213,1.6094719171524048
1758273845907320800,8.83432080078125,-0.7442285418510437,1.2894271612167358,1.5509127378463745
1758273845917277700,8.844277587890625,-0.8386917114257812,1.2081100940704346,1.54072105884552
1758273845927235800,8.85423583984375,-0.8504819869995117,1.3281556367874146,1.564511775970459
1758273845937194000,8.864194091796875,-0.8184252977371216,1.5626426935195923,1.5960047245025635
1758273845947150600,8.874150634765625,-0.805547833442688,1.78193998336792,1.6865720748901367
1758273845957108700,8.884108642578125,-0.7682262659072876,1.9025849103927612,1.804762363433838
1758273845967067000,8.89406689453125,-0.6681868433952332,1.9778143167495728,1.897042155265808
1758273845977023700,8.904023681640625,-0.5418086647987366,2.0386154651641846,1.9292781352996826
1758273845986982000,8.91398193359375,-0.36890631914138794,2.0562567710876465,1.8757201433181763
1758273845996939800,8.923939697265626,-0.16764484345912933,2.008653402328491,1.736458420753479
1758273846006896600,8.933896728515625,-0.018178043887019157,1.8848493099212646,1.5303820371627808
1758273846016854800,8.943854736328126,-0.05959073454141617,1.689538598060608,1.3500622510910034
1758273846026812700,8.953812744140626,-0.11193541437387466,1.393310546875,1.2691075801849365
1758273846036769800,8.963769775390626,-0.15447461605072021,1.0955095291137695,1.3011291027069092
1758273846046728000,8.97372802734375,-0.30441591143608093,0.9103249907493591,1.433464527130127
1758273846056685600,8.983685546875,-0.4806434214115143,0.8530726432800293,1.5991123914718628
1758273846066642700,8.993642578125,-0.6509841084480286,0.7542537450790405,1.7522307634353638
1758273846076600800,9.003600830078126,-0.7464256882667542,0.7172624468803406,1.8242775201797485
1758273846086558700,9.013558837890624,-0.7021009922027588,0.768160343170166,1.7050520181655884
1758273846096515800,9.023515869140626,-0.5894777774810791,0.8636354804039001,1.441972255706787
1758273846106473700,9.0334736328125,-0.5397334694862366,1.0349551439285278,1.2269432544708252
1758273846116431600,9.043431640625,-0.5804353356361389,1.2179871797561646,1.1281155347824097
1758273846126388700,9.053388671875,-0.6150801777839661,1.227089524269104,1.128342628479004
1758273846136347000,9.063346923828124,-0.5783219337463379,1.1326717138290405,1.1331783533096313
1758273846146304800,9.0733046875,-0.6104529500007629,1.0054503679275513,1.1122797727584839
1758273846156261600,9.08326171875,-0.6279432773590088,0.9542997479438782,1.1215723752975464
1758273846166219800,9.0932197265625,-0.5013118386268616,0.9446597695350647,1.0999298095703125
1758273846176177700,9.103177734375,-0.3433932662010193,0.9040992856025696,0.9930758476257324
1758273846186134800,9.113134765625,-0.2795358896255493,0.8702811598777771,0.8637388944625854
1758273846196093000,9.123093017578125,-0.18233582377433777,0.8425842523574829,0.7752612233161926
1758273846206050800,9.13305078125,-0.07179781049489975,0.7173929214477539,0.7355647683143616
1758273846216007700,9.143007568359375,0.00563200144097209,0.5432440042495728,0.7173551321029663
1758273846225965800,9.1529658203125,0.054916031658649445,0.4704979360103607,0.7087016701698303
1758273846235923700,9.162923828125,0.08698128163814545,0.5180473327636719,0.7029274106025696
1758273846245880800,9.172880859375,0.08777101337909698,0.5956506133079529,0.6758227944374084
1758273846255839000,9.1828388671875,0.08701707422733307,0.64726722240448,0.6320425271987915
1758273846265796900,9.192796875,0.10231264680624008,0.6040045022964478,0.5872491598129272
1758273846275753700,9.202753662109375,0.16618964076042175,0.4377790093421936,0.5418651700019836
1758273846285712100,9.212712158203125,0.2582610845565796,0.1871700882911682,0.5003318786621094
1758273846295670000,9.222669921875,0.32897016406059265,-0.06909205764532089,0.4680231809616089
1758273846305627100,9.232627197265625,0.3689825236797333,-0.2500022053718567,0.4270780384540558
1758273846315585000,9.2425849609375,0.3675209879875183,-0.34043940901756287,0.39542824029922485
1758273846325543200,9.252543212890625,0.30644354224205017,-0.3992209732532501,0.41172581911087036
1758273846335500000,9.2625,0.16709096729755402,-0.4123237133026123,0.5064533948898315
1758273846345458000,9.2724580078125,0.00011742184869945049,-0.3451942205429077,0.6299612522125244
1758273846355416000,9.282416015625,-0.11221791058778763,-0.253196120262146,0.6960201263427734
1758273846365373200,9.292373291015625,-0.1484127789735794,-0.12674003839492798,0.6474320888519287
1758273846375331000,9.3023310546875,-0.13135389983654022,0.16609422862529755,0.436423122882843
1758273846385289200,9.312289306640626,-0.042467985302209854,0.5160291194915771,0.16669166088104248
1758273846395246000,9.32224609375,0.10835801064968109,0.700302243232727,-0.06145442649722099
1758273846405204000,9.332203857421876,0.26121005415916443,0.7106113433837891,-0.251610666513443
1758273846415162000,9.342162109375,0.4134989380836487,0.5732452273368835,-0.3760937452316284
1758273846425119200,9.352119140625,0.4809516370296478,0.2364116758108139,-0.4528481066226959
1758273846435077000,9.3620771484375,0.37764203548431396,-0.3514406681060791,-0.380703866481781
1758273846445035000,9.372034912109376,0.2234923094511032,-1.091406226158142,-0.18623392283916473
1758273846454992100,9.3819921875,0.24714384973049164,-1.8096556663513184,-0.13309906423091888
1758273846464950000,9.391949951171876,0.3770279288291931,-2.3520960807800293,-0.4342734217643738
1758273846474908200,9.401908203125,0.517357587814331,-2.3983969688415527,-0.9426946043968201
1758273846484865300,9.411865234375,0.6309232115745544,-2.0156748294830322,-1.4507088661193848
1758273846494823000,9.421822998046874,0.7092443704605103,-1.4584883451461792,-1.7858026027679443
1758273846504781000,9.431781005859374,0.805786669254303,-0.8982404470443726,-1.9346071481704712
1758273846514738200,9.44173828125,0.8544570207595825,-0.6125615835189819,-2.1159186363220215
1758273846524696000,9.451696044921874,0.9221497178077698,-0.6860576868057251,-2.3810181617736816
1758273846534654200,9.461654296875,0.9155336618423462,-1.0078569650650024,-2.5593411922454834
1758273846544611000,9.471611083984374,0.9069662690162659,-1.5939509868621826,-2.718146800994873
1758273846554569000,9.48156884765625,0.9217119216918945,-2.267989158630371,-2.905749559402466
1758273846564527000,9.491527099609375,0.9512115120887756,-2.827418327331543,-3.059407949447632
1758273846574484200,9.501484130859374,1.0293762683868408,-3.207479953765869,-3.097886323928833
1758273846584442000,9.511442138671875,1.109723687171936,-3.341254234313965,-3.036215305328369
1758273846594400300,9.521400146484375,1.119740605354309,-3.1599974632263184,-2.854440927505493
1758273846604357000,9.531357177734375,1.0873740911483765,-2.756171464920044,-2.5525097846984863
1758273846614315000,9.54131494140625,1.107283592224121,-2.2508909702301025,-2.3064379692077637
1758273846624273200,9.551273193359375,1.2432595491409302,-1.7511224746704102,-2.17826247215271
1758273846634230000,9.56122998046875,1.406295657157898,-1.2172460556030273,-2.0930299758911133
1758273846644188200,9.571188232421875,1.4498056173324585,-0.5344011187553406,-2.056992530822754
1758273846654146300,9.581146240234375,1.4149062633514404,0.17056579887866974,-2.1366498470306396
1758273846664103000,9.59110302734375,1.501735806465149,0.5888570547103882,-2.271291732788086
1758273846674061000,9.60106103515625,1.530800461769104,0.5058002471923828,-2.319765567779541
1758273846684019200,9.611019287109375,1.2597655057907104,-0.12693364918231964,-2.1217994689941406
1758273846693976000,9.62097607421875,0.9093640446662903,-1.0933914184570312,-1.9612526893615723
1758273846703934200,9.630934326171875,0.5087622404098511,-1.6815534830093384,-2.100412130355835
1758273846713892000,9.64089208984375,0.2918566167354584,-1.9643309116363525,-2.374148368835449
1758273846723849000,9.650848876953125,0.22794240713119507,-2.182295322418213,-2.6011152267456055
1758273846733807000,9.66080712890625,0.13786284625530243,-2.435415267944336,-2.843118190765381
1758273846743765000,9.670764892578125,0.011567818932235241,-3.0803184509277344,-3.191251277923584
1758273846753722000,9.68072216796875,-0.00874863751232624,-2.7918968200683594,-3.3759357929229736
1758273846763680000,9.690679931640625,0.154672309756279,-2.018322706222534,-3.3319618701934814
1758273846773638000,9.700637939453125,0.27239254117012024,-1.782865285873413,-3.0947535037994385
1758273846783595000,9.710594970703125,0.24754521250724792,-2.306650161743164,-2.561936616897583
1758273846793553200,9.72055322265625,0.09334633499383926,-2.510598659515381,-1.9907569885253906
1758273846803511000,9.730510986328126,-0.0538509264588356,-2.184610366821289,-1.60472571849823
1758273846813468000,9.740468017578126,-0.08797747641801834,-1.7770229578018188,-1.3522670269012451
1758273846823426000,9.750426025390626,-0.035032760351896286,-1.4764659404754639,-1.1609247922897339
1758273846833384000,9.760384033203126,-0.016185034066438675,-1.2337284088134766,-1.0022743940353394
1758273846843341000,9.770341064453126,-0.02633141726255417,-1.0490909814834595,-0.9002577066421509
1758273846853299200,9.78029931640625,-0.006938278209418058,-0.872405469417572,-0.8047250509262085
1758273846863257000,9.790257080078124,-0.05425598844885826,-0.572470486164093,-0.6233778595924377
1758273846873214000,9.8002138671875,-0.25223270058631897,-0.12349297851324081,-0.39761561155319214
1758273846883172000,9.810172119140624,-0.37364569306373596,0.1592767983675003,-0.14269308745861053
1758273846893130000,9.8201298828125,-0.47738727927207947,0.4231569170951843,0.11379116028547287
1758273846903087000,9.830087158203124,-0.5966168642044067,0.6809515357017517,0.34453830122947693
1758273846913045200,9.840045166015624,-0.7056272625923157,0.8725944757461548,0.5629244446754456
1758273846923003100,9.850003173828124,-0.7861272692680359,1.0633413791656494,0.7582964897155762
1758273846932960000,9.8599599609375,-0.8677776455879211,1.2246919870376587,0.9572793841362
1758273846942918100,9.869918212890624,-0.9239441752433777,1.3082512617111206,1.1055091619491577
1758273846952875300,9.879875244140624,-0.9504783153533936,1.3203116655349731,1.2026113271713257
1758273846962833200,9.889833251953124,-0.9314875602722168,1.2522900104522705,1.2774099111557007
1758273846972791300,9.899791259765625,-0.8711749911308289,1.0203635692596436,1.338887333869934
1758273846982748000,9.909747802734374,-0.7433478236198425,0.6121160984039307,1.3325730562210083
1758273846992706000,9.9197060546875,-0.5064652562141418,0.07878582179546356,1.0048236846923828
1758273847002664200,9.929664306640625,-0.3094899356365204,-0.3883368670940399,0.3719802796840668
1758273847012621000,9.93962109375,-0.11263680458068848,-0.815660297870636,-0.5052785277366638
1758273847022579200,9.9495791015625,-0.04268290475010872,-0.7296212911605835,-0.45119160413742065
1758273847032537000,9.959537109375,-0.3309866189956665,0.11257654428482056,0.5138383507728577
1758273847042494000,9.969493896484375,-0.485727459192276,0.4930112361907959,1.0988528728485107
1758273847052452000,9.9794521484375,-0.7648327946662903,1.7088630199432373,1.3266111612319946
1758273847062410200,9.98941015625,-0.7566937208175659,1.8419324159622192,1.121658205986023
1758273847072367000,9.9993671875,-0.4877206087112427,0.4804621636867523,0.7492138743400574
1758273847082325000,10.009324951171875,-0.5034487247467041,0.20881585776805878,0.7127408981323242
1758273847092283100,10.019283203125,-0.6353595852851868,0.7623312473297119,0.8428866267204285
1758273847102240000,10.029239990234375,-0.7325656414031982,1.2455734014511108,1.0273524522781372
1758273847112198100,10.0391982421875,-0.7111698389053345,1.541143774986267,1.3002740144729614
1758273847122156000,10.049156005859375,-0.6611454486846924,1.6385152339935303,1.4355194568634033
1758273847132113000,10.05911279296875,-0.609623372554779,1.7548054456710815,1.4029377698898315
1758273847142071000,10.069071044921875,-0.5495519042015076,1.9799481630325317,1.3473221063613892
1758273847152029000,10.07902880859375,-0.4899943470954895,1.9498485326766968,1.322748064994812
1758273847161986000,10.088986083984375,-0.4483557641506195,1.7078466415405273,1.3169251680374146
1758273847171944200,10.098944091796875,-0.4406706690788269,1.3910942077636719,1.3422528505325317
1758273847181902000,10.108902099609375,-0.42453718185424805,1.1838068962097168,1.392077922821045
1758273847191859000,10.11885888671875,-0.4025013744831085,1.0474070310592651,1.4882010221481323
1758273847201817000,10.128817138671875,-0.40554630756378174,0.8566360473632812,1.6255309581756592
1758273847211775000,10.13877490234375,-0.37718603014945984,0.7649697661399841,1.7265454530715942
1758273847221732000,10.148732177734376,-0.27788057923316956,0.9014804363250732,1.790959358215332
1758273847231690200,10.158690185546876,-0.1768902987241745,1.125352144241333,1.8203587532043457
1758273847241647000,10.168647216796876,-0.1108437329530716,1.3888795375823975,1.8147718906402588
1758273847251605000,10.17860498046875,-0.05231890082359314,1.6955809593200684,1.8037562370300293
1758273847261563100,10.188563232421876,-0.04493635147809982,1.9223698377609253,1.7248579263687134
1758273847271520300,10.198520263671876,-0.07928340882062912,2.0792880058288574,1.615342140197754
1758273847281478100,10.20847802734375,-0.06874102354049683,2.149649143218994,1.4988893270492554
1758273847291435300,10.218435302734376,0.010278433561325073,2.1061458587646484,1.3840657472610474
1758273847301392400,10.228392333984376,-0.004758509807288647,1.9050291776657104,1.299787163734436
1758273847311350300,10.238350341796876,-0.20482182502746582,1.7495537996292114,1.2634690999984741
1758273847321308400,10.248308349609376,-0.3558962643146515,1.910125970840454,1.3527041673660278
1758273847331265300,10.258265380859376,-0.39084628224372864,2.234185218811035,1.5273734331130981
1758273847341223200,10.26822314453125,-0.36040887236595154,2.3871476650238037,1.6705329418182373
1758273847351181300,10.278181396484374,-0.3880367875099182,2.180429220199585,1.8532295227050781
1758273847361138400,10.288138427734374,-0.5181058645248413,1.7471853494644165,1.995254397392273
1758273847371096300,10.298096435546874,-0.5935380458831787,1.428178310394287,1.9042539596557617
1758273847381054500,10.308054443359374,-0.643954873085022,1.2797654867172241,1.648513674736023
1758273847391011300,10.31801123046875,-0.7275046110153198,1.2418615818023682,1.3791133165359497
1758273847400969200,10.32796923828125,-0.8138501644134521,1.2931119203567505,1.2092736959457397
1758273847410927400,10.33792724609375,-0.7406779527664185,1.3545854091644287,1.1373382806777954
1758273847420884500,10.347884521484374,-0.6378615498542786,1.238242506980896,1.0996551513671875
1758273847430842400,10.35784228515625,-0.5797889232635498,0.9507249593734741,1.0558629035949707
1758273847440800300,10.36780029296875,-0.467652291059494,0.6993712186813354,1.0034706592559814
1758273847450757400,10.37775732421875,-0.3322875499725342,0.5740071535110474,0.9098930954933167
1758273847460715300,10.38771533203125,-0.2707076072692871,0.5758110284805298,0.7962316870689392
1758273847470672400,10.39767236328125,-0.24011054635047913,0.7440663576126099,0.7021219730377197
1758273847480630300,10.40763037109375,-0.18099579215049744,0.8714084625244141,0.6376984119415283
1758273847490588200,10.417588134765625,-0.08677342534065247,0.9959876537322998,0.5993776917457581
1758273847500545300,10.427545166015625,-0.0020745506044477224,1.0770971775054932,0.5516413450241089
1758273847510503200,10.437503173828125,0.05748704820871353,1.1620652675628662,0.4952006936073303
1758273847520461300,10.44746142578125,0.08361073583364487,1.2606192827224731,0.44312477111816406
1758273847530418400,10.45741845703125,0.09967758506536484,1.2759513854980469,0.3970739245414734
1758273847540376000,10.4673759765625,0.14490386843681335,1.1445093154907227,0.3644082844257355
1758273847550334200,10.477334228515625,0.22132806479930878,0.8590251803398132,0.3355960547924042
1758273847560291300,10.487291259765625,0.31717267632484436,0.4678024351596832,0.3107703924179077
1758273847570249200,10.497249267578125,0.35070452094078064,0.07015226036310196,0.3036360740661621
1758273847580207400,10.507207275390625,0.2812446057796478,-0.30433863401412964,0.3473905324935913
1758273847590164200,10.517164306640625,0.17965885996818542,-0.593387246131897,0.48193448781967163
1758273847600122000,10.5271220703125,0.04523002728819847,-0.7612153887748718,0.6709126830101013
1758273847610080300,10.537080322265625,-0.05340839922428131,-0.828536868095398,0.8390822410583496
1758273847620037400,10.547037353515625,-0.11696183681488037,-0.7638599276542664,0.9285939931869507
1758273847629995300,10.556995361328125,-0.12600885331630707,-0.48017123341560364,0.8936557173728943
1758273847639953400,10.566953369140625,-0.10152257978916168,-0.05960174649953842,0.7439352869987488
1758273847649910300,10.57691015625,-0.07365445792675018,0.3755236268043518,0.5502718091011047
1758273847659868200,10.5868681640625,-0.09366657584905624,0.7141714096069336,0.4175650477409363
1758273847669826300,10.596826416015626,-0.10430643707513809,0.8779001832008362,0.362670361995697
1758273847679783400,10.606783447265625,-0.06078529730439186,0.9351218342781067,0.30356889963150024
1758273847689741300,10.6167412109375,0.034938834607601166,1.1058578491210938,0.12595734000205994
1758273847699698200,10.6266982421875,0.08519931137561798,1.5741448402404785,-0.19010815024375916
1758273847709656300,10.63665625,0.09092750400304794,2.058352470397949,-0.4870269000530243
1758273847719614200,10.6466142578125,0.08791570365428925,2.2215487957000732,-0.68263840675354
1758273847729571300,10.6565712890625,0.059273675084114075,2.0877139568328857,-0.6808940768241882
1758273847739529500,10.666529541015626,0.0193147175014019,1.536025881767273,-0.471059113740921
1758273847749487400,10.6764873046875,0.03398634120821953,0.6269774436950684,-0.1608021855354309
1758273847759444200,10.6864443359375,0.10037402808666229,-0.4761578142642975,0.017447765916585922
1758273847769402400,10.69640234375,0.19399186968803406,-1.4598743915557861,-0.09583325684070587
1758273847779360300,10.7063603515625,0.32155388593673706,-2.154101848602295,-0.4317593276500702
1758273847789317400,10.7163173828125,0.44093436002731323,-2.5965795516967773,-0.8401063084602356
1758273847799275500,10.726275634765624,0.5790210366249084,-2.821838855743408,-1.1786553859710693
1758273847809233200,10.736233154296874,0.6942506432533264,-2.8454747200012207,-1.3934524059295654
1758273847819190300,10.746190185546874,0.7478209733963013,-2.6859233379364014,-1.5345232486724854
1758273847829148400,10.7561484375,0.7978716492652893,-2.523254632949829,-1.6750550270080566
1758273847839106300,10.766106201171874,0.7859921455383301,-2.4364945888519287,-1.7726881504058838
1758273847849063400,10.7760634765625,0.736761748790741,-2.376403570175171,-1.8218517303466797
1758273847859021300,10.786021240234374,0.6847224235534668,-2.3053696155548096,-1.8579670190811157
1758273847868979200,10.795979248046875,0.6201761960983276,-2.2293148040771484,-1.8885231018066406
1758273847878936300,10.805936279296875,0.6065797805786133,-2.1044862270355225,-1.9180618524551392
1758273847888894200,10.815894287109375,0.6496869921684265,-1.9072610139846802,-1.8844090700149536
1758273847898852400,10.825852294921875,0.6824777722358704,-1.6851541996002197,-1.7775460481643677
1758273847908809200,10.835809326171875,0.6230314373970032,-1.4344955682754517,-1.658050298690796
1758273847918767000,10.84576708984375,0.4601351320743561,-1.2402230501174927,-1.5030415058135986
1758273847928725200,10.855725341796875,0.42180025577545166,-1.141043782234192,-1.4181705713272095
1758273847938682400,10.865682373046875,0.5170808434486389,-0.9929711222648621,-1.3146462440490723
1758273847948640300,10.87564013671875,0.6381579637527466,-0.5909837484359741,-1.210382103919983
1758273847958597000,10.88559716796875,0.6458595991134644,0.12072235345840454,-1.1255604028701782
1758273847968555300,10.89555517578125,0.3760667145252228,1.0600364208221436,-0.9889103174209595
1758273847978513200,10.90551318359375,-0.06659124791622162,2.075268507003784,-0.7074322700500488
1758273847988470300,10.91547021484375,-0.22617904841899872,2.7012295722961426,-0.360466867685318
1758273847998428400,10.925428466796875,0.23230189085006714,1.9755487442016602,-0.45130810141563416
1758273848008386300,10.93538623046875,0.3887346088886261,0.7818164229393005,-0.6998955607414246
1758273848018343200,10.94534326171875,0.2265668511390686,0.0981021299958229,-0.7219955921173096
1758273848028301300,10.95530126953125,0.16581109166145325,-0.014192985370755196,-0.6829273104667664
1758273848038259200,10.96525927734375,0.29039865732192993,0.21966971457004547,-0.6959812641143799
1758273848048216300,10.97521630859375,0.5444415807723999,0.6359350681304932,-0.7359744906425476
1758273848058174500,10.985174560546875,0.7157436609268188,1.1847662925720215,-0.6958953142166138
1758273848068132400,10.99513232421875,0.719988226890564,1.5951026678085327,-0.5093883275985718
1758273848078089200,11.005089111328125,0.78755784034729,1.280923843383789,-0.19632770121097565
1758273848088047400,11.01504736328125,0.8106237649917603,0.4406821131706238,0.2474643886089325
1758273848098005200,11.025005126953126,0.6531030535697937,-0.39804530143737793,0.5798073410987854
1758273848107962400,11.03496240234375,0.3766382038593292,-0.9302269220352173,0.655611515045166
1758273848117920500,11.04492041015625,0.0906345322728157,-1.1073689460754395,0.5729133486747742
1758273848127878100,11.054878173828126,-0.22122348845005035,-0.8037858605384827,0.4598642885684967
1758273848137835300,11.064835205078126,-0.5995869040489197,-0.21705155074596405,0.4177403748035431
1758273848147793400,11.07479345703125,-0.9242196083068848,-0.3653795123100281,0.6842671632766724
1758273848157751300,11.084751220703126,-0.7905642986297607,-0.6041244268417358,0.8716012239456177
1758273848167708400,11.09470849609375,-0.7105972766876221,-0.5058252811431885,0.9194113612174988
1758273848177666300,11.104666259765626,-0.6954127550125122,-0.3920314908027649,0.8786423206329346
1758273848187623200,11.114623046875,-0.6962945461273193,-0.382609486579895,0.8349637985229492
1758273848197581300,11.124581298828126,-0.5573519468307495,-0.4162648022174835,0.7873317003250122
1758273848207539200,11.134539306640624,-0.34782806038856506,-0.6394001245498657,0.8515892624855042
1758273848217496300,11.144496337890626,-0.20979678630828857,-1.309519648551941,1.3720887899398804
1758273848227454200,11.1544541015625,-0.12185654789209366,-1.7046676874160767,1.8594862222671509
1758273848237412000,11.164412109375,-0.1226176768541336,-1.2513846158981323,2.0128815174102783
1758273848247369200,11.174369140625,-0.13145138323307037,-0.5235835313796997,2.1632654666900635
1758273848257327400,11.184327392578124,-0.038320351392030716,-0.30556797981262207,2.6867189407348633
1758273848267285200,11.19428515625,-0.061478666961193085,-0.8043798804283142,3.224693536758423
1758273848277242000,11.2042421875,-0.2973468601703644,-1.7040766477584839,3.3003647327423096
1758273848287200800,11.21420068359375,-0.4295448362827301,-2.1569628715515137,2.707033634185791
1758273848297158700,11.22415869140625,-0.17728596925735474,-2.1532504558563232,2.013170003890991
1758273848307115800,11.23411572265625,-0.039523035287857056,-1.2234687805175781,1.3864442110061646
1758273848317073700,11.24407373046875,-0.3328757882118225,0.10272777080535889,0.7411807775497437
1758273848327031600,11.254031494140625,-0.6793815493583679,1.2229372262954712,0.002032136544585228
1758273848336988700,11.26398876953125,-1.0309747457504272,1.8106191158294678,-0.7951198816299438
1758273848346946800,11.27394677734375,-1.3436872959136963,2.134613037109375,-1.2091630697250366
1758273848356904700,11.28390478515625,-1.6601990461349487,2.9511139392852783,-0.9855299592018127
1758273848366861600,11.293861572265625,-1.828885555267334,4.420289039611816,-0.16692745685577393
1758273848376819700,11.30381982421875,-1.7369801998138428,6.317470073699951,0.7580298185348511
1758273848386777600,11.313777587890625,-1.7373123168945312,6.983085632324219,1.4614031314849854
1758273848396734700,11.323734619140625,-2.3137028217315674,4.845653057098389,1.603714942932129
1758273848406692900,11.33369287109375,-3.000614881515503,0.9848044514656067,0.9642319083213806
1758273848416650800,11.343650634765625,-3.507246971130371,-3.242234230041504,-0.13709798455238342
1758273848426607600,11.353607666015625,-3.8143746852874756,-5.264729022979736,-1.2137572765350342
1758273848436565800,11.363565673828125,-3.666813850402832,-4.719029426574707,-2.031660556793213
1758273848446522600,11.373522705078125,-3.3598365783691406,-2.3560917377471924,-2.1322574615478516
1758273848456480800,11.383480712890625,-3.0124666690826416,1.6171715259552002,-1.0453873872756958
1758273848466438700,11.393438720703125,-2.292602062225342,7.99801778793335,0.7924606800079346
1758273848476395500,11.4033955078125,-2.36639666557312,11.461097717285156,1.9806582927703857
1758273848486353700,11.413353759765625,-1.5318748950958252,3.989664077758789,1.8989338874816895
1758273848496311600,11.4233115234375,-1.6288419961929321,2.346156120300293,2.4195759296417236
1758273848506268700,11.4332685546875,-1.585204005241394,4.46925163269043,2.9750778675079346
1758273848516226800,11.443226806640626,-1.7076255083084106,4.619457244873047,2.3448469638824463
1758273848526184400,11.453184326171876,-1.2510366439819336,5.546935081481934,2.755969524383545
1758273848536141600,11.4631416015625,-1.2020646333694458,4.799480438232422,2.798788547515869
1758273848546099700,11.473099609375,-1.2185674905776978,5.177011966705322,2.430776596069336
1758273848556057600,11.4830576171875,-1.3139594793319702,4.910783290863037,1.707141637802124
1758273848566014700,11.4930146484375,-1.1987764835357666,6.322453022003174,2.7020065784454346
1758273848575972900,11.502972900390626,-1.195685863494873,6.118102073669434,2.9253628253936768
1758273848585930500,11.512930419921876,-1.658880352973938,5.6402812004089355,2.0290281772613525
1758273848595887600,11.5228876953125,-2.8073720932006836,6.412405490875244,2.093834161758423
1758273848605845800,11.532845703125,-3.8778891563415527,6.314253330230713,2.4688992500305176
1758273848615803600,11.5428037109375,-4.721752643585205,6.641003608703613,3.1809709072113037
1758273848625760800,11.5527607421875,-5.379866600036621,6.532515048980713,4.036931037902832
1758273848635718700,11.56271875,-5.890223979949951,6.589071273803711,4.835846424102783
1758273848645676500,11.572676513671874,-6.321328639984131,6.69479513168335,5.535341262817383
1758273848655633700,11.582633544921874,-6.503296852111816,6.791506290435791,5.992280960083008
1758273848665591800,11.592591796875,-6.5081377029418945,6.64944314956665,6.234128475189209
1758273848675549700,11.6025498046875,-6.379415035247803,6.327081680297852,6.287519454956055
1758273848685506600,11.612506591796874,-6.147703170776367,5.821971893310547,6.13748836517334
1758273848695464700,11.622464599609375,-5.917418003082275,5.322780609130859,5.737482070922852
1758273848705422600,11.632422607421875,-5.545155048370361,4.726443290710449,5.093919277191162
1758273848715379700,11.642379638671875,-5.196933269500732,3.8896143436431885,4.276342391967773
1758273848725337900,11.652337890625,-4.965634346008301,2.8828625679016113,3.4414007663726807
1758273848735295700,11.662295654296875,-4.721160411834717,1.9618192911148071,2.677306890487671
1758273848745252600,11.672252685546875,-4.551412105560303,1.2453798055648804,2.097073554992676
1758273848755210800,11.682210693359375,-4.333670139312744,0.7266925573348999,1.7801896333694458
1758273848765167600,11.692167724609375,-4.051389694213867,0.5590740442276001,1.6818619966506958
1758273848775125800,11.702125732421875,-3.8594276905059814,0.7599120140075684,1.7924855947494507
1758273848785083600,11.712083740234375,-3.7698068618774414,1.0404750108718872,1.9906295537948608
1758273848795040500,11.72204052734375,-3.7622389793395996,1.294649362564087,2.13883638381958
1758273848804998700,11.73199853515625,-3.8476431369781494,1.3833861351013184,2.2416250705718994
1758273848814956500,11.74195654296875,-3.9072630405426025,1.259044885635376,2.305187463760376
1758273848824913700,11.75191357421875,-3.8109290599823,1.1900477409362793,2.257305145263672
1758273848834871800,11.761871826171875,-3.597376585006714,1.1926590204238892,2.042208194732666
1758273848844829400,11.771829345703125,-3.3755927085876465,1.0253022909164429,1.7204498052597046
1758273848854786600,11.78178662109375,-3.164973497390747,0.5887457132339478,1.2872980833053589
1758273848864744700,11.79174462890625,-2.952197551727295,0.006590718403458595,0.7905674576759338
1758273848874702600,11.80170263671875,-2.8152852058410645,-1.6059706211090088,0.8456588983535767
1758273848884659700,11.81165966796875,-2.395562171936035,-2.2771780490875244,0.6165684461593628
1758273848894617600,11.82161767578125,-1.8722615242004395,-2.1531834602355957,0.5036205053329468
1758273848904575500,11.831575439453125,-1.2712562084197998,-1.5119673013687134,0.4431164562702179
1758273848914532600,11.84153271484375,-0.5106497406959534,-0.4841710031032562,0.33095988631248474
1758273848924490800,11.85149072265625,0.3401359021663666,0.15030261874198914,0.330637127161026
1758273848934448600,11.86144873046875,1.1822134256362915,0.22564996778964996,0.34568002820014954
1758273848944405800,11.87140576171875,1.5373866558074951,0.8242018222808838,0.6592915058135986
1758273848954363600,11.88136376953125,0.7905271649360657,1.4695651531219482,1.1965433359146118
1758273848964321500,11.891321533203126,-0.455515593290329,-0.2560604512691498,0.8453736305236816
1758273848974278700,11.901278564453126,-1.8718422651290894,-1.5849965810775757,0.570010781288147
1758273848984236800,11.91123681640625,-2.491546154022217,-1.2748606204986572,0.5274774432182312
1758273848994194700,11.921194580078126,-2.462463140487671,-0.6251956820487976,0.22961322963237762
1758273849004151600,11.931151611328126,-1.9892748594284058,-0.3028990626335144,-0.24369147419929504
1758273849014109700,11.941109619140626,-1.216015100479126,0.21466615796089172,-0.6003934741020203
1758273849024067600,11.951067626953124,-0.5727301836013794,1.2012269496917725,-0.7987595200538635
1758273849034024700,11.961024658203126,-0.30620214343070984,1.2383803129196167,-0.7569189667701721
1758273849043982800,11.97098291015625,-0.3842759132385254,0.3662678003311157,-0.17018944025039673
1758273849053939500,11.980939453125,-0.41403815150260925,-0.8562857508659363,0.4892408549785614
1758273849063897600,11.990897705078124,-0.3493387699127197,-1.1754783391952515,0.6240727305412292
1758273849073855700,12.000855712890624,-0.4249652326107025,-1.2056647539138794,0.52854323387146
1758273849083812600,12.0108125,-0.6560487747192383,-0.7822114825248718,0.4293367862701416
1758273849093770800,12.020770751953124,-0.8447632789611816,-0.2898116409778595,0.249104306101799
1758273849103729000,12.03072900390625,-0.8914074301719666,0.03870604932308197,0.08165618777275085
1758273849113685500,12.040685546875,-0.8949082493782043,0.19768664240837097,0.05726722627878189
1758273849123643600,12.0506435546875,-0.8113750219345093,0.14002521336078644,0.12879547476768494
1758273849133601800,12.060601806640625,-0.686732828617096,-0.08086495846509933,0.21500499546527863
1758273849143558700,12.07055859375,-0.5573529601097107,-0.27909040451049805,0.2512224018573761
1758273849153516800,12.080516845703125,-0.39670082926750183,-0.35781773924827576,0.2615944743156433
1758273849163474400,12.090474365234375,-0.2483811378479004,-0.3530472218990326,0.2616341710090637
1758273849173431600,12.100431640625,-0.15375427901744843,-0.28268662095069885,0.24250899255275726
1758273849183389700,12.1103896484375,-0.11068642139434814,-0.1681443303823471,0.25548255443573
1758273849193347600,12.12034765625,-0.1122608557343483,-0.07568804174661636,0.31602442264556885
1758273849203304700,12.1303046875,-0.13317732512950897,0.03218170255422592,0.383331298828125
1758273849213262600,12.1402626953125,-0.14897717535495758,0.14727073907852173,0.4388400912284851
1758273849223220500,12.150220458984375,-0.12909400463104248,0.1892821043729782,0.4784806966781616
1758273849233177600,12.160177490234375,-0.09952618181705475,0.1266380399465561,0.4790671765804291
1758273849243135700,12.1701357421875,-0.059978775680065155,0.031814586371183395,0.44335952401161194
1758273849253093600,12.18009375,-0.004290740005671978,-0.02286650612950325,0.3946853578090668
1758273849263050800,12.19005078125,0.05259571224451065,-0.03791975602507591,0.3386921286582947
1758273849273008600,12.200008544921875,0.08430235832929611,-0.02716657519340515,0.2722342014312744
1758273849282966500,12.209966552734375,0.08760148286819458,-0.003831691574305296,0.20358748733997345
1758273849292923600,12.219923583984375,0.06880036741495132,0.04171554744243622,0.1374749094247818
1758273849302881800,12.2298818359375,0.03330735117197037,0.07807568460702896,0.06634348630905151
1758273849312839700,12.239839599609375,0.011396253481507301,0.10943547636270523,0.007178164087235928
1758273849322796800,12.249796875,-0.005208555143326521,0.1132001206278801,-0.020302195101976395
1758273849332755000,12.2597548828125,-0.004981391131877899,0.0898713693022728,-0.0041523948311805725
1758273849342711800,12.2697119140625,-0.019764065742492676,0.0658925324678421,0.12721867859363556
1758273849352669700,12.279669677734375,-0.13520857691764832,0.18281050026416779,0.7076365947723389
1758273849362627800,12.2896279296875,-0.26471278071403503,-0.007223893888294697,1.1786859035491943
1758273849372584700,12.299584716796875,-0.36346861720085144,-0.25050392746925354,0.7698058485984802
1758273849382542800,12.30954296875,-0.23698870837688446,-0.1093987300992012,0.3434816598892212
1758273849392501000,12.3195009765625,-0.14654669165611267,0.07554768770933151,-0.07506392151117325
1758273849402457600,12.32945751953125,-0.1721162348985672,0.2018669992685318,-0.4467945992946625
1758273849412415700,12.339415771484376,-0.2809280753135681,0.26368778944015503,-0.55256187915802
1758273849422374000,12.349373779296876,-0.38396763801574707,0.19441069662570953,-0.37073034048080444
