time,seconds_elapsed,z,y,x
1758274848192018000,0.046017822265625,9.807697463226317,-1.8511667961120604,1.3926771781921385
1758274848201975000,0.05597509765625,10.813860710906981,-1.8439841911315917,2.437297290039062
1758274848211932000,0.065931884765625,11.330110443878173,-1.5050550186157226,3.6982933769226074
1758274848221890000,0.07589013671875,10.347440299987792,-1.2529156562805175,4.037821099853516
1758274848231847200,0.08584716796875,9.511415007781983,-1.2325649421691893,3.4234090988159176
1758274848241803800,0.0958037109375,8.493430389404296,-1.5491981117248534,2.8781296707153317
1758274848251762000,0.105761962890625,7.5345526245117185,-1.6174328590393066,2.244863331604004
1758274848261719000,0.115718994140625,7.089530390930175,-1.2219406723022461,1.7859248008728026
1758274848271677000,0.125677001953125,7.053467728424072,-1.0688614036560058,1.6488567558288574
1758274848281634000,0.135634033203125,7.226598435974121,-1.4767735115051268,1.726369034576416
1758274848291591000,0.1455908203125,7.451653392028808,-1.957409494781494,1.71739077835083
1758274848301549000,0.155549072265625,8.558971659851073,-2.2049100914001465,1.4558242469787597
1758274848311506000,0.165505859375,10.461164878845214,-2.0828058067321775,1.6897078216552734
1758274848321463000,0.175463134765625,11.387720921325682,-1.9194015434265135,2.9433716659545897
1758274848331421000,0.1854208984375,11.125256564331053,-1.9711761543273925,3.192967189025879
1758274848341378000,0.1953779296875,10.105326657104492,-1.5551836158752441,2.9219734886169433
1758274848351336000,0.2053359375,9.1163717338562,-1.3346177879333496,3.76024334487915
1758274848361293000,0.21529296875,8.57438433303833,-1.27685767288208,4.521749110412597
1758274848371250000,0.22525,7.29722738494873,-1.0639233627319336,4.812046061706543
1758274848381208000,0.2352080078125,6.2122051200866695,-0.6818985603332519,4.932653970336914
1758274848391165000,0.2451650390625,6.252607273101806,-1.1145008728027344,5.006574946594238
1758274848401122000,0.2551220703125,8.22932001876831,-1.368136611175537,5.5090580200195305
1758274848411080000,0.265079833984375,9.477147996520996,-0.6634931350708008,6.312312677001953
1758274848421037000,0.275037109375,9.53191535949707,-0.6853402252197265,6.634183162689209
1758274848430995000,0.284994873046875,9.8319387550354,-1.633743357849121,6.3515177291870115
1758274848440952000,0.2949521484375,10.339808782196044,-2.089389861297607,5.364807369995117
1758274848450909000,0.304908935546875,10.922497611236572,-2.2477064460754392,5.295824434661865
1758274848460866800,0.31486669921875,10.33636711730957,-2.1628619247436522,5.995230594635009
1758274848470824000,0.324823974609375,8.91825154647827,-1.1420341918945311,7.194875263977051
1758274848480782000,0.334781982421875,7.610718164825439,-0.15981296081542967,8.264784130859374
1758274848490739200,0.3447392578125,6.651840399932861,0.5784989761352539,9.26346549835205
1758274848500696000,0.354696044921875,6.176741007995605,1.1655272956848144,9.556306288909912
1758274848510654000,0.364654052734375,6.118980892944336,0.967856021118164,9.152284758758544
1758274848520611000,0.374611083984375,6.9330094573974606,0.24735095901489257,8.804078054809569
1758274848530568000,0.38456787109375,8.1586910697937,-0.3290530906677246,8.182034535980224
1758274848540525800,0.39452587890625,8.697685718536377,-1.0550947441101073,7.269394790649414
1758274848550483000,0.40448291015625,8.645312557220459,-1.6009727226257324,6.515370905303954
1758274848560441000,0.414441162109375,8.387636603546142,-1.834856297302246,6.253804373931884
1758274848570398200,0.424398193359375,8.149263900756836,-1.9761141952514647,6.190956580352783
1758274848580354800,0.434354736328125,7.73791012802124,-1.9815011489868164,5.979518646240234
1758274848590313000,0.44431298828125,6.964732629394531,-1.868075845336914,5.891082822418213
1758274848600269800,0.454269775390625,6.449081446838378,-1.582118384552002,6.161477972412109
1758274848610227000,0.46422705078125,6.319046369171142,-1.1258733306884765,6.960991689300537
1758274848620184800,0.474184814453125,6.003460662841796,-1.0383353324890137,8.141183470153807
1758274848630142000,0.484141845703125,6.018723698425292,-0.6346130775451659,8.6444147315979
1758274848640099800,0.494099853515625,6.436212612915039,-0.6259340965270995,8.780435313415527
1758274848650057000,0.504056884765625,6.706308487701415,-1.0301052642822266,8.844629845428466
1758274848660013800,0.514013916015625,6.734141082000732,-1.2294225524902342,8.46529851989746
1758274848669972000,0.523971923828125,6.813299374389648,-1.6232687255859375,7.71232209777832
1758274848679928800,0.5339287109375,6.987477545166016,-2.288707149505615,6.983886242675781
1758274848689886000,0.543885986328125,7.048828962707519,-2.6892870147705077,6.306776085662841
1758274848699843800,0.55384375,6.757185272979736,-2.6988638214111327,6.15459464263916
1758274848709801000,0.563801025390625,6.332663391113281,-2.522441086578369,6.681019732666015
1758274848719758800,0.5737587890625,6.3898249557495115,-1.947832688140869,8.026561065673828
1758274848729715700,0.5837158203125,6.743418613433837,-1.3708300880432127,9.291896643066405
1758274848739672800,0.5936728515625,6.848613848876953,-1.080233861541748,9.833734406280517
1758274848749631000,0.603630859375,6.782174752807617,-1.0506056159973145,9.973795203399657
1758274848759587800,0.613587890625,6.819135240936279,-1.5260042831420897,9.753379013061522
1758274848769545000,0.623544921875,6.814646112823486,-2.0917840629577635,9.22485899658203
1758274848779502800,0.6335029296875,6.707655226135254,-2.5119664543151856,8.23006820678711
1758274848789460000,0.6434599609375,6.790404821014404,-3.238008107757568,6.829909148406982
1758274848799417900,0.65341796875,6.656329528045654,-4.000262061309814,5.785887586975098
1758274848809374700,0.663374755859375,6.732046155548096,-4.10530765914917,5.388899024200439
1758274848819331800,0.673331787109375,6.826467483520507,-3.948038537597656,5.032911164855957
1758274848829290000,0.6832900390625,6.733542531585693,-3.9023990684509275,5.290437480926514
1758274848839246800,0.693246826171875,7.069628589630127,-3.425354387664795,6.941239525604248
1758274848849203700,0.70320361328125,7.351396197509765,-2.6316765373229978,8.50435393447876
1758274848859161900,0.713161865234375,7.116165884399414,-2.466326985168457,8.526649937438965
1758274848869119000,0.723118896484375,6.479158605194091,-2.723703663635254,8.234557334899902
1758274848879076900,0.733076904296875,5.661389100646972,-2.819322092437744,7.795969518280029
1758274848889033700,0.74303369140625,5.1213469886779786,-2.961627453613281,7.510012057495117
1758274848898990800,0.752990966796875,5.18419478225708,-3.273921132659912,6.895450418853759
1758274848908949000,0.762948974609375,5.687426043701172,-3.6733038970947263,6.08456424407959
1758274848918905900,0.77290576171875,6.319345644378662,-4.143764523315429,5.495889910888671
1758274848928862700,0.78286279296875,6.843675807952881,-4.4756607284545895,5.200954193878173
1758274848938820900,0.79282080078125,6.8499605873107905,-4.442441180419921,5.3782747543334954
1758274848948778000,0.802778076171875,6.621314328765869,-4.2122985458374025,5.773766941070556
1758274848958736000,0.81273583984375,6.383390538787841,-3.944896147918701,6.208913092803955
1758274848968692700,0.822692626953125,6.350170990753173,-3.603872048950195,6.619817952728271
1758274848978649900,0.83264990234375,6.332663391113281,-3.1765070526123047,6.927622503662109
1758274848988608000,0.84260791015625,6.234800398254394,-3.1266777305603024,6.861931595611572
1758274848998564900,0.85256494140625,5.820004960632324,-3.218255944061279,6.757035635375976
1758274849008521700,0.862521728515625,5.614253255462646,-3.4344822814941405,6.6729393020629875
1758274849018479900,0.87247998046875,5.7602995567321775,-3.4856583419799803,6.466888321685791
1758274849028437000,0.88243701171875,6.055983461761474,-3.624970951080322,6.273107624816894
1758274849038395000,0.892394775390625,6.8210805297851556,-4.274398151397705,6.261884804534912
1758274849048351700,0.902351806640625,8.677783917236328,-5.141847340393066,6.473173101043701
1758274849058308900,0.912308837890625,7.973290078735351,-4.54569112701416,5.9026049179077145
1758274849068266800,0.922266845703125,6.263680455780029,-3.586214811706543,6.3241340476989745
1758274849078224000,0.932223876953125,6.774393597412109,-4.3637318008422845,7.032069551086425
1758274849088180700,0.9421806640625,6.382492713165282,-4.574720822143554,7.3545385871887206
1758274849098139000,0.952138916015625,6.045209554290771,-4.487182823944091,6.855946091461181
1758274849108096000,0.962095947265625,6.572981382751465,-4.659266068267822,6.112396838378906
1758274849118054000,0.972053955078125,6.1927522315979004,-4.518457083129882,5.5276130828857415
1758274849128010800,0.9820107421875,5.791424178314209,-4.611232397460937,5.513547148132324
1758274849137967900,0.9919677734375,6.009595804595947,-4.839130467987061,5.473743545532226
1758274849147925800,1.00192578125,6.161477972412109,-4.773589197540283,5.736656815338135
1758274849157883000,1.0118828125,6.3509191787719725,-4.386476716613769,5.957372280883789
1758274849167839700,1.02183984375,6.492476351928711,-4.011634519195557,6.066308456420898
1758274849177798000,1.0317978515625,6.282983706665039,-3.8982092155456542,5.844695165252685
1758274849187754800,1.041754638671875,6.178087746429443,-3.9659950500488277,5.749226374053955
1758274849197713000,1.051712890625,6.855497178649902,-4.138826482391357,5.792770916748046
1758274849207670000,1.061669921875,7.3457099685668945,-4.274847064208984,5.406107348632812
1758274849217627000,1.071626953125,6.807313870239257,-4.185663052368164,5.225045848083496
1758274849227584800,1.081584716796875,6.268319221496582,-4.004003001403809,5.153519073486327
1758274849237542000,1.0915419921875,6.053289984893799,-3.9854479385375976,5.236867218780517
1758274849247498800,1.101498779296875,5.798307508087158,-3.86244582824707,5.505317079925537
1758274849257457000,1.111456787109375,5.5552960395812985,-3.529951072692871,5.997325521087646
1758274849267413800,1.121413818359375,5.717652839660644,-3.5139398490905758,6.761824038696289
1758274849277372000,1.131371826171875,6.132298639678955,-4.323479285430908,6.69733023147583
1758274849287329000,1.1413291015625,6.640318304443359,-4.556465034484863,7.448660639953613
1758274849297286000,1.151285888671875,7.881412590026855,-4.451120161437988,8.004414700317382
1758274849307243800,1.161243896484375,8.401103987884522,-4.28412459564209,7.880963677215576
1758274849317201000,1.171200927734375,7.436988906860351,-4.357596659088134,7.049427513122558
1758274849327158000,1.181157958984375,5.91801759109497,-4.464886820983886,6.382343075561523
1758274849337115600,1.19111572265625,5.909637885284424,-4.658817155456543,5.9002107162475586
1758274849347072800,1.20107275390625,5.348945783996582,-4.573523721313476,5.239859970855712
1758274849357031000,1.211031005859375,4.6815620712280275,-4.784213467407226,4.87100327758789
1758274849366988000,1.220988037109375,4.479252030944824,-4.786757306671142,5.014954652404785
1758274849376945000,1.23094482421875,4.809651860046387,-4.539705622863769,5.63071339187622
1758274849386902800,1.24090283203125,5.758204630279541,-4.486434635925293,6.275501826477051
1758274849396860000,1.25085986328125,6.484246283721923,-4.5693338684082025,6.509535038757324
1758274849406817000,1.260817138671875,6.4454901443481445,-4.5964182746887206,6.3986535743713375
1758274849416774700,1.270774658203125,6.082618955230712,-4.688295763397217,5.781847371673583
1758274849426731800,1.280731689453125,5.627720639801025,-4.62859035949707,5.033659352874755
1758274849436690000,1.29068994140625,4.6070425445556635,-4.311657914733886,5.074061505889892
1758274849446647000,1.30064697265625,3.995324020385742,-4.225317017364501,5.5641246582031245
1758274849456603600,1.310603759765625,3.921253406524658,-4.2800843803405755,5.938368305206298
1758274849466561800,1.320561767578125,5.623530786895752,-5.099799173736572,6.426186893463134
1758274849476519000,1.330518798828125,7.611615990447998,-6.031143619537353,7.420678408050537
1758274849486476000,1.34047607421875,6.151901165771484,-7.3192241127014155,6.49277562713623
1758274849496434000,1.350433837890625,5.876268699645996,-7.617900769805908,6.080374391174316
1758274849506390800,1.360390869140625,5.995230594635009,-5.716755014038085,6.615927375030517
1758274849516349000,1.370348876953125,5.173720149993896,-4.619911378479004,7.015310139465331
1758274849526305800,1.380305908203125,4.709693940734863,-3.9297827499389646,6.495169828796386
1758274849536262700,1.3902626953125,4.148403289031982,-3.7562031295776364,5.512499684906006
1758274849546220800,1.400220703125,4.534318669128417,-4.412214384460449,4.655674765777587
1758274849556178000,1.410177978515625,5.8080339523315425,-5.482572164154052,5.093215119171142
1758274849566135000,1.420135009765625,4.924573539733887,-5.38186605682373,5.795165118408203
1758274849576093000,1.430093017578125,4.296245241546631,-5.207238973236084,5.820902786254883
1758274849586050000,1.440050048828125,4.339041596221923,-6.261435891723632,5.821800611877441
1758274849596008000,1.450008056640625,4.518008170318604,-6.646902359008789,5.950788226318359
1758274849605964800,1.45996484375,4.874744217681885,-6.3892264053344725,6.070049396514892
1758274849615922000,1.469921875,4.352209705352783,-6.0148331207275385,6.545896976470947
1758274849625880000,1.479880126953125,3.9565678810119627,-5.421669659423828,7.171082884979247
1758274849635837200,1.489837158203125,3.942352308654785,-5.476437022399902,7.434744342803954
1758274849645793800,1.499793701171875,4.20107572555542,-6.541707123565674,7.090727491760253
1758274849655752000,1.509751953125,3.7735610916137694,-6.817040314483642,6.087706633758544
1758274849665709000,1.519708984375,3.2109237014770504,-5.628468827819824,5.625476075744628
1758274849675667000,1.5296669921875,2.101061594390869,-4.648941073608398,5.990891104125976
1758274849685623800,1.539623779296875,1.1257236930847168,-3.9707834533691404,5.78424157333374
1758274849695581000,1.549580810546875,2.0144214218139647,-3.605966975402832,4.653130926513672
1758274849705539000,1.5595390625,6.4004492256164545,-6.523600973510741,4.782567453765869
1758274849715496000,1.569495849609375,3.6824317909240722,-9.182212279510498,6.318597456359863
1758274849725452800,1.579452880859375,2.048838070678711,-6.739079122924804,5.344755931091308
1758274849735411000,1.589410888671875,4.139724308013916,-6.0884548217773435,6.912509105682372
1758274849745368000,1.5993681640625,3.5501521492004393,-6.782174752807617,8.711751653289795
1758274849755325200,1.6093251953125,2.3026234466552733,-5.632957955932617,6.979097839355468
1758274849765283000,1.619282958984375,0.964713631439209,-4.78226817855835,5.28011248626709
1758274849775240000,1.629239990234375,3.0379426315307616,-6.196343534088134,5.889736083984375
1758274849785198000,1.639197998046875,3.3611598556518554,-8.953266745758055,7.46960990447998
1758274849795155000,1.649155029296875,2.3409306732177733,-10.22758057937622,6.340893459320068
1758274849805111800,1.65911181640625,3.0672716018676756,-10.2019925491333,5.121197351074218
1758274849815070000,1.669070068359375,3.284695040130615,-9.89568437423706,5.231330627441406
1758274849825027000,1.679027099609375,2.8152818771362305,-8.895805905914306,5.721244142150878
1758274849834984200,1.688984130859375,3.512892385864258,-9.024045332336426,6.397905386352539
1758274849844942000,1.698942138671875,2.854337291717529,-9.957634342193604,7.134870584869384
1758274849854899000,1.70889892578125,0.8444049980163574,-9.712827222442627,6.506991199493408
1758274849864856800,1.71885693359375,1.7458219230651855,-9.510666819763182,6.310517025756836
1758274849874814000,1.72881396484375,2.6466402976989745,-9.865906491088866,5.7788546195983885
1758274849884771000,1.73877099609375,2.5465327407836913,-9.58892728652954,5.3950341659545895
1758274849894729000,1.74872900390625,1.638232485961914,-8.373121755981446,5.6580970733642575
1758274849904686000,1.75868603515625,1.6466121917724608,-7.051971352386474,6.309768837738036
1758274849914643000,1.768642822265625,2.0302830078125,-6.01408493270874,6.611138971710204
1758274849924601000,1.77860107421875,1.6084546028137205,-5.967547637939453,6.855197903442383
1758274849934558000,1.788557861328125,1.861042877960205,-7.608323963165283,7.222109307861328
1758274849944515800,1.798515869140625,1.924189946746826,-9.374795875549315,6.8876692634582515
1758274849954473000,1.808472900390625,1.3991115951538085,-9.236680367279051,6.254552561950684
1758274849964430000,1.81843017578125,1.638232485961914,-7.509712782287597,6.515221267700195
1758274849974388000,1.828387939453125,1.4809633644104003,-7.343016491699219,7.012317387390136
1758274849984344800,1.8383447265625,1.7208324432373046,-7.836072396087646,7.301566875457763
1758274849994302000,1.848302001953125,1.878251202392578,-7.970446964263916,7.4055650100708
1758274850004260000,1.858260009765625,1.6882114456176758,-8.272266011047362,7.34211866607666
1758274850014217000,1.868217041015625,1.813757395172119,-8.741679174041748,7.575403690338134
1758274850024174800,1.8781748046875,1.9475334129333495,-8.435969549560546,8.160636358642577
1758274850034132000,1.888132080078125,3.17306538772583,-7.921216192626953,8.52246008453369
1758274850044089000,1.898089111328125,2.756623936462402,-8.014141144561767,7.982417972564697
1758274850054047200,1.908047119140625,1.3539210388183593,-8.132504489135743,7.518391763305663
1758274850064003800,1.91800390625,0.5861304939270019,-6.796689600372314,7.973290078735351
1758274850073961000,1.9279609375,-0.8128314636230468,-5.093514394378662,6.719476596832275
1758274850083919000,1.937919189453125,-0.9632172554016113,-3.1202433135986327,4.409221632385254
1758274850093876000,1.9478759765625,-0.5307645805358886,-1.7443255470275878,3.2888848930358883
1758274850103833000,1.9578330078125,0.01780687484741211,-1.4490905548095703,5.441721098327636
1758274850113791000,1.967791015625,0.22610241928100586,-3.040935383605957,6.647500909423828
1758274850123748000,1.977748046875,1.0266635993957518,-5.545719232940674,5.848136830139159
1758274850133706000,1.9877060546875,-0.7095815170288086,-7.098807922363281,5.89242956085205
1758274850143662800,1.997662841796875,-0.304512523651123,-9.7683427734375,8.055441123199463
1758274850153620000,2.007619873046875,0.8743325187683105,-9.862315188598632,9.381978480529785
1758274850163578000,2.017578125,1.7340005523681639,-8.575731071472168,7.586776148223876
1758274850173535200,2.02753515625,0.9362824867248535,-6.65887336730957,5.703586904907226
1758274850183491800,2.037491943359375,0.8072948722839355,-5.323357753753662,5.40715481185913
1758274850193450000,2.047449951171875,0.5928641860961914,-5.427206250762939,5.4221185722351075
1758274850203407000,2.057406982421875,0.22595278167724608,-4.584596903991699,3.8072295524597166
1758274850213365000,2.067364990234375,-0.22789807052612304,-3.583521334838867,3.0334535034179684
1758274850223321900,2.07732177734375,-0.7282862174987793,-4.129249675750732,4.571578432464599
1758274850233279000,2.087279052734375,-0.6744166801452637,-5.962160684204101,6.60769730682373
1758274850243237000,2.097237060546875,1.1246762298583983,-7.141903552246093,6.536918720245361
1758274850253194000,2.107194091796875,1.8562544746398926,-7.097910096740722,5.629965203857422
1758274850263150800,2.11715087890625,1.2322656669616698,-6.081421854400634,5.115960034942627
1758274850273109000,2.12710888671875,1.209820026397705,-6.140379070281982,4.750545006561279
1758274850283066000,2.137066162109375,0.4412812934875488,-6.704213561248779,5.083937587738037
1758274850293023200,2.147023193359375,0.3507505432128906,-6.9330094573974606,5.0945618576049805
1758274850302980900,2.15698095703125,0.5186439346313476,-7.2063973594665525,4.8798318962097165
1758274850312938000,2.16693798828125,0.7058405769348144,-6.764218240356445,5.277269371795654
1758274850322896100,2.176896240234375,1.169717148590088,-5.699097776794433,6.178087746429443
1758274850332853000,2.18685302734375,1.541716231536865,-5.792471641540527,5.891531735229492
1758274850342809900,2.196809814453125,1.5331868881225585,-7.1854480949401855,4.252999974060058
1758274850352768000,2.20676806640625,0.44053310546874996,-8.070404883575439,3.3783681800842285
1758274850362725000,2.21672509765625,0.21173720932006834,-7.822006461334228,2.448520110321045
1758274850372682000,2.226681884765625,0.3425204750061035,-9.795427179718017,1.6151882949829102
1758274850382639900,2.236639892578125,-0.38681320571899414,-8.89266351623535,1.6060604011535644
1758274850392597000,2.246596923828125,-0.3628711891174316,-7.1124249443054195,2.273593751525879
1758274850402555000,2.256554931640625,-0.15816694717407226,-6.192004043579101,3.179948717498779
1758274850412512000,2.266511962890625,0.701650724029541,-5.846640454101562,3.993378731536865
1758274850422468900,2.27646875,0.40880993347167965,-7.860612963104248,4.53282229309082
1758274850432427000,2.286427001953125,0.04519055633544922,-10.958560273742675,4.274996701812744
1758274850442384100,2.296384033203125,-1.943343560028076,-13.04331136932373,4.694580542755126
1758274850452341000,2.306341064453125,-1.866130556488037,-18.754529792022705,9.111134417724609
1758274850462299100,2.316299072265625,-0.12195464706420897,-22.752098376464843,14.367753800201415
1758274850472256000,2.326256103515625,1.3844471099853515,-19.267637135314942,13.38104344100952
1758274850482214000,2.3362138671875,-1.5583260055541992,-10.185532412719725,5.442319648742675
1758274850492171000,2.3461708984375,-1.5343839889526367,-5.364059181976318,2.5667338172912597
1758274850502127900,2.3561279296875,-1.5441104331970215,-8.17889214630127,2.756175023651123
1758274850512086000,2.3660859375,-1.0787374855041503,-10.123732082366942,2.837278604888916
1758274850522043000,2.37604296875,-0.018704700469970702,-10.543315923309326,4.008043216705322
1758274850532000000,2.386,0.5481225425720214,-9.342174877929686,5.022137257385253
1758274850541958100,2.395958251953125,0.4429273071289062,-8.266430144500731,5.5373395271301264
1758274850551915000,2.4059150390625,-0.044292730712890624,-8.144774772644043,6.164919637298584
1758274850561872100,2.4158720703125,-0.340275910949707,-7.971494427490234,6.056282736968994
1758274850571830000,2.425830078125,-0.5693710823059082,-7.953687552642822,5.761945570373535
1758274850581787100,2.435787109375,-0.6685808135986328,-8.239495375823974,5.296722260284423
1758274850591745000,2.4457451171875,-0.49634793167114255,-8.65069951095581,4.675426929473876
1758274850601702000,2.455701904296875,-0.6215946060180664,-9.351452409362793,4.518307445526123
1758274850611658800,2.46565869140625,-0.9880570976257324,-9.934590151214598,4.737676172637939
1758274850621617000,2.475616943359375,-0.9826701438903808,-9.046790248107909,5.304054502868652
1758274850631574000,2.485573974609375,-0.9205705383300781,-7.8806644020080565,5.244049823760986
1758274850641531000,2.49553076171875,-0.9917980377197265,-7.979425220489501,4.864119947814941
1758274850651489000,2.505489013671875,-0.6854898628234863,-8.180238884735108,5.051466227722168
1758274850661446000,2.51544580078125,-0.41958384094238277,-8.404844927978516,4.6630070083618165
1758274850671403000,2.525403076171875,-0.3532943824768066,-7.8255977638244625,4.652831651306152
1758274850681361000,2.53536083984375,-0.10908581314086914,-8.295010926818847,5.22833787536621
1758274850691317800,2.54531787109375,-0.2736871772766113,-10.052953495788573,4.611531672668456
1758274850701276000,2.55527587890625,-0.8360252922058105,-11.017966402435302,4.685452648925781
1758274850711233000,2.56523291015625,-0.0474351203918457,-7.778910831451416,2.814683326721191
1758274850721190000,2.57518994140625,-1.891718586730957,-6.566098052978515,3.778050219726562
1758274850731148000,2.58514794921875,-2.112583689880371,-8.263437392425537,5.0757075195312495
1758274850741105000,2.59510498046875,-1.1555015762329102,-9.068338063049316,4.892102179718017
1758274850751062000,2.60506201171875,-0.8183680549621581,-8.909123652648926,4.800523966217041
1758274850761020000,2.61502001953125,-0.5728127471923827,-8.485349958801269,4.516212519073486
1758274850770977000,2.62497705078125,-0.41150341033935545,-7.402123345184326,5.210231725311279
1758274850780934000,2.634933837890625,-0.33788170928955075,-7.834875295257568,5.306598342132568
1758274850790891800,2.644891845703125,-0.45774142990112304,-8.240692476654052,5.802646998596191
1758274850800849000,2.654848876953125,-0.9091980804443359,-7.921216192626953,6.246771406555175
1758274850810807000,2.66480712890625,-0.8731354179382323,-8.177695045471191,5.63729744644165
1758274850820764000,2.674763916015625,-0.9120411949157714,-8.223783427429199,5.182848043823242
1758274850830721000,2.684720947265625,-0.9196727127075195,-8.400804712677001,4.837035541534424
1758274850840679000,2.694678955078125,-0.9373299499511718,-8.56794991607666,4.707449376678467
1758274850850636000,2.704635986328125,-0.9901520240783691,-8.719383171081542,4.6815620712280275
1758274850860593000,2.714593017578125,-1.0046668716430665,-8.80946500854492,4.623353043365478
1758274850870550800,2.72455078125,-0.9882067352294921,-8.784026615905761,4.621707029724121
1758274850880508000,2.7345078125,-1.0063128852844239,-8.794501248168945,4.566640391540527
1758274850890465000,2.744465087890625,-0.9549871871948241,-8.815749787902831,4.533271205902099
1758274850900423000,2.7544228515625,-0.8496423141479492,-8.783727340698242,4.5878889312744136
1758274850910379800,2.7643798828125,-0.806995597076416,-8.710853827667236,4.608538920593261
1758274850920338000,2.774337890625,-0.7993640792846679,-8.648754222106932,4.66076244430542
1758274850930295000,2.784294921875,-0.7969698776245117,-8.576928172302246,4.727650453186035
1758274850940252000,2.794251953125,-0.7613561279296874,-8.558223471832274,4.802618892669678
1758274850950209800,2.804209716796875,-0.8053495834350586,-8.511835814666748,4.8397290184021
1758274850960167000,2.8141669921875,-0.8476970252990722,-8.452130410766602,4.899733697509765
1758274850970124000,2.8241240234375,-0.8644564369201659,-8.328679387664794,5.029319862365722
1758274850980082000,2.83408203125,-0.9163806854248047,-8.188768228149414,5.194819052124023
1758274850990038800,2.844038818359375,-0.9835679695129393,-8.112153775024414,5.312134933471679
1758274850999996000,2.853995849609375,-0.7161655715942382,-7.975833917999267,5.396081629180908
1758274851009954000,2.8639541015625,-0.6561608924865723,-7.953687552642822,5.479130499267578
1758274851019911000,2.873910888671875,-0.5829881042480468,-8.021922299957275,5.556942053222656
1758274851029868800,2.883868896484375,-0.5603928260803223,-8.061576264953613,5.558438429260254
1758274851039826000,2.893825927734375,-0.6593032821655274,-8.123077320098876,5.553350750732421
1758274851049783000,2.903782958984375,-0.7398083129882812,-8.119486017608642,5.494992085266113
1758274851059741000,2.913740966796875,-0.680551821899414,-8.201038511657714,5.3481975959777825
1758274851069697800,2.92369775390625,-0.6625953094482422,-8.238896825408935,5.2444987365722655
1758274851079655000,2.933655029296875,-0.70868369140625,-8.346486262512206,5.2073886108398435
1758274851089613000,2.943613037109375,-0.7715314849853515,-8.385990589904784,5.118204598999023
1758274851099570000,2.95356982421875,-0.9029133010864258,-8.514230016326904,5.053112241363525
1758274851109526800,2.96352685546875,-0.512658430480957,-8.381351824188233,5.133916547393799
1758274851119485000,2.97348486328125,-0.34311902542114253,-8.468141634368896,5.1617491416931145
1758274851129442000,2.983442138671875,-0.2558803024291992,-8.566303902435303,5.034407540893555
1758274851139400000,2.99339990234375,-0.06584054565429687,-8.560318398284911,4.857984806060791
1758274851149356800,3.003356689453125,-0.06599018325805664,-8.501959732818603,4.843769233703613
1758274851159314000,3.01331396484375,-0.12030863342285156,-8.469338735198974,4.853794953155517
1758274851169272000,3.02327197265625,-0.04863222122192382,-8.477119890594482,4.946719905090331
1758274851179229000,3.03322900390625,-0.02858078231811523,-8.489390174102782,5.004629657745361
1758274851189185800,3.043185791015625,-0.13407529296874998,-8.515876029968261,4.97335539855957
1758274851199144000,3.05314404296875,-0.009127893829345703,-8.576030346679687,4.956595986938476
1758274851209101000,3.06310107421875,0.12674305038452147,-8.648006034088134,4.97978981552124
1758274851219058000,3.073057861328125,0.24944588546752927,-8.743474825286865,4.945822079467773
1758274851229015800,3.083015869140625,0.33324294357299805,-8.782530239868164,4.885368487548828
1758274851238973000,3.092972900390625,0.3324947555541992,-8.79674581222534,4.828057285308837
1758274851248930800,3.102930908203125,0.2150292366027832,-8.787019367980957,4.744409864807128
1758274851258888000,3.112887939453125,0.17642273483276366,-8.799140013885497,4.659415705871582
1758274851268844800,3.1228447265625,0.3072060005187988,-8.801833490753173,4.5875896560668945
1758274851278803000,3.132802978515625,0.34311902542114253,-8.839542166900634,4.508581001281738
1758274851288760000,3.142760009765625,0.25468320159912106,-8.877400480651856,4.42418539276123
1758274851298717000,3.152717041015625,0.19722236175537108,-8.837447240447997,4.386775991821289
1758274851308674800,3.1626748046875,0.32007483444213863,-8.792406321716308,4.405331054687499
1758274851318632000,3.1726318359375,0.4613327323913574,-8.822333842468261,4.393808959197997
1758274851328589000,3.182589111328125,0.3660135787963867,-8.905382712554932,4.3725604194641114
1758274851338547000,3.192546875,0.16355390090942382,-8.964040653228759,4.2603322166442865
1758274851348503800,3.20250390625,0.10190320816040038,-9.008931934356688,4.182371025085449
1758274851358461000,3.2124609375,0.08409633331298827,-8.97601166152954,4.121019607543945
1758274851368418800,3.222418701171875,0.016759411621093748,-8.91974792251587,4.1572319076538085
1758274851378376000,3.2323759765625,0.1370680450439453,-8.831461736297607,4.2311528839111325
1758274851388333800,3.242333740234375,0.12779051361083985,-8.653392987823485,4.21364528427124
1758274851398291000,3.252291015625,-0.04997895965576172,-8.715941506195067,4.211550357818603
1758274851408248000,3.262248046875,-0.3978863883972168,-8.675389715576172,4.2886137237548825
1758274851418206000,3.2722060546875,-0.6227917068481444,-8.655787189483641,4.1569326324462885
1758274851428162800,3.282162841796875,-0.582239916229248,-8.538022395324706,4.056076887512207
1758274851438120000,3.292119873046875,-0.5175964714050293,-8.480561555480957,3.9721301918029783
1758274851448077800,3.302077880859375,-0.7161655715942382,-8.400206162261963,4.0261493667602535
1758274851458035000,3.312034912109375,-0.9094973556518554,-8.159888170623779,4.304475309753418
1758274851467991800,3.32199169921875,-0.945560018157959,-7.946504947662353,4.572625895690917
1758274851477950000,3.331949951171875,-1.096843635559082,-7.736713027191161,4.845115972137451
1758274851487906800,3.34190673828125,-1.4212579605102538,-7.524077992248535,5.140051689147949
1758274851497865000,3.351864990234375,-1.8179472480773924,-7.49534757232666,5.175964714050292
1758274851507821800,3.36182177734375,-2.0663456703186034,-7.4776903350830075,5.285499440002441
1758274851517779000,3.371779052734375,-2.2001216880798338,-7.370250535583495,5.2645501754760735
1758274851527736800,3.38173681640625,-2.210147407531738,-7.142502102661132,5.204246221160888
1758274851537694000,3.39169384765625,-2.0751742889404294,-6.789656632995605,5.363460631561279
1758274851547650800,3.40165087890625,-2.4402900421142575,-6.590189707183837,5.351938536071777
1758274851557609000,3.41160888671875,-2.7465982170104977,-6.747907741546631,4.931905782318115
1758274851567565800,3.42156591796875,-2.7371710479736326,-6.698377694702148,4.469824861907958
1758274851577523000,3.43152294921875,-3.1856349464416502,-6.349722077941895,4.59671754989624
1758274851587481000,3.441481201171875,-3.9745243934631347,-6.1088055358886715,5.035455004119873
1758274851597437400,3.4514375,-4.816984102630615,-5.938667580413818,5.44546203842163
1758274851607394600,3.46139453125,-5.0388966690063475,-5.607070650482178,5.779303532409668
1758274851617352400,3.4713525390625,-4.592078784179687,-5.12044916305542,6.044910279083251
1758274851627309600,3.4813095703125,-4.837484454345703,-4.675875842285156,5.869834282684326
1758274851637267700,3.491267822265625,-5.221304907989501,-4.793341361236572,5.263801987457275
1758274851647224300,3.501224365234375,-5.639841285705566,-4.884769937133789,4.891503629302978
1758274851657181400,3.511181396484375,-6.325480786132812,-4.9555485237121575,4.918887310791015
1758274851667139600,3.5211396484375,-6.043563540649414,-4.79453846206665,5.0951604080200195
1758274851677096700,3.5310966796875,-5.02453145904541,-4.555567208862304,5.439177259063721
1758274851687053600,3.541053466796875,-4.704456624603271,-4.467281022644043,5.228188237762451
1758274851697011500,3.551011474609375,-4.524741862487793,-4.284274233245849,4.581155239105224
1758274851706968600,3.560968505859375,-4.71792400894165,-4.0900446235656736,4.206163404083251
1758274851716925400,3.570925537109375,-4.904372463226318,-3.6777930252075195,4.422240103912353
1758274851726883300,3.58088330078125,-5.2642509002685545,-3.978863883972168,4.29055901260376
1758274851736840400,3.59084033203125,-5.811176342010498,-5.0197430557250975,3.7490205245971677
1758274851746797600,3.600797607421875,-6.146663849639892,-5.026925660705566,4.350414054107666
1758274851756755700,3.610755615234375,-6.114192489624023,-4.92247861328125,5.119551337432861
1758274851766712300,3.62071240234375,-5.581931533050537,-4.874744217681885,5.351489623260497
1758274851776670500,3.63067041015625,-5.65660069732666,-4.863521397399902,4.9729064857482905
1758274851786627600,3.640627685546875,-6.203226863861084,-4.548833516693115,4.79453846206665
1758274851796584700,3.650584716796875,-6.564003126525878,-4.189403992462158,4.698620758056641
1758274851806542300,3.660542236328125,-7.152527822113036,-4.534468306732178,4.5227965736389155
1758274851816499500,3.67049951171875,-7.405116097259521,-4.875492405700683,4.451718711853027
1758274851826456600,3.68045654296875,-6.64555562057495,-5.118653511810303,4.301781832885742
1758274851836414500,3.69041455078125,-5.909787522888183,-5.252728804779053,4.117428305053711
1758274851846371300,3.700371337890625,-6.120177993774414,-4.976647425842285,4.021660238647461
1758274851856328400,3.710328369140625,-7.296628834533691,-4.885069212341309,4.134187716674805
1758274851866286600,3.72028662109375,-8.31895294342041,-4.8241667076110835,4.358344847106934
1758274851876243700,3.73024365234375,-8.656086464691162,-4.929212305450439,4.244919543457031
1758274851886200300,3.740200439453125,-8.217947560882568,-4.958242000579833,4.348618402862549
1758274851896158500,3.750158447265625,-6.931363443756103,-5.013907189178466,4.2034699272155756
1758274851906115600,3.760115478515625,-6.33311230392456,-4.611531672668456,4.27140539932251
1758274851916073500,3.770073486328125,-6.842329069519042,-3.723282856750488,4.59028313293457
1758274851926030300,3.7800302734375,-7.258770520782471,-3.227982388305664,4.667795411682128
1758274851935987500,3.789987548828125,-7.236324880218506,-2.8176760787963864,4.61587116317749
1758274851945945600,3.799945556640625,-7.306355278778076,-2.5800515640258785,4.693533079528808
1758274851955902500,3.80990234375,-8.863783458709717,-3.1925182762145994,4.311957189941406
1758274851965859300,3.819859375,-9.805602536773682,-3.58801046295166,4.184166676330566
1758274851975817500,3.8298173828125,-9.476399808502197,-3.922600144958496,4.094683389282227
1758274851985774600,3.839774658203125,-8.6183777885437,-3.8754642997741695,4.184765226745605
1758274851995731700,3.849731689453125,-8.322394608306885,-3.292925108337402,4.421342278289795
1758274852005689300,3.859689453125,-8.40125362548828,-2.5713725830078125,4.729745379638672
1758274852015646500,3.869646484375,-8.430582595825195,-2.2560861518859863,4.472817613983154
1758274852025603600,3.879603515625,-8.125621159362792,-2.404526654815674,3.8103719421386715
1758274852035561500,3.8895615234375,-8.207173653411864,-2.101809782409668,3.9950247451782226
1758274852045518300,3.899518310546875,-8.872163164520263,-1.797895809173584,4.493766878509521
1758274852055476500,3.9094765625,-9.191340173339842,-2.3204303215026854,4.009838867950439
1758274852065433600,3.91943359375,-9.178172064208983,-2.000954037475586,3.915716815185547
1758274852075390500,3.929390380859375,-8.758288948059082,-1.9424457344055175,4.106205484771729
1758274852085348600,3.9393486328125,-8.94473740234375,-2.3906103576660156,3.9740754806518552
1758274852095305500,3.949305419921875,-9.353846611022949,-2.4410382301330564,3.4754829849243163
1758274852105262600,3.9592626953125,-9.018658378601074,-1.4642039527893065,3.2386066581726074
1758274852115220500,3.969220458984375,-8.642170167541503,-0.616058014678955,3.229927677154541
1758274852125177300,3.97917724609375,-8.730306716156006,-0.476895043182373,3.2722751190185546
1758274852135296500,3.989296630859375,-9.067589875030517,-0.42661680831909177,3.253420780944824
1758274852145093400,3.99909326171875,-9.850344180297851,0.03441664886474609,3.675847736358642
1758274852155050500,4.009050537109375,-10.417171423339843,-0.20335750350952148,3.928735286712646
1758274852165007600,4.019007568359375,-10.231171881866455,-0.6386532928466796,3.895815013885498
1758274852174965500,4.028965576171875,-9.697115274047851,-1.070058504486084,3.6002807464599607
1758274852184922400,4.03892236328125,-9.33424408493042,-1.0529998176574706,3.2742204078674315
1758274852194880500,4.048880615234375,-9.491213931274414,-0.6609492958068848,3.170970461273193
1758274852204837600,4.058837646484375,-9.631274728393555,-1.2003928573608398,3.4974797126770016
1758274852214794500,4.06879443359375,-9.175777862548827,0.10130465774536132,2.4717139389038083
1758274852224752400,4.07875244140625,-9.18700068283081,0.24046762924194334,2.642450444793701
1758274852234709500,4.08870947265625,-9.51306102142334,-0.17028759307861327,3.0609868225097654
1758274852244666600,4.09866650390625,-9.501987838745116,-0.40776247024536133,3.183240744781494
1758274852254624500,4.10862451171875,-9.688137017822266,-0.6666355247497558,3.2199019577026364
1758274852264581400,4.118581298828125,-10.098443327331543,-0.6766612442016601,3.4593221237182616
1758274852274538500,4.12853857421875,-9.663596450805663,-0.8952817832946777,3.041533934020996
1758274852284496600,4.13849658203125,-9.733626849365233,-0.48228199691772455,3.037493718719482
1758274852294453500,4.14845361328125,-9.872640183258056,-0.15741875915527342,3.0071172851562498
1758274852304410400,4.158410400390625,-9.567379471588135,0.10025719451904297,2.9984383041381832
1758274852314368500,4.168368408203125,-9.537152675628661,0.2527379127502441,3.0418332092285154
1758274852324325600,4.17832568359375,-9.65297218093872,0.13572130661010742,2.860921346282959
1758274852334283500,4.188283447265625,-9.223961170959472,-0.10654197387695312,2.5948656867980957
1758274852344240400,4.198240478515625,-9.325116191101074,-0.04967968444824218,2.478447631072998
1758274852354197500,4.208197509765625,-9.4618849609375,-0.15861585998535155,2.5727193214416504
1758274852364155600,4.21815576171875,-9.644592475128173,0.507570751953125,2.068590234375
1758274852374112500,4.228112548828125,-9.64668740158081,0.39968203964233395,1.8843863441467283
1758274852384069400,4.2380693359375,-9.864260477447509,0.4311059364318847,2.433107437133789
1758274852394027500,4.248027587890625,-10.18328784866333,0.7345709968566894,2.7808652282714843
1758274852403984600,4.257984619140625,-10.943746150970458,1.0085574493408203,3.00068286819458
1758274852413941500,4.26794140625,-12.46795478286743,1.70467158203125,3.8227918632507323
1758274852423899400,4.2778994140625,-14.653860898590088,4.349216953277588,3.9284360115051267
1758274852433856500,4.2878564453125,-17.225981669616697,6.631190410614013,4.1760862457275385
1758274852443813600,4.297813720703125,-18.264317002105713,7.560888842773437,4.294748865509033
1758274852453771500,4.307771484375,-15.68576181411743,6.41631081161499,3.5913024902343746
1758274852463728400,4.317728271484375,-12.05420680847168,3.5984850952148437,3.5345898384094236
1758274852473685500,4.327685546875,-9.221566969299316,1.4516343940734862,3.159448365783691
1758274852483643600,4.3376435546875,-8.130858475494385,0.1505354293823242,1.5783774444580077
1758274852493600500,4.3476005859375,-8.146570423889159,0.1096843635559082,0.017956512451171875
1758274852503558400,4.357558349609375,-8.622418003845214,0.7933785751342773,-0.3755903854370117
1758274852513515500,4.367515625,-8.863035270690917,1.59618431930542,0.36795886764526364
1758274852523472600,4.37747265625,-9.197624952697753,2.2444144187927244,1.192013151550293
1758274852533429500,4.387429443359375,-8.958204786682128,2.3868694175720213,1.3548188644409178
1758274852543386400,4.397386474609375,-8.788066831207274,2.2150854484558105,0.9054571403503417
1758274852553343500,4.407343505859375,-8.832060286712647,2.313546991729736,0.299424845123291
1758274852563301600,4.417301513671875,-8.888174388122557,2.6774656440734863,0.038756139373779294
1758274852573258500,4.427258544921875,-8.750507792663575,2.982726355743408,0.1452981132507324
1758274852583215400,4.43721533203125,-8.831162461090088,3.302651552581787,0.5662286926269531
1758274852593173800,4.447173828125,-8.94383957672119,3.4358290199279784,0.9795277542114257
1758274852603131000,4.457130859375,-9.15482859802246,3.2363620941162106,1.3691840744018553
1758274852613088000,4.467087890625,-8.787917193603516,2.8585271446228027,1.7443255470275878
1758274852623045600,4.477045654296875,-8.655637551879883,2.628534147644043,2.155380044555664
1758274852633002800,4.487002685546875,-9.09123261642456,2.59845698928833,2.5737667846679684
1758274852642961000,4.4969609375,-9.495254146575927,2.3714567443847656,2.828898899078369
1758274852652917800,4.506917724609375,-9.806949275207518,1.9375076934814452,2.986168020629883
1758274852662874600,4.51687451171875,-10.053402408599853,1.4372691841125487,3.0105589500427246
1758274852672832800,4.526832763671875,-10.246285279846191,1.1441291183471678,3.0303111137390135
1758274852682790000,4.536789794921875,-10.1261262840271,0.8955810585021972,2.868403226470947
1758274852692746800,4.546746826171875,-9.835829332733153,0.7101800674438477,2.599055539703369
1758274852702704600,4.55670458984375,-9.689334118652344,0.5970540390014648,2.240224565887451
1758274852712661800,4.566661865234375,-9.667337390899657,0.7574655502319335,2.082656169128418
1758274852722619000,4.576618896484375,-9.805452899169921,1.0314520027160643,2.046892781829834
1758274852732576800,4.58657666015625,-9.906458281707764,1.2817957138061522,2.0594623405456542
1758274852742533600,4.59653369140625,-10.00447091217041,1.481711552429199,2.0362685119628905
1758274852752491800,4.60649169921875,-10.068515806579589,1.588403163909912,1.9499276145935058
1758274852762449000,4.616448974609375,-9.821464122772216,1.5554828910827636,1.7950526947021483
1758274852772405800,4.62640576171875,-9.598953005981445,1.481711552429199,1.6707038459777832
1758274852782364000,4.636364013671875,-9.453056342315673,1.5337854385375975,1.6434698020935057
1758274852792320800,4.64632080078125,-9.194632200622559,1.6135422813415525,1.6494553062438964
1758274852802278000,4.65627783203125,-8.724021936798096,1.580023458099365,1.694496224975586
1758274852812235800,4.66623583984375,-8.958354424285888,2.4730606773376462,2.1541829437255857
1758274852822192600,4.676192626953125,-9.426869761657715,2.5923218475341794,2.238279277038574
1758274852832149800,4.686149658203125,-9.37180312347412,2.223016241455078,2.1315876655578614
1758274852842107600,4.696107666015625,-9.324517640686034,1.884535981750488,1.912069300842285
1758274852852064800,4.706064697265625,-9.226654647827148,1.6606781265258788,1.7193360671997069
1758274852862023000,4.71602294921875,-9.24446152267456,1.7706617652893066,1.7739537925720215
1758274852871979800,4.725979736328125,-9.436745843505859,1.9358616798400878,2.0049942527770996
1758274852881937000,4.73593701171875,-9.585635259246825,1.9000982925415038,2.218527113342285
1758274852891894800,4.745894775390625,-9.419836794281006,1.774253067779541,2.2334908737182615
1758274852901852000,4.755851806640625,-9.195978939056396,1.6801310150146482,2.123357597351074
1758274852911808800,4.765808837890625,-9.213187263488768,1.7353472908020018,2.0307319206237793
1758274852921766700,4.7757666015625,-9.23847601852417,1.7536030784606933,1.9066823471069334
1758274852931723800,4.785723876953125,-9.375992976379393,1.6162357582092284,1.9162591537475584
1758274852941680600,4.7956806640625,-9.785850373077391,1.5343839889526367,2.0081366424560545
1758274852951638800,4.805638671875,-10.040683212280273,1.5952864936828612,2.1314380279541014
1758274852961595600,4.815595703125,-9.852888019561767,1.550095937347412,2.1472996139526366
1758274852971553800,4.8255537109375,-9.731531922912596,1.6460136413574218,2.1799206115722654
1758274852981511000,4.835510986328125,-9.686491004180908,1.7464204734802244,2.1543325813293457
1758274852991467800,4.8454677734375,-9.57022258605957,1.8861819953918455,2.1062989105224608
1758274853001425700,4.85542578125,-9.650577979278564,2.1856068405151365,2.1351789680480957
1758274853011382800,4.8653828125,-9.63980407180786,2.203712990570068,2.140117008972168
1758274853021340000,4.87533984375,-9.178321701812743,1.9250877723693847,2.0624550926208496
1758274853031297800,4.8852978515625,-8.651298061370849,1.5882535263061524,2.0278888061523435
1758274853041254700,4.895254638671875,-8.57348650741577,1.57688106842041,2.160018810272217
1758274853051211800,4.905211669921875,-9.089736240386962,1.8065747901916502,2.306514024353027
1758274853061170000,4.915169921875,-9.724050042724608,1.7220295440673827,2.391657820892334
1758274853071126800,4.925126708984375,-10.052354945373535,1.5676035369873047,2.388814706420898
1758274853081084700,4.935084716796875,-10.054449871826172,1.4841057540893554,2.4129063606262204
1758274853091041800,4.945041748046875,-9.756371765136718,1.3908815269470214,2.4167969383239747
1758274853100999000,4.9549990234375,-9.296834683990477,1.3615525566101074,2.374299858856201
1758274853110956500,4.96495654296875,-8.853608101654052,1.4264952766418457,2.3069629371643066
1758274853120913700,4.97491357421875,-8.794201972961424,1.4754267730712889,2.3120506156921383
1758274853130870800,4.984870849609375,-9.049034812164306,1.4327800559997559,2.264765132904053
1758274853140829000,4.994828857421875,-9.424325922393798,1.4532804077148436,2.233341236114502
1758274853150785800,5.004785888671875,-9.657012396240233,1.4746785850524902,2.286911498260498
1758274853160742700,5.01474267578125,-9.711480484008788,1.5243582695007323,2.291400626373291
1758274853170700800,5.02470068359375,-9.597606267547606,1.5267524711608886,2.2924480895996093
1758274853180658000,5.034657958984375,-9.420584982299804,1.5378256538391113,2.290203525543213
1758274853190615800,5.04461572265625,-9.275586144256591,1.51942022857666,2.2288521080017087
1758274853200572700,5.05457275390625,-9.315689022064209,1.5007155281066893,2.133682592010498
1758274853210529800,5.06452978515625,-9.522338552856445,1.4854524925231933,2.103006883239746
1758274853220488000,5.074488037109375,-9.628581251525878,1.50026661529541,2.083853269958496
1758274853230444500,5.084444580078125,-9.554959550476074,1.5102923347473143,2.0892402236938477
1758274853240401700,5.094401611328125,-9.400533543395996,1.5457564468383789,2.0165163482666015
1758274853250359800,5.10435986328125,-9.293093743896485,1.6090531532287597,1.9674352142333984
1758274853260317000,5.11431689453125,-9.357587551116943,1.6466121917724608,2.0403087272644043
1758274853270273800,5.124273681640625,-9.42402664718628,1.6727987724304199,2.171391268157959
1758274853280231700,5.134231689453125,-9.427468312072753,1.7272668601989745,2.286612223052978
1758274853290188800,5.144188720703125,-9.485527702331542,1.7516577896118164,2.320879234313965
1758274853300147000,5.15414697265625,-9.492261394500732,1.7238251953125,2.3515549430847167
1758274853310103800,5.164103759765625,-9.388861810302734,1.7051204948425291,2.3657705154418944
1758274853320060700,5.174060791015625,-9.281122735595703,1.7399860565185545,2.43250888671875
1758274853330018800,5.184018798828125,-9.400832818603515,1.7847277000427244,2.4658780723571776
1758274853339976000,5.193975830078125,-9.431658164978026,1.8001403732299803,2.471564301300049
1758274853349932500,5.2039326171875,-9.400533543395996,1.7111059989929198,2.4301146850585935
1758274853359890700,5.213890625,-9.445724099731445,1.8124106567382812,2.4066215812683103
1758274853369847800,5.223847900390625,-9.419088606262207,1.7708114028930664,2.416946575927734
1758274853379805000,5.233804931640625,-9.310451705932616,1.7266683097839355,2.4105121589660645
1758274853389762800,5.2437626953125,-9.270648103332519,1.71095636138916,2.4052748428344723
1758274853399719700,5.2537197265625,-9.349058207702637,1.7042226692199707,2.487874800109863
1758274853409677800,5.263677734375,-9.390657461547852,1.6846201431274412,2.512116091918945
1758274853419635000,5.273635009765625,-9.3730002243042,1.6400281372070311,2.4115596221923825
1758274853429591800,5.283591796875,-9.46158568572998,1.6258125648498534,2.292747364807129
1758274853439549700,5.2935498046875,-9.51201355819702,1.5988777961730956,2.2177789253234863
1758274853449506800,5.3035068359375,-9.459041846466064,1.58960026473999,2.1906945190429687
1758274853459464000,5.3134638671875,-9.382277755737304,1.6142904693603515,2.236034712982178
1758274853469421800,5.323421875,-9.35354733581543,1.6307506057739256,2.301127070617676
1758274853479378700,5.333378662109375,-9.324966553497314,1.659181750488281,2.286612223052978
1758274853489335800,5.343335693359375,-9.287108239746093,1.6539444343566894,2.268954985809326
1758274853499293700,5.353293701171875,-9.317634310913085,1.650951682281494,2.244115143585205
1758274853509250800,5.363250732421875,-9.41070890045166,1.6268600280761718,2.2387281898498532
1758274853519207700,5.373207763671875,-9.452308154296874,1.5912462783813475,2.2328923233032225
1758274853529165800,5.383165771484375,-9.478195459747313,1.553986515045166,2.236633263397217
1758274853539123000,5.393123046875,-9.477147996520996,1.5705962890624998,2.262670206451416
1758274853549080800,5.403080810546875,-9.450961415863036,1.5812205589294432,2.2819734573364254
1758274853559037700,5.41303759765625,-9.464578437805175,1.5478513732910155,2.3116017028808593
1758274853568994800,5.422994873046875,-9.426420848846435,1.5451578964233397,2.278382154846191
1758274853578952700,5.43295263671875,-9.392453112792968,1.5951368560791015,2.2679075225830077
1758274853588909800,5.442909912109375,-9.366715444946289,1.6466121917724608,2.263418394470215
1758274853598867200,5.4528671875,-9.246406811523437,1.6615759521484375,2.231844860076904
1758274853608825000,5.4628251953125,-9.268104264068603,1.6959926010131834,2.25384158782959
1758274853618782000,5.472781982421875,-9.380931017303466,1.7245733833312988,2.3210288719177243
1758274853628739000,5.482739013671875,-9.44871685180664,1.7380407676696776,2.390759995269775
1758274853638697200,5.492697265625,-9.484779514312743,1.7206828056335448,2.4268226577758787
1758274853648654300,5.502654296875,-9.490465743255614,1.6704045707702635,2.4058733932495118
1758274853658612000,5.512612060546875,-9.36013139038086,1.684769780731201,2.329857490539551
1758274853668569000,5.522569091796875,-9.215731102752684,1.740285331726074,2.34302559967041
1758274853678526200,5.532526123046875,-9.324667278289795,1.7610849586486816,2.411260346984863
1758274853688484000,5.542484130859375,-9.362824867248534,1.76841720123291,2.4465748214721676
1758274853698441000,5.55244091796875,-9.323919090270996,1.7274164978027342,2.476352704620361
1758274853708398000,5.562398193359375,-9.372850586700439,1.6443676277160644,2.4820389335632322
1758274853718356200,5.572356201171875,-9.445125549316407,1.5670049865722655,2.3612813873291016
1758274853728313000,5.58231298828125,-9.485527702331542,1.509843421936035,2.2641665824890134
1758274853738270000,5.59227001953125,-9.32152488861084,1.490091258239746,2.2074539306640624
1758274853748228000,5.60222802734375,-9.18640213241577,1.5433622451782225,2.2661118713378903
1758274853758185200,5.612185302734375,-9.285911138916015,1.6141408317565917,2.4416367805480954
1758274853768142300,5.622142333984375,-9.408613973999023,1.6147393821716307,2.4684219116210935
1758274853778100000,5.632099853515625,-9.345616542816161,1.6760907997131347,2.3856723167419434
1758274853788057000,5.64205712890625,-9.348908570098876,1.662473777770996,2.3241712615966796
1758274853798015200,5.65201513671875,-9.413851290130614,1.5384242042541503,2.2553379638671873
1758274853807972000,5.66197216796875,-9.472958143615722,1.686715069580078,2.452410688018799
1758274853817929000,5.671928955078125,-9.452308154296874,1.7185878791809082,2.5348610076904294
1758274853827887000,5.68188720703125,-9.338882850646971,1.7203835304260253,2.4851813232421875
1758274853837844200,5.69184423828125,-9.314940834045409,1.548898836517334,2.264016944885254
1758274853847801000,5.701801025390625,-9.381529567718506,1.5484499237060545,2.175730758666992
1758274853857759000,5.711759033203125,-9.444676636505127,1.5798738204956053,2.264465857696533
1758274853867716000,5.721716064453125,-9.475352345275878,1.592293741607666,2.2918495391845704
1758274853877673200,5.731673095703125,-9.481487487030028,1.6600795761108398,2.3499089294433593
1758274853887631000,5.741631103515625,-9.476848721313477,1.6741455108642578,2.324470536804199
1758274853897588000,5.751587890625,-9.340528864288329,1.6549918975830078,2.2788310676574706
1758274853907545000,5.761545166015625,-9.241768045806884,1.63449154586792,2.2762872283935547
1758274853917503200,5.771503173828125,-9.259574920654297,1.6668132682800292,2.3521534934997557
1758274853927460000,5.781460205078125,-9.33364553451538,1.698835715484619,2.412008535003662
1758274853937418200,5.791418212890625,-9.426121573638916,1.6877625328063963,2.4232313552856444
1758274853947375000,5.801375,-9.417741867828369,1.7592893074035643,2.4947581298828125
1758274853957332200,5.811332275390625,-9.446771562957764,1.6117466300964354,2.3912089080810546
1758274853967290000,5.8212900390625,-9.356540087890625,1.5812205589294432,2.3087585884094235
1758274853977247000,5.8312470703125,-9.312546632385253,1.636287197113037,2.3753473220825194
1758274853987204000,5.8412041015625,-9.37195276107788,1.6059107635498047,2.356343346405029
1758274853997162000,5.851161865234375,-9.444227723693848,1.6023194610595701,2.3829788398742675
1758274854007119000,5.861119140625,-9.42926396331787,1.618480322265625,2.4021324531555175
1758274854017076000,5.871075927734375,-9.405621221923827,1.6350900962829589,2.4096143333435056
1758274854027034000,5.8810341796875,-9.40412484588623,1.645115815734863,2.403030278778076
1758274854036991200,5.8909912109375,-9.406519047546386,1.6418237884521483,2.387168692779541
1758274854046948000,5.900947998046875,-9.369558559417724,1.6439187149047851,2.357839722442627
1758274854056906200,5.91090625,-9.297732509613036,1.6657658050537107,2.3603835617065427
1758274854066863000,5.920863037109375,-9.369408921813964,1.6760907997131347,2.3454198013305665
1758274854076821000,5.930821044921875,-9.421632445526123,1.663670878601074,2.3419781364440917
1758274854086778000,5.940778076171875,-9.427468312072753,1.6454150909423828,2.3491607414245603
1758274854096735000,5.95073486328125,-9.411008175659179,1.6201263359069824,2.3523031311035156
1758274854106693000,5.960693115234375,-9.2963857711792,1.6223708999633788,2.354398057556152
1758274854116650000,5.97064990234375,-9.321973801422118,1.6524480583190917,2.4015339027404785
1758274854126607000,5.980607177734375,-9.377489352416992,1.6588824752807616,2.46438169631958
1758274854136565200,5.990565185546875,-9.426570486450196,1.62162271194458,2.4603414810180664
1758274854146522000,6.000522216796875,-9.349806395721435,1.606359676361084,2.429216859436035
1758274854156479200,6.010479248046875,-9.344419441986084,1.6090531532287597,2.4230817176818844
1758274854166437000,6.02043701171875,-9.433753091430663,1.6431705268859862,2.4164976631164548
1758274854176394200,6.030394287109375,-9.396044415283203,1.6702549331665038,2.32387198638916
1758274854186351000,6.04035107421875,-9.30252091293335,1.725620846557617,2.307411849975586
1758274854196309000,6.05030908203125,-9.319130686950682,1.707813971710205,2.3440730628967286
1758274854206266000,6.06026611328125,-9.383774131774901,1.6823755790710448,2.3910592704772946
1758274854216223000,6.070222900390625,-9.382427393341064,1.6702549331665038,2.4078186820983887
1758274854226181000,6.08018115234375,-9.337536112213135,1.6472107421875,2.4256255569458007
1758274854236138000,6.090137939453125,-9.341127414703369,1.6475100173950195,2.430413960266113
1758274854246095000,6.10009521484375,-9.349806395721435,1.6757915245056152,2.4257751945495603
1758274854256053200,6.11005322265625,-9.35878465194702,1.6916531105041503,2.386570142364502
1758274854266010000,6.120010009765625,-9.349357482910156,1.6959926010131834,2.363376313781738
1758274854275968000,6.129968017578125,-9.34082813949585,1.6849194183349607,2.356343346405029
1758274854285925000,6.139925048828125,-9.296834683990477,1.6581342872619629,2.353350594329834
1758274854295882200,6.14988232421875,-9.29518867034912,1.6493056686401366,2.381781739044189
1758274854305840000,6.159840087890625,-9.353397698211669,1.6729484100341796,2.4154501998901368
1758274854315797000,6.169796875,-9.41684404220581,1.632396619415283,2.4283190338134766
1758274854325754000,6.179754150390625,-9.431508527374268,1.6032172866821288,2.4013842651367185
1758274854335712300,6.189712158203125,-9.41744259262085,1.5842133110046386,2.3751976844787595
1758274854345669000,6.199669189453125,-9.416245491790772,1.5634136840820312,2.3705589187622067
1758274854355626000,6.2096259765625,-9.414898753356933,1.575683967590332,2.376993335723877
1758274854365584100,6.219584228515625,-9.43524946746826,1.5898995399475098,2.4084172325134277
1758274854375541200,6.229541259765625,-9.454403080749511,1.5761328804016113,2.394800210571289
1758274854385498000,6.239498046875,-9.43524946746826,1.580023458099365,2.3834277526855465
1758274854395456000,6.2494560546875,-9.368211820983886,1.6211737991333006,2.375646597290039
1758274854405413000,6.2594130859375,-9.363722692871093,1.6473603797912597,2.38118318862915
1758274854415370200,6.269370361328125,-9.4098110748291,1.654842259979248,2.3708581939697266
1758274854425328000,6.279328125,-9.406818322753905,1.6537947967529296,2.3529016815185546
1758274854435285000,6.289284912109375,-9.39125601196289,1.659181750488281,2.3870190551757813
1758274854445242000,6.2992421875,-9.336189373779296,1.674594423675537,2.427271570587158
1758274854455200300,6.3092001953125,-9.244910435485838,1.642721614074707,2.409315058135986
1758274854465157000,6.3191572265625,-9.222464794921875,1.6430208892822264,2.3892636192321777
1758274854475115000,6.329114990234375,-9.299977073669433,1.6240169136047362,2.3765444229125974
1758274854485072100,6.339072021484375,-9.409212524414063,1.6157868453979491,2.352452768707275
1758274854495029200,6.349029296875,-9.40457375869751,1.6401777748107909,2.373551670837402
1758274854504987000,6.35898681640625,-9.432855265808104,1.6774375381469726,2.3837270278930665
1758274854514944000,6.368944091796875,-9.452757067108154,1.6921020233154296,2.407369769287109
1758274854524901000,6.378901123046875,-9.358934289550781,1.67908355178833,2.401683540344238
1758274854534859300,6.388859375,-9.286509689331055,1.677736813354492,2.3892636192321777
1758274854544816000,6.398816162109375,-9.264812236785888,1.6597803009033203,2.3829788398742675
1758274854554773000,6.40877294921875,-9.22590645980835,1.664419066619873,2.3892636192321777
1758274854564731100,6.418731201171875,-9.303418738555907,1.6744447860717773,2.422333529663086
1758274854574688300,6.428688232421875,-9.389011447906494,1.6730980476379393,2.4582465545654295
1758274854584645000,6.43864501953125,-9.404424121093749,1.6536451591491699,2.441936055755615
1758274854594603300,6.448603271484375,-9.427318674468994,1.6394295867919921,2.4512135871887204
1758274854604560100,6.45856005859375,-9.418340418243409,1.6460136413574218,2.4390929412841795
1758274854614517200,6.468517333984375,-9.37763899002075,1.6370353851318358,2.4161983879089353
1758274854624475100,6.47847509765625,-9.362375954437255,1.6255132896423339,2.4161983879089353
1758274854634432300,6.488432373046875,-9.322721989440918,1.6404770500183103,2.4082675949096677
1758274854644389000,6.49838916015625,-9.306112215423584,1.6482582054138182,2.39405202255249
1758274854654347300,6.50834716796875,-9.338284300231933,1.6350900962829589,2.392705284118652
1758274854664304400,6.518304443359375,-9.369558559417724,1.6295535049438477,2.389562894439697
1758274854674261200,6.52826123046875,-9.401431369018555,1.6136919189453125,2.385223403930664
1758274854684219100,6.53821923828125,-9.428815050506591,1.6147393821716307,2.4054244804382323
1758274854694176300,6.54817626953125,-9.450662140655517,1.6527473335266112,2.411858897399902
1758274854704133400,6.55813330078125,-9.447519750976562,1.6439187149047851,2.4001871643066406
1758274854714091300,6.56809130859375,-9.452308154296874,1.6250643768310546,2.3663690658569334
1758274854724048100,6.578048095703125,-9.372700949096679,1.6234183631896972,2.367416529083252
1758274854734006300,6.58800634765625,-9.268403539276122,1.624914739227295,2.387168692779541
1758274854743963100,6.597963134765625,-9.290549904632568,1.6434698020935057,2.4378958404541016
1758274854753920300,6.607920166015625,-9.35354733581543,1.6762404373168944,2.4197896903991696
1758274854763878400,6.61787841796875,-9.379733916473388,1.693748036956787,2.3897125320434567
1758274854773835300,6.627835205078125,-9.38512087020874,1.660528488922119,2.417096213531494
1758274854783792400,6.63779248046875,-9.427169036865234,1.6437690773010254,2.3995886138916016
1758274854793750300,6.647750244140625,-9.444078086090087,1.612045905303955,2.399887889099121
1758274854803707100,6.65770703125,-9.355193349456787,1.6506524070739745,2.3988404258728027
1758274854813664300,6.667664306640625,-9.316287572479247,1.6769886253356932,2.427271570587158
1758274854823622100,6.6776220703125,-9.34651436843872,1.6730980476379393,2.4389433036804196
1758274854833579300,6.687579345703125,-9.30252091293335,1.6558897232055663,2.4148516494750973
1758274854843536100,6.6975361328125,-9.293393019104004,1.6653168922424315,2.3904607200622556
1758274854853494300,6.707494384765625,-9.355043711853027,1.6671125434875487,2.377591886138916
1758274854863451100,6.717451171875,-9.383624494171142,1.6603788513183593,2.365471240234375
1758274854873408300,6.727408203125,-9.392752388000488,1.6508020446777343,2.393603109741211
1758274854883366400,6.737366455078125,-9.394697676849365,1.6645687042236328,2.403778466796875
1758274854893323300,6.7473232421875,-9.358186101531983,1.6775871757507324,2.3814824638366696
1758274854903280400,6.7572802734375,-9.285911138916015,1.6928502113342283,2.4013842651367185
1758274854913238300,6.76723828125,-9.263016585540772,1.699583903503418,2.3868694175720213
1758274854923195100,6.777195068359375,-9.253589416503905,1.6877625328063963,2.376394785308838
1758274854933152300,6.78715234375,-9.2948893951416,1.6787842765808105,2.361580662536621
1758274854943110100,6.797110107421875,-9.310302068328857,1.6898574592590332,2.3509563926696777
1758274854953067300,6.8070673828125,-9.311948081970215,1.6935983993530273,2.3401824851989743
1758274854963024100,6.817024169921875,-9.364021968078612,1.71095636138916,2.3656208778381345
1758274854972982300,6.826982177734375,-9.46128641052246,1.6738462356567383,2.4561516281127926
1758274854982939100,6.836939208984375,-9.56318961868286,1.5976806953430174,2.4684219116210935
1758274854992897300,6.846897216796875,-9.583989245605467,1.5397709426879882,2.3306056785583493
1758274855002854400,6.8568544921875,-9.453355617523194,1.52585464553833,2.2608745552062985
1758274855012811300,6.866811279296875,-9.389161085510253,1.560271294403076,2.324470536804199
1758274855022769200,6.87676904296875,-9.411457088470458,1.606359676361084,2.4199393280029295
1758274855032726300,6.886726318359375,-9.402029919433593,1.6084546028137205,2.4595932929992674
1758274855042683100,6.89668310546875,-9.368361458587646,1.5918448287963867,2.4811411079406738
1758274855052641300,6.906641357421875,-9.405770859527587,1.5907973655700682,2.4705168380737303
1758274855062598100,6.91659814453125,-9.452308154296874,1.617133583831787,2.442684243774414
1758274855072555300,6.92655517578125,-9.418789331054686,1.6563386360168455,2.4343045379638673
1758274855082513400,6.936513427734375,-9.395894777679443,1.6795324645996093,2.47096575088501
1758274855092470300,6.94647021484375,-9.407267235565184,1.6525976959228514,2.526182026672363
1758274855102427100,6.95642724609375,-9.387814347076416,1.6247651016235352,2.554313896179199
1758274855112385300,6.96638525390625,-9.371354210662842,1.6258125648498534,2.5119664543151856
1758274855122342400,6.97634228515625,-9.4098110748291,1.6346411834716796,2.4133552734375
1758274855132299300,6.98629931640625,-9.484629876708984,1.5893009895324706,2.384475215911865
1758274855142257200,6.996257080078125,-9.58249286956787,1.5605705696105956,2.447173371887207
1758274855152214300,7.00621435546875,-9.6151138671875,1.703923394012451,2.542791800689697
1758274855162171100,7.016171142578125,-9.534908111572266,1.5677531745910644,2.6458921096801755
1758274855172129300,7.02612939453125,-9.318083223724365,1.4414590370178222,2.7659014678955076
1758274855182086100,7.036086181640625,-9.222764070129394,1.8192939865112303,2.6033950302124023
1758274855192043300,7.046043212890625,-9.08449892425537,1.9366098678588866,2.216731462097168
1758274855202001400,7.05600146484375,-8.974664923095702,1.95995333404541,2.1402666465759275
1758274855211958300,7.065958251953125,-8.967931230926514,2.005742440795898,2.1371242568969726
1758274855221915100,7.0759150390625,-9.048436261749266,2.168697791290283,2.2040122657775876
1758274855231873300,7.085873291015625,-9.198223503112793,2.085349645996094,2.3452701637268065
1758274855241830400,7.095830322265625,-9.497797985839844,1.8459294799804686,2.3868694175720213
1758274855251787300,7.105787353515625,-9.584887071228026,1.9885341163635253,2.1164742675781247
1758274855261745200,7.1157451171875,-9.616460605621338,1.887229458618164,2.112583689880371
1758274855271702300,7.125702392578125,-9.572766425323486,1.8411410766601561,2.2369325386047363
1758274855281659100,7.1356591796875,-9.48058966140747,1.8487725944519042,2.356343346405029
1758274855291617300,7.1456171875,-9.393350938415526,1.87061968460083,2.4645313339233397
1758274855301574100,7.15557421875,-9.377339714813232,1.702726293182373,2.3904607200622556
1758274855311532300,7.1655322265625,-9.392453112792968,1.69823716506958,2.389413256835937
1758274855321489400,7.175489501953125,-9.465326625823973,1.6910545600891111,2.447023734283447
1758274855331446300,7.1854462890625,-9.598803368377684,1.696890426635742,2.5309704299926756
1758274855341404200,7.195404052734375,-9.734524674987792,1.6707038459777832,2.58558815536499
1758274855351361300,7.205361328125,-9.718363813781737,1.6282067665100097,2.6044424934387207
1758274855361318400,7.215318359375,-9.598653730773925,1.5987281585693358,2.5534160705566404
1758274855371276000,7.225276123046875,-9.469067565917967,1.517026026916504,2.401833177947998
1758274855381233200,7.235233154296875,-9.381529567718506,1.3673884231567381,2.2239140670776365
1758274855391190300,7.245190185546875,-9.444676636505127,1.241094285583496,2.0329764846801757
1758274855401148400,7.2551484375,-9.580248305511475,1.2431892120361328,1.8992004669189453
1758274855411105300,7.265105224609375,-9.607033436584473,1.352275025177002,1.702726293182373
1758274855421062100,7.275062255859375,-9.591920038604735,1.7010802795410156,1.5765817932128905
1758274855431020300,7.285020263671875,-9.492710307312011,2.0675427711486813,1.6109984420776366
1758274855440977400,7.294977294921875,-9.183708655548095,2.48338567199707,1.5423147819519043
1758274855450934300,7.304934326171875,-8.841188180541991,2.769492770385742,1.4172177452087402
1758274855460892200,7.31489208984375,-8.502707920837402,2.8330887519836425,1.4405612113952635
1758274855470849300,7.324849365234375,-8.308029398345946,3.1976059547424316,1.5891513519287108
1758274855480806400,7.334806396484375,-8.211812419128417,3.2237925354003902,1.5230115310668944
1758274855490764000,7.344763916015625,-8.319850769042969,2.720261998748779,1.5887024391174316
1758274855500721200,7.35472119140625,-8.65040023574829,2.5164555824279784,1.850268970489502
1758274855510678300,7.36467822265625,-8.972869271850586,2.353051319122314,2.1652561264038086
1758274855520636400,7.374636474609375,-9.83807389678955,2.373551670837402,2.493112116241455
1758274855530593300,7.38459326171875,-11.335347760009764,2.398391513061523,2.833836940002441
1758274855540550100,7.394550048828125,-14.074015184020995,2.6282348724365234,3.446453289794922
1758274855550508300,7.40450830078125,-16.18450394744873,2.958634701538086,4.596268637084961
1758274855560465400,7.41446533203125,-13.967772485351562,3.709965110015869,5.658246710968017
1758274855570422300,7.42442236328125,-7.461978386688232,3.7582980560302732,4.106804035186768
1758274855580380200,7.434380126953125,-4.191947831726074,2.7046996879577634,-0.7851485069274902
1758274855590337300,7.444337158203125,-8.574833245849609,2.677615281677246,-2.6783634696960448
1758274855600294400,7.45429443359375,-16.811485507202146,3.3640029701232907,1.8965069900512694
1758274855610252300,7.464252197265625,-13.984980809783934,3.791816879272461,5.755211878204346
1758274855620209200,7.474209228515625,-5.271732780456543,3.7401919059753417,4.817582653045654
1758274855630166300,7.484166259765625,-8.990077596282958,3.971681278991699,3.7548563911437984
1758274855640124400,7.49412451171875,-11.60020631866455,3.226635649871826,1.4725836585998535
1758274855650081300,7.504081298828125,-10.251971508789062,2.9248166030883787,0.3272574394226074
1758274855660038100,7.5140380859375,-10.895712480163574,3.371784125518799,2.8281507110595703
1758274855669996300,7.523996337890625,-11.781267819213866,2.5704747573852536,4.147056550598144
1758274855679953400,7.533953369140625,-11.1213659866333,1.5898995399475098,3.106476654052734
1758274855689910300,7.54391015625,-11.378443389892578,1.2906243324279785,2.158522434234619
1758274855699868200,7.5538681640625,-11.365125643157958,0.979976667022705,1.826626229095459
1758274855709825300,7.5638251953125,-10.50201594467163,1.0269628746032715,1.9984101982116698
1758274855719782400,7.573782470703125,-10.856357790374755,0.6654384239196777,2.203114440155029
1758274855729740300,7.583740234375,-10.82747773284912,0.438587816619873,2.396296586608887
1758274855739697200,7.593697265625,-11.544840405273437,0.30151977157592774,2.867655038452148
1758274855749654300,7.603654296875,-11.422736120605467,0.07272387542724609,3.1070752044677734
1758274855759612400,7.6136123046875,-10.977713887023926,-0.09277531433105468,3.3424551551818844
1758274855769569300,7.6235693359375,-10.898705232238768,-0.1518821678161621,3.3815105697631833
1758274855779526100,7.633526123046875,-10.64312420501709,-0.06314706878662109,3.3488895721435545
1758274855789484300,7.643484375,-10.384251150512695,-0.03561374969482422,3.489698557281494
1758274855799441400,7.65344140625,-10.120440055084227,-0.07796119155883789,3.634098844909668
1758274855809398300,7.663398193359375,-9.787496386718749,-0.1545756446838379,3.8590041633605954
1758274855819356200,7.673356201171875,-9.556306288909912,-0.4752490295410156,3.7312136497497557
1758274855829313300,7.683313232421875,-10.222642538452147,-0.9317933586120605,3.3934815780639647
1758274855839270400,7.6932705078125,-10.332027626800537,-1.3097779457092285,3.2255881866455076
1758274855849228300,7.703228271484375,-10.1253780960083,-1.5780781692504882,3.305793942260742
1758274855859185200,7.71318505859375,-10.041132125091552,-1.5420155067443846,3.75395856552124
1758274855869142300,7.723142333984375,-9.62723451309204,-1.2949638229370117,4.237587300872803
1758274855879100400,7.733100341796875,-9.431358889770507,-1.0447697494506836,4.349665866088867
1758274855889057300,7.743057373046875,-9.2320416015625,-0.7633014167785644,4.367772016143799
1758274855899014100,7.75301416015625,-9.083301823425293,-0.5180453842163085,4.3448774627685545
1758274855908972300,7.76297216796875,-8.942193563079833,-0.5149029945373534,4.163516687011718
1758274855918929400,7.772929443359375,-8.916006982421875,-0.6233902572631835,4.152293866729736
1758274855928886300,7.78288623046875,-8.804078054809569,-0.7128735443115234,4.16231958618164
1758274855938844200,7.79284423828125,-8.857349041748046,-0.9178770614624023,4.119972144317627
1758274855948801300,7.80280126953125,-8.771008144378662,-1.2378022583007813,4.148552926635742
1758274855958758400,7.81275830078125,-8.255805874633788,-1.44280577545166,4.228010494232177
1758274855968716300,7.82271630859375,-8.204779451751708,-1.7770961822509765,4.2149920227050774
1758274855978673200,7.832673095703125,-8.696189342498778,-2.0106804817199704,4.10530765914917
1758274855988630300,7.84263037109375,-8.5938372215271,-2.1621137367248533,4.020463137817383
1758274855998588400,7.85258837890625,-8.19759684677124,-2.3406313980102538,4.155136981201172
1758274856008545300,7.862545166015625,-7.780706482696533,-2.3452701637268065,4.285172058868408
1758274856018502100,7.872502197265625,-7.29692810974121,-2.3958476737976073,4.338891958618164
1758274856028460300,7.882460205078125,-7.275230657196045,-2.5380033973693847,4.369418029785156
1758274856038417400,7.89241748046875,-7.158214051055908,-2.702604761505127,4.459649504852295
1758274856048375300,7.902375244140625,-7.306205641174316,-2.8781296707153317,4.686949024963378
1758274856058332200,7.912332275390625,-6.97834965133667,-3.0814871742248533,4.951657946014404
1758274856068289300,7.922289306640625,-6.826018570709228,-3.2405519470214843,5.182848043823242
1758274856078247400,7.932247314453125,-7.077409745025634,-3.5007717399597165,5.249586415100097
1758274856088204300,7.942204345703125,-7.054215916442871,-3.771316527557373,5.210979913330078
1758274856098161200,7.9521611328125,-6.848464211273193,-3.8590041633605954,5.234473017120361
1758274856108119300,7.962119384765625,-6.293009426116943,-3.9469910743713377,5.199008905029297
1758274856118076400,7.972076416015625,-6.066607731628418,-3.9604584587097165,5.03111551361084
1758274856128033300,7.982033203125,-6.094290688323975,-4.055627974700927,4.843469958496094
1758274856137991200,7.9919912109375,-6.014384207916259,-4.170848929595947,4.803367080688476
1758274856147948300,8.0019482421875,-5.741894131469726,-4.294898503112793,4.934000708770752
1758274856157905400,8.011905517578125,-5.309740731811523,-4.53940634765625,5.101744462585449
1758274856167863300,8.02186328125,-5.095908596038818,-4.815637364196777,5.298068998718262
1758274856177820200,8.031820068359375,-5.116857860565185,-5.043236159515381,5.423465310668945
1758274856187777300,8.04177734375,-5.204395858764648,-5.236717581176758,5.44591095123291
1758274856197735400,8.0517353515625,-4.977096338653564,-5.3883004737854,5.475389559173584
1758274856207692300,8.0616923828125,-4.734384145355224,-5.517288088226318,5.481225425720215
1758274856217649200,8.071649169921875,-4.698171845245361,-5.631760855102539,5.5069630935668945
1758274856227607300,8.081607177734375,-4.452915812683105,-5.638494547271728,5.569661249542236
1758274856237564400,8.091564453125,-4.064456593322753,-5.758503905487061,5.550357998657226
1758274856247521300,8.101521240234375,-3.943100496673584,-5.891831010437011,5.40790299987793
1758274856257479200,8.111479248046875,-3.9118262374877926,-5.9774237197875975,5.22878678817749
1758274856267436300,8.121436279296875,-3.8603509017944333,-6.085162794494629,5.134066184997558
1758274856277393400,8.131393310546875,-3.6336499320983884,-5.8551697975158685,5.116109672546386
1758274856287351300,8.141351318359375,-3.2620997619628906,-6.14157617111206,5.214271940612793
1758274856297308200,8.15130810546875,-3.1304186706542967,-6.4166100868225096,5.309740731811523
1758274856307265300,8.161265380859374,-3.2513258544921873,-6.40389089050293,5.285948352813721
1758274856317223400,8.171223388671875,-3.130867583465576,-6.343736573791504,5.173570512390136
1758274856327180300,8.18118017578125,-3.1860838592529297,-6.247968507385253,4.985326406860351
1758274856337137200,8.19113720703125,-3.254617881774902,-6.112396838378906,5.12688358001709
1758274856347095300,8.20109521484375,-2.644395733642578,-6.087556996154785,5.269039303588867
1758274856357052400,8.211052490234374,-2.212691246795654,-6.1161377784729,5.087229615020751
1758274856367009300,8.22100927734375,-1.9912275932312011,-6.195595346069336,4.902726449584961
1758274856376967200,8.23096728515625,-2.001552587890625,-6.345532225036621,4.768351881408691
1758274856386924300,8.24092431640625,-2.0638018310546875,-6.501155332946777,4.695478368377685
1758274856396881400,8.25088134765625,-2.035370686340332,-6.683264296722411,4.769997895050048
1758274856406839300,8.26083935546875,-2.4185925895690916,-6.911312004852294,4.92202970046997
1758274856416796200,8.270796142578124,-2.208501393890381,-7.0938698814392085,5.2837037887573235
1758274856426753300,8.280753173828124,-1.822137100982666,-7.178864040374755,5.581033707427978
1758274856436711400,8.29071142578125,-1.7000328163146972,-7.200411855316162,5.6012347839355465
1758274856446668300,8.300668212890624,-1.6632219657897949,-7.103745963287353,5.49693737411499
1758274856456625200,8.310625244140626,-1.8146552207946776,-6.980893490600586,5.336825138092041
1758274856466582300,8.320582275390626,-1.5632640464782714,-6.852953339385986,5.282357050323486
1758274856476540400,8.33054052734375,-0.7197568740844726,-6.754042883300781,5.259761772155762
1758274856486497300,8.340497314453126,-0.2867056488037109,-6.758232736206054,5.245995112609863
1758274856496454100,8.3504541015625,-0.6893804405212401,-6.917147871398925,5.346551582336425
1758274856506412300,8.360412353515626,-1.2521674682617188,-7.1209542877197265,5.4978351997375485
1758274856516369400,8.370369384765626,-1.2657844902038573,-7.287800215911865,5.52252540435791
1758274856526326300,8.380326171875,-0.8524854286193847,-7.539191390228271,5.522226129150391
1758274856536284200,8.3902841796875,-0.7703343841552734,-7.710676084136963,5.465663114929199
1758274856546241300,8.4002412109375,-0.849791951751709,-7.902661129760742,5.3116860206604
1758274856556198400,8.410198486328126,-1.211166764831543,-8.152107015228271,5.063137960815429
1758274856566156300,8.42015625,-1.4706383697509764,-8.397363047790527,4.828506198120117
1758274856576113200,8.430113037109376,-1.7809867599487303,-8.56076731109619,4.653130926513672
1758274856586070300,8.4400703125,-1.996913822174072,-8.67015239944458,4.639513904571533
1758274856596028200,8.450028076171876,-1.474229672241211,-8.610895908355712,4.831199674987793
1758274856605985300,8.4599853515625,-1.0363900436401368,-8.458265552520752,4.967369894409179
1758274856615942000,8.46994189453125,-0.9163806854248047,-8.336011630249024,4.971110834503174
1758274856625900000,8.479900146484376,-0.6956652198791503,-8.262539566802978,4.998494515991211
1758274856635857200,8.489857177734375,-0.4376899909973144,-8.195053007507324,5.008969148254394
1758274856645814300,8.499814208984375,-0.13721768264770506,-8.068010681915283,5.149628495788574
1758274856655772200,8.509772216796875,0.09561842880249023,-7.900266928100585,5.339817890167236
1758274856665729000,8.51972900390625,-0.018555062866210937,-7.853729633331298,5.489754769134521
1758274856675686100,8.52968603515625,-0.256628490447998,-7.882609690856933,5.679644888305663
1758274856685644000,8.53964404296875,-0.3055599868774414,-7.874828535461425,5.781548096466064
1758274856695601200,8.54960107421875,-0.31229367904663086,-7.8627078895568845,5.766883611297607
1758274856705558000,8.55955810546875,-0.19737199935913086,-7.914632138061523,5.67530539779663
1758274856715516200,8.56951611328125,-0.0704793113708496,-8.051700183105469,5.466860215759277
1758274856725473300,8.579473388671875,-0.14589666366577148,-8.231863858032225,5.184942970275879
1758274856735430000,8.589429931640625,-0.3742436470031738,-8.466944533538818,5.043086521911621
1758274856745388000,8.599387939453125,-0.43200376205444335,-8.54221224822998,5.080047010040283
1758274856755345200,8.60934521484375,-0.7074865905761718,-8.505102122497558,5.138854588317871
1758274856765302300,8.61930224609375,-0.6826467483520507,-8.367285889434815,5.448005877685547
1758274856775260200,8.62926025390625,-0.43843817901611326,-8.282441368103028,5.5169888130187985
1758274856785217000,8.639217041015625,-0.38636429290771485,-8.365041325378417,5.373187075805664
1758274856795174100,8.649174072265625,-0.5074211143493652,-8.501211544799805,5.252429529571533
1758274856805132000,8.659132080078125,-0.5811924530029297,-8.54834738998413,5.173121599578857
1758274856815089200,8.669089111328125,-0.5207388610839844,-8.456320263671875,5.141847340393066
1758274856825046000,8.6790458984375,-0.3091512893676758,-8.331073589324951,5.1505263214111325
1758274856835004200,8.689004150390625,-0.03725976333618164,-8.281543542480469,5.202001657104492
1758274856844961300,8.698961181640625,0.009427169036865234,-8.283039918518066,5.248090039062499
1758274856854918000,8.70891796875,-0.34117373657226563,-8.284536294555664,5.219060343933105
1758274856864876000,8.7188759765625,-0.5406406623840332,-8.247276531219482,5.250184965515136
1758274856874833200,8.728833251953125,-0.5931634613037109,-8.20971749267578,5.370942511749267
1758274856884790300,8.738790283203125,-0.5231330627441406,-8.195501920318604,5.503970341491699
1758274856894748200,8.748748046875,-0.41689036407470703,-8.205078726959227,5.588066674804687
1758274856904705000,8.758705078125,-0.4031237045288086,-8.167818963623047,5.523572867584228
1758274856914662100,8.768662109375,-0.5226841499328613,-8.088211758422851,5.542127930450439
1758274856924620000,8.7786201171875,-0.5289689292907714,-8.039130624389648,5.570409437561035
1758274856934577200,8.7885771484375,-0.5505167442321777,-8.021174111938477,5.5826797210693355
1758274856944534000,8.798533935546875,-0.5741594856262207,-8.011597305297851,5.674257934570313
1758274856954492200,8.8084921875,-0.5774515129089355,-7.964012547302246,5.7700260009765625
1758274856964449300,8.81844921875,-0.591218172454834,-7.940519443511962,5.795165118408203
1758274856974406000,8.828406005859375,-0.4966472068786621,-7.94246473236084,5.771821652221679
1758274856984364000,8.838364013671875,-0.5208884986877441,-7.99304224243164,5.687126768493652
1758274856994321200,8.848321044921875,-0.5252279891967773,-8.07609111251831,5.595548554992676
1758274857004278300,8.8582783203125,-0.39743747558593745,-8.137891442871092,5.555744952392578
1758274857014236200,8.868236083984375,-0.3176806327819824,-8.171110990905762,5.52895982131958
1758274857024193000,8.878193115234374,-0.25423428878784177,-8.141632382965087,5.50367106628418
1758274857034150100,8.888150146484374,-0.26336218261718747,-8.109161022949218,5.482272888946533
1758274857044108000,8.89810791015625,-0.3672106796264648,-8.086116831970214,5.410895751953125
1758274857054065200,8.908065185546874,-0.5773018753051757,-8.078934226989746,5.437381607818603
1758274857064022000,8.91802197265625,-0.3929483474731445,-8.17844323348999,5.165490081787109
1758274857073979100,8.927979248046874,-0.4987421333312988,-8.272266011047362,5.343858105468749
1758274857083937300,8.937937255859374,-0.5169979209899902,-8.330325401306151,5.430348640441895
1758274857093894000,8.947893798828124,-0.4031237045288086,-8.276156588745117,5.427355888366699
1758274857103851000,8.95785107421875,-0.3757400230407715,-8.186972576904296,5.442020373535156
1758274857113809200,8.96780908203125,-0.35464112091064454,-8.143876947021484,5.4427685615539545
1758274857123766300,8.977766357421874,-0.2641103706359863,-8.139387818908691,5.4439656623840325
1758274857133723100,8.98772314453125,-0.27892449340820313,-8.147019336700438,5.4692544174194335
1758274857143681000,8.997680908203124,-0.30346506042480464,-8.129212461853028,5.505915630340576
1758274857153638100,9.00763818359375,-0.3128922294616699,-8.084321180725096,5.543325031280517
1758274857163595300,9.01759521484375,-0.26560674667358397,-8.032097657012939,5.57998624420166
1758274857173553200,9.02755322265625,-0.23732523956298826,-8.029254542541503,5.5924061653137205
1758274857183510000,9.037510009765626,-0.24750059661865234,-8.063820829010009,5.607070650482178
1758274857193467100,9.047467041015626,-0.25737667846679685,-8.093748349761963,5.609464852142334
1758274857203425300,9.05742529296875,-0.29448680419921874,-8.122478769683838,5.5644239334106445
1758274857213382000,9.0673818359375,-0.33324294357299805,-8.143876947021484,5.510853671264648
1758274857223339000,9.077339111328126,-0.30705636291503907,-8.167370050811767,5.466261665344238
1758274857233297200,9.087297119140626,-0.39324762268066404,-8.141183470153807,5.422866760253906
1758274857243254300,9.097254150390626,-0.37334582138061523,-8.160636358642577,5.429301177215576
1758274857253211100,9.107211181640626,-0.3058592620849609,-8.19744720916748,5.4786815864562985
1758274857263169000,9.1171689453125,-0.3667617668151855,-8.19789612197876,5.495889910888671
1758274857273126100,9.127126220703126,-0.34491467666625975,-8.200589598846435,5.467907678985595
1758274857283083300,9.137083251953126,-0.3812766143798828,-8.184428737640381,5.42675733795166
1758274857293041200,9.147041259765626,-0.45504795303344725,-8.182184173583984,5.374833089447021
1758274857302998000,9.156998046875,-0.4079121078491211,-8.213608070373535,5.348347233581543
1758274857312955100,9.166955078125,-0.34401685104370117,-8.238447912597655,5.375132364654541
1758274857322913300,9.176913330078126,-0.3559878593444824,-8.255356961822509,5.384709171295166
1758274857332870000,9.186869873046875,-0.3576338729858398,-8.231265307617187,5.393986702728271
1758274857342827000,9.196826904296875,-0.33833062210083004,-8.207024015808106,5.379920767974853
1758274857352785200,9.20678515625,-0.36391865234375,-8.157643606567383,5.389497574615478
1758274857362742300,9.2167421875,-0.3555389465332031,-8.166322587585448,5.389048661804199
1758274857372699100,9.22669921875,-0.3751414726257324,-8.233659509277343,5.415684155273437
1758274857382656000,9.236656005859375,-0.40566754379272457,-8.302642444610596,5.391442863464355
1758274857392614100,9.2466142578125,-0.3582324234008789,-8.275408400726318,5.342361729431152
1758274857402571300,9.2565712890625,-0.3221697608947754,-8.230666757202147,5.321861377716064
1758274857412528000,9.266528076171875,-0.40761283264160153,-8.194604094696045,5.349245059204101
1758274857422486000,9.276486083984375,-0.5071218391418457,-8.204929089355469,5.373336713409423
1758274857432443100,9.286443115234375,-0.4917091659545898,-8.203283075714111,5.412841040802002
1758274857442400300,9.296400146484375,-0.5433341392517089,-8.228871105957031,5.4236149482727045
1758274857452358000,9.30635791015625,-0.5207388610839844,-8.244732691955566,5.429001902008056
1758274857462315000,9.31631494140625,-0.3913023338317871,-8.228871105957031,5.442319648742675
1758274857472272100,9.326272216796875,-0.3416226493835449,-8.212710244750976,5.429450814819336
1758274857482230300,9.336230224609375,-0.32875381546020505,-8.174851930999756,5.45234536819458
1758274857492187100,9.346187255859375,-0.354940396118164,-8.126219709777832,5.47808303604126
1758274857502144000,9.35614404296875,-0.38756139373779297,-8.073846548461914,5.493346071624756
1758274857512102100,9.36610205078125,-0.4381389038085937,-8.060528801727294,5.487959117889404
1758274857522059300,9.376059326171875,-0.4412812934875488,-8.081178791046142,5.500229401397704
1758274857532016000,9.38601611328125,-0.42706572113037106,-8.0820766166687,5.555744952392578
1758274857541974000,9.39597412109375,-0.4358943397521972,-8.084620455932617,5.581183345031738
1758274857551931100,9.40593115234375,-0.4927566291809082,-8.081029153442381,5.571307263183593
1758274857561888300,9.41588818359375,-0.4987421333312988,-8.10197841796875,5.532251848602295
1758274857571846000,9.425845947265625,-0.4939537300109863,-8.102576968383788,5.5467666961669915
1758274857581803000,9.435802978515625,-0.48662148742675776,-8.098985665893554,5.529408734130859
1758274857591760100,9.445760009765625,-0.4779425064086914,-8.106617183685302,5.492897158813476
1758274857601718500,9.455718505859375,-0.5297171173095703,-8.126070072174072,5.482871439361572
1758274857611675100,9.465675048828125,-0.5168482833862305,-8.107066096496581,5.518036276245117
1758274857621632300,9.47563232421875,-0.47285482788085936,-8.110058848571777,5.538536627960204
1758274857631589400,9.48558935546875,-0.43993455505371093,-8.122179494476319,5.500079763793945
1758274857641547500,9.495547607421875,-0.4644751220703125,-8.12711753540039,5.454889207458495
1758274857651504400,9.50550439453125,-0.5143044441223145,-8.118288916778564,5.451746817779541
1758274857661461200,9.515461181640624,-0.5123591552734374,-8.112004137420653,5.446808776855469
1758274857671419400,9.52541943359375,-0.48183308410644526,-8.139088543701172,5.465663114929199
1758274857681376500,9.53537646484375,-0.4791396072387695,-8.161085271453857,5.491101507568359
1758274857691333400,9.54533349609375,-0.438587816619873,-8.156745780944824,5.480028324890136
1758274857701291300,9.555291259765625,-0.38531682968139647,-8.115296164703368,5.494393534851074
1758274857711248400,9.565248291015624,-0.48183308410644526,-8.112153775024414,5.452794281005859
1758274857721205500,9.57520556640625,-0.5590460876464843,-8.156296868133545,5.440523997497558
1758274857731163100,9.5851630859375,-0.5297171173095703,-8.122628407287598,5.493645346832275
1758274857741120300,9.595120361328124,-0.41584290084838865,-8.104073344421387,5.531204385375976
1758274857751077400,9.605077392578124,-0.3612251754760742,-8.124424058532714,5.565770671844482
1758274857761035500,9.615035400390624,-0.39489363632202146,-8.193406993865967,5.5545478515625
1758274857770992400,9.624992431640624,-0.49380409240722656,-8.228272555541992,5.497535924530029
1758274857780949200,9.63494921875,-0.538845011138916,-8.19684865875244,5.436633419799804
1758274857790907400,9.644907470703124,-0.5178957466125488,-8.136245429229735,5.390245762634277
1758274857800864500,9.654864501953124,-0.5436334144592285,-8.121880219268798,5.420023645782471
1758274857810821400,9.6648212890625,-0.5336076950073242,-8.143128759002686,5.435436318969726
1758274857820779300,9.674779296875,-0.6106710609436035,-8.131008113098144,5.436932695007324
1758274857830736400,9.684736328125,-0.6839934867858887,-8.11439833908081,5.48451745300293
1758274857840693500,9.694693603515624,-0.6491279251098633,-8.081328428649902,5.555445677185058
1758274857850650400,9.704650390625,-0.522833787536621,-8.02506468963623,5.652560482025146
1758274857860608300,9.714608154296876,-0.43634325256347656,-8.024017226409912,5.66303511428833
1758274857870565400,9.7245654296875,-0.42063130416870115,-8.05708713684082,5.609913764953613
1758274857880522200,9.734522216796876,-0.4129997863769531,-8.08895994644165,5.529408734130859
1758274857890480400,9.74448046875,-0.42766427154541015,-8.087613208007811,5.494243897247314
1758274857900437200,9.754437255859376,-0.448164623260498,-8.08342335510254,5.4902036819458
1758274857910394400,9.764394287109376,-0.44801498565673825,-8.048707431030273,5.5181859138488765
1758274857920352500,9.7743525390625,-0.4765957679748535,-8.035389684295653,5.543175393676758
1758274857930309400,9.784309326171876,-0.48632221221923827,-8.071751622009277,5.557241328430176
1758274857940266500,9.7942666015625,-0.5150526321411133,-8.095992913818359,5.528061995697021
1758274857950224400,9.804224365234376,-0.5430348640441894,-8.13953745651245,5.522226129150391
1758274857960181500,9.814181396484376,-0.5461772537231445,-8.167968601226805,5.537040251922607
1758274857970138400,9.824138427734376,-0.5623381149291992,-8.148814987945556,5.568763423919678
1758274857980096300,9.83409619140625,-0.4900631523132324,-8.061875540161132,5.589114138031006
1758274857990053400,9.844053466796876,-0.46193128280639645,-8.019977011108399,5.588964500427246
1758274858000010200,9.85401025390625,-0.45759179229736324,-8.029553817749022,5.603329710388183
1758274858009968400,9.863968505859376,-0.4649240348815918,-8.045565041351319,5.613804342651367
1758274858019925200,9.87392529296875,-0.4908113403320312,-8.08252552947998,5.649118817138672
1758274858029882400,9.88388232421875,-0.6091746849060058,-8.084321180725096,5.635352157592773
1758274858039839200,9.893839111328125,-0.6789058082580566,-8.112602687835693,5.600935508728027
1758274858049797400,9.90379736328125,-0.6319196006774902,-8.10901138534546,5.540930829620361
1758274858059754500,9.91375439453125,-0.4912602531433105,-8.122029856872558,5.453392831420898
1758274858069711400,9.92371142578125,-0.6597521949768066,-8.118438554382324,5.412691403198242
1758274858079669500,9.93366943359375,-0.5888239707946777,-8.15285520324707,5.325153404998779
1758274858089626400,9.94362646484375,-0.10519523544311522,-7.98660782546997,5.577592042541504
1758274858099583500,9.95358349609375,-0.19393033447265623,-7.940369805908203,5.607968476104736
1758274858109541400,9.963541259765625,-0.5472247169494628,-8.125471521759033,5.553799663543701
1758274858119498200,9.973498291015625,-0.535702621459961,-8.167370050811767,5.476137747192382
1758274858129455400,9.983455322265625,-0.48078562088012694,-8.173654830169678,5.412392127990723
1758274858139413200,9.993413330078125,-0.4387374542236328,-8.16587367477417,5.380668955993652
1758274858149370400,10.003370361328125,-0.4466682472229004,-8.175001568603514,5.396530541992187
1758274858159327200,10.0133271484375,-0.4713584518432617,-8.174702293395995,5.44621022644043
1758274858169285400,10.023285400390625,-0.47629649276733393,-8.15913998260498,5.448305152893066
1758274858179242500,10.033242431640625,-0.5192424850463867,-8.16557439956665,5.421520021820068
1758274858189199400,10.043199462890625,-0.5090671279907226,-8.188169677734374,5.436334144592285
1758274858199157500,10.053157470703125,-0.5059247383117675,-8.179939609527587,5.454739569854736
1758274858209114400,10.0631142578125,-0.5407902999877929,-8.166023312377929,5.484966365814208
1758274858219071500,10.073071533203125,-0.4978443077087402,-8.131457025909423,5.49035331954956
1758274858229029400,10.083029296875,-0.45549686584472654,-8.102128055572509,5.494393534851074
1758274858238986200,10.092986328125,-0.522235237121582,-8.11409906387329,5.455338120269775
1758274858248943400,10.102943359375,-0.5181950218200684,-8.145223685455322,5.43902762145996
1758274858258900500,10.112900390625,-0.4659714981079101,-8.17829359588623,5.507711281585693
1758274858268858400,10.1228583984375,-0.4557961410522461,-8.17754540786743,5.562628282165527
1758274858278815200,10.132815185546875,-0.46417584686279295,-8.13953745651245,5.5415293800354
1758274858288772400,10.1427724609375,-0.44412440795898434,-8.092251973724364,5.504119979095458
1758274858298730500,10.15273046875,-0.4653729476928711,-8.1081135597229,5.504419254302978
1758274858308687400,10.162687255859375,-0.4608838195800781,-8.119486017608642,5.482123251342773
1758274858318644200,10.172644287109375,-0.5373486351013184,-8.162132734680176,5.399972206878662
1758274858328602400,10.182602294921875,-0.5180453842163085,-8.215553359222412,5.358223315429687
1758274858338559500,10.1925595703125,-0.5220855995178222,-8.19116242980957,5.409698651123047
1758274858348516400,10.202516357421874,-0.5620388397216797,-8.099135303497315,5.475239921569824
1758274858358474200,10.21247412109375,-0.41419688720703124,-8.07683930053711,5.552602562713623
1758274858368431400,10.222431396484374,-0.36152445068359373,-8.10152950515747,5.588515587615967
1758274858378388500,10.232388427734374,-0.3764882110595703,-8.132654126739501,5.535843151092529
1758274858388346400,10.242346435546875,-0.42706572113037106,-8.188618590545653,5.467758041381836
1758274858398303200,10.25230322265625,-0.49036242752075193,-8.180837435150146,5.438728346252441
1758274858408260400,10.26226025390625,-0.5817910034179687,-8.154052304077148,5.444713850402832
1758274858418217500,10.272217529296874,-0.584185205078125,-8.110657398986817,5.487510205078125
1758274858428175400,10.28217529296875,-0.4875193130493164,-8.098686390686035,5.517138450622558
1758274858438132200,10.29213232421875,-0.3935468978881836,-8.105569720458984,5.519981565093993
1758274858448089300,10.30208935546875,-0.3458125022888183,-8.093149799346923,5.483619627380371
1758274858458047500,10.312047607421874,-0.3633201019287109,-8.103774069213866,5.483619627380371
1758274858468004400,10.32200439453125,-0.4736030158996582,-8.081478066253661,5.532850399017334
1758274858477961200,10.331961181640626,-0.49814358291625976,-8.054094384765625,5.552303287506104
1758274858487919400,10.34191943359375,-0.5418377632141113,-8.055141847991942,5.580734432220459
1758274858497876500,10.35187646484375,-0.5334580574035644,-8.08895994644165,5.571456900787354
1758274858507833600,10.36183349609375,-0.49425300521850585,-8.100182766723632,5.521178665924072
1758274858517791200,10.371791259765626,-0.4809352584838867,-8.103175518798828,5.505317079925537
1758274858527748400,10.381748291015626,-0.421978042602539,-8.097339652252197,5.526266344451904
1758274858537705500,10.39170556640625,-0.4531026641845703,-8.099883491516113,5.576245304107665
1758274858547663400,10.401663330078126,-0.4933551795959472,-8.097638927459716,5.5558945899963375
1758274858557620200,10.4116201171875,-0.48497547378540035,-8.131606663513184,5.52207649154663
1758274858567577300,10.421577392578126,-0.5316624061584473,-8.14013600692749,5.497386286926269
1758274858577534500,10.431534423828126,-0.5802946273803711,-8.110807036590575,5.449801528930664
1758274858587492400,10.441492431640626,-0.5066729263305664,-8.110807036590575,5.464316376495361
1758274858597449000,10.451448974609375,-0.4999392341613769,-8.098237477874756,5.497535924530029
1758274858607406000,10.461406005859375,-0.44846389846801754,-8.132504489135743,5.485714553833008
1758274858617364000,10.471364013671876,-0.39010523300170896,-8.18427910003662,5.4439656623840325
1758274858627321000,10.481321044921875,-0.430956298828125,-8.17889214630127,5.419574732971191
1758274858637278000,10.49127783203125,-0.48722003784179685,-8.155997592926026,5.412691403198242
1758274858647236000,10.501236083984375,-0.4736030158996582,-8.162731285095214,5.459976885986328
1758274858657193000,10.51119287109375,-0.48766895065307614,-8.163928385925292,5.486013829040527
1758274858667150000,10.521150146484375,-0.5449801528930663,-8.155099767303467,5.4610243492126465
1758274858677108000,10.53110791015625,-0.5708674583435058,-8.138489993286132,5.442618923950195
1758274858687065000,10.541065185546875,-0.611568886566162,-8.160935633850098,5.418826544952393
1758274858697022000,10.55102197265625,-0.6331167015075683,-8.169315339660644,5.411793577575684
1758274858706980000,10.56097998046875,-0.5425859512329101,-8.12636934738159,5.439626171875
1758274858716937000,10.57093701171875,-0.5430348640441894,-8.068010681915283,5.512050772094726
1758274858726894000,10.58089404296875,-0.5424363136291503,-8.062474090576172,5.567865598297119
1758274858736851000,10.590850830078125,-0.5373486351013184,-8.09464617538452,5.568015235900878
1758274858746809000,10.60080908203125,-0.5997475158691405,-8.131905938720703,5.53524460067749
1758274858756766200,10.61076611328125,-0.6227917068481444,-8.124424058532714,5.517886638641357
1758274858766722800,10.620722900390625,-0.5669768806457519,-8.083722630310058,5.525967069244384
1758274858776681000,10.630680908203125,-0.5027823486328125,-8.080729878234862,5.534197137451171
1758274858786638000,10.64063818359375,-0.4773439559936523,-8.104372619628906,5.503072515869141
1758274858796595200,10.65059521484375,-0.5422866760253906,-8.115445802307129,5.463717826080322
1758274858806553000,10.660552978515625,-0.5428852264404297,-8.121880219268798,5.463568188476562
1758274858816510000,10.670510009765625,-0.5161000953674316,-8.151508464813231,5.450549716949463
1758274858826467000,10.680467041015625,-0.5425859512329101,-8.161833459472655,5.440075084686279
1758274858836425000,10.690425048828125,-0.5404910247802734,-8.154052304077148,5.4619221748352045
1758274858846382000,10.700382080078125,-0.527322915649414,-8.128464273834227,5.486911654663086
1758274858856339000,10.7103388671875,-0.4969464820861816,-8.098985665893554,5.483320352172851
1758274858866296000,10.720296142578125,-0.4607341819763183,-8.141333107757568,5.453692106628417
1758274858876254200,10.730254150390625,-0.4535515769958496,-8.194304819488526,5.469553692626953
1758274858886210800,10.7402109375,-0.4444236831665039,-8.181286347961425,5.504868167114258
1758274858896168000,10.75016796875,-0.43993455505371093,-8.129811012268066,5.494094259643554
1758274858906126000,10.7601259765625,-0.46716859893798823,-8.115595439910889,5.474342095947265
1758274858916083200,10.770083251953125,-0.45938744354248046,-8.13968709411621,5.42047255859375
1758274858926039800,10.780039794921874,-0.508169302368164,-8.1594392578125,5.430797553253173
1758274858935998000,10.789998046875,-0.5015852478027344,-8.166472225189208,5.457133771514893
1758274858945955000,10.799955078125,-0.43140521163940426,-8.167370050811767,5.48406854019165
1758274858955912200,10.809912109375,-0.4267664459228515,-8.143727309417724,5.504119979095458
1758274858965870000,10.8198701171875,-0.43783962860107417,-8.134449777984619,5.48451745300293
1758274858975827000,10.829826904296874,-0.42661680831909177,-8.140435282135009,5.463268913269043
1758274858985784000,10.8397841796875,-0.4725555526733398,-8.181435985565185,5.446359864044189
1758274858995742200,10.8497421875,-0.4756979423522949,-8.188618590545653,5.4698529678344725
1758274859005698800,10.85969873046875,-0.45025954971313475,-8.147468249511718,5.532102210998535
1758274859015656000,10.869656005859374,-0.45175592575073237,-8.142979121398925,5.547215608978271
1758274859025613000,10.879613037109374,-0.39010523300170896,-8.168716789245606,5.52895982131958
1758274859035571200,10.8895712890625,-0.37618893585205077,-8.225728716278075,5.48451745300293
1758274859045527800,10.89952783203125,-0.3655646659851074,-8.214356258392334,5.4789808616638185
1758274859055485000,10.90948486328125,-0.28655601119995117,-8.17126062850952,5.52207649154663
1758274859065443000,10.919443115234374,-0.22729952011108398,-8.122029856872558,5.534496412658691
1758274859075400200,10.929400146484374,-0.26276363220214843,-8.124424058532714,5.475688834381103
1758274859085357000,10.939357177734376,-0.3462614151000976,-8.148366075134277,5.419275457763671
1758274859095315000,10.94931494140625,-0.37753567428588863,-8.157493968963623,5.4242134986877435
1758274859105272000,10.95927197265625,-0.38756139373779297,-8.1717095413208,5.449352616119384
1758274859115229200,10.969229248046876,-0.36810850524902344,-8.20358235092163,5.481674338531493
1758274859125186800,10.979186767578126,-0.3345896820068359,-8.190414241790771,5.501276864624023
1758274859135144000,10.98914404296875,-0.36541502838134765,-8.128763549041748,5.510404758453369
1758274859145101000,10.99910107421875,-0.5026327110290527,-8.044517578125,5.495291360473632
1758274859155058200,11.00905810546875,-0.5339069702148437,-8.08806212081909,5.3950341659545895
1758274859165015800,11.019015869140626,-0.5155015449523925,-8.195651557922362,5.36929649810791
1758274859174973000,11.028972900390626,-0.5799953521728515,-8.237250811767577,5.355380200958252
1758274859184930000,11.038929931640626,-0.6073790336608886,-8.175899394226073,5.406855536651611
1758274859194888200,11.04888818359375,-0.6497264755249023,-8.120533480834961,5.456535221099853
1758274859204845000,11.058844970703126,-0.4879682258605957,-8.105270445251465,5.491101507568359
1758274859214802000,11.068802001953125,-0.2784755805969238,-8.126518984985351,5.444863488006591
1758274859224760000,11.078760009765626,-0.423923331451416,-8.22243668899536,5.414935967254638
1758274859234717200,11.08871728515625,-0.5087678527832031,-8.249970008087157,5.425859512329101
1758274859244674000,11.098674072265625,-0.5970540390014648,-8.237849362182617,5.382464607238769
1758274859254631200,11.108631103515625,-0.7481880187988281,-8.251765659332275,5.335927312469482
1758274859264589000,11.118589111328125,-0.5693710823059082,-8.247126893615722,5.2910360313415525
1758274859274546200,11.128546142578125,-0.3404255485534668,-8.234557334899902,5.290287843322754
1758274859284503000,11.1385029296875,-0.3268085266113281,-8.267178332519531,5.291484944152832
1758274859294461000,11.1484609375,-0.3972878379821777,-8.301295706176758,5.261108510589599
1758274859304418000,11.15841796875,-0.4186860153198242,-8.328080837249756,5.231031352233886
1758274859314375000,11.168375,-0.581641365814209,-8.317306929779052,5.168482833862305
1758274859324333000,11.1783330078125,-0.6069301208496093,-8.251616021728514,5.131522345733642
1758274859334290000,11.1882900390625,-0.5078700271606446,-8.177246132659912,5.059397020721435
1758274859344247000,11.1982470703125,-0.5214870491027832,-8.200140686035155,4.978592714691162
1758274859354205200,11.208205078125,-0.6736684921264648,-8.224381977844239,4.942081139373779
1758274859364162000,11.218162109375,-0.6859387756347656,-8.22917038116455,4.890905078887939
1758274859374119200,11.228119140625,-0.6775590698242188,-8.264933768463134,4.828206922912598
1758274859384076000,11.238075927734375,-0.8227075454711914,-8.215403721618651,4.774935935974121
1758274859394034200,11.2480341796875,-1.1106102951049803,-8.145074047851562,4.6064439941406246
1758274859403991000,11.257990966796875,-1.0090063621520995,-8.002020498657226,4.452466899871826
1758274859413948200,11.2679482421875,-0.5397428367614746,-7.767388735961914,4.38557889099121
1758274859423906000,11.277906005859375,-0.3764882110595703,-7.4971432235717765,4.369567667388916
1758274859433863000,11.28786279296875,-0.4560954162597656,-7.3036618019104,4.401590114593506
1758274859443820000,11.297820068359375,-0.7015010864257812,-7.269843703460693,4.416104962158203
1758274859453778000,11.30777783203125,-1.1091139190673827,-7.483526201629639,4.321533996582031
1758274859463735000,11.317735107421875,-1.4437036010742186,-7.738658316040039,4.249857584381103
1758274859473692000,11.32769189453125,-1.7963994331359863,-7.673416320800781,4.292803576660156
1758274859483650000,11.337650146484375,-1.4483423667907713,-7.285555651855469,4.650287812042236
1758274859493607200,11.347607177734375,-1.3748703033447265,-6.907122151947021,4.983081842803955
1758274859503564000,11.35756396484375,-2.18994633102417,-6.6072483940124505,5.201403106689453
1758274859513521000,11.36752099609375,-2.959831802368164,-6.479906793212891,5.313631309509277
1758274859523479000,11.37747900390625,-3.074005294036865,-6.329820276641845,5.229235700988769
1758274859533436200,11.387436279296875,-3.458873210906982,-6.19933628616333,5.371840337371826
1758274859543393000,11.39739306640625,-4.581753789520263,-6.157288119506836,5.530456197357178
1758274859553351000,11.407350830078125,-5.014356101989746,-6.228216343688964,5.626822814178467
1758274859563308000,11.41730810546875,-4.605695806121826,-6.124367846679687,5.693112272644043
1758274859573265200,11.42726513671875,-4.170998567199707,-5.9002107162475586,6.074688162231445
1758274859583223000,11.43722314453125,-3.144185330200195,-6.050297232818603,6.102221481323242
1758274859593180000,11.447179931640624,-3.605218787384033,-5.98849690246582,5.728277109527587
1758274859603136500,11.457136474609374,-4.398447724914551,-5.846041903686523,4.979640177917481
1758274859613093600,11.46709375,-4.548085328674316,-5.9305871498107905,4.029441394042968
1758274859623051500,11.477051513671874,-5.112368732452392,-5.558288791656494,3.8610990898132322
1758274859633008600,11.487008544921874,-6.076334175872803,-5.221753820800781,4.512920491790771
1758274859642965500,11.496965576171876,-5.7611973823547356,-5.008220960235596,5.233275916290283
1758274859652923600,11.506923583984374,-4.81399135055542,-4.374954621124267,5.9765258941650385
1758274859662880800,11.516880859375,-3.93920991897583,-4.14346524810791,6.146963124847412
1758274859672837600,11.526837646484376,-4.825363808441161,-4.016871835327148,5.7608981071472165
1758274859682795500,11.53679541015625,-5.774814404296874,-3.710114747619629,5.68188945236206
1758274859692752600,11.546752685546876,-6.075286712646484,-3.4766800857543942,5.768529624938965
1758274859702709800,11.556709716796876,-6.240636264801025,-3.4817677642822265,5.903951656341552
1758274859712667600,11.566667724609376,-5.781548096466064,-3.722534668731689,5.6495677299499505
1758274859722624500,11.57662451171875,-5.819406410217285,-4.104260195922851,5.031564426422118
1758274859732581600,11.58658154296875,-6.216544610595703,-3.8715737220764157,4.538209246826171
1758274859742538800,11.596538818359376,-6.3329626663208005,-3.3756747032165526,4.191199643707275
1758274859752496600,11.60649658203125,-6.306626448059082,-2.970605709838867,4.293102851867675
1758274859762453500,11.61645361328125,-6.083516780853271,-2.5540146209716794,4.38587816619873
1758274859772410600,11.62641064453125,-6.434566599273682,-2.7908909477233883,4.224269554138183
1758274859782368800,11.63636865234375,-7.522431978607178,-3.3755250656127926,3.771765440368652
1758274859792325400,11.646325439453125,-8.124872971343994,-3.7096658348083493,3.7042788810729976
1758274859802282500,11.656282470703125,-7.46960990447998,-4.0726866615295405,3.8380548988342285
1758274859812240600,11.66624072265625,-7.084293074798584,-4.204218115234375,3.497180437469482
1758274859822197800,11.67619775390625,-7.438784558105469,-4.164414512634277,3.4311902542114256
1758274859832154600,11.686154541015625,-7.626579750823974,-3.986944314575195,3.8334161331176757
1758274859842111500,11.696111572265625,-8.048108880615233,-3.9879917778015135,4.004751189422607
1758274859852069600,11.706069580078125,-7.647229740142822,-3.7835868110656734,4.20706122970581
1758274859862026800,11.71602685546875,-6.405536904144287,-3.008164748382568,4.432714736175537
1758274859871983600,11.725983642578125,-7.095515895080566,-2.0220529396057128,4.876240593719482
1758274859881941500,11.73594140625,-8.66326906967163,-1.5893009895324706,5.779153894805908
1758274859891898600,11.745898681640625,-8.211064231109619,-1.560869844818115,6.303633695983886
1758274859901855700,11.755855712890625,-8.078934226989746,-1.9017443061828612,6.03293927078247
1758274859911813400,11.7658134765625,-9.168744895172118,-2.5852888801574707,5.247042575836181
1758274859921770500,11.7757705078125,-9.403077382659912,-3.1057284660339355,4.396352798461914
1758274859931727600,11.7857275390625,-9.296086495971679,-3.4133833793640136,3.951180927276611
1758274859941684700,11.795684814453125,-9.554809912872313,-3.44106633605957,3.7925650672912594
1758274859951642600,11.805642578125,-9.586981997680663,-3.549104685974121,3.4694974807739256
1758274859961599500,11.815599609375,-9.364770156097412,-3.4056022239685055,3.271078018188476
1758274859971556600,11.825556640625,-9.179069889831542,-2.9918542495727536,3.5091514457702635
1758274859981514800,11.8355146484375,-9.637709145355224,-2.7781717514038085,3.637540509796142
1758274859991471600,11.8454716796875,-9.379883554077148,-2.2149358108520505,3.7193922790527343
1758274860001428500,11.855428466796875,-8.84163709335327,-1.6077064147949218,4.075829051208496
1758274860011386600,11.86538671875,-9.78031378173828,-1.1451765815734862,4.608389282989502
1758274860021343700,11.87534375,-10.059238275146484,-0.9900023864746094,4.751891744995117
1758274860031300600,11.885300537109375,-10.13884548034668,-1.1508628105163574,4.3363481193542475
1758274860041257700,11.8952578125,-9.982623822021484,-1.5065513946533202,3.7606922576904296
1758274860051215600,11.905215576171875,-9.555408463287353,-1.8326117332458496,2.9602807151794432
1758274860061172700,11.9151728515625,-10.167575900268554,-1.9762638328552244,2.6083330711364745
1758274860071129600,11.925129638671875,-10.505607247161864,-2.0896891365051267,2.3950994857788084
1758274860081087500,11.93508740234375,-9.87608184814453,-1.6997335411071777,2.23468797454834
1758274860091044600,11.945044677734375,-9.6404026222229,-0.9150339469909667,2.7377695983886716
1758274860101001500,11.95500146484375,-9.702801502990722,-0.1096843635559082,3.0946552833557126
1758274860110958600,11.96495849609375,-9.971550639343262,0.5931634613037109,3.3137247352600094
1758274860120916500,11.97491650390625,-9.637709145355224,0.6227917068481444,3.360860580444336
1758274860130873600,11.98487353515625,-10.057292986297607,-0.1640028137207031,3.283497939300537
1758274860140830500,11.99483056640625,-10.362852973175048,-0.5855319435119628,3.05170929107666
1758274860150788600,12.00478857421875,-9.84435867614746,-0.821061531829834,2.768146031951904
1758274860160745700,12.014745849609374,-9.477746546936034,-0.9973346290588379,2.472611764526367
1758274860170702600,12.02470263671875,-10.14393315887451,-0.8589198455810546,2.51555775680542
1758274860180660700,12.03466064453125,-10.21441247024536,-0.6612485710144043,2.8080992721557614
1758274860190617600,12.04461767578125,-9.822960498809813,-0.72140288772583,2.9794343284606932
1758274860200574700,12.05457470703125,-10.030208580017089,-0.35090018081665036,3.302053002166748
1758274860210531600,12.064531494140626,-9.950302099609374,0.5014356101989745,2.287360411071777
1758274860220489500,12.074489501953124,-10.104279193878174,0.8078934226989746,2.3116017028808593
1758274860230446600,12.084446533203124,-10.239401950073242,0.8866028022766113,3.0550013183593747
1758274860240403700,12.09440380859375,-9.670629418182372,0.6640916854858399,3.0219314079284665
1758274860250361600,12.104361572265624,-10.079588989257813,0.22864625854492185,2.7611130645751953
1758274860260318500,12.114318359375,-10.197503421020507,-0.018255787658691406,2.6101287223815914
1758274860270275600,12.124275634765626,-9.53176572189331,-0.011522095489501952,2.453009238433838
1758274860280233700,12.134233642578126,-9.211391612243652,0.13467384338378904,2.3693618179321287
1758274860290190600,12.144190673828126,-9.247005361938475,0.30256723480224607,2.364124501800537
1758274860300147500,12.1541474609375,-9.536404487609863,0.30047230834960936,2.281225269317627
1758274860310104600,12.1641044921875,-9.459790034484863,0.3006219459533691,2.088192760467529
1758274860320062700,12.174062744140626,-9.04005655593872,0.1975216369628906,2.2653636833190918
1758274860330019800,12.184019775390626,-9.227702111053466,0.36810850524902344,2.5827450408935544
1758274860339976400,12.1939765625,-9.949104998779296,0.6120177993774414,2.895936545562744
1758274860349934600,12.2039345703125,-10.755352407836913,0.7113771682739257,3.2746693206787105
1758274860359891700,12.2138916015625,-12.108974171447754,1.2636895637512207,2.966116581726074
1758274860369848800,12.223848876953125,-13.595474127197265,2.17079271774292,2.9569886878967284
1758274860379805400,12.233805419921875,-15.09244871520996,3.7310640121459957,3.471742044830322
1758274860389763600,12.243763671875,-15.373767410278319,4.930858319091796,3.740491181182861
1758274860399720700,12.253720703125,-14.431349781799316,5.134964010620117,3.034500966644287
1758274860409677600,12.263677490234375,-13.190704409027099,3.822941500854492,2.195632559967041
1758274860419635500,12.273635498046875,-10.176853431701659,2.332102054595947,1.7025766555786133
1758274860429592600,12.283592529296875,-7.829488341522216,1.5478513732910155,1.2373533454895018
1758274860439549700,12.2935498046875,-8.94428848953247,1.822137100982666,1.0446201118469238
1758274860449507800,12.3035078125,-9.745148944854735,2.1254525238037107,0.7465420051574707
1758274860459464400,12.31346435546875,-9.39140564956665,2.1184195564270016,0.48452656097412106
1758274860469421600,12.323421630859375,-8.640374516296387,1.919850456237793,0.4688146125793457
1758274860479378700,12.333378662109375,-8.14731861190796,1.7791911087036132,0.3199251968383789
1758274860489336800,12.3433369140625,-8.435071723937988,2.2001216880798338,0.23313538665771483
1758274860499293400,12.35329345703125,-8.766967929077149,2.479644731903076,0.19467852249145506
1758274860509250600,12.36325048828125,-8.709806364440917,2.588730545043945,0.2838625343322754
1758274860519208700,12.373208740234375,-8.693645503234864,2.6722283279418946,0.36317046432495115
1758274860529165600,12.38316552734375,-8.775646910095213,2.3205799591064453,0.33414076919555663
1758274860539122700,12.393122802734375,-8.709806364440917,2.026392430114746,0.5386953735351562
1758274860549079600,12.40307958984375,-8.914211331176757,2.0973206542968748,1.0986392868041992
1758274860559037700,12.41303759765625,-9.377040439605713,2.236034712982178,1.7140987510681152
1758274860568994600,12.42299462890625,-9.884910466766357,2.2418705795288085,2.1703438049316404
1758274860578951700,12.43295166015625,-10.065822329711914,1.9135656768798828,2.41949041519165
1758274860588909600,12.44290966796875,-9.653870006561279,1.4384662849426268,2.5267805770874023
1758274860598867200,12.4528671875,-9.662249712371825,1.3584101669311524,2.605938869476318
1758274860608824300,12.46282421875,-9.969754988098144,1.5927426544189451,2.7358243095397947
1758274860618782200,12.4727822265625,-10.089465071105957,1.7117045494079588,2.6138696624755857
1758274860628739300,12.4827392578125,-9.855132583618163,1.5108908851623535,2.3603835617065427
1758274860638696200,12.4926962890625,-9.814131880187988,1.2681786918640137,2.334795531463623
1758274860648653300,12.5026533203125,-10.154407791137695,1.2654852149963378,2.3994389762878416
1758274860658611200,12.512611083984375,-10.084377392578125,1.1176432624816894,2.3108535148620604
1758274860668568000,12.522568115234375,-9.682899701690673,1.1339537612915038,2.235735437774658
1758274860678525200,12.532525146484375,-9.436596205902099,1.4024036224365233,2.085050370788574
1758274860688483300,12.5424833984375,-9.382577030944823,1.5634136840820312,1.9009961181640624
1758274860698440200,12.552440185546875,-9.35908392715454,1.599177071380615,1.7899650161743164
1758274860708397000,12.56239697265625,-9.637709145355224,1.7151462142944336,1.815702684020996
1758274860718354200,12.572354248046874,-9.942670581817627,1.8486229568481445,1.9090765487670898
1758274860728312300,12.582312255859375,-10.002974536132811,1.8183961608886718,1.939602619934082
1758274860738269400,12.59226953125,-9.722703304290771,1.7545009040832518,1.8689736709594726
1758274860748226000,12.60222607421875,-9.462782786560059,1.7871219017028808,1.838746875
1758274860758184200,12.61218408203125,-9.240421307373046,1.9035399574279783,1.9155109657287597
1758274860768141300,12.622141357421874,-9.00863265914917,2.0260931549072265,1.9138649520874023
1758274860778098400,12.632098388671874,-8.9631428276062,2.1269488998413086,1.810615005493164
1758274860788055300,12.64205517578125,-9.279027809143066,2.205658279418945,1.7347487403869628
1758274860798013200,12.65201318359375,-9.510517182159424,2.171391268157959,1.7378911300659179
1758274860807970300,12.66197021484375,-9.62783306350708,2.0801123298645017,1.8537106353759765
1758274860817927200,12.67192724609375,-9.585036708831787,2.0040964271545407,2.016217073059082
1758274860827885000,12.681885009765624,-9.440636421203612,1.9547160179138183,2.140865196990967
1758274860837842200,12.69184228515625,-9.383175581359863,1.878400839996338,2.1863550285339355
1758274860847799300,12.70179931640625,-9.331999520874023,1.7805378471374511,2.2327426856994625
1758274860857756200,12.711756103515626,-9.469666116333007,1.7829320487976072,2.274042664337158
1758274860867714000,12.721714111328126,-9.55121861038208,1.7720085037231443,2.2117934211730956
1758274860877671200,12.731671142578126,-9.48732335357666,1.7272668601989745,2.098966667938232
1758274860887628300,12.741628173828126,-9.3975407913208,1.695094775390625,2.04943662109375
1758274860897586400,12.75158642578125,-9.32182416381836,1.6231190879821777,2.122310134124756
1758274860907543300,12.761543212890626,-9.329605319213867,1.552639776611328,2.2436662307739255
1758274860917500200,12.771500244140626,-9.451559966278076,1.5575778175354003,2.319532495880127
1758274860927458300,12.781458251953126,-9.564685994720458,1.5279495719909668,2.318036119842529
