time,seconds_elapsed,z,y,x
1758274848196996000,0.05099609375,1.0314263105392456,-2.0319416522979736,0.4184798002243042
1758274848206954000,0.0609541015625,1.1841598749160767,-1.8350367546081543,0.6729512214660645
1758274848216911000,0.0709111328125,1.2412216663360596,-1.495674967765808,0.8652719259262085
1758274848226868000,0.080867919921875,1.3349816799163818,-1.1539884805679321,1.038859486579895
1758274848236825900,0.090825927734375,1.4415967464447021,-0.9915851354598999,1.1755092144012451
1758274848246783000,0.100782958984375,1.5054234266281128,-0.982524037361145,1.2124993801116943
1758274848256741000,0.1107412109375,1.5370655059814453,-1.05732262134552,1.112694501876831
1758274848266698000,0.120697998046875,1.6034890413284302,-1.0529792308807373,0.8411828875541687
1758274848276654800,0.13065478515625,1.7586692571640015,-0.8673604130744934,0.41617271304130554
1758274848286613000,0.140613037109375,1.9559475183486938,-0.7323538661003113,-0.032825324684381485
1758274848296570000,0.150570068359375,2.164846658706665,-0.8805233240127563,-0.27922019362449646
1758274848306527000,0.16052685546875,2.4818167686462402,-1.2046939134597778,-0.18109868466854095
1758274848316484900,0.17048486328125,2.774379253387451,-1.5803821086883545,0.16290876269340515
1758274848326442000,0.18044189453125,2.9890925884246826,-2.0018131732940674,0.6025710701942444
1758274848336400100,0.190400146484375,3.2926974296569824,-2.408398389816284,1.0829778909683228
1758274848346357000,0.20035693359375,3.511141300201416,-2.8270328044891357,1.526181936264038
1758274848356313900,0.21031396484375,3.6015026569366455,-2.8901638984680176,1.826017141342163
1758274848366272000,0.22027197265625,3.5550577640533447,-2.7308757305145264,1.9060417413711548
1758274848376229000,0.23022900390625,3.2410221099853516,-2.7405054569244385,1.7447547912597656
1758274848386186000,0.24018603515625,2.82841157913208,-2.889913558959961,1.4146517515182495
1758274848396143900,0.250143798828125,2.7215566635131836,-2.68843674659729,1.2078231573104858
1758274848406101000,0.26010107421875,2.7925055027008057,-2.1774492263793945,1.0717442035675049
1758274848416059100,0.27005908203125,2.7635011672973633,-1.745910882949829,0.8595395088195801
1758274848426016000,0.28001611328125,2.6854135990142822,-1.3314955234527588,0.7389172315597534
1758274848435972900,0.289972900390625,2.755159854888916,-1.125373363494873,0.7716735601425171
1758274848445931000,0.299930908203125,2.9439756870269775,-1.0458550453186035,0.9225320219993591
1758274848455888100,0.30988818359375,3.054748773574829,-1.06868577003479,1.1735626459121704
1758274848465845000,0.319844970703125,3.022538900375366,-1.1778026819229126,1.4051522016525269
1758274848475803000,0.329802978515625,2.898637533187866,-1.221683382987976,1.492327332496643
1758274848485760000,0.339760009765625,2.70335054397583,-1.0909661054611206,1.3903447389602661
1758274848495718000,0.3497177734375,2.4684338569641113,-0.8402073383331299,1.101780652999878
1758274848505675000,0.359675048828125,2.2319414615631104,-0.5951504707336426,0.732010543346405
1758274848515631900,0.3696318359375,2.0489342212677,-0.4252503514289856,0.42199277877807617
1758274848525590000,0.379590087890625,1.9079372882843018,-0.23778779804706573,0.2807730734348297
1758274848535547100,0.389547119140625,1.8450018167495728,0.01751055009663105,0.2599058747291565
1758274848545505000,0.399505126953125,1.8838708400726318,0.14153556525707245,0.2973078489303589
1758274848555462000,0.4094619140625,1.9418377876281738,0.14337126910686493,0.36463814973831177
1758274848565419000,0.4194189453125,1.981279969215393,0.06310759484767914,0.47410473227500916
1758274848575377000,0.429376953125,2.047194242477417,-0.10067255049943924,0.6358739137649536
1758274848585333800,0.439333740234375,2.100346803665161,-0.3967958092689514,0.8023079037666321
1758274848595291000,0.449290771484375,2.1629040241241455,-0.8232230544090271,0.9544673562049866
1758274848605249000,0.4592490234375,2.206712007522583,-1.1157318353652954,1.0495100021362305
1758274848615206000,0.469205810546875,2.0700178146362305,-1.0696396827697754,1.016746997833252
1758274848625162800,0.479162841796875,1.8998173475265503,-0.9814185500144958,0.8550270199775696
1758274848635121000,0.489120849609375,1.7744535207748413,-0.7835323214530945,0.6419848203659058
1758274848645078000,0.499078125,1.6473469734191895,-0.45529642701148987,0.4084618091583252
1758274848655036000,0.509035888671875,1.4891952276229858,-0.23491530120372772,0.20895294845104218
1758274848664992800,0.51899267578125,1.4048347473144531,-0.20594890415668488,0.0943739041686058
1758274848674950000,0.528949951171875,1.3940958976745605,-0.3000170886516571,0.06252489984035492
1758274848684908000,0.538907958984375,1.4576865434646606,-0.5117146968841553,0.133969247341156
1758274848694864600,0.54886474609375,1.5614006519317627,-0.8458905220031738,0.2636153995990753
1758274848704822800,0.55882275390625,1.646849513053894,-1.2295042276382446,0.36232173442840576
1758274848714780000,0.56877978515625,1.6651854515075684,-1.5696873664855957,0.39055976271629333
1758274848724737000,0.578737060546875,1.5491578578948975,-1.6410843133926392,0.3676043748855591
1758274848734695000,0.58869482421875,1.337147831916809,-1.3816982507705688,0.2978481948375702
1758274848744651800,0.59865185546875,1.0852283239364624,-1.0146223306655884,0.20916999876499176
1758274848754609000,0.60860888671875,0.8412070870399475,-0.6509681940078735,0.11762329936027527
1758274848764566800,0.61856689453125,0.6274503469467163,-0.27169835567474365,0.0046445527113974094
1758274848774524000,0.62852392578125,0.5076576471328735,-0.02443530224263668,-0.08435589075088501
1758274848784481800,0.638481689453125,0.5108158588409424,0.08877088129520416,-0.1143002063035965
1758274848794439000,0.64843896484375,0.5776178240776062,0.02815520577132702,-0.09439680725336075
1758274848804396000,0.65839599609375,0.6332919597625732,-0.3161483705043793,-0.03359018266201019
1758274848814354000,0.66835400390625,0.7390304207801819,-0.7065914869308472,0.07810439169406891
1758274848824310800,0.678310791015625,0.8544592261314392,-0.9676055312156677,0.19711413979530334
1758274848834268000,0.688267822265625,0.8632868528366089,-1.116137146949768,0.302829384803772
1758274848844225800,0.698225830078125,0.711465060710907,-1.0517661571502686,0.35475409030914307
1758274848854183000,0.708182861328125,0.6140367984771729,-0.790890634059906,0.355542927980423
1758274848864140800,0.718140869140625,0.5760180354118347,-0.4451199471950531,0.2482055425643921
1758274848874098000,0.728097900390625,0.5227494835853577,-0.08072493970394135,0.01894865743815899
1758274848884054800,0.7380546875,0.42154350876808167,0.18284279108047485,-0.21230000257492065
1758274848894013000,0.748012939453125,0.31325966119766235,0.31605222821235657,-0.33948326110839844
1758274848903969800,0.7579697265625,0.2649964988231659,0.31649431586265564,-0.34111258387565613
1758274848913927000,0.767927001953125,0.2768603563308716,0.18023288249969482,-0.22452712059020996
1758274848923884800,0.777884765625,0.32552802562713623,0.01398532371968031,-0.03297685831785202
1758274848933842000,0.787842041015625,0.3904154300689697,-0.1450546532869339,0.14054672420024872
1758274848943800000,0.797800048828125,0.4193602502346039,-0.26459065079689026,0.24401985108852386
1758274848953757000,0.8077568359375,0.4288906455039978,-0.3451765775680542,0.2683393061161041
1758274848963713800,0.8177138671875,0.4457519054412842,-0.3122263550758362,0.22601155936717987
1758274848973672000,0.827671875,0.45908796787261963,-0.16394925117492676,0.1835533231496811
1758274848983628800,0.83762890625,0.4786944091320038,-0.003067428944632411,0.16619989275932312
1758274848993586000,0.8475859375,0.466797798871994,0.14921292662620544,0.11698707193136215
1758274849003543800,0.857543701171875,0.4251113533973694,0.2656993269920349,0.03677931800484657
1758274849013501000,0.8675009765625,0.40340739488601685,0.3272513747215271,-0.04797045513987541
1758274849023459000,0.877458984375,0.4149005115032196,0.34267958998680115,-0.10300148278474808
1758274849033415700,0.887415771484375,0.4144706726074219,0.245113343000412,-0.07315544039011002
1758274849043372800,0.897372802734375,0.33205971121788025,-0.0976615771651268,0.230576753616333
1758274849053331000,0.9073310546875,0.41947582364082336,-0.37223562598228455,0.4731886088848114
1758274849063288000,0.9172880859375,0.5447229743003845,-0.5468223094940186,0.42591774463653564
1758274849073245000,0.927244873046875,0.582277774810791,-0.4153609871864319,0.3318074941635132
1758274849083202800,0.937202880859375,0.5402443408966064,-0.17877933382987976,0.20321810245513916
1758274849093160000,0.947159912109375,0.5345515608787537,-0.008898420259356499,0.08752159029245377
1758274849103117800,0.957117919921875,0.5459616184234619,0.06399176269769669,0.10696080327033997
1758274849113074700,0.96707470703125,0.5943605303764343,0.040767136961221695,0.19943107664585114
1758274849123031800,0.97703173828125,0.6454397439956665,-0.041978608816862106,0.21995766460895538
1758274849132990000,0.986989990234375,0.7021391987800598,-0.0743141770362854,0.1434626281261444
1758274849142947000,0.996947021484375,0.7744901180267334,-0.10634108632802963,0.03356195613741875
1758274849152903700,1.006903564453125,0.8011190891265869,-0.12383805215358734,-0.045816756784915924
1758274849162861800,1.01686181640625,0.756733238697052,-0.07950174808502197,-0.08252763003110886
1758274849172819000,1.02681884765625,0.6996361017227173,-0.05880126357078552,-0.1047985851764679
1758274849182776000,1.036776123046875,0.6800150275230408,-0.11386318504810333,-0.13335539400577545
1758274849192733700,1.046733642578125,0.6622738242149353,-0.07653632014989853,-0.18228591978549957
1758274849202690800,1.05669091796875,0.6786503791809082,0.1131712943315506,-0.1810281127691269
1758274849212649000,1.06664892578125,0.7147327661514282,0.209955632686615,-0.2120579332113266
1758274849222605800,1.076605712890625,0.6929419636726379,0.16444885730743408,-0.22809788584709167
1758274849232562700,1.086562744140625,0.6507852077484131,0.04535256698727608,-0.2254677414894104
1758274849242520800,1.096520751953125,0.5967121124267578,-0.1298767775297165,-0.1773100644350052
1758274849252478000,1.10647802734375,0.5546693205833435,-0.30979833006858826,-0.11893091350793839
1758274849262435000,1.11643505859375,0.4799269139766693,-0.5702802538871765,-0.054187603294849396
1758274849272392700,1.126392822265625,0.46950703859329224,-0.7538729906082153,-0.05398520454764366
1758274849282349800,1.136349853515625,0.45792654156684875,-0.8743783831596375,-0.16630588471889496
1758274849292308000,1.146307861328125,0.46711498498916626,-0.8252882957458496,-0.26763251423835754
1758274849302264800,1.156264892578125,0.4286903738975525,-0.5357377529144287,-0.2843499779701233
1758274849312221700,1.1662216796875,0.39483892917633057,-0.24290026724338531,-0.27289730310440063
1758274849322179800,1.176179931640625,0.3517543077468872,-0.28008759021759033,-0.29134687781333923
1758274849332137000,1.186136962890625,0.2739194333553314,-0.28081968426704407,-0.22691011428833008
1758274849342094800,1.1960947265625,0.2452254742383957,-0.3384627401828766,-0.1492142528295517
1758274849352052000,1.206052001953125,0.2689118981361389,-0.39203116297721863,-0.09622560441493988
1758274849362008800,1.2160087890625,0.32206591963768005,-0.4503557085990906,-0.11179816722869873
1758274849371966700,1.225966796875,0.3670733571052551,-0.5104292035102844,-0.16441556811332703
1758274849381923800,1.235923828125,0.3693287670612335,-0.45513635873794556,-0.26164573431015015
1758274849391880700,1.245880615234375,0.35034042596817017,-0.2458542436361313,-0.35697516798973083
1758274849401838800,1.2558388671875,0.2991238534450531,-0.07142278552055359,-0.41063040494918823
1758274849411796000,1.2657958984375,0.2573074400424957,-0.1433020383119583,-0.3861730098724365
1758274849421752800,1.2757529296875,0.23353472352027893,-0.2885702848434448,-0.22644831240177155
1758274849431711000,1.2857109375,0.24200065433979034,-0.4532566964626312,-0.10735096037387848
1758274849441667800,1.295667724609375,0.29853689670562744,-0.6662083864212036,-0.09174562990665436
1758274849451625700,1.305625732421875,0.38848674297332764,-0.8876550197601318,-0.1268191933631897
1758274849461582800,1.315582763671875,0.5578038692474365,-1.1015098094940186,-0.14794045686721802
1758274849471540000,1.3255400390625,0.6813713312149048,-0.7898461818695068,-0.1038861870765686
1758274849481497900,1.335497802734375,0.8153190612792969,-0.54619300365448,-0.2585846781730652
1758274849491454700,1.345454833984375,0.949059784412384,-0.5325664281845093,-0.421630859375
1758274849501411800,1.355411865234375,0.9804651141166687,-0.6571941375732422,-0.4527062177658081
1758274849511370000,1.365369873046875,0.8782505989074707,-0.7472236156463623,-0.4487921893596649
1758274849521326800,1.375326904296875,0.7623620629310608,-0.9444855451583862,-0.37867432832717896
1758274849531284700,1.38528466796875,0.671783447265625,-0.9458615779876709,-0.3544566035270691
1758274849541241900,1.395241943359375,0.6649404764175415,-0.8397471308708191,-0.31671029329299927
1758274849551199000,1.405198974609375,0.6252196431159973,-0.8336844444274902,-0.12065637856721878
1758274849561156900,1.415156982421875,0.5577008128166199,-0.8715519309043884,0.020596355199813843
1758274849571113700,1.42511376953125,0.5269245505332947,-0.8943057060241699,0.04540716111660004
1758274849581070800,1.43507080078125,0.5384352207183838,-0.8699072003364563,-0.0524648055434227
1758274849591029000,1.445029052734375,0.5458700060844421,-0.856781005859375,-0.2278107851743698
1758274849600986000,1.454986083984375,0.5757160186767578,-0.7919612526893616,-0.36242878437042236
1758274849610944000,1.464944091796875,0.6032389998435974,-0.7749340534210205,-0.4933401942253113
1758274849620901000,1.474901123046875,0.5871772170066833,-0.9016342163085938,-0.5812876224517822
1758274849630858000,1.48485791015625,0.5427000522613525,-0.9805585741996765,-0.6415443420410156
1758274849640815900,1.49481591796875,0.5549644231796265,-1.042238712310791,-0.6666004061698914
1758274849650773000,1.50477294921875,0.6864944696426392,-1.3732483386993408,-0.7642681002616882
1758274849660729900,1.514729736328125,0.9504555463790894,-1.6500083208084106,-0.9278799295425415
1758274849670688000,1.52468798828125,1.0798087120056152,-1.7811346054077148,-1.0247242450714111
1758274849680644900,1.534644775390625,1.1367061138153076,-1.8201345205307007,-1.0800447463989258
1758274849690603000,1.54460302734375,1.343810796737671,-2.2061305046081543,-1.2117873430252075
1758274849700560100,1.55456005859375,1.1658704280853271,-1.4406068325042725,-0.7135093212127686
1758274849710517000,1.56451708984375,0.7638640999794006,-0.810757577419281,-0.4214327335357666
1758274849720475000,1.574474853515625,0.7200761437416077,-0.8410028219223022,-0.5654540657997131
1758274849730432000,1.584431884765625,0.7714269757270813,-0.8332242965698242,-0.6975343227386475
1758274849740389000,1.59438916015625,0.6097009181976318,-0.8077561855316162,-0.810688316822052
1758274849750347000,1.604346923828125,0.5830048322677612,-0.4267031252384186,-1.157753586769104
1758274849760303900,1.614303955078125,0.5157610774040222,-0.6958235502243042,-1.0924718379974365
1758274849770262000,1.624261962890625,0.45910847187042236,-0.606627345085144,-0.6955404281616211
1758274849780219100,1.63421923828125,0.3925376832485199,-0.3011966049671173,-0.4345485270023346
1758274849790176000,1.644176025390625,0.2120608538389206,-0.18617945909500122,-0.472362756729126
1758274849800134000,1.6541337890625,0.044774129986763,-0.5032032132148743,-0.5639861226081848
1758274849810091000,1.664091064453125,-0.061528872698545456,-0.9389472603797913,-0.4841155409812927
1758274849820048100,1.674048095703125,-0.18101239204406738,-1.2957535982131958,-0.4175642132759094
1758274849830005800,1.684005859375,-0.3682920038700104,-1.2382173538208008,-0.3665319085121155
1758274849839963000,1.693962890625,-0.41610825061798096,-0.14508208632469177,-1.0595357418060303
1758274849849921000,1.703921142578125,-0.5563894510269165,-0.16361768543720245,-1.444519281387329
1758274849859878100,1.713878173828125,-0.7483698129653931,-0.2690493166446686,-1.3906848430633545
1758274849869835000,1.7238349609375,-0.7620406150817871,-0.2421676218509674,-0.8969500064849854
1758274849879793000,1.73379296875,-0.6510198712348938,-0.16098196804523468,-0.3535202443599701
1758274849889750000,1.74375,-0.5382387042045593,-0.18111173808574677,-0.045396775007247925
1758274849899707100,1.75370703125,-0.5335723161697388,-0.11630530655384064,-0.004357730504125357
1758274849909665000,1.7636650390625,-0.701591432094574,0.2901575267314911,-0.1564314216375351
1758274849919622000,1.773621826171875,-0.9046550393104553,0.631138026714325,-0.3817766606807709
1758274849929579000,1.7835791015625,-0.7838847041130066,0.22404907643795013,-0.37852412462234497
1758274849939537200,1.793537109375,-0.5094411373138428,-0.055038485676050186,-0.16704411804676056
1758274849949493800,1.80349365234375,-0.2576392590999603,-0.12765170633792877,-0.07541406154632568
1758274849959452000,1.813451904296875,-0.1723960041999817,-0.1792810708284378,-0.08690187335014343
1758274849969409000,1.823408935546875,-0.1920091211795807,-0.24281370639801025,-0.14897190034389496
1758274849979366100,1.8333662109375,-0.26263028383255005,-0.39903420209884644,-0.23032215237617493
1758274849989324000,1.843323974609375,-0.3545634150505066,-0.5127943158149719,-0.29603272676467896
1758274849999281000,1.853281005859375,-0.42860859632492065,-0.73537677526474,-0.2469775676727295
1758274850009238000,1.863238037109375,-0.5011435151100159,-0.9424117207527161,-0.23623144626617432
1758274850019196200,1.873196044921875,-0.5140287280082703,-1.5308341979980469,-0.1632472425699234
1758274850029153000,1.883153076171875,-0.6093802452087402,-1.5605775117874146,-0.055626511573791504
1758274850039111000,1.89311083984375,-0.7159711718559265,-1.316064476966858,-0.09371504187583923
1758274850049068000,1.903068115234375,-0.9476994276046753,-1.5218684673309326,-0.22867099940776825
1758274850059025200,1.913025146484375,-1.0215867757797241,-0.767943799495697,-0.3951025903224945
1758274850068983000,1.922983154296875,-0.8725817799568176,0.01666579581797123,-0.5485347509384155
1758274850078940000,1.93293994140625,-0.3540957570075989,0.3018980622291565,-0.625159740447998
1758274850088897000,1.94289697265625,0.30854344367980957,-0.03237977623939514,-0.6060909628868103
1758274850098855000,1.95285498046875,0.666035532951355,-0.537073016166687,-0.4514992833137512
1758274850108812000,1.96281201171875,0.6409658789634705,-0.7997912168502808,-0.30878153443336487
1758274850118770000,1.97277001953125,0.7611689567565918,-0.47334545850753784,-0.28010329604148865
1758274850128727000,1.98272705078125,0.6643140912055969,-0.5905559659004211,-0.31668660044670105
1758274850138684200,1.99268408203125,0.193333238363266,-0.80716872215271,-0.29311469197273254
1758274850148642000,2.00264208984375,-0.2729327380657196,-0.681789755821228,-0.14761954545974731
1758274850158599000,2.012598876953125,-0.3678896129131317,-0.2828980088233948,0.09155681729316711
1758274850168556000,2.02255615234375,-0.29854726791381836,-0.10834591090679169,0.22864116728305817
1758274850178514000,2.032513916015625,-0.1158033013343811,0.013825268484652042,0.2113521844148636
1758274850188471000,2.042470947265625,0.10387180745601654,0.3056110441684723,0.1457769125699997
1758274850198429200,2.05242919921875,0.4587832987308502,0.5229460597038269,0.08714742213487625
1758274850208386000,2.062385986328125,0.8314724564552307,0.6518587470054626,0.028188761323690414
1758274850218343000,2.072343017578125,0.8686781525611877,0.7657997012138367,0.007113303057849407
1758274850228301000,2.082301025390625,0.6615728735923767,0.6881552338600159,-0.009898170828819275
1758274850238258000,2.0922578125,0.7148600816726685,0.7363621592521667,-0.014537929557263851
1758274850248215000,2.102215087890625,1.037825345993042,0.7932369112968445,0.017543572932481766
1758274850258173000,2.1121728515625,1.3368335962295532,0.7017581462860107,-0.03609834983944893
1758274850268130000,2.122130126953125,1.6447954177856445,0.7568517327308655,-0.1822233349084854
1758274850278087000,2.1320869140625,1.9105240106582642,0.6351620554924011,-0.21995499730110168
1758274850288045000,2.142045166015625,2.1087968349456787,0.6332834362983704,-0.23330995440483093
1758274850298002000,2.152001953125,2.3281056880950928,0.8268933892250061,-0.32015565037727356
1758274850307960000,2.1619599609375,2.450307607650757,1.1014817953109741,-0.44435080885887146
1758274850317917200,2.171917236328125,2.3020718097686768,1.3787232637405396,-0.6670134663581848
1758274850327874000,2.1818740234375,1.9475044012069702,1.3386120796203613,-0.7705033421516418
1758274850337832000,2.19183203125,1.766836404800415,0.9924440383911133,-0.6220704913139343
1758274850347789000,2.2017890625,1.6307156085968018,0.3396132290363312,-0.45013919472694397
1758274850357746000,2.211745849609375,1.2758853435516357,-0.24148958921432495,-0.39481550455093384
1758274850367703800,2.221703857421875,1.5325682163238525,-0.4161921441555023,-0.5535427927970886
1758274850377661000,2.231660888671875,1.8266690969467163,-0.8842200636863708,-0.37400636076927185
1758274850387618000,2.2416181640625,1.8533945083618164,-1.1846281290054321,-0.48485538363456726
1758274850397576200,2.251576171875,1.6421877145767212,-1.4251900911331177,-0.9857725501060486
1758274850407533000,2.261532958984375,1.1021920442581177,-1.6737722158432007,-1.2153843641281128
1758274850417491000,2.271490966796875,0.583162248134613,-2.166473627090454,-1.0377763509750366
1758274850427448000,2.281447998046875,0.6203178763389587,-2.747559070587158,-0.5959310531616211
1758274850437405200,2.2914052734375,1.2080202102661133,-3.640380382537842,-0.4433223009109497
1758274850447362800,2.30136279296875,1.8613018989562988,-3.8496181964874268,-0.5096992254257202
1758274850457320000,2.31131982421875,1.5622140169143677,-2.7792558670043945,-0.21093034744262695
1758274850467277000,2.321277099609375,0.08757326006889343,-0.013892379589378834,0.24800421297550201
1758274850477235200,2.331235107421875,-0.274954617023468,0.7954081892967224,0.27766063809394836
1758274850487191800,2.34119189453125,-0.4506944715976715,0.505612313747406,0.13320812582969666
1758274850497150000,2.35114990234375,-0.817398726940155,0.2605261206626892,0.04086966812610626
1758274850507107000,2.361107177734375,-1.0345441102981567,-0.06307031214237213,-0.05102217197418213
1758274850517064200,2.371064208984375,-1.1372792720794678,-0.33461794257164,-0.07918483018875122
1758274850527021800,2.381021728515625,-1.2708662748336792,-0.1713203489780426,-0.09979983419179916
1758274850536979000,2.39097900390625,-1.315852403640747,0.18718267977237701,-0.1166006475687027
1758274850546936000,2.40093603515625,-1.3801816701889038,0.5251825451850891,-0.19385841488838196
1758274850556894000,2.41089404296875,-1.4168016910552979,0.7186231017112732,-0.26355040073394775
1758274850566850800,2.420850830078125,-1.411396861076355,0.72611004114151,-0.3053782880306244
1758274850576808000,2.430807861328125,-1.3693052530288696,0.579425036907196,-0.36283838748931885
1758274850586766000,2.44076611328125,-1.199222445487976,0.4304720163345337,-0.3923549950122833
1758274850596723000,2.450722900390625,-0.8386581540107727,0.21760262548923492,-0.31780990958213806
1758274850606680800,2.460680908203125,-0.31453824043273926,-0.08536842465400696,-0.14476171135902405
1758274850616638000,2.470637939453125,0.06773456931114197,-0.199567973613739,-0.049844786524772644
1758274850626595000,2.480594970703125,0.0998845174908638,-0.09418242424726486,-0.1675003170967102
1758274850636552700,2.490552734375,0.14487622678279877,-0.15641357004642487,-0.2680487632751465
1758274850646509800,2.500509765625,0.14664137363433838,-0.20399147272109985,-0.33604779839515686
1758274850656467000,2.510467041015625,0.15069442987442017,-0.18694032728672028,-0.34367695450782776
1758274850666425000,2.520425048828125,0.1603848785161972,-0.0751275047659874,-0.3962349593639374
1758274850676382000,2.5303818359375,0.12592491507530212,0.13416126370429993,-0.44908273220062256
1758274850686338800,2.5403388671875,0.08650879561901093,0.22093132138252258,-0.31854310631752014
1758274850696297000,2.550296875,-0.017359016463160515,0.26575949788093567,-0.19807873666286469
1758274850706254000,2.560254150390625,0.04537653550505638,0.9012962579727173,0.0484309159219265
1758274850716211700,2.570211669921875,0.19010469317436218,0.9147170186042786,0.006986270658671856
1758274850726168800,2.5801689453125,0.15066753327846527,0.45470544695854187,-0.18224383890628815
1758274850736126000,2.5901259765625,0.15448197722434998,0.22372683882713318,-0.22636708617210388
1758274850746084000,2.600083984375,0.12904506921768188,0.06353236734867096,-0.18892677128314972
1758274850756040700,2.610040771484375,0.11228765547275543,-0.1234351173043251,-0.1099105179309845
1758274850765997800,2.619997802734375,0.01679842174053192,-0.03693404793739319,-0.09668020159006119
1758274850775956000,2.6299560546875,-0.09363221377134323,0.01685221679508686,0.009503223933279514
1758274850785913000,2.6399130859375,0.009521333500742912,0.1617516130208969,0.017468206584453583
1758274850795871000,2.64987109375,0.055395882576704025,0.1658342480659485,0.022953253239393234
1758274850805827800,2.659827880859375,0.04562394320964813,0.1588282585144043,0.03214249014854431
1758274850815785000,2.669784912109375,0.0188975241035223,0.13218998908996582,0.04081027954816818
1758274850825742800,2.679742919921875,0.013616209849715233,0.11007670313119888,0.04048670455813408
1758274850835699700,2.68969970703125,0.009137039072811604,0.09418748319149017,0.029036179184913635
1758274850845656800,2.69965673828125,0.0011704593198373914,0.10076496005058289,0.00993305817246437
1758274850855615000,2.709614990234375,-0.002162220422178507,0.10920079052448273,-0.0128774493932724
1758274850865572000,2.719572021484375,-0.014901984483003616,0.13411332666873932,-0.04470302164554596
1758274850875528700,2.72952880859375,-0.016462329775094986,0.15126276016235352,-0.08253908157348633
1758274850885486800,2.73948681640625,-0.008384163491427898,0.17055310308933258,-0.11924703419208527
1758274850895444000,2.74944384765625,-0.006857639644294977,0.19694475829601288,-0.1487463414669037
1758274850905401900,2.75940185546875,-0.005381183233112097,0.21240893006324768,-0.17602695524692535
1758274850915359000,2.76935888671875,-0.005544701125472784,0.2265886664390564,-0.19699536263942719
1758274850925315800,2.77931591796875,-0.004820055328309536,0.24069969356060028,-0.20583705604076385
1758274850935274000,2.78927392578125,-0.0035145736765116453,0.2573377788066864,-0.19988541305065155
1758274850945230800,2.79923095703125,-0.002139050979167223,0.25795644521713257,-0.18469901382923126
1758274850955187700,2.809187744140625,0.0012290488230064511,0.24422039091587067,-0.16781936585903168
1758274850965145900,2.819145751953125,0.0013938985066488385,0.22557826340198517,-0.1528870165348053
1758274850975103000,2.82910302734375,0.0025917883031070232,0.19267331063747406,-0.14211958646774292
1758274850985060000,2.83906005859375,0.014385863207280636,0.09641575068235397,-0.10548727959394455
1758274850995018000,2.84901806640625,-0.0024469124618917704,0.13064083456993103,-0.11218272894620895
1758274851004974800,2.858974853515625,-0.005566272884607315,0.12473154813051224,-0.07478688657283783
1758274851014933000,2.86893310546875,-0.010205499827861786,0.12941817939281464,-0.029460154473781586
1758274851024889900,2.878889892578125,-0.01549187395721674,0.12725089490413666,0.015211443416774273
1758274851034847000,2.888846923828125,-0.020913537591695786,0.11300085484981537,0.046113431453704834
1758274851044804900,2.898804931640625,-0.02496660314500332,0.06937588006258011,0.04909617453813553
1758274851054762000,2.908761962890625,-0.02568911761045456,0.046730220317840576,0.06172967702150345
1758274851064718800,2.91871875,-0.034448519349098206,0.04592008888721466,0.07545747607946396
1758274851074677000,2.928677001953125,-0.054727159440517426,0.07315649837255478,0.0877961665391922
1758274851084633900,2.9386337890625,-0.06019116938114166,0.08396121114492416,0.09414514154195786
1758274851094591000,2.948591064453125,-0.022046979516744614,-0.003949468024075031,0.13107386231422424
1758274851104548900,2.958548828125,-0.04145796224474907,0.024339161813259125,0.08230952173471451
1758274851114506000,2.968506103515625,-0.06731991469860077,0.027232952415943146,0.02329360507428646
1758274851124462800,2.978462890625,-0.08871521800756454,-0.025792980566620827,-0.014511831104755402
1758274851134421000,2.9884208984375,-0.09823335707187653,-0.03121757321059704,-0.030353911221027374
1758274851144377900,2.9983779296875,-0.10488087683916092,-0.017100157216191292,-0.03331534564495087
1758274851154336000,3.0083359375,-0.10886362940073013,-0.03296088054776192,-0.043769318610429764
1758274851164292900,3.01829296875,-0.12259382754564285,-0.057671818882226944,-0.06616543978452682
1758274851174250000,3.02825,-0.14465385675430298,-0.08138513565063477,-0.08501822501420975
1758274851184208000,3.038207763671875,-0.16133776307106018,-0.11682328581809998,-0.10827960073947906
1758274851194165000,3.0481650390625,-0.1746988445520401,-0.14281414449214935,-0.13166162371635437
1758274851204121900,3.058121826171875,-0.18595361709594727,-0.15697284042835236,-0.1486848145723343
1758274851214079700,3.068079833984375,-0.1982739418745041,-0.15879124402999878,-0.1534406840801239
1758274851224036900,3.078036865234375,-0.2089359015226364,-0.16288664937019348,-0.1660957634449005
1758274851233994000,3.087993896484375,-0.22129377722740173,-0.16968943178653717,-0.18634457886219025
1758274851243951900,3.097951904296875,-0.22989365458488464,-0.17960225045681,-0.2182668149471283
1758274851253909000,3.107908935546875,-0.23561358451843262,-0.18843862414360046,-0.2520543336868286
1758274851263867000,3.117866943359375,-0.24289067089557648,-0.17596757411956787,-0.27660176157951355
1758274851273824000,3.127823974609375,-0.25079599022865295,-0.17262610793113708,-0.2943136394023895
1758274851283780900,3.13778076171875,-0.2557433545589447,-0.18955181539058685,-0.3145539462566376
1758274851293738800,3.14773876953125,-0.26030296087265015,-0.21839119493961334,-0.3436923921108246
1758274851303696000,3.15769580078125,-0.264912873506546,-0.23167210817337036,-0.37209421396255493
1758274851313653000,3.167653076171875,-0.268909752368927,-0.21647025644779205,-0.3839852213859558
1758274851323611100,3.177611083984375,-0.26923733949661255,-0.22072944045066833,-0.40199804306030273
1758274851333567700,3.187567626953125,-0.26655712723731995,-0.25141358375549316,-0.42729753255844116
1758274851343524900,3.19752490234375,-0.2575604319572449,-0.2679539620876312,-0.46374210715293884
1758274851353483000,3.20748291015625,-0.2435370236635208,-0.2696988582611084,-0.5038727521896362
1758274851363439900,3.21743994140625,-0.23344257473945618,-0.26488280296325684,-0.5537217855453491
1758274851373397000,3.22739697265625,-0.22703394293785095,-0.2492140829563141,-0.6001476049423218
1758274851383355000,3.23735498046875,-0.22116833925247192,-0.231363445520401,-0.6307494640350342
1758274851393312000,3.24731201171875,-0.21483613550662994,-0.15724128484725952,-0.6918109655380249
1758274851403270000,3.257269775390625,-0.2290896475315094,-0.10931424051523209,-0.7570434808731079
1758274851413226800,3.267226806640625,-0.22273586690425873,-0.08921536058187485,-0.8266451954841614
1758274851423184000,3.277183837890625,-0.19425176084041595,-0.07411923259496689,-0.8658480048179626
1758274851433142000,3.28714208984375,-0.16562224924564362,-0.11437131464481354,-0.8753322958946228
1758274851443099100,3.29709912109375,-0.12091124057769775,-0.2110363394021988,-0.9000986218452454
1758274851453055700,3.3070556640625,-0.08282830566167831,-0.339887797832489,-0.9376739859580994
1758274851463014000,3.317013916015625,-0.040876857936382294,-0.41392767429351807,-0.9722668528556824
1758274851472971000,3.326970947265625,-0.024390827864408493,-0.4484129548072815,-0.9984971284866333
1758274851482929000,3.336928955078125,-0.06143033877015114,-0.5038312077522278,-1.0236676931381226
1758274851492885800,3.3468857421875,-0.10318896919488907,-0.565610408782959,-1.055739402770996
1758274851502843000,3.3568427734375,-0.11941853910684586,-0.7044202089309692,-1.0684021711349487
1758274851512801000,3.366801025390625,-0.13587979972362518,-0.8780849575996399,-1.0814862251281738
1758274851522758000,3.3767578125,-0.1863541603088379,-0.9573816657066345,-1.1111304759979248
1758274851532714800,3.38671484375,-0.2765407860279083,-0.8751533627510071,-1.171047568321228
1758274851542673000,3.3966728515625,-0.3459611237049103,-0.8691609501838684,-1.185244083404541
1758274851552630000,3.406630126953125,-0.2999512851238251,-1.0502049922943115,-1.159820795059204
1758274851562587100,3.416587158203125,-0.23144440352916718,-1.2304022312164307,-1.1666152477264404
1758274851572544800,3.426544677734375,-0.20919929444789886,-1.3841465711593628,-1.1613401174545288
1758274851582502000,3.436501953125,-0.2304992526769638,-1.3817232847213745,-1.1867491006851196
1758274851592458500,3.44645849609375,-0.26683276891708374,-1.3700448274612427,-1.2337514162063599
1758274851602416600,3.456416748046875,-0.3012772798538208,-1.319504737854004,-1.2945303916931152
1758274851612373500,3.46637353515625,-0.33626750111579895,-1.1466434001922607,-1.3185145854949951
1758274851622331400,3.476331298828125,-0.376685231924057,-1.1139001846313477,-1.3014575242996216
1758274851632288500,3.48628857421875,-0.38009434938430786,-1.2275028228759766,-1.2769979238510132
1758274851642245600,3.49624560546875,-0.37820321321487427,-1.4097001552581787,-1.2804763317108154
1758274851652203500,3.50620361328125,-0.36483949422836304,-1.5859150886535645,-1.3330894708633423
1758274851662160400,3.516160400390625,-0.3266710638999939,-1.625930666923523,-1.4047024250030518
1758274851672117500,3.526117431640625,-0.3190120756626129,-1.6437445878982544,-1.3721040487289429
1758274851682075400,3.536075439453125,-0.3456934988498688,-1.6119799613952637,-1.3211548328399658
1758274851692032500,3.546032470703125,-0.3752971887588501,-1.482614517211914,-1.3032623529434204
1758274851701989400,3.5559892578125,-0.4148358106613159,-1.4429792165756226,-1.2865456342697144
1758274851711947500,3.565947509765625,-0.5141022205352783,-1.4291094541549683,-1.272811770439148
1758274851721904600,3.575904541015625,-0.6288570165634155,-1.3444797992706299,-1.299784541130066
1758274851731861500,3.585861572265625,-0.5937061905860901,-1.165664553642273,-1.3678154945373535
1758274851741819400,3.5958193359375,-0.5880104899406433,-0.9729928374290466,-1.4652408361434937
1758274851751776500,3.605776611328125,-0.6426916122436523,-0.892647922039032,-1.5112690925598145
1758274851761734400,3.615734375,-0.7309240102767944,-0.8712166547775269,-1.471415400505066
1758274851771691500,3.62569140625,-0.732676088809967,-0.9273611307144165,-1.358064889907837
1758274851781648400,3.6356484375,-0.6567370891571045,-1.0974111557006836,-1.2701501846313477
1758274851791606500,3.6456064453125,-0.5947086215019226,-1.203249216079712,-1.2525153160095215
1758274851801563400,3.6555634765625,-0.5859846472740173,-1.112255334854126,-1.312328577041626
1758274851811520500,3.6655205078125,-0.6038882732391357,-0.9914498329162598,-1.3936601877212524
1758274851821478700,3.675478759765625,-0.6092886328697205,-0.818901777267456,-1.4155185222625732
1758274851831435500,3.685435546875,-0.5817848443984985,-0.7176446914672852,-1.329215407371521
1758274851841392600,3.695392578125,-0.5593106746673584,-0.7776308059692383,-1.1872998476028442
1758274851851350500,3.7053505859375,-0.5490889549255371,-0.8835236430168152,-1.0949424505233765
1758274851861307400,3.715307373046875,-0.5800199508666992,-0.8871495723724365,-1.121216058731079
1758274851871264500,3.725264404296875,-0.6215208172798157,-0.7541694045066833,-1.2069368362426758
1758274851881222400,3.735222412109375,-0.6896865367889404,-0.627328634262085,-1.2486790418624878
1758274851891179500,3.745179443359375,-0.7053549885749817,-0.5555423498153687,-1.2027841806411743
1758274851901137700,3.7551376953125,-0.7091047167778015,-0.5420134663581848,-1.1355912685394287
1758274851911094500,3.765094482421875,-0.7063627243041992,-0.537742018699646,-1.1353002786636353
1758274851921051400,3.775051513671875,-0.7067925333976746,-0.3623869717121124,-1.177035927772522
1758274851931009500,3.785009521484375,-0.622696042060852,-0.4472864270210266,-1.1942071914672852
1758274851940966700,3.794966552734375,-0.5984242558479309,-0.5731596946716309,-1.1336439847946167
1758274851950923500,3.804923583984375,-0.5955302119255066,-0.7382218837738037,-1.115756630897522
1758274851960881400,3.81488134765625,-0.5926409363746643,-0.8893762230873108,-1.176290512084961
1758274851970838500,3.824838623046875,-0.5863971710205078,-0.8409556746482849,-1.259652018547058
1758274851980795400,3.83479541015625,-0.587876558303833,-0.6778717041015625,-1.268485426902771
1758274851990753500,3.84475341796875,-0.5830977559089661,-0.5225726366043091,-1.2370142936706543
1758274852000710400,3.85471044921875,-0.607151448726654,-0.4793298542499542,-1.1582521200180054
1758274852010667500,3.86466748046875,-0.6425539255142212,-0.5321261882781982,-1.1188466548919678
1758274852020625700,3.874625732421875,-0.5932164788246155,-0.5369731783866882,-1.0941791534423828
1758274852030582500,3.88458251953125,-0.587131679058075,-0.5918553471565247,-1.0531007051467896
1758274852040540400,3.89454052734375,-0.666779637336731,-0.7509480118751526,-1.0644428730010986
1758274852050497500,3.90449755859375,-0.6682416796684265,-0.7651879787445068,-1.1180599927902222
1758274852060454700,3.91445458984375,-0.6903717517852783,-0.7412139177322388,-1.141840934753418
1758274852070412300,3.924412353515625,-0.7192481756210327,-0.6474847793579102,-1.1383188962936401
1758274852080369400,3.934369384765625,-0.739395797252655,-0.6154205799102783,-1.135181188583374
1758274852090326500,3.944326416015625,-0.6944389343261719,-0.5452854037284851,-1.174787163734436
1758274852100284700,3.95428466796875,-0.6765766143798828,-0.4984380304813385,-1.1803079843521118
1758274852110241500,3.964241455078125,-0.675075113773346,-0.49430081248283386,-1.1480375528335571
1758274852120198400,3.974198486328125,-0.6472618579864502,-0.5190005302429199,-1.122113823890686
1758274852133891600,3.9878916015625,-0.5410781502723694,-0.4822731614112854,-1.1112854480743408
1758274852143848400,3.997848388671875,-0.4432964622974396,-0.5877444744110107,-1.082497477531433
1758274852153805600,4.0078056640625,-0.4383033215999603,-0.6857069730758667,-1.0542962551116943
1758274852163763500,4.017763427734375,-0.4575217366218567,-0.7939583659172058,-1.0279817581176758
1758274852173720600,4.027720458984375,-0.4468477964401245,-0.7122949361801147,-1.0271148681640625
1758274852183678500,4.037678466796875,-0.4494422674179077,-0.6376752853393555,-1.027370572090149
1758274852193635600,4.047635498046875,-0.5878560543060303,-0.6143220067024231,-0.9689493179321289
1758274852203592400,4.057592529296875,-0.5610715746879578,-0.6472770571708679,-0.9794150590896606
1758274852213550600,4.067550537109375,-0.4678649306297302,-0.615367591381073,-0.956828773021698
1758274852223507500,4.077507568359375,-0.36424240469932556,-0.588402271270752,-0.9526694416999817
1758274852233464600,4.087464599609375,-0.3533066511154175,-0.5916007161140442,-0.9645668268203735
1758274852243422500,4.09742236328125,-0.3502062261104584,-0.6145851612091064,-0.9586546421051025
1758274852253379600,4.107379638671875,-0.36271029710769653,-0.6163681149482727,-0.9794488549232483
1758274852263336400,4.11733642578125,-0.3984488546848297,-0.5579125285148621,-1.0180511474609375
1758274852273294300,4.12729443359375,-0.41583529114723206,-0.4905689060688019,-1.0148944854736328
1758274852283251500,4.13725146484375,-0.43150851130485535,-0.4460214078426361,-1.0242406129837036
1758274852293208600,4.14720849609375,-0.4278844892978668,-0.42165428400039673,-1.0378599166870117
1758274852303166500,4.15716650390625,-0.42870447039604187,-0.4358731806278229,-1.0173616409301758
1758274852313123600,4.16712353515625,-0.4363677203655243,-0.44402432441711426,-1.0166406631469727
1758274852323080400,4.17708056640625,-0.4511019289493561,-0.41451624035835266,-1.013250470161438
1758274852333038600,4.18703857421875,-0.46223369240760803,-0.36941346526145935,-1.0090069770812988
1758274852342995500,4.196995361328125,-0.47329723834991455,-0.3314756751060486,-1.019821047782898
1758274852352953300,4.206953369140625,-0.5268531441688538,-0.33833223581314087,-1.033335566520691
1758274852362910500,4.216910400390625,-0.46030208468437195,-0.3162056505680084,-1.0758590698242188
1758274852372867600,4.22686767578125,-0.3982115685939789,-0.35880395770072937,-1.0781687498092651
1758274852382825500,4.236825439453125,-0.37635791301727295,-0.4549722969532013,-1.0494405031204224
1758274852392782300,4.2467822265625,-0.36545655131340027,-0.487569123506546,-1.0001722574234009
1758274852402739500,4.256739501953125,-0.35665667057037354,-0.4655948579311371,-0.8974008560180664
1758274852412697600,4.266697509765625,-0.4432370960712433,-0.533253014087677,-0.7266930341720581
1758274852422654500,4.276654541015625,-0.36344531178474426,-0.5318455100059509,-0.5208184123039246
1758274852432611600,4.286611572265625,-0.2338114231824875,-0.5390619039535522,-0.2668095827102661
1758274852442569500,4.296569580078125,-0.06793937087059021,-0.6326094269752502,-0.046248190104961395
1758274852452526600,4.306526611328125,0.04072479158639908,-0.5167544484138489,0.0667707771062851
1758274852462483500,4.3164833984375,-0.0222720168530941,-0.24971768260002136,0.09813402593135834
1758274852472441300,4.32644140625,-0.2124885618686676,0.08167089521884918,0.12167929857969284
1758274852482398500,4.3363984375,-0.2968332767486572,0.3517457842826843,0.16739405691623688
1758274852492355600,4.34635546875,-0.24143925309181213,0.4225320816040039,0.21291279792785645
1758274852502313500,4.3563134765625,-0.15146276354789734,0.3060981333255768,0.204391747713089
1758274852512270300,4.366270263671875,-0.11080002039670944,0.20100820064544678,0.16015104949474335
1758274852522228500,4.376228515625,-0.145699143409729,0.09698539972305298,0.10844898223876953
1758274852532185600,4.386185546875,-0.19972829520702362,0.12448866665363312,0.07270589470863342
1758274852542142500,4.396142578125,-0.20858196914196014,0.20537632703781128,0.052741773426532745
1758274852552100400,4.406100341796875,-0.17859716713428497,0.21137775480747223,0.04721571505069733
1758274852562057500,4.416057373046875,-0.1246308758854866,0.12868846952915192,0.056715477257966995
1758274852572014600,4.4260146484375,-0.05421290546655655,0.13543479144573212,0.056051552295684814
1758274852581972500,4.435972412109375,0.002168345730751753,0.17524905502796173,0.04930443316698074
1758274852591929300,4.445929443359375,0.042868636548519135,0.1731819063425064,0.04941761866211891
1758274852601886700,4.45588671875,0.08276651799678802,0.1526699662208557,0.029621008783578873
1758274852611844900,4.465844970703125,0.13294659554958344,0.22870907187461853,0.026880349963903427
1758274852621801700,4.4758017578125,0.151937335729599,0.2592773735523224,0.04039962217211723
1758274852631760000,4.485759765625,0.13841512799263,0.20367082953453064,0.05133455991744995
1758274852641716700,4.495716796875,0.11742569506168365,0.1026398241519928,0.057788997888565063
1758274852651673900,4.505673828125,0.10238496214151382,0.019836289808154106,0.04993613436818123
1758274852661631700,4.5156318359375,0.08132974058389664,-0.020079702138900757,0.034273285418748856
1758274852671588900,4.5255888671875,0.05693652108311653,-0.024480309337377548,0.01985892653465271
1758274852681545700,4.535545654296875,0.03236433118581772,-0.01576697826385498,0.02178226038813591
1758274852691503900,4.54550390625,0.023382553830742836,-0.04065981134772301,0.02484862506389618
1758274852701460700,4.555460693359375,0.02706996724009514,-0.06173393875360489,0.030427947640419006
1758274852711417600,4.56541748046875,0.016292953863739967,-0.07994916290044785,0.03344237804412842
1758274852721375700,4.575375732421875,-0.008489890955388546,-0.09866106510162354,0.023962590843439102
1758274852731332900,4.585332763671875,-0.040225982666015625,-0.10578981041908264,0.00774766830727458
1758274852741289700,4.595289794921875,-0.07543137669563293,-0.07913237065076828,-0.006675213109701872
1758274852751248000,4.605247802734375,-0.09738674014806747,-0.008262457326054573,-0.0043923514895141125
1758274852761204700,4.615204833984375,-0.10651392489671707,0.06409695744514465,0.007754858583211899
1758274852771162600,4.62516259765625,-0.10578635334968567,0.08778204768896103,0.023864053189754486
1758274852781119700,4.63511962890625,-0.10843246430158615,0.037279460579156876,0.05878262221813202
1758274852791076900,4.645076904296875,-0.10747212916612625,-0.034979820251464844,0.12821443378925323
1758274852801034800,4.65503466796875,-0.12060098350048065,-0.08996770530939102,0.21688944101333618
1758274852810991900,4.664991943359375,-0.18891187012195587,-0.02521028183400631,0.17205645143985748
1758274852820948700,4.67494873046875,-0.22013290226459503,0.07811184227466583,0.07665269821882248
1758274852830907000,4.684906982421875,-0.22317342460155487,0.2041826993227005,0.0025744778104126453
1758274852840863700,4.69486376953125,-0.20054428279399872,0.24703454971313477,-0.02736903913319111
1758274852850820900,4.70482080078125,-0.14632152020931244,0.19278809428215027,-0.018035726621747017
1758274852860778800,4.71477880859375,-0.09377096593379974,0.09305963665246964,-0.0054243262857198715
1758274852870736000,4.72473583984375,-0.05458521470427513,-0.002237854292616248,-0.014031130820512772
1758274852880693800,4.73469384765625,-0.027249731123447418,-0.05981939285993576,-0.03710848465561867
1758274852890650600,4.744650634765625,0.0006609965930692852,-0.07647400349378586,-0.050219494849443436
1758274852900607700,4.754607666015625,0.025543710216879845,-0.06614226847887039,-0.039145272225141525
1758274852910566000,4.76456591796875,0.046725694090127945,-0.04063424468040466,-0.023685887455940247
1758274852920522800,4.774522705078125,0.0740278884768486,0.01133894082158804,-0.01744263991713524
1758274852930479900,4.78447998046875,0.0966074988245964,0.09092964231967926,-0.04571369290351868
1758274852940437800,4.794437744140625,0.09863150119781494,0.097169429063797,-0.06891435384750366
1758274852950395000,4.804394775390625,0.09668845683336258,0.06335287541151047,-0.07456424832344055
1758274852960351700,4.814351806640625,0.09434354305267334,0.04219858720898628,-0.06513825803995132
1758274852970309600,4.8243095703125,0.08280327171087265,-0.020600616931915283,-0.03815697133541107
1758274852980266800,4.834266845703125,0.0721341148018837,-0.09605702757835388,-0.005011270288378
1758274852990225000,4.844224853515625,0.05691707879304886,-0.12577417492866516,0.01386681292206049
1758274853000181800,4.854181640625,0.035099130123853683,-0.10626199096441269,0.0026162895374000072
1758274853010138600,4.864138671875,0.01948421820998192,-0.03852768614888191,-0.025721075013279915
1758274853020096800,4.8740966796875,0.01817793771624565,0.07188457250595093,-0.033193640410900116
1758274853030054000,4.884053955078125,0.01200845930725336,0.16722813248634338,0.0036573191173374653
1758274853040010800,4.8940107421875,-0.003840544493868947,0.23954707384109497,0.03675268962979317
1758274853049968600,4.90396875,-0.025524267926812172,0.20518511533737183,0.06060715392231941
1758274853059925800,4.91392578125,-0.034026674926280975,0.14453667402267456,0.04554458335042
1758274853069883000,4.9238828125,-0.032993901520967484,0.12079112976789474,-0.0008098672842606902
1758274853079841000,4.933841064453125,-0.033598706126213074,0.11407250910997391,-0.048881255090236664
1758274853089797600,4.943797607421875,-0.03616119921207428,0.11016672104597092,-0.07586626708507538
1758274853099755800,4.953755859375,-0.03532816469669342,0.09300397336483002,-0.055697884410619736
1758274853109713000,4.963712890625,-0.03668930381536484,0.09210196137428284,-0.018638931214809418
1758274853119669800,4.973669677734375,-0.03915192931890488,0.09616222232580185,0.012035357765853405
1758274853129627600,4.983627685546875,-0.03345436230301857,0.07541805505752563,0.046005841344594955
1758274853139584800,4.993584716796875,-0.028499817475676537,0.04474989324808121,0.03502749279141426
1758274853149542000,5.0035419921875,-0.023788420483469963,0.029833262786269188,0.01380902249366045
1758274853159499800,5.013499755859375,-0.019165439531207085,0.004249339923262596,-0.0007552724564447999
1758274853169456600,5.02345654296875,-0.015968047082424164,-0.03267458826303482,-0.003968642558902502
1758274853179413800,5.033413818359375,-0.01378345675766468,-0.05667206645011902,0.006471747532486916
1758274853189372000,5.043371826171875,-0.01384071446955204,-0.05342620611190796,0.020482372492551804
1758274853199329000,5.0533291015625,-0.0108886007219553,-0.041836928576231,0.025903236120939255
1758274853209286700,5.06328662109375,-0.0013560815714299679,-0.02736903913319111,0.015684153884649277
1758274853219243800,5.073243896484375,0.00452870549634099,-0.008404137566685677,-0.008292018435895443
1758274853229201000,5.083200927734375,0.010520018637180328,-0.006427805405110121,-0.02617407962679863
1758274853239158800,5.09315869140625,0.012901151552796364,-0.01642105169594288,-0.026707511395215988
1758274853249115600,5.10311572265625,0.020714333280920982,-0.007733819540590048,-0.017163807526230812
1758274853259072800,5.11307275390625,0.024879250675439835,0.007392402272671461,-0.010841196402907372
1758274853269031000,5.123031005859375,0.02189730852842331,0.02311757020652294,-0.007326888851821423
1758274853278987800,5.13298779296875,0.017582988366484642,0.032644230872392654,-0.00595536082983017
1758274853288944600,5.142944580078125,0.01519040483981371,0.045099832117557526,-0.006330333650112152
1758274853298902800,5.15290283203125,0.01284788828343153,0.04842212796211243,-0.003340935567393899
1758274853308860000,5.16285986328125,0.01079725380986929,0.03880305588245392,0.0036429380998015404
1758274853318817800,5.17281787109375,0.000031158982892520726,0.03758625686168671,0.009032643400132656
1758274853328774700,5.182774658203125,-0.008717857301235199,0.027298731729388237,0.006827812176197767
1758274853338731800,5.192731689453125,-0.0043928842060267925,0.045410092920064926,-0.007779359817504883
1758274853348690000,5.20268994140625,-0.0011491540353745222,0.05405205115675926,-0.015867380425333977
1758274853358646800,5.212646728515625,0.004005128052085638,0.05212445557117462,-0.017120130360126495
1758274853368603600,5.222603759765625,0.010282198898494244,0.03927789628505707,-0.014300642535090446
1758274853378561800,5.232561767578125,0.015414908528327942,0.02352210320532322,-0.00615110294893384
1758274853388519000,5.242518798828125,0.01569906808435917,0.011688081547617912,0.007589742541313171
1758274853398475800,5.252475830078125,0.009580189362168312,0.01270141452550888,0.013244965113699436
1758274853408433700,5.26243359375,-0.000032490566809428856,0.01877342164516449,0.012797554023563862
1758274853418390800,5.272390869140625,-0.003291134489700198,0.023730363696813583,0.010660367086529732
1758274853428348700,5.2823486328125,-0.002642388455569744,0.018692994490265846,0.00046578687033616006
1758274853438305800,5.292305908203125,0.0014791196445003152,0.012562130577862263,-0.01110644731670618
1758274853448262700,5.3022626953125,0.008872587233781815,0.003849865635856986,-0.018510034307837486
1758274853458220800,5.312220703125,0.01227397657930851,-0.0033161682076752186,-0.01498054713010788
1758274853468178000,5.322177978515625,0.011630291119217873,-0.009379120543599129,-0.014002900570631027
1758274853478134800,5.332134765625,0.008708802983164787,-0.007720503956079483,-0.01104599330574274
1758274853488093000,5.342093017578125,0.006213154643774033,-0.0008277104352600873,-0.002965163439512253
1758274853498049800,5.3520498046875,0.003698864486068487,0.0031129689887166023,0.002867691917344928
1758274853508007000,5.3620068359375,0.0026341325137764215,0.011598066426813602,0.0012572783743962646
1758274853517964800,5.37196484375,0.004738030023872852,0.01805783063173294,-0.002094576135277748
1758274853527921700,5.381921630859375,0.005873601883649826,0.018155833706259727,-0.007711981888860464
1758274853537879800,5.3918798828125,0.003656520042568445,0.018130267038941383,-0.011906194500625134
1758274853547836700,5.401836669921875,0.0012053466634824872,0.020307933911681175,-0.017243169248104095
1758274853557793800,5.411793701171875,-0.001416002749465406,0.01426389068365097,-0.0216006338596344
1758274853567752000,5.421751953125,-0.0018309232546016574,0.008081362582743168,-0.018370484933257103
1758274853577708800,5.431708740234375,0.000553404854144901,0.006292516831308603,-0.015272430144250393
1758274853587666000,5.441666015625,0.003762513864785433,0.015320366248488426,-0.010588196106255054
1758274853597624000,5.4516240234375,0.00649784691631794,0.019418705254793167,-0.0019630161114037037
1758274853607581200,5.461581298828125,0.009249158203601837,0.023503195494413376,0.0033633061684668064
1758274853617538300,5.471538330078125,0.014119015075266361,0.024109330028295517,0.0022679478861391544
1758274853627496000,5.481495849609375,0.01600213535130024,0.024656344205141068,-0.0035230957437306643
1758274853637453000,5.491453125,0.01347666047513485,0.020909009501338005,-0.009940248914062977
1758274853647411200,5.5014111328125,0.014968030154705048,0.011295530945062637,-0.01341807097196579
1758274853657368000,5.5113681640625,0.017017332836985588,0.01353365182876587,-0.012313923798501492
1758274853667325000,5.521324951171875,0.019302325323224068,0.02889396622776985,-0.006895989179611206
1758274853677283000,5.531282958984375,0.01817793771624565,0.05379505455493927,-0.01133840810507536
1758274853687240200,5.541240234375,0.013188240118324757,0.08081069588661194,-0.011924037709832191
1758274853697197300,5.551197265625,0.006161755882203579,0.09121060371398926,-0.012021775357425213
1758274853707155200,5.5611552734375,0.004305532667785883,0.07170721143484116,-0.009678992442786694
1758274853717112000,5.571112060546875,0.006937268190085888,0.03115898370742798,-0.007812915369868279
1758274853727069200,5.581069091796875,0.009150621481239796,-0.0041460092179477215,-0.010175672359764576
1758274853737027000,5.591027099609375,0.017967015504837036,-0.013789315707981586,-0.00344559783115983
1758274853746984000,5.60098388671875,0.01708550937473774,-0.002808303339406848,0.009491506032645702
1758274853756941000,5.610941162109375,0.00447038235142827,0.008579107001423836,0.0022234732750803232
1758274853766899200,5.620899169921875,-0.00009321063407696784,0.009621202014386654,-0.004244279582053423
1758274853776856000,5.63085595703125,-0.013966149650514126,-0.0036272252909839153,0.004206196404993534
1758274853786814200,5.640814208984375,0.006359628401696682,-0.005820604972541332,0.0019286612514406443
1758274853796771000,5.65077099609375,0.017532920464873314,-0.02015187405049801,0.00439048744738102
1758274853806728200,5.660728271484375,0.011669439263641834,-0.012288890779018402,-0.005853894166648388
1758274853816686000,5.67068603515625,-0.0033417344093322754,0.004215517546981573,-0.008649414405226707
1758274853826643200,5.680643310546875,-0.006321545224636793,0.026791134849190712,-0.007752728182822466
1758274853836600000,5.69060009765625,-0.001100684516131878,0.019122028723359108,0.006137787364423275
1758274853846558200,5.70055810546875,0.001116130850277841,0.014124341309070587,0.007160174660384655
1758274853856515000,5.71051513671875,0.007013434544205666,0.012460663914680481,0.0029411951545625925
1758274853866472000,5.720471923828125,0.004428037907928228,0.0076214345172047615,-0.0041734399273991585
1758274853876430000,5.73043017578125,0.005480252671986818,0.002969424705952406,-0.01477335300296545
1758274853886387200,5.74038720703125,0.009273126721382141,-0.00595456175506115,-0.01683890074491501
1758274853896344000,5.750343994140625,0.014110492542386055,-0.010654241777956486,-0.007790012285113335
1758274853906302200,5.76030224609375,0.018263159319758415,-0.010782074183225632,0.004808337427675724
1758274853916259000,5.770259033203125,0.015140869654715061,0.0016460998449474573,0.007846738211810589
1758274853926216200,5.78021630859375,0.012582637369632721,0.012563196010887623,0.005940713454037905
1758274853936174000,5.790174072265625,0.009342635050415993,0.01901150867342949,-0.003540672594681382
1758274853946131200,5.800131103515625,-0.0012274509062990546,0.048711877316236496,-0.027062511071562767
1758274853956089000,5.810089111328125,0.006672816351056099,0.004973187111318111,-0.01601092517375946
1758274853966046200,5.820046142578125,0.011452658101916313,0.003168362658470869,-0.010615626350045204
1758274853976003000,5.830003173828125,0.012945892289280891,0.004160656593739986,-0.001892175991088152
1758274853985961200,5.839961181640625,0.011957060545682907,0.006029130425304174,0.001668736687861383
1758274853995918000,5.84991796875,0.012510465458035469,0.012092082761228085,-0.0026112294290214777
1758274854005875200,5.859875244140625,0.011424428783357143,0.014935540035367012,-0.004394215997308493
1758274854015833000,5.8698330078125,0.00860307551920414,0.010232130996882915,-0.007141000125557184
1758274854025790200,5.879790283203125,0.00806351937353611,0.005840844940394163,-0.010644388385117054
1758274854035747000,5.8897470703125,0.006974552292376757,-0.0015494271647185087,-0.014516358263790607
1758274854045705000,5.899705078125,0.007110639940947294,0.0031105722300708294,-0.012959208339452744
1758274854055662000,5.909662109375,0.007022755686193705,0.004059189930558205,-0.007242732681334019
1758274854065619200,5.919619140625,0.007911186665296555,0.006632869131863117,-0.0038980687968432903
1758274854075577000,5.9295771484375,0.010464625433087349,0.010493387468159199,-0.005579588934779167
1758274854085534200,5.9395341796875,0.010342651978135109,0.006682936567813158,-0.00968804769217968
1758274854095492000,5.9494921875,0.008665659464895725,0.009400958195328712,-0.013554691337049007
1758274854105449200,5.95944921875,0.007866444997489452,0.009224656969308853,-0.006231796927750111
1758274854115406000,5.969406005859375,0.0032959282398223877,0.013422065414488316,-0.00436039362102747
1758274854125364000,5.979364013671875,0.00027616979787126184,0.018247447907924652,-0.0067963870242238045
1758274854135321000,5.989321044921875,-0.0028692898340523243,0.014595188200473785,-0.005949235521256924
1758274854145278200,5.9992783203125,-0.005423794034868479,0.014754178933799267,0.0018066884949803352
1758274854155236000,6.009236083984375,-0.008932242169976234,0.005920207127928734,0.0024863271974027157
1758274854165193000,6.01919287109375,-0.01236532349139452,0.0022501046769320965,-0.006419016979634762
1758274854175150000,6.029150146484375,-0.009069128893315792,0.006044310517609119,-0.009374593384563923
1758274854185108200,6.039108154296875,-0.004119643941521645,0.011224957183003426,-0.004221110139042139
1758274854195065000,6.049065185546875,0.0004069310089107603,0.015720373019576073,0.0012314456980675459
1758274854205022200,6.059022216796875,0.0015030881622806191,0.015423697419464588,-0.00012623383372556418
1758274854214980000,6.06897998046875,-0.00028069718973711133,0.01774943619966507,0.0030511836521327496
1758274854224937200,6.078937255859375,-0.0025712819769978523,0.01187823060899973,0.00797403696924448
1758274854234894000,6.08889404296875,-0.006601443514227867,0.012048939242959023,0.0068331388756632805
1758274854244852000,6.09885205078125,-0.0073540532030165195,0.015156581997871399,0.0011576761025935411
1758274854254809000,6.10880908203125,-0.007269097957760096,0.018671687692403793,-0.0023132218047976494
1758274854264766200,6.11876611328125,-0.0035329493694007397,0.02069702185690403,-0.006307430565357208
1758274854274724000,6.12872412109375,-0.0024402544368058443,0.02136148139834404,-0.005155880004167557
1758274854284681000,6.138680908203125,0.0016338493442162871,0.015306518413126469,0.00299286050722003
1758274854294639000,6.14863916015625,0.004489024169743061,0.014101704582571983,0.012534433975815773
1758274854304596200,6.15859619140625,0.0028690234757959843,0.01595047116279602,0.010674215853214264
1758274854314553000,6.168552978515625,-0.0012412993237376213,0.01757206954061985,0.0076217008754611015
1758274854324511000,6.178510986328125,-0.00045140579459257424,0.015086540952324867,0.003896470880135894
1758274854334468000,6.188468017578125,0.0004386226355563849,0.011671570129692554,0.0026961842086166143
1758274854344425200,6.19842529296875,0.001166198286227882,0.007475759368389845,0.002697782125324011
1758274854354383000,6.208383056640625,0.001645300886593759,0.006463491823524237,-0.000660463934764266
1758274854364340000,6.218340087890625,0.00021944446780253202,0.006491455249488354,-0.0032107068691402674
1758274854374297000,6.228297119140625,0.00041305628838017583,0.0032653016969561577,-0.008815329521894455
1758274854384255200,6.238255126953125,0.0007238471880555153,-0.002681004349142313,-0.011061972007155418
1758274854394212000,6.248212158203125,-0.0007355650886893272,-0.0038959383964538574,-0.00640809815376997
1758274854404169000,6.2581689453125,0.0008458199445158243,-0.004817924462258816,-0.008111456409096718
1758274854414127000,6.268127197265625,0.0008045409340411425,-0.009937318973243237,-0.013348029926419258
1758274854424084200,6.278084228515625,0.002213885774835944,-0.00960042979568243,-0.017733989283442497
1758274854434041000,6.288041015625,0.0026160231791436672,-0.0057617491111159325,-0.019299661740660667
1758274854443999000,6.2979990234375,-0.00012916330888401717,0.004743356257677078,-0.018922558054327965
1758274854453956000,6.3079560546875,-0.0013193299528211355,0.016932910308241844,-0.011927765794098377
1758274854463913200,6.317913330078125,-0.003356115659698844,0.020749486982822418,-0.002163019496947527
1758274854473871000,6.32787109375,-0.00501180300489068,0.015802131965756416,0.0024895230308175087
1758274854483828000,6.337827880859375,-0.0023907197173684835,0.011096326634287834,0.0018053569365292788
1758274854493786000,6.3477861328125,-0.0019371833186596632,0.007860053330659866,-0.001874066423624754
1758274854503743200,6.3577431640625,-0.0010780475568026304,0.00606401776894927,-0.008551410399377346
1758274854513700000,6.3677001953125,-0.0023555660154670477,0.011758655309677124,-0.01762959361076355
1758274854523658000,6.377657958984375,0.0018271948210895061,0.00905900914222002,-0.019156916067004204
1758274854533615000,6.387614990234375,0.0019867182709276676,0.0012191950809210539,-0.00908457487821579
1758274854543572200,6.397572265625,0.00504056503996253,-0.0025241440162062645,-0.0026471822056919336
1758274854553530000,6.407530029296875,0.004176901653409004,-0.0023457121569663286,0.0064863949082791805
1758274854563487000,6.417487060546875,0.00367143377661705,0.005418733693659306,0.008655539713799953
1758274854573444000,6.427444091796875,0.0024855281226336956,0.013552826829254627,0.004210990387946367
1758274854583402200,6.43740234375,0.0013840447645634413,0.012808206491172314,0.001749430550262332
1758274854593359000,6.447359130859375,0.0013723268639296293,0.0051747881807386875,-0.004953745752573013
1758274854603316200,6.457316162109375,0.001999767730012536,0.0025329324416816235,-0.005633384454995394
1758274854613274400,6.4672744140625,0.0013587448047474027,-0.0015219965716823936,-0.005282113794237375
1758274854623231200,6.477231201171875,0.00021198761533014476,-0.0022514364682137966,-0.006655772216618061
1758274854633188400,6.487188232421875,-0.0010410296963527799,0.003832022426649928,-0.004641090985387564
1758274854643146200,6.497146240234375,-0.0009651295840740204,0.009256082586944103,-0.0017603494925424457
1758274854653103400,6.507103271484375,-0.003909253980964422,0.009133044630289078,-0.0015816513914614916
1758274854663060200,6.517060302734375,-0.005301821045577526,0.003226952161639929,-0.0007267766632139683
1758274854673018000,6.52701806640625,-0.0029081718530505896,-0.001999501371756196,-0.0006993460701778531
1758274854682975200,6.536975341796875,-0.0018849853659048676,-0.003224022686481476,-0.006302903406322002
1758274854692932000,6.54693212890625,-0.005091431550681591,-0.004357996862381697,-0.00953651312738657
1758274854702890200,6.55689013671875,-0.004373176954686642,-0.006909305229783058,-0.011455853469669819
1758274854712847400,6.566847412109375,0.002122006844729185,-0.008271511644124985,-0.013050820678472519
1758274854722805200,6.57680517578125,0.002731071785092354,-0.007849400863051414,-0.00848456472158432
1758274854732762400,6.586762451171875,0.0010050770360976458,-0.0023939155507832766,0.00009693906031316146
1758274854742719200,6.59671923828125,0.00021305288828443736,0.002825613832101226,-0.0017512947088107467
1758274854752677000,6.606677001953125,-0.0014855111949145794,0.010490457527339458,-0.004596616141498089
1758274854762634200,6.61663427734375,-0.0022477079182863235,0.016714798286557198,-0.007700796704739332
1758274854772591400,6.62659130859375,-0.0013156015193089843,0.014281467534601688,-0.005775064695626497
1758274854782549200,6.63654931640625,-0.0003683151735458523,0.008952216245234013,-0.00740358792245388
1758274854792506000,6.646506103515625,0.0017241304740309715,0.0007179882377386093,-0.008523712866008282
1758274854802463200,6.656463134765625,0.0008607336785644293,-0.0002972087822854519,-0.006170011591166258
1758274854812421400,6.66642138671875,-0.0015195996966212988,0.0008173241512849927,-0.002406965009868145
1758274854822378200,6.676378173828125,-0.005530320107936859,0.00917299184948206,-0.0033891387283802032
1758274854832335400,6.68633544921875,-0.005105013493448496,0.01888980157673359,-0.0008282430935651064
1758274854842293200,6.696293212890625,-0.0030125677585601807,0.02159450761973858,0.003001648932695389
1758274854852250400,6.70625048828125,-0.000176301269675605,0.018198445439338684,0.002368349116295576
1758274854862207200,6.716207275390625,0.0016951019642874599,0.007253119256347418,0.0007363640470430255
1758274854872165000,6.7261650390625,0.0014319816837087274,-0.004355067387223244,-0.0034386736806482077
1758274854882122200,6.736122314453125,0.0020639498252421618,-0.011831891722977161,-0.0067961206659674644
1758274854892079400,6.746079345703125,0.004013916477560997,-0.01804238371551037,-0.010788199491798878
1758274854902037200,6.756037353515625,0.002639192622154951,-0.016861271113157272,-0.011155448853969574
1758274854911994000,6.765994140625,0.000702009245287627,-0.013500362634658813,-0.008762066252529621
1758274854921951200,6.775951171875,-0.0017755294684320688,-0.013849502429366112,-0.006897320970892906
1758274854931909400,6.785909423828125,-0.0018311894964426756,-0.019571837037801743,-0.002683667466044426
1758274854941866200,6.7958662109375,-0.004101800732314587,-0.02984258346259594,-0.0008029430755414069
1758274854951823400,6.8058232421875,-0.0019542276859283447,-0.025525866076350212,0.004060255363583565
1758274854961781200,6.81578125,-0.0016077503096312284,-0.0054762582294642925,0.009238239377737045
1758274854971738400,6.82573828125,-0.004990231245756149,0.008991098031401634,0.00869149249047041
1758274854981696300,6.8356962890625,-0.008113053627312183,0.01465564128011465,0.0016860472969710827
1758274854991653000,6.845653076171875,-0.003964914008975029,0.011000453494489193,-0.005306880921125412
1758274855001610200,6.8556103515625,0.0017307883827015758,0.005277053453028202,-0.001371794263832271
1758274855011568400,6.865568359375,0.004170776344835758,0.007477623876184225,-0.0018082864116877317
1758274855021525200,6.875525146484375,0.0020519655663520098,0.019111109897494316,-0.005604622419923544
1758274855031482000,6.885482177734375,-0.0015366439474746585,0.03020184487104416,-0.009634784422814846
1758274855041440300,6.895440185546875,-0.003905259305611253,0.02786039374768734,-0.006524212192744017
1758274855051397400,6.9053974609375,-0.0033846113365143538,0.015146195888519287,-0.005528988782316446
1758274855061354200,6.915354248046875,-0.0005139900604262948,0.0034916705917567015,-0.0060118199326097965
1758274855071312100,6.92531201171875,0.00027563716867007315,0.002162486780434847,-0.008619054220616817
1758274855081269200,6.935269287109375,0.001996039180085063,0.006471747532486916,-0.010742392390966415
1758274855091226400,6.945226318359375,-0.00013502225920092314,0.01239461824297905,-0.014327273704111576
1758274855101184300,6.955184326171875,-0.0008396946941502392,0.008825182914733887,-0.019890351220965385
1758274855111141000,6.96514111328125,-0.00330258603207767,0.004218447022140026,-0.02028716169297695
1758274855121098200,6.97509814453125,-0.0018953717080876231,0.006410761270672083,-0.013354155234992504
1758274855131056400,6.985056396484375,0.0027891285717487335,0.0011430287268012762,-0.013075321912765503
1758274855141013200,6.99501318359375,0.005550027824938297,-0.017413876950740814,-0.018545987084507942
1758274855150970000,7.00497021484375,-0.005452822428196669,-0.011447864584624767,-0.03711887449026108
1758274855160928300,7.01492822265625,-0.012259862385690212,-0.04904903471469879,-0.03753219544887543
1758274855170885400,7.024885498046875,-0.07675256580114365,-0.043709397315979004,-0.032228510826826096
1758274855180842200,7.03484228515625,-0.06577741354703903,-0.03190600126981735,-0.03976152837276459
1758274855190800100,7.044800048828125,-0.05095159634947777,-0.024533571675419807,-0.02990809828042984
1758274855200757200,7.05475732421875,-0.0404781848192215,-0.006888266187161207,-0.017495369538664818
1758274855210714400,7.06471435546875,-0.039726372808218,0.025729332119226456,-0.009122658520936966
1758274855220672300,7.07467236328125,-0.04981070011854172,0.08971710503101349,-0.007768707349896431
1758274855230629000,7.084629150390625,-0.10334369540214539,0.1487617790699005,0.0031731564085930586
1758274855240586200,7.094586181640625,-0.08824916929006577,0.12739551067352295,-0.013937386684119701
1758274855250544400,7.10454443359375,-0.05751416087150574,0.09613292664289474,-0.014698784798383713
1758274855260501200,7.114501220703125,-0.03130599111318588,0.06825894862413406,-0.023735688999295235
1758274855270458000,7.1244580078125,-0.017720939591526985,0.0666155144572258,-0.03939694166183472
1758274855280416300,7.134416259765625,-0.023983363062143326,0.09113017469644547,-0.05560706928372383
1758274855290373400,7.144373291015625,-0.040655285120010376,0.1287398636341095,-0.0703338161110878
1758274855300331300,7.154331298828125,-0.039507195353507996,0.14814046025276184,-0.07299911230802536
1758274855310288100,7.1642880859375,-0.04421566426753998,0.15584392845630646,-0.06510177254676819
1758274855320245200,7.174245361328125,-0.05113881826400757,0.14399366080760956,-0.05655036121606827
1758274855330203400,7.184203369140625,-0.05856717377901077,0.11594897508621216,-0.05446723476052284
1758274855340160300,7.19416015625,-0.06504105031490326,0.06856201589107513,-0.0585906095802784
1758274855350117000,7.2041171875,-0.07499434798955917,0.028654281049966812,-0.059729110449552536
1758274855360075300,7.2140751953125,-0.0849311351776123,0.017194965854287148,-0.054847002029418945
1758274855370032400,7.224032470703125,-0.0922447070479393,0.043483562767505646,-0.037521809339523315
1758274855379989200,7.2339892578125,-0.094957135617733,0.081870898604393,-0.010852914303541183
1758274855389947100,7.243947021484375,-0.09199544042348862,0.07170747965574265,0.018758773803710938
1758274855399904300,7.253904296875,-0.0908777117729187,0.0009989517275243998,0.04409821704030037
1758274855409861400,7.263861328125,-0.07142651081085205,-0.061826083809137344,0.06091208755970001
1758274855419819300,7.2738193359375,-0.026693928986787796,-0.10550379008054733,0.058750398457050323
1758274855429776100,7.283776123046875,0.019095396623015404,-0.13165949285030365,0.04246943071484566
1758274855439733200,7.293733154296875,0.0417059026658535,-0.12150166183710098,0.026798591017723083
1758274855449691400,7.30369140625,0.07399539649486542,-0.09617447108030319,0.014535000547766685
1758274855459648300,7.313648193359375,0.10832887142896652,-0.0660269558429718,0.019841348752379417
1758274855469605000,7.323605224609375,0.11666722595691681,-0.051665857434272766,0.034324150532484055
1758274855479563300,7.333563232421875,0.1728290319442749,-0.05194548889994621,0.06283435225486755
1758274855489520400,7.343520263671875,0.20520827174186707,-0.13699060678482056,0.11636415868997574
1758274855499477200,7.353477294921875,0.20877131819725037,-0.22272522747516632,0.16199663281440735
1758274855509435100,7.36343505859375,0.1888226419687271,-0.304955393075943,0.17562802135944366
1758274855519392300,7.373392333984375,0.1367432028055191,-0.4326973557472229,0.13493917882442474
1758274855529349400,7.383349365234375,0.05729711055755615,-0.6195226311683655,0.017044764012098312
1758274855539307300,7.393307373046875,-0.08715647459030151,-0.9107379913330078,-0.23261113464832306
1758274855549264100,7.40326416015625,-0.2699044644832611,-0.9080591201782227,-0.5505028367042542
1758274855559221200,7.41322119140625,-0.491531103849411,-0.3163515627384186,-0.6130447387695312
1758274855569179400,7.423179443359375,-0.4887838065624237,0.12526683509349823,-0.009587646462023258
1758274855579136300,7.43313623046875,-0.10447820276021957,-0.5264787077903748,0.8577623963356018
1758274855589093000,7.443093017578125,0.3688265085220337,-0.9810608625411987,0.9821953773498535
1758274855599051300,7.45305126953125,0.34873640537261963,-0.43207603693008423,0.262369304895401
1758274855609008400,7.46300830078125,0.13384941220283508,0.28057122230529785,0.1833173632621765
1758274855618965500,7.472965576171875,-0.039692286401987076,0.35444915294647217,0.7052969336509705
1758274855628923100,7.482923095703125,-0.21957284212112427,0.3649135231971741,0.7305788397789001
1758274855638880300,7.49288037109375,-0.17109504342079163,0.5573815107345581,0.6465103030204773
1758274855648837400,7.50283740234375,0.008288822136819363,0.6826643347740173,0.7255657315254211
1758274855658795300,7.512795166015625,-0.04362976923584938,0.7051534056663513,0.8118113875389099
1758274855668752100,7.522752197265625,-0.1343895047903061,0.7792845964431763,0.852444052696228
1758274855678709200,7.532709228515625,-0.16613571345806122,0.8334479928016663,0.8878217339515686
1758274855688667400,7.54266748046875,-0.11238912492990494,0.752550482749939,0.9187722206115723
1758274855698624300,7.552624267578125,-0.03172836825251579,0.8155089020729065,0.9166528582572937
1758274855708581000,7.5625810546875,0.03454972058534622,0.9385600090026855,0.9445379972457886
1758274855718539300,7.572539306640625,0.10517781972885132,0.9667690396308899,0.9912847280502319
1758274855728496400,7.582496337890625,0.1635495126247406,0.9392830729484558,1.0590267181396484
1758274855738453500,7.59245361328125,0.21594613790512085,0.8920777440071106,1.0693033933639526
1758274855748411100,7.6024111328125,0.2533126771450043,0.865066647529602,1.0793083906173706
1758274855758368300,7.6123681640625,0.2820524573326111,0.8780947923660278,1.0510690212249756
1758274855768325400,7.622325439453125,0.3233298659324646,0.884642481803894,1.0577963590621948
1758274855778283300,7.632283203125,0.3559066951274872,0.8824554681777954,1.0843515396118164
1758274855788240100,7.642240234375,0.3828432559967041,0.920738697052002,1.1118180751800537
1758274855798197200,7.652197265625,0.3990432620048523,0.9257550239562988,1.1471635103225708
1758274855808155400,7.6621552734375,0.3994366228580475,0.9393488168716431,1.2002317905426025
1758274855818112300,7.6721123046875,0.4268234968185425,0.9257432818412781,1.2682830095291138
1758274855828069000,7.682069091796875,0.47954902052879333,0.8630610108375549,1.282815933227539
1758274855838027300,7.69202734375,0.5459397435188293,0.9100381135940552,1.267137050628662
1758274855847984400,7.701984375,0.6036403179168701,0.9470192790031433,1.2254213094711304
1758274855857941500,7.71194140625,0.620384156703949,0.9875605702400208,1.1853429079055786
1758274855867899100,7.721899169921875,0.6039047837257385,1.0174790620803833,1.157592535018921
1758274855877856300,7.731856201171875,0.5738917589187622,1.0412880182266235,1.1891400814056396
1758274855887813400,7.7418134765625,0.5483943819999695,1.0315229892730713,1.2065094709396362
1758274855897771300,7.751771240234375,0.5305970311164856,1.0534093379974365,1.205288052558899
1758274855907728100,7.76172802734375,0.5506599545478821,1.0556584596633911,1.221695899963379
1758274855917685200,7.771685302734375,0.5726017355918884,1.025506854057312,1.2390333414077759
1758274855927643400,7.781643310546875,0.6075645089149475,1.025485634803772,1.2661937475204468
1758274855937600300,7.791600341796875,0.6545613408088684,0.9882887005805969,1.3152340650558472
1758274855947557000,7.80155712890625,0.6786389350891113,0.969379723072052,1.3712879419326782
1758274855957515300,7.811515380859375,0.6929129362106323,0.9809375405311584,1.3817310333251953
1758274855967472400,7.821472412109375,0.7001591324806213,0.9720463156700134,1.3663771152496338
1758274855977429500,7.831429443359375,0.709143877029419,0.9394798874855042,1.3462010622024536
1758274855987387100,7.84138720703125,0.7230951189994812,0.9993133544921875,1.3156784772872925
1758274855997344300,7.85134423828125,0.7382961511611938,1.0921876430511475,1.2817198038101196
1758274856007302400,7.861302490234375,0.7550578117370605,1.1534899473190308,1.2975890636444092
1758274856017259300,7.87125927734375,0.7669576406478882,1.1811518669128418,1.3282281160354614
1758274856027216100,7.881216064453125,0.8045372366905212,1.1255311965942383,1.3595855236053467
1758274856037174300,7.89117431640625,0.8373649716377258,1.0366500616073608,1.4076588153839111
1758274856047131400,7.90113134765625,0.8359670639038086,0.9182409048080444,1.4183372259140015
1758274856057088300,7.911088134765625,0.8039026260375977,0.890629231929779,1.422181487083435
1758274856067046100,7.921046142578125,0.7671038508415222,0.8762348294258118,1.4013394117355347
1758274856077003300,7.931003173828125,0.7420682311058044,0.8192210793495178,1.3625125885009766
1758274856086960400,7.94096044921875,0.7493163347244263,0.7979741096496582,1.3455400466918945
1758274856096918300,7.950918212890625,0.762873649597168,0.8441043496131897,1.3546350002288818
1758274856106875100,7.960875244140625,0.7746677398681641,0.9734809994697571,1.4011398553848267
1758274856116832300,7.970832275390625,0.792673647403717,1.0656583309173584,1.4314011335372925
1758274856126790400,7.980790283203125,0.811948835849762,1.1230286359786987,1.4319782257080078
1758274856136747300,7.990747314453125,0.8116164207458496,1.1789393424987793,1.4134143590927124
1758274856146704100,8.0007041015625,0.7867513298988342,1.2363224029541016,1.378387212753296
1758274856156662300,8.010662353515626,0.7882400155067444,1.3551572561264038,1.3714210987091064
1758274856166619400,8.020619384765626,0.7900219559669495,1.4393900632858276,1.3670791387557983
1758274856176576300,8.030576171875,0.7784150838851929,1.4578665494918823,1.3597328662872314
1758274856186533000,8.040533203125,0.7600712180137634,1.4515527486801147,1.3331416845321655
1758274856196491300,8.0504912109375,0.7389028072357178,1.4695255756378174,1.3067326545715332
1758274856206448400,8.060448486328125,0.7188548445701599,1.504805326461792,1.278705358505249
1758274856216405500,8.070405517578125,0.6977460980415344,1.517886757850647,1.2407840490341187
1758274856226363100,8.080363037109375,0.67850261926651,1.5547009706497192,1.2164534330368042
1758274856236320300,8.0903203125,0.6782994270324707,1.6304655075073242,1.2266333103179932
1758274856246278400,8.1002783203125,0.6850816607475281,1.6855947971343994,1.2182472944259644
1758274856256235300,8.1102353515625,0.6956730484962463,1.700703740119934,1.172318696975708
1758274856266192100,8.120192138671875,0.6938251256942749,1.6807191371917725,1.1059644222259521
1758274856276150300,8.130150390625,0.6728188991546631,1.6468021869659424,1.0518263578414917
1758274856286107400,8.140107421875,0.6660592555999756,1.6551135778427124,1.0562150478363037
1758274856296064300,8.150064208984375,0.6677010655403137,1.6086254119873047,1.0658612251281738
1758274856306022100,8.160022216796875,0.6516914963722229,1.486493706703186,1.0605926513671875
1758274856315979300,8.169979248046875,0.6405368447303772,1.348644495010376,1.0470433235168457
1758274856325936400,8.179936279296875,0.6500611305236816,1.1708159446716309,1.0275838375091553
1758274856335893500,8.1898935546875,0.6571789383888245,1.0668301582336426,1.003100872039795
1758274856345851100,8.19985107421875,0.6423872113227844,1.0936505794525146,0.9635375142097473
1758274856355808300,8.209808349609375,0.6237125992774963,1.1022677421569824,0.9478906393051147
1758274856365766400,8.219766357421875,0.6062121391296387,1.091472864151001,0.9362928867340088
1758274856375723300,8.22972314453125,0.5956633687019348,1.0503935813903809,0.9085422158241272
1758274856385680100,8.23968017578125,0.5915301442146301,0.9615329504013062,0.8826514482498169
1758274856395638300,8.24963818359375,0.5872570872306824,0.8246307969093323,0.8696110248565674
1758274856405595400,8.259595458984375,0.5762388110160828,0.6745318174362183,0.8500562310218811
1758274856415552300,8.26955224609375,0.5465139150619507,0.6701415777206421,0.8424057960510254
1758274856425509000,8.279509033203125,0.5041241645812988,0.746721088886261,0.8383921384811401
1758274856435467300,8.28946728515625,0.4704734981060028,0.8410864472389221,0.820023775100708
1758274856445424400,8.29942431640625,0.4398524761199951,0.8808876872062683,0.7707241177558899
1758274856455381500,8.309381591796875,0.41200459003448486,0.8194895386695862,0.6965678930282593
1758274856465339100,8.319339111328125,0.38578498363494873,0.7780132293701172,0.6564888954162598
1758274856475296300,8.329296142578125,0.3784181475639343,0.78602534532547,0.6774849891662598
1758274856485253400,8.33925341796875,0.3741416335105896,0.7516436576843262,0.723483681678772
1758274856495211300,8.349211181640625,0.35654693841934204,0.6271123886108398,0.7336324453353882
1758274856505168100,8.359168212890625,0.3261514902114868,0.47941160202026367,0.7039712071418762
1758274856515125200,8.369125244140625,0.3036602735519409,0.44741344451904297,0.6768549084663391
1758274856525083400,8.37908349609375,0.2954595983028412,0.5327273011207581,0.6684635281562805
1758274856535040300,8.389040283203125,0.27928996086120605,0.575330913066864,0.6541586518287659
1758274856544997000,8.3989970703125,0.2513861656188965,0.5667678117752075,0.6156448125839233
1758274856554955300,8.408955322265625,0.22926141321659088,0.49297216534614563,0.5751434564590454
1758274856564912400,8.418912353515625,0.23420770466327667,0.38990703225135803,0.5524362921714783
1758274856574869500,8.428869384765624,0.26257169246673584,0.30708909034729004,0.5013022422790527
1758274856584827100,8.4388271484375,0.29657360911369324,0.2659674882888794,0.43602100014686584
1758274856594784300,8.4487841796875,0.31696435809135437,0.28748399019241333,0.37810760736465454
1758274856604741000,8.4587412109375,0.31682083010673523,0.2883223295211792,0.3096175193786621
1758274856614699000,8.468698974609374,0.2988618016242981,0.21606890857219696,0.23510386049747467
1758274856624656100,8.47865625,0.2721351087093353,0.16320863366127014,0.19014251232147217
1758274856634613000,8.488613037109374,0.2531110942363739,0.17043671011924744,0.18135860562324524
1758274856644571100,8.498571044921874,0.2402256578207016,0.24102912843227386,0.19294202327728271
1758274856654528300,8.5085283203125,0.21959467232227325,0.27916720509529114,0.21185100078582764
1758274856664485000,8.518485107421874,0.20242100954055786,0.22456812858581543,0.2259702831506729
1758274856674443000,8.528443115234374,0.1701190024614334,0.17218588292598724,0.22856099903583527
1758274856684400000,8.538400146484374,0.1418098658323288,0.17309695482254028,0.22121228277683258
1758274856694357200,8.548357177734376,0.11540781706571579,0.19067460298538208,0.20695798099040985
1758274856704315100,8.558315185546874,0.09003482013940811,0.2039315551519394,0.2040274292230606
1758274856714272000,8.56827197265625,0.075614333152771,0.2082890272140503,0.2171909064054489
1758274856724229000,8.57822900390625,0.0710238441824913,0.16163043677806854,0.22344081103801727
1758274856734187000,8.58818701171875,0.07023421674966812,0.08706513047218323,0.21855418384075165
1758274856744144100,8.59814404296875,0.07451391220092773,0.012834039516746998,0.20955322682857513
1758274856754101000,8.60810107421875,0.08260353654623032,0.008050736039876938,0.15267769992351532
1758274856764059100,8.61805908203125,0.06824164092540741,0.01113121397793293,0.11232627183198929
1758274856774016300,8.628016357421876,0.05017661675810814,0.02214178815484047,0.0893264189362526
1758274856783973000,8.63797314453125,0.04140949249267578,0.019226158037781715,0.08217103779315948
1758274856793931000,8.647930908203126,0.04103798046708107,0.002885801251977682,0.08090230822563171
1758274856803888000,8.65788818359375,0.0495997779071331,-0.004738562274724245,0.06397445499897003
1758274856813845200,8.66784521484375,0.056890714913606644,-0.0062272693030536175,0.04085502028465271
1758274856823803100,8.67780322265625,0.053531400859355927,0.01393072959035635,0.02480068802833557
1758274856833760000,8.687760009765626,0.04466227814555168,0.06356512755155563,0.02695545181632042
1758274856843717000,8.697717041015625,0.039204392582178116,0.10040250420570374,0.033246904611587524
1758274856853675000,8.707675048828126,0.038418762385845184,0.09253525733947754,0.017482852563261986
1758274856863632100,8.717632080078126,0.037746578454971313,0.09072510898113251,-0.004333229269832373
1758274856873589000,8.727589111328125,0.029341110959649086,0.09986880421638489,-0.026263827458024025
1758274856883547100,8.737547119140626,0.014108095318078995,0.11289459466934204,-0.041784197092056274
1758274856893504300,8.747504150390625,0.006261890754103661,0.11437424272298813,-0.045828741043806076
1758274856903461000,8.757461181640625,0.005320729687809944,0.09937292337417603,-0.03875352069735527
1758274856913419000,8.7674189453125,0.008143946528434753,0.07320284098386765,-0.03212065249681473
1758274856923376000,8.777376220703125,0.012083826586604118,0.054853130131959915,-0.02087838388979435
1758274856933333200,8.787333251953125,0.015280152671039104,0.030964840203523636,-0.02040274254977703
1758274856943291100,8.797291015625,0.013169065117835999,0.02328907698392868,-0.015777098014950752
1758274856953248000,8.807248046875,0.008086688816547394,0.016402408480644226,-0.020078103989362717
1758274856963205000,8.817205078125,0.005425391718745232,0.021121796220541,-0.014298778027296066
1758274856973163000,8.8271630859375,0.0030570426024496555,0.025536252185702324,-0.0018077536951750517
1758274856983120100,8.8371201171875,0.0028807413764297962,0.002275937469676137,0.0032442628871649504
1758274856993077000,8.847076904296875,0.000016777914424892515,-0.013968545943498611,0.004332696553319693
1758274857003035100,8.85703515625,0.000041278995922766626,-0.005898901727050543,0.008498679846525192
1758274857012992300,8.8669921875,-0.006732204928994179,0.019117502495646477,0.010334929451346397
1758274857022949000,8.87694921875,-0.01489319559186697,0.03732446953654289,0.01353604905307293
1758274857032907000,8.886906982421875,-0.012646286748349667,0.047683365643024445,0.015749935060739517
1758274857042864000,8.896864013671875,-0.032154206186532974,0.020832311362028122,0.009222260676324368
1758274857052821200,8.9068212890625,-0.02907319739460945,0.010615093633532524,-0.002999251941218972
1758274857062779100,8.916779052734375,-0.005136971361935139,0.04168379679322243,0.0016823188634589314
1758274857072736000,8.926736083984375,-0.004036020487546921,0.031021032482385635,-0.005071723833680153
1758274857082693000,8.936693115234375,-0.002257561543956399,0.016168849542737007,-0.014784539118409157
1758274857092650200,8.946650146484375,0.0022327941842377186,0.027727767825126648,-0.0220901221036911
1758274857102608100,8.956608154296875,0.0019531622529029846,0.026691531762480736,-0.025838786736130714
1758274857112565000,8.96656494140625,-0.000045806369598722085,0.027213511988520622,-0.028442826122045517
1758274857122522000,8.976522216796875,0.0023036343045532703,0.029827404767274857,-0.023907463997602463
1758274857132480300,8.986480224609375,0.005258411634713411,0.024105336517095566,-0.020371584221720695
1758274857142437000,8.99643701171875,0.007238471880555153,0.02684492990374565,-0.017190970480442047
1758274857152394000,9.00639404296875,0.006758037488907576,0.03194355219602585,-0.01450091227889061
1758274857162352000,9.01635205078125,0.006205165293067694,0.034680482000112534,-0.012911271303892136
1758274857172309200,9.026309326171875,0.005671467632055283,0.033659160137176514,-0.006460828706622124
1758274857182266000,9.03626611328125,0.0030306773260235786,0.022050440311431885,0.0019920445047318935
1758274857192224000,9.04622412109375,0.002101234160363674,0.016382168978452682,0.013370400294661522
1758274857202181000,9.05618115234375,0.0014900385867804289,0.008213721215724945,0.020772390067577362
1758274857212138200,9.06613818359375,0.00008122641156660393,0.002511360915377736,0.029161080718040466
1758274857222096100,9.07609619140625,0.002258094260469079,0.0020604876335710287,0.03146471455693245
1758274857232053000,9.086052978515625,0.00008309062832267955,-0.02231755666434765,0.02135482244193554
1758274857242010000,9.096010009765624,-0.0035683694295585155,-0.0237620547413826,0.017460748553276062
1758274857251968300,9.10596826171875,-0.007195594720542431,-0.021271467208862305,0.01353711448609829
1758274857261925000,9.115925048828124,-0.009512278251349926,-0.025827068835496902,0.00983425509184599
1758274857271882000,9.125882080078124,-0.010991398245096207,-0.025465944781899452,0.011236143298447132
1758274857281840000,9.135840087890625,-0.009080580435693264,-0.02738901413977146,0.010936536826193333
1758274857291797200,9.14579736328125,-0.010357566177845001,-0.03780277073383331,0.001115864492021501
1758274857301754000,9.155754150390624,-0.011445201002061367,-0.0379689522087574,-0.0028186896815896034
1758274857311712000,9.1657119140625,-0.01184866949915886,-0.030828751623630524,-0.0018540926976129413
1758274857321669000,9.175669189453124,-0.01068220566958189,-0.02762710116803646,-0.0006996124284341931
1758274857331626200,9.185626220703124,-0.00609357887879014,-0.02653520368039608,0.0019542276859283447
1758274857341584100,9.195584228515624,-0.00307675008662045,-0.026272883638739586,0.0107708889991045
1758274857351541000,9.205541015625,-0.0005552690709009767,-0.02762443758547306,0.013294233940541744
1758274857361498000,9.215498046875,0.0009709885343909264,-0.027536019682884216,0.013697702437639236
1758274857371456300,9.225456298828124,0.005160939879715443,-0.019840016961097717,0.012341621331870556
1758274857381413000,9.2354130859375,0.005398760084062815,-0.007311708759516478,0.008492021821439266
1758274857391370000,9.245369873046876,0.0060150157660245895,0.0021584921050816774,0.007162571884691715
1758274857401327000,9.2553271484375,0.005437375977635384,0.015105982311069965,0.01296506728976965
1758274857411285200,9.26528515625,0.006271477788686752,0.011577294208109379,0.01254189107567072
1758274857421242000,9.2752421875,0.005893841851502657,0.002153431996703148,0.005182777531445026
1758274857431199000,9.285198974609376,0.008320514112710953,0.004658135119825602,0.004004062619060278
1758274857441157000,9.2951572265625,0.009460346773266792,0.005932724103331566,-0.0054142065346241
1758274857451114200,9.3051142578125,0.007041664328426123,0.008220911957323551,-0.018010159954428673
1758274857461071000,9.315071044921876,0.006172408349812031,0.003897003596648574,-0.02419854700565338
1758274857471029000,9.325029052734376,0.004649346694350243,0.002189118415117264,-0.023676833137869835
1758274857480986000,9.334986083984376,0.0033771544694900513,0.0073444657027721405,-0.014453507959842682
1758274857490943200,9.344943115234376,0.002570216776803136,0.01561145018786192,-0.012014318257570267
1758274857500901000,9.354901123046876,0.0009166600648313761,0.008285094052553177,-0.015596270561218262
1758274857510858000,9.36485791015625,-0.0037987329997122288,-0.000019707391402334906,-0.01858353801071644
1758274857520815000,9.374815185546876,-0.006975351367145777,0.0023284016642719507,-0.01685834303498268
1758274857530773200,9.384773193359376,-0.010566890239715576,0.006169478874653578,-0.01624368503689766
1758274857540730000,9.394730224609376,-0.010821755044162273,0.001904160133562982,-0.014375210739672184
1758274857550687000,9.40468701171875,-0.013248161412775517,-0.006714894436299801,-0.013991449028253555
1758274857560645000,9.41464501953125,-0.013805028051137924,-0.009771936573088169,-0.01206971239298582
1758274857570602200,9.424602294921876,-0.014215154573321342,-0.010322945192456245,-0.0065194182097911835
1758274857580559000,9.43455908203125,-0.013822072185575962,-0.014928349293768406,-0.004659200087189674
1758274857590517000,9.44451708984375,-0.01130964607000351,-0.026617761701345444,-0.002424009144306183
1758274857600474400,9.454474365234375,-0.010515225119888783,-0.03845284879207611,-0.0027925907634198666
1758274857610431500,9.464431396484375,-0.01073946338146925,-0.03176059201359749,-0.0020237360149621964
1758274857620389400,9.474389404296875,-0.011154117062687874,-0.02791259065270424,-0.0015017564874142408
1758274857630346200,9.48434619140625,-0.011775699444115162,-0.030943268910050392,0.0023345269728451967
1758274857640303400,9.494303466796875,-0.009463276714086533,-0.03592764213681221,0.006398777011781931
1758274857650260500,9.504260498046875,-0.010177802294492722,-0.03530286252498627,0.005381449591368437
1758274857660218400,9.51421826171875,-0.010184726677834988,-0.03861743211746216,0.0024839304387569427
1758274857670175200,9.52417529296875,-0.012101936154067516,-0.03831995651125908,0.0025965820532292128
1758274857680132400,9.53413232421875,-0.013407950289547443,-0.026448119431734085,0.004181162919849157
1758274857690090500,9.544090576171875,-0.01474698819220066,-0.01065264455974102,0.0070304786786437035
1758274857700047400,9.55404736328125,-0.016019713133573532,-0.010864632204174995,0.007134608458727598
1758274857710004200,9.564004150390625,-0.01780882477760315,-0.028844164684414864,0.004110322799533606
1758274857719962400,9.57396240234375,-0.018664764240384102,-0.034496989101171494,0.0009749832679517567
1758274857729919500,9.58391943359375,-0.016689497977495193,-0.031130755320191383,-0.005181446205824614
1758274857739876400,9.59387646484375,-0.018608571961522102,-0.024478977546095848,-0.006638461723923683
1758274857749834200,9.603834228515625,-0.023541012778878212,-0.02815067768096924,-0.005015797447413206
1758274857759791400,9.613791259765625,-0.027940021827816963,-0.03554947301745415,-0.0026296053547412157
1758274857769748500,9.62374853515625,-0.029997047036886215,-0.037648577243089676,-0.005363073665648699
1758274857779706400,9.633706298828125,-0.02960210107266903,-0.033972613513469696,-0.016054334118962288
1758274857789663200,9.643663330078125,-0.03380057215690613,-0.036917805671691895,-0.02967267483472824
1758274857799620400,9.653620361328125,-0.03543415665626526,-0.025122663006186485,-0.03550819307565689
1758274857809578500,9.66357861328125,-0.031209317967295647,-0.006613161414861679,-0.039372704923152924
1758274857819535400,9.673535400390625,-0.02159850299358368,-0.008088020607829094,-0.04069896042346954
1758274857829492200,9.6834921875,-0.015443936921656132,-0.010930677875876427,-0.03827441856265068
1758274857839449300,9.693449462890625,-0.01107502169907093,-0.011953598819673061,-0.03983449935913086
1758274857849407500,9.703407470703125,-0.00905874278396368,-0.006725280545651913,-0.034452248364686966
1758274857859364400,9.7133642578125,-0.006342584267258644,0.0016157397767528892,-0.02183871902525425
1758274857869321500,9.723321533203125,-0.0032144354190677404,0.002737196860834956,-0.011664645746350288
1758274857879279400,9.733279296875,-0.002246642718091607,0.0002788329729810357,0.001868473831564188
1758274857889236500,9.743236572265625,0.0020730046089738607,-0.008111721836030483,0.005648830905556679
1758274857899193300,9.753193359375,0.0018373148050159216,-0.011532552540302277,0.009366869926452637
1758274857909151200,9.763151123046875,0.002046106616035104,-0.005199822131544352,0.010076070204377174
1758274857919108400,9.7731083984375,0.003531617810949683,-0.005428054835647345,0.005590241402387619
1758274857929065500,9.7830654296875,0.0018524948973208666,-0.004567853640764952,0.005903695244342089
1758274857939023400,9.7930234375,0.00242161238566041,-0.004340153653174639,0.007396397180855274
1758274857948980200,9.802980224609374,0.005702094174921513,-0.00526613462716341,0.007845672778785229
1758274857958937300,9.812937255859374,0.010012952610850334,-0.007210508454591036,0.0051801144145429134
1758274857968895500,9.8228955078125,0.007873635739088058,-0.0072840116918087006,-0.001032507512718439
1758274857978852400,9.832852294921874,0.005189169198274612,-0.0032559807877987623,-0.0013243899447843432
1758274857988809500,9.8428095703125,0.00042450788896530867,-0.0008857673965394497,-0.0011374361347407103
1758274857998767400,9.852767333984374,-0.001386175281368196,-0.002417883835732937,0.0011867046123370528
1758274858008724500,9.862724365234374,-0.002389388158917427,-0.010963168926537037,0.006036320701241493
1758274858018681300,9.872681396484374,-0.003567570587620139,-0.010744523257017136,0.015112373977899551
1758274858028639200,9.88263916015625,-0.004090349189937115,-0.01877395436167717,0.021932728588581085
1758274858038596400,9.892596435546874,-0.006439523305743933,-0.0148623026907444,0.0368616096675396
1758274858048553500,9.902553466796874,-0.004514058120548725,-0.003468767274171114,0.05589229241013527
1758274858058510300,9.91251025390625,0.004582767374813557,-0.011353588663041592,0.061176005750894547
1758274858068468200,9.92246826171875,0.01185000129044056,-0.08177129179239273,0.036552686244249344
1758274858078425300,9.93242529296875,0.05151565372943878,-0.15149152278900146,0.03833566978573799
1758274858088382500,9.942382568359376,0.014971492812037468,-0.02478204481303692,0.04105795547366142
1758274858098340400,9.95234033203125,0.013908358290791512,0.022835275158286095,0.0454857274889946
1758274858108297500,9.96229736328125,0.009721603244543076,0.010157030075788498,0.030592797324061394
1758274858118254300,9.97225439453125,0.017042366787791252,0.00752050057053566,0.02352236956357956
1758274858128212500,9.98221240234375,0.01525698322802782,0.01281752809882164,0.023065637797117233
1758274858138169300,9.99216943359375,0.01858646795153618,0.02262914553284645,0.02375832572579384
1758274858148126500,10.00212646484375,0.021072793751955032,0.02593812346458435,0.021152423694729805
1758274858158084400,10.01208447265625,0.015110243111848831,0.02917865850031376,0.015096927061676979
1758274858168041500,10.02204150390625,0.014149374328553677,0.029622074216604233,0.006440855097025633
1758274858177998300,10.031998291015626,0.014083328656852245,0.02178572304546833,-0.0010013486025854945
1758274858187956200,10.041956298828126,0.010396181605756283,0.01932309754192829,-0.008111988194286823
1758274858197913300,10.051913330078126,0.0070975907146930695,0.021984394639730453,-0.014274543151259422
1758274858207870500,10.061870361328126,0.003025350859388709,0.023873640224337578,-0.024469390511512756
1758274858217828400,10.071828369140626,-0.00013156015484128147,0.03358219563961029,-0.026628680527210236
1758274858227785500,10.081785400390626,-0.00022317290131468326,0.027900073677301407,-0.026489930227398872
1758274858237742300,10.091742431640625,0.00017337177996523678,0.005544168874621391,-0.028792500495910645
1758274858247699200,10.10169921875,0.001017593895085156,-0.005161472596228123,-0.031094269827008247
1758274858257657300,10.1116572265625,0.000502804818097502,-0.0002772350562736392,-0.02659272775053978
1758274858267614500,10.121614501953125,-0.0029523803386837244,0.006881341803818941,-0.028010861948132515
1758274858277571300,10.1315712890625,-0.0049276468344032764,0.012674782425165176,-0.028509140014648438
1758274858287529500,10.141529541015625,-0.005404885392636061,0.016054600477218628,-0.02689845860004425
1758274858297486300,10.151486328125,-0.00586534570902586,0.023209182545542717,-0.025317873805761337
1758274858307443500,10.161443359375,-0.0049127331003546715,0.02406911738216877,-0.02003309689462185
1758274858317401300,10.1714013671875,-0.0020413128659129143,0.009888317435979843,-0.01793479174375534
1758274858327358500,10.1813583984375,0.003480751533061266,0.0029318740125745535,-0.008590558543801308
1758274858337315300,10.1913154296875,0.006578540429472923,-0.007967378944158554,-0.003718305379152298
1758274858347273500,10.2012734375,0.008552742190659046,-0.010946391150355339,-0.007443002425134182
1758274858357230300,10.211230224609375,0.007692806888371706,0.0031137678306549788,-0.008675513789057732
1758274858367187200,10.221187255859375,0.006025135517120361,0.01709403283894062,-0.00939083844423294
1758274858377145300,10.231145263671875,0.00549330236390233,0.018136126920580864,-0.010231065563857555
1758274858387102500,10.2411025390625,0.006071474403142929,0.019527096301317215,-0.012354138307273388
1758274858397059300,10.251059326171875,0.007363107521086931,0.01883707009255886,-0.014860705472528934
1758274858407016200,10.26101611328125,0.006414756178855896,0.009342102333903313,-0.02087944932281971
1758274858416974300,10.270974365234375,0.008218248374760151,0.007132478058338165,-0.028239626437425613
1758274858426931500,10.280931396484375,0.008990565314888954,0.0180535688996315,-0.03069346398115158
1758274858436888600,10.290888671875,0.006016080733388662,0.027759458869695663,-0.031748875975608826
1758274858446846200,10.30084619140625,0.004720985423773527,0.032892171293497086,-0.028476914390921593
1758274858456803300,10.31080322265625,0.0033593112602829933,0.035352665930986404,-0.021347099915146828
1758274858466760400,10.320760498046875,0.0043769050389528275,0.030222883448004723,-0.018762502819299698
1758274858476718300,10.33071826171875,0.0043771713972091675,0.025729864835739136,-0.013623933307826519
1758274858486675200,10.34067529296875,0.004508199170231819,0.013728328980505466,-0.01272831205278635
1758274858496632300,10.35063232421875,0.0034738273825496435,0.0033073797821998596,-0.00743128452450037
1758274858506590500,10.360590576171875,0.005546299275010824,-0.005591306835412979,-0.003882089862599969
1758274858516547300,10.37054736328125,0.006250971462577581,-0.009912817738950253,-0.00401737866923213
1758274858526504200,10.380504150390625,0.005630188621580601,-0.004467719234526157,-0.004612594842910767
1758274858536462300,10.39046240234375,0.002235191175714135,0.0011835087789222598,-0.008166316896677017
1758274858546419500,10.40041943359375,-0.0006601976347155869,0.005616606678813696,-0.00917245913296938
1758274858556376600,10.41037646484375,0.000871652620844543,0.010045177303254604,-0.0070765516720712185
1758274858566334200,10.420334228515625,0.001874332781881094,0.001386707997880876,-0.009908290579915047
1758274858576291300,10.430291259765625,0.001484445994719863,-0.010392719879746437,-0.008672051131725311
1758274858586248400,10.44024853515625,0.000782436749432236,-0.009888317435979843,-0.006671218667179346
1758274858596205600,10.45020556640625,0.0009528790251351893,-0.010875551030039787,-0.0031318773981183767
1758274858606163000,10.460162841796874,0.003433613572269678,-0.005501824431121349,0.0033547841012477875
1758274858616120000,10.4701201171875,0.007468835450708866,-0.0017188041238114238,0.008054996840655804
1758274858626077000,10.480076904296874,0.007568171247839928,-0.00788295641541481,0.008333031088113785
1758274858636035000,10.49003515625,0.006208094768226147,-0.010832407511770725,0.002439455594867468
1758274858645992000,10.499991943359374,0.0033369408920407295,-0.0024503744207322598,0.0008663262706249952
1758274858655949000,10.509948974609374,0.002645317930728197,0.00580702256411314,0.0003174488083459437
1758274858665907200,10.5199072265625,0.0006348976166918874,0.009072590619325638,-0.002147306688129902
1758274858675864000,10.529864013671874,0.00011424961121520028,0.013334980234503746,-0.0033811493776738644
1758274858685821200,10.5398212890625,0.002031725598499179,0.002169144805520773,-0.010554373264312744
1758274858695779000,10.549779052734374,0.004894091282039881,-0.007970308884978294,-0.016398414969444275
1758274858705736000,10.55973583984375,0.004488491453230381,0.002802710747346282,-0.014401842840015888
1758274858715693000,10.569693115234376,0.005446963477879763,0.012764531187713146,-0.013363209553062916
1758274858725650200,10.579650146484376,0.003466104157269001,0.0175038930028677,-0.012606339529156685
1758274858735608000,10.589608154296876,0.0007419566973112524,0.011542938649654388,-0.009271262213587761
1758274858745565000,10.59956494140625,-0.0012503541074693203,-0.001704955706372857,-0.009286176413297653
1758274858755522000,10.60952197265625,0.00019734023953787982,-0.00618306128308177,-0.008675513789057732
1758274858765480000,10.61947998046875,-0.000838895735796541,-0.007481618318706751,-0.010277404449880123
1758274858775437000,10.62943701171875,-0.005327120888978243,-0.008608401753008366,-0.008731173351407051
1758274858785394000,10.639393798828126,-0.006613427773118019,-0.004298874642699957,-0.003704989794641733
1758274858795352000,10.64935205078125,-0.007786550559103489,-0.004881840664893389,-0.004476507660001516
1758274858805309200,10.65930908203125,-0.0075905416160821915,0.00033875409280881286,-0.007531685754656792
1758274858815266000,10.66926611328125,-0.008190818130970001,0.001398425898514688,-0.009722668677568436
1758274858825224000,10.679223876953126,-0.006326605565845966,0.00033635724685154855,-0.012898754328489304
1758274858835181000,10.68918115234375,-0.005495432764291763,0.002264485927298665,-0.012141617946326733
1758274858845138200,10.69913818359375,-0.006373743526637554,0.006551908794790506,-0.010703776963055134
1758274858855096000,10.709095947265626,-0.002641855739057064,0.006125803105533123,-0.00845633540302515
1758274858865053000,10.719052978515625,0.00006897587445564568,-0.004526575095951557,-0.0062885223887860775
1758274858875010000,10.729010009765625,0.0010402307379990816,-0.0049071405082941055,-0.0009685916593298316
1758274858884967200,10.73896728515625,0.0028698223177343607,0.004033357370644808,-0.0003736414946615696
1758274858894925000,10.748925048828125,0.002597647253423929,0.011269965209066868,-0.0015571502735838294
1758274858904882000,10.7588818359375,-0.0012522183824330568,0.010486729443073273,-0.004198207054287195
1758274858914839000,10.768839111328125,-0.0011313108261674643,0.001389104756526649,-0.0016892430139705539
1758274858924797200,10.778797119140625,0.002883138135075569,0.0022005699574947357,-0.0017771273851394653
1758274858934754000,10.788754150390625,0.004890895448625088,0.003093794221058488,-0.006107160821557045
1758274858944711000,10.7987109375,0.0004213120846543461,0.004157460760325193,-0.007899735122919083
1758274858954669000,10.8086689453125,-0.0067969197407364845,0.008978048339486122,-0.007744472473859787
1758274858964626200,10.818626220703125,-0.008547415025532246,0.015390141867101192,-0.0080912159755826
1758274858974583000,10.8285830078125,-0.008767392486333847,0.011469435878098011,-0.009953564032912254
1758274858984541000,10.838541015625,-0.009769007563591003,-0.001966211711987853,-0.012890764512121677
1758274858994498000,10.848498046875,-0.007672833278775215,-0.009645436890423298,-0.01726074516773224
1758274859004455200,10.858455078125,-0.010701113380491734,-0.004406732507050037,-0.01919153705239296
1758274859014412000,10.868412109375,-0.016651947051286697,0.0008788431296125054,-0.023241939023137093
1758274859024370000,10.878369873046875,-0.018275942653417587,0.00007430219557136297,-0.02774774096906185
1758274859034327000,10.8883271484375,-0.020144149661064148,-0.012441223487257957,-0.03466103971004486
1758274859044284200,10.8982841796875,-0.02280225232243538,-0.02040247619152069,-0.0483398362994194
1758274859054242000,10.908241943359375,-0.028488632291555405,-0.017907094210386276,-0.06217096373438835
1758274859064199000,10.918198974609375,-0.03993809595704079,-0.0067971860989928246,-0.07700743526220322
1758274859074156000,10.928156005859375,-0.05149834603071213,0.0006950850365683436,-0.09488017112016678
1758274859084114200,10.9381142578125,-0.06066547706723213,0.002825613832101226,-0.12065504491329193
1758274859094071000,10.948071044921875,-0.07132717967033386,-0.009039567783474922,-0.1588812619447708
1758274859104028000,10.95802783203125,-0.08585259318351746,-0.034994736313819885,-0.19605259597301483
1758274859113986000,10.967986083984375,-0.10713018476963043,-0.04258527606725693,-0.21804365515708923
1758274859123943200,10.977943115234375,-0.12470145523548126,-0.026139192283153534,-0.22230364382266998
1758274859133900000,10.987900146484375,-0.1405342072248459,-0.013380253687500954,-0.22244319319725037
1758274859143857000,10.99785693359375,-0.15429556369781494,-0.054419830441474915,-0.2433391511440277
1758274859153815000,11.00781494140625,-0.1647053211927414,-0.11519316583871841,-0.26668575406074524
1758274859163772200,11.017772216796875,-0.1738298535346985,-0.1617172658443451,-0.2789650559425354
1758274859173729000,11.02772900390625,-0.1808382272720337,-0.20102259516716003,-0.3004820644855499
1758274859183687000,11.03768701171875,-0.18739545345306396,-0.23752573132514954,-0.32824045419692993
1758274859193644000,11.04764404296875,-0.2010609358549118,-0.27103230357170105,-0.36383548378944397
1758274859203601200,11.05760107421875,-0.2205057442188263,-0.26328834891319275,-0.3701508939266205
1758274859213559000,11.06755908203125,-0.23378320038318634,-0.2442225217819214,-0.35069677233695984
1758274859223516000,11.077515869140624,-0.24324195086956024,-0.2546525299549103,-0.3276737332344055
1758274859233473000,11.08747314453125,-0.24381744861602783,-0.2828913629055023,-0.31732308864593506
1758274859243431200,11.09743115234375,-0.23924987018108368,-0.3340325653553009,-0.3348299264907837
1758274859253388000,11.107387939453124,-0.2452518343925476,-0.3839292824268341,-0.3684003949165344
1758274859263345000,11.117344970703124,-0.25968775153160095,-0.3784594237804413,-0.38579216599464417
1758274859273302000,11.127302001953124,-0.2751215696334839,-0.33994293212890625,-0.3878883421421051
1758274859283260200,11.13726025390625,-0.28309136629104614,-0.3364163637161255,-0.39239999651908875
1758274859293217000,11.147217041015624,-0.29132238030433655,-0.3496416211128235,-0.39568501710891724
1758274859303174100,11.157174072265626,-0.2929258942604065,-0.36529141664505005,-0.3966834247112274
1758274859313132000,11.167132080078124,-0.29782769083976746,-0.38831818103790283,-0.4049418866634369
1758274859323089200,11.177089111328126,-0.30552396178245544,-0.3908849358558655,-0.4236873686313629
1758274859333046000,11.1870458984375,-0.3060890734195709,-0.3705703318119049,-0.44197314977645874
1758274859343004000,11.19700390625,-0.30571117997169495,-0.36739450693130493,-0.4694215655326843
1758274859352961000,11.2069609375,-0.31381598114967346,-0.3912796080112457,-0.5046620965003967
1758274859362918100,11.216918212890626,-0.32350775599479675,-0.3999524712562561,-0.5383588075637817
1758274859372876000,11.2268759765625,-0.3250555992126465,-0.39852607250213623,-0.5693886280059814
1758274859382833000,11.2368330078125,-0.32896190881729126,-0.44196969270706177,-0.6205421090126038
1758274859392790000,11.2467900390625,-0.3267640173435211,-0.5395098328590393,-0.7023173570632935
1758274859402747000,11.256746826171875,-0.3232235908508301,-0.6190669536590576,-0.7822713255882263
1758274859412705000,11.266705078125,-0.3291510045528412,-0.6546286940574646,-0.8334857821464539
1758274859422662100,11.276662109375,-0.33639106154441833,-0.6983732581138611,-0.861725926399231
1758274859432619000,11.286618896484375,-0.34386682510375977,-0.7280097007751465,-0.8861772418022156
1758274859442577200,11.2965771484375,-0.34201937913894653,-0.7329884767532349,-0.9378800988197327
1758274859452534000,11.306533935546875,-0.3152037560939789,-0.8377455472946167,-0.987025260925293
1758274859462491100,11.3164912109375,-0.28464585542678833,-1.007059931755066,-1.0292304754257202
1758274859472449000,11.326448974609375,-0.24989239871501923,-1.1691417694091797,-1.072117805480957
1758274859482406100,11.33640625,-0.24506354331970215,-1.237320065498352,-1.0472854375839233
1758274859492363000,11.346363037109375,-0.24484676122665405,-1.2293449640274048,-1.006826639175415
1758274859502320000,11.356320068359375,-0.24585770070552826,-1.22328519821167,-1.0110970735549927
1758274859512278000,11.366278076171875,-0.23261992633342743,-1.2254010438919067,-1.0262893438339233
1758274859522235000,11.37623486328125,-0.1912301480770111,-1.1986925601959229,-1.0069653987884521
1758274859532192000,11.38619189453125,-0.1712803989648819,-1.241066575050354,-1.0072453022003174
1758274859542150100,11.396150146484375,-0.16953390836715698,-1.3908747434616089,-1.0812146663665771
1758274859552107000,11.40610693359375,-0.1928219199180603,-1.564572811126709,-1.1576396226882935
1758274859562064000,11.41606396484375,-0.22299925982952118,-1.6203862428665161,-1.2441813945770264
1758274859572022000,11.42602197265625,-0.23042654991149902,-1.7280945777893066,-1.2206907272338867
1758274859581979100,11.435979248046875,-0.25832024216651917,-1.5870006084442139,-1.2354310750961304
1758274859591936000,11.44593603515625,-0.35383930802345276,-1.4098066091537476,-1.3691047430038452
1758274859601893600,11.4558935546875,-0.37065210938453674,-1.5548040866851807,-1.3572510480880737
1758274859611850500,11.4658505859375,-0.32366886734962463,-1.575561285018921,-1.3474993705749512
1758274859621807600,11.4758076171875,-0.3005792796611786,-1.557128667831421,-1.404079794883728
1758274859631764700,11.4857646484375,-0.29776084423065186,-1.5374101400375366,-1.5094895362854004
1758274859641722600,11.49572265625,-0.32852569222450256,-1.3649225234985352,-1.5821832418441772
1758274859651679500,11.505679443359375,-0.40558984875679016,-1.1527987718582153,-1.5114620923995972
1758274859661636600,11.51563671875,-0.4780656397342682,-0.988877534866333,-1.3305463790893555
1758274859671594500,11.525594482421875,-0.5323805212974548,-1.1380590200424194,-1.1893503665924072
1758274859681551600,11.535551513671875,-0.5742182731628418,-1.3325313329696655,-1.1458138227462769
1758274859691508500,11.545508544921875,-0.5908326506614685,-1.4128623008728027,-1.210737705230713
1758274859701466600,11.555466552734375,-0.6344752311706543,-1.3424848318099976,-1.2996822595596313
1758274859711423700,11.565423828125,-0.6788277626037598,-1.1114647388458252,-1.29603111743927
1758274859721380600,11.575380615234375,-0.7209994792938232,-0.9429441094398499,-1.241342306137085
1758274859731337500,11.58533740234375,-0.7984532117843628,-0.8155393004417419,-1.1780191659927368
1758274859741295600,11.595295654296875,-0.8510938286781311,-0.7071861624717712,-1.113792061805725
1758274859751252700,11.605252685546875,-0.8841769099235535,-0.7076982855796814,-1.0164889097213745
1758274859761209600,11.615209716796874,-0.9182864427566528,-0.8519651889801025,-0.9308155179023743
1758274859771167500,11.62516748046875,-0.9182129502296448,-0.9402053356170654,-0.9446634650230408
1758274859781124600,11.63512451171875,-0.9270511865615845,-1.029766321182251,-1.0646716356277466
1758274859791081700,11.645081787109374,-0.9076404571533203,-1.0636316537857056,-1.2248250246047974
1758274859801039600,11.65503955078125,-0.8570627570152283,-0.9025537967681885,-1.3212852478027344
1758274859810996500,11.66499658203125,-0.7864999175071716,-0.7257260680198669,-1.3070157766342163
1758274859820953600,11.67495361328125,-0.7450917363166809,-0.7115710973739624,-1.2182475328445435
1758274859830910700,11.68491064453125,-0.7817488312721252,-0.7532687187194824,-1.1338802576065063
1758274859840868600,11.69486865234375,-0.8193691968917847,-0.8343648910522461,-1.197266936302185
1758274859850825500,11.704825439453124,-0.7951157689094543,-0.838397204875946,-1.343191385269165
1758274859860782600,11.714782470703126,-0.7589420676231384,-0.7536910772323608,-1.3640156984329224
1758274859870740700,11.72474072265625,-0.7599058747291565,-0.7958846092224121,-1.3241863250732422
1758274859880697600,11.734697509765626,-0.7891073822975159,-1.1268460750579834,-1.308307409286499
1758274859890654500,11.744654541015626,-0.7709278464317322,-1.2057278156280518,-1.2125571966171265
1758274859900612600,11.754612548828124,-0.7738096714019775,-1.3483669757843018,-1.0743556022644043
1758274859910569700,11.76456982421875,-0.7569774389266968,-1.5641785860061646,-0.9775431156158447
1758274859920526600,11.774526611328126,-0.7008936405181885,-1.6059590578079224,-0.9186262488365173
1758274859930484500,11.784484375,-0.6441616415977478,-1.4930897951126099,-0.9509119987487793
1758274859940441600,11.794441650390626,-0.6376408934593201,-1.2910478115081787,-1.0211288928985596
1758274859950398700,11.804398681640626,-0.6157955527305603,-1.1406875848770142,-1.0829036235809326
1758274859960355600,11.81435546875,-0.6068393588066101,-1.0889713764190674,-1.0843675136566162
1758274859970313500,11.8243134765625,-0.6105725765228271,-0.9519423842430115,-1.113822102546692
1758274859980270600,11.8342705078125,-0.6050017476081848,-0.7945597171783447,-1.1735128164291382
1758274859990227700,11.844227783203126,-0.59063321352005,-0.6237232685089111,-1.1761044263839722
1758274860000185900,11.854185791015626,-0.5865351557731628,-0.5488396883010864,-1.1216754913330078
1758274860010142500,11.864142578125,-0.5928263068199158,-0.6369817852973938,-1.0824532508850098
1758274860020099600,11.874099609375,-0.5814972519874573,-0.703994631767273,-1.0206106901168823
1758274860030056700,11.884056640625,-0.5606241822242737,-0.8440396189689636,-0.958626925945282
1758274860040014600,11.8940146484375,-0.5331690907478333,-0.8539878726005554,-0.9319284558296204
1758274860049971500,11.903971435546875,-0.511593759059906,-0.8218570947647095,-0.9136200547218323
1758274860059928600,11.913928466796875,-0.501500129699707,-0.7366948127746582,-0.9749364256858826
1758274860069886700,11.92388671875,-0.43997257947921753,-0.6223565340042114,-1.0393449068069458
1758274860079843600,11.933843505859375,-0.3750007748603821,-0.5408198237419128,-1.021906852722168
1758274860089800700,11.94380078125,-0.35810673236846924,-0.5296577215194702,-1.000335454940796
1758274860099758600,11.953758544921875,-0.3331870138645172,-0.5377577543258667,-0.9459513425827026
1758274860109715700,11.9637158203125,-0.3105227053165436,-0.5748521089553833,-0.9151175618171692
1758274860119672600,11.973672607421875,-0.3029066026210785,-0.6125004291534424,-0.8616870641708374
1758274860129629700,11.983629638671875,-0.3248007297515869,-0.6587398052215576,-0.8418537378311157
1758274860139587600,11.993587646484375,-0.3469366431236267,-0.6513053178787231,-0.8425375819206238
1758274860149544700,12.003544677734375,-0.3604907989501953,-0.5933762788772583,-0.8375588059425354
1758274860159501600,12.01350146484375,-0.3587610721588135,-0.5604814291000366,-0.8157011866569519
1758274860169459500,12.02345947265625,-0.36651673913002014,-0.5486345887184143,-0.8230467438697815
1758274860179416600,12.03341650390625,-0.39768344163894653,-0.526308536529541,-0.8018205165863037
1758274860189373700,12.043373779296875,-0.5090349912643433,-0.4402548670768738,-0.8025744557380676
1758274860199331600,12.05333154296875,-0.5337648391723633,-0.4250250458717346,-0.8022381067276001
1758274860209288700,12.063288818359375,-0.4706641733646393,-0.421218603849411,-0.7877995371818542
1758274860219245600,12.07324560546875,-0.4193570613861084,-0.39530444145202637,-0.8034884929656982
1758274860229202400,12.083202392578125,-0.4315314292907715,-0.4056473672389984,-0.784981906414032
1758274860239160600,12.09316064453125,-0.4424314796924591,-0.4049360454082489,-0.7363024950027466
1758274860249117700,12.10311767578125,-0.4463260769844055,-0.40075141191482544,-0.7497885227203369
1758274860259074600,12.113074462890625,-0.4506649076938629,-0.37093493342399597,-0.7829635143280029
1758274860269032700,12.12303271484375,-0.4455351233482361,-0.34384340047836304,-0.7884703874588013
1758274860278989600,12.132989501953125,-0.4370154142379761,-0.31984376907348633,-0.7895582914352417
1758274860288946700,12.14294677734375,-0.421518474817276,-0.3012882173061371,-0.802160918712616
