time,seconds_elapsed,z,y,x
1758972208389099000,0.04609912109375,9.304765476989745,0.020949264526367185,-1.4330793312072754
1758972208399057200,0.05605712890625,9.771185887908935,0.11911153259277343,-0.9003694618225098
1758972208409015300,0.066015380859375,10.810718321228027,0.6322188758850097,-0.18300678939819334
1758972208418973200,0.07597314453125,11.816283018493651,0.9714473236083984,0.8340800033569336
1758972208428931300,0.085931396484375,12.205340788269043,0.9629179801940917,1.8397943382263182
1758972208438889200,0.09588916015625,12.469900071716308,0.4777928688049316,2.7973253646850584
1758972208448848100,0.10584814453125,11.213991663360595,-0.2694973243713379,3.6195839973449706
1758972208458806300,0.11580615234375,9.437793306732177,-1.5701473762512206,4.00909067993164
1758972208468764200,0.12576416015625,7.010671373748779,-2.385821954345703,2.8878561149597166
1758972208478722000,0.13572216796875,5.6940100982666015,-0.3660135787963867,-0.41105449752807616
1758972208488680200,0.14568017578125,8.234108422088623,2.9568390502929685,-2.3656208778381345
1758972208498638000,0.15563818359375,8.366986614227294,4.157680820465088,0.19602526092529296
1758972208508596200,0.16559619140625,7.481131999969482,3.905840733337402,3.8400001876831054
1758972208518555100,0.17555517578125,7.021894194030761,3.8877345832824703,4.810400048065185
1758972208528513300,0.18551318359375,6.911012729644775,3.775207105255127,4.142717060089111
1758972208538471200,0.19547119140625,7.82709413986206,3.5227684677124023,3.1694740852355956
1758972208548429300,0.20542919921875,8.3256866355896,3.8602012641906738,2.8803742347717285
1758972208558387200,0.21538720703125,8.286182308197022,4.594173710632324,3.21122297668457
1758972208568345000,0.225344970703125,7.200262217712402,4.410269095611572,3.284096489715576
1758972208578304000,0.235303955078125,6.358251421356201,4.031685958099365,4.046200805664062
1758972208588262100,0.24526220703125,6.800280902862548,4.21394455947876,5.3853077217102046
1758972208598220000,0.255219970703125,7.035960128784179,3.809474116516113,5.754762965393066
1758972208608178200,0.26517822265625,8.050503082275391,3.322254078674316,5.556493140411376
1758972208618136000,0.275135986328125,9.52518166732788,1.6301520553588866,5.00507857055664
1758972208628094200,0.28509423828125,12.434735234832763,-3.7952585441589353,4.217236586761475
1758972208638053000,0.29505322265625,14.506767134094238,-2.5947160491943357,7.858218761444092
1758972208648011300,0.30501123046875,14.669872122192382,0.9421183532714843,9.65895768508911
1758972208657969200,0.31496923828125,12.106579969787598,1.197100830078125,8.546402101135254
1758972208667927300,0.32492724609375,9.178022426605224,0.12764087600708007,7.6568065467834465
1758972208677885000,0.334885009765625,7.795819880676269,-1.8306664443969725,6.765864253997802
1758972208687843000,0.344843017578125,7.506720030212402,-2.1719898185729978,6.526743363189697
1758972208697801200,0.35480126953125,6.188113465881347,-2.015319247436523,6.268917771911621
1758972208707760000,0.364760009765625,5.153369435882568,-2.951452096557617,6.094589963531494
1758972208717718000,0.374718017578125,5.129128144073486,-4.0726866615295405,5.15830747680664
1758972208727676200,0.38467626953125,4.890007253265381,-5.287744004058838,3.7825393478393554
1758972208737634300,0.39463427734375,4.2417771537780755,-6.418555375671386,2.137273894500732
1758972208747592200,0.40459228515625,3.6234745750427244,-7.363666481018066,1.052251629638672
1758972208757550300,0.41455029296875,3.4428619873046875,-7.9943889808654784,0.9445125549316405
1758972208767509200,0.42450927734375,3.7229835815429686,-7.175422375488281,1.9397522575378416
1758972208777467100,0.434467041015625,3.595193067932129,-5.893925936889648,2.8835166244506834
1758972208787425300,0.44442529296875,3.70951619720459,-4.923077163696289,3.76682739944458
1758972208797383200,0.454383056640625,4.332906454467773,-3.978115695953369,4.455609289550781
1758972208807341000,0.464341064453125,6.171354054260253,-3.5818753211975096,5.595847830200195
1758972208817299200,0.47429931640625,8.398410511016845,-3.0460230621337887,7.797765169525146
1758972208827258000,0.484258056640625,11.318438710784912,-1.0672153900146484,10.587608654022215
1758972208837216300,0.49421630859375,9.850493817901611,1.3018471527099609,12.274174085998535
1758972208847174100,0.504174072265625,7.844302464294433,2.941276739501953,13.759327303314208
1758972208857132300,0.51413232421875,8.376862696075438,4.729895017242431,15.288025063323973
1758972208867090200,0.524090087890625,8.725219037628174,5.944952359771728,15.618275254821777
1758972208877048300,0.53404833984375,8.35770908279419,6.382642350769043,16.18435430984497
1758972208887007200,0.54400732421875,8.407089492034912,7.713519198608398,17.221941454315186
1758972208896965400,0.55396533203125,7.895478524780273,8.372523205566406,16.881964818572996
1758972208906923000,0.563923095703125,7.028478248596191,7.898321639251709,15.556923837280273
1758972208916881200,0.573881103515625,5.201253469085693,7.474099032592773,13.950264885711668
1758972208926839000,0.583839111328125,2.855684030151367,7.151031446075439,12.330288187408447
1758972208936797200,0.593797119140625,1.0913070442199706,7.013813763427734,11.214739851379393
1758972208946755000,0.603755126953125,-0.44158056869506834,6.797886701202392,10.835408525848388
1758972208956714200,0.61371435546875,-2.4301146850585935,6.890063465118407,10.949432379913329
1758972208966672100,0.623672119140625,-4.4373535018920895,7.277924134063721,11.26786120071411
1758972208976630300,0.63363037109375,-6.597671587371826,7.391648712921143,11.26187569656372
1758972208986588200,0.643588134765625,-7.223156771087646,6.359298884582519,11.317690522766112
1758972208996546300,0.65354638671875,-5.064335061645507,4.6903906898498535,11.475558194732665
1758972209006504000,0.66350390625,-2.1218612213134764,3.5079543449401855,11.704503728485106
1758972209016463400,0.67346337890625,1.1646294700622557,2.1785738731384274,11.732485960388184
1758972209026421000,0.6834208984375,3.0261212608337402,1.2401964599609374,11.997194881439208
1758972209036379100,0.693379150390625,2.6780641944885253,0.7266402038574218,13.067253385925293
1758972209046337000,0.7033369140625,2.2055086418151855,0.15517419509887695,13.04944651107788
1758972209056295200,0.713295166015625,1.1905167755126953,-0.28057050704956055,12.120346629333495
1758972209066253300,0.72325341796875,-0.9253589416503906,-1.5307926864624022,10.876259591674804
1758972209076212200,0.733212158203125,-7.534702262115478,-3.60716407623291,9.28905352859497
1758972209086170000,0.743170166015625,-6.4828995452880855,-0.5632359405517577,8.654141175842284
1758972209096128300,0.753128173828125,1.441010124206543,-0.7914332862854003,10.20318964996338
1758972209106086100,0.763086181640625,2.41320563583374,-4.671985264587402,10.510096375274658
1758972209116044300,0.773044189453125,3.955670055389404,-4.923825351715087,8.464251056671142
1758972209126002200,0.783002197265625,2.842216645812988,-5.189282460784912,7.296479196929932
1758972209135961000,0.792961181640625,1.1520599113464354,-4.132242427825927,5.655104321289063
1758972209145919000,0.8029189453125,0.4976946701049804,-1.9575591323852537,5.061342309570312
1758972209155877000,0.812877197265625,-2.6095301719665525,-3.125929542541504,7.516446474456787
1758972209165835300,0.822835205078125,-1.6536451591491699,-5.351938536071777,8.195950833129883
1758972209175793200,0.832793212890625,-0.45025954971313475,-4.2588358406066895,7.027430785369873
1758972209185751300,0.842751220703125,0.9268553176879882,-5.842600238800048,8.95760623626709
1758972209195710200,0.852710205078125,3.925742534637451,-6.745812815093994,8.889970039367675
1758972209205668000,0.862668212890625,4.989815534973144,-8.507795599365235,7.231835752105712
1758972209215626200,0.872626220703125,-2.0944775398254394,-9.279775997161865,6.236147136688232
1758972209225584400,0.88258447265625,-7.0747162681579585,-10.601225675964354,6.8970964324951165
1758972209235542000,0.8925419921875,-0.9985317298889159,-7.36770669631958,6.862530146026611
1758972209245500200,0.902500244140625,2.843713021850586,-4.498854557037353,5.334430936431884
1758972209255459000,0.912458984375,0.8031050193786621,-5.788431426239013,4.5884874816894525
1758972209265417200,0.922417236328125,-0.17986439971923826,-5.792172366333007,4.0355765357971185
1758972209275375000,0.932375,0.7146691955566405,-5.129128144073486,3.2070331237792966
1758972209285333200,0.942333251953125,1.73654439163208,-6.091447573852538,3.4632127014160154
1758972209295291100,0.952291015625,0.8999205490112304,-7.022492744445801,3.463511976623535
1758972209305249300,0.962249267578125,0.6955155822753906,-7.608623238372802,4.0520366722106935
1758972209315207200,0.972207275390625,-2.766350380706787,-8.008754190826416,4.825812721252441
1758972209325166300,0.982166259765625,-4.342183985900879,-7.14399847869873,5.63744708404541
1758972209335124200,0.992124267578125,-3.6935049736022947,-6.5874962303161615,8.410231881713866
1758972209345082000,1.00208203125,-2.3452701637268065,-6.816142488861083,10.386794989776611
1758972209355040000,1.0120400390625,-0.030974983978271482,-8.724470849609375,10.630554646301269
1758972209364998100,1.021998046875,2.6535236274719236,-11.270704315185545,8.915857344818114
1758972209374955800,1.031955810546875,4.99280828704834,-12.63465107345581,6.810156984710693
1758972209384915200,1.041915283203125,5.4649149269104,-11.736975088500976,6.795791774749755
1758972209394872800,1.051872802734375,2.959233251953125,-12.175862180328368,6.51806438217163
1758972209404831000,1.0618310546875,1.479915901184082,-13.829208064270018,5.677101049041748
1758972209414788900,1.071788818359375,0.9989806427001953,-15.192556272125243,6.298097104644775
1758972209424747000,1.0817470703125,-0.6968623207092285,-15.114744718170165,9.58294178237915
1758972209434705000,1.091704833984375,-1.9285294372558592,-13.524396265411376,11.882273201751708
1758972209444664000,1.1016640625,-2.8004677543640133,-10.849324822998046,13.053636363983154
1758972209454622000,1.1116220703125,-2.4693197372436524,-8.877550118255614,14.761899248504637
1758972209464580000,1.121580078125,-1.6136919189453125,-7.016806515502929,15.599869829559326
1758972209474538000,1.1315380859375,-0.9196727127075195,-6.603507453918457,15.345186627960205
1758972209484496100,1.14149609375,0.9898527488708495,-6.967725381469726,15.121927323150635
1758972209494454000,1.1514541015625,2.699013459014892,-6.911611280059814,14.17936005706787
1758972209504413000,1.161412841796875,3.085976302337646,-7.82110863571167,12.07306114654541
1758972209514370800,1.171370849609375,2.607884158325195,-8.809165733337402,8.821436016845702
1758972209524329000,1.181328857421875,0.6120177993774414,-9.044994596862793,6.772298670959472
1758972209534286800,1.191286865234375,-0.7459434547424316,-9.34591581802368,5.073612593078613
1758972209544245000,1.201244873046875,-0.8875006278991698,-9.930549935913085,3.4855087043762203
1758972209554203100,1.211203125,-0.011821370697021483,-10.569502503967284,3.0156466285705563
1758972209564162000,1.221162109375,0.9846154327392578,-10.740987197875976,2.7124808433532714
1758972209574120000,1.231119873046875,1.228973639678955,-10.47044241027832,3.650558981323242
1758972209584078000,1.241078125,0.7899369102478027,-9.949404273986817,4.790198971557617
1758972209594036200,1.2510361328125,-0.040701428222656245,-8.939500086212158,5.3016603012084955
1758972209603993900,1.260993896484375,-0.9828197814941406,-7.455543969726562,5.436483782196045
1758972209613952000,1.270951904296875,-2.1365257064819336,-5.381716419219971,5.2618566986083986
1758972209623911000,1.280910888671875,-2.655169641113281,-5.775113679504394,3.9209541313171385
1758972209633869000,1.290869140625,-2.046892781829834,-6.38473727722168,3.3918355644226073
1758972209643827000,1.300826904296875,-2.8262054222106934,-6.4083800186157225,4.574571184539795
1758972209653785000,1.31078515625,-4.057573263549805,-6.832153712463379,5.249736052703857
1758972209663743000,1.320742919921875,-3.826682440948486,-7.145794129943847,5.570110162353515
1758972209673701000,1.330701171875,-0.5587468124389648,-7.4962453979492185,5.393238514709473
1758972209683660000,1.340659912109375,0.9980828170776367,-7.894730336761474,5.325303042602539
1758972209693618200,1.3506181640625,0.10729016189575195,-8.25475841140747,5.488856943511963
1758972209703576000,1.360576171875,2.421585341644287,-11.123760188293456,5.412541765594482
1758972209713534200,1.3705341796875,4.068496808624268,-12.744335437011719,5.44576131362915
1758972209723491800,1.380491943359375,2.0661960327148434,-9.424774835205078,5.313481671905517
1758972209733450000,1.390449951171875,2.0190601875305174,-9.560346504211426,3.976020769500732
1758972209743409000,1.400408935546875,1.9282301620483397,-9.430909976959228,4.080767092132568
1758972209753367000,1.410366943359375,1.8709189598083495,-9.213486538696289,4.127304386901855
1758972209763325000,1.420324951171875,1.5649100601196289,-9.361478128814698,3.771017252349853
1758972209773283000,1.430282958984375,1.004217958831787,-8.924685963439941,3.7924154296875
1758972209783241000,1.440240966796875,0.3407248237609863,-8.237998999786376,4.301781832885742
1758972209793199000,1.45019921875,-0.11148001480102539,-8.047959243011475,4.878485157775879
1758972209803158000,1.460157958984375,-0.46417584686279295,-8.108712110137938,5.42645806274414
1758972209813116200,1.4701162109375,-0.615459464263916,-8.172906642150878,5.746233621978759
1758972209823074000,1.480073974609375,-0.48976387710571284,-8.182034535980224,5.90559766998291
1758972209833032000,1.490031982421875,-0.46148236999511716,-8.039878812408446,6.171653329467773
1758972209842989800,1.49998974609375,-0.5556044227600098,-7.802254297637939,6.391470969390869
1758972209852948000,1.509947998046875,-0.5382464607238769,-7.726986582946777,6.478560054779052
1758972209862907000,1.519906982421875,-0.6497264755249023,-7.608922513580322,6.561010374450683
1758972209872865000,1.529864990234375,-0.8987234481811522,-7.521983065795898,6.613533173370361
1758972209882823000,1.539822998046875,-1.2419921112060546,-7.4217258712768555,6.766612442016601
1758972209892781000,1.549781005859375,-1.4067431129455565,-7.288398766326904,6.919392435455322
1758972209902739000,1.559739013671875,-1.3561656028747557,-7.1038956008911125,6.930016705322266
1758972209912697000,1.569697021484375,-1.3699322624206542,-7.254879943084716,6.9144543945312495
1758972209922656000,1.579656005859375,-1.350180098724365,-8.059032425689697,6.752097594451904
1758972209932614100,1.5896142578125,-0.7685387329101562,-7.6187985954284665,6.362590911865234
1758972209942572000,1.599572021484375,-0.3963900123596191,-7.005134782409668,6.234052210235595
1758972209952530000,1.609530029296875,-0.32142157287597656,-7.0102224609374995,6.347477513885497
1758972209962488000,1.619488037109375,-0.4381389038085937,-7.8347256576538085,6.190507667541503
1758972209972446000,1.629446044921875,-0.6287772109985351,-8.621220903015136,5.6574985229492185
1758972209982404900,1.63940478515625,-1.4716858329772948,-8.509890525817871,4.684704460906982
1758972209992363000,1.649363037109375,-0.7369651985168456,-7.144297753906249,4.186261602783203
1758972210002321000,1.65932080078125,-0.5080196647644043,-5.550657273864746,4.825513446044922
1758972210012279000,1.669279052734375,-0.06958148574829101,-4.829703298950195,6.651541124725341
1758972210022237200,1.6792373046875,0.5666776054382324,-4.961384390258789,8.456020988464354
1758972210032195000,1.689195068359375,0.960224503326416,-5.438877983856201,9.20076734237671
1758972210042154000,1.699154052734375,1.3307272102355956,-6.162974348449707,9.067739512634278
1758972210052112100,1.709112060546875,1.4321815055847167,-6.867767462158203,8.560168760681151
1758972210062070000,1.719070068359375,1.1968015548706055,-7.465120776367187,7.942315094757079
1758972210072028000,1.72902783203125,0.8717886795043944,-8.10796392211914,7.336881349945068
1758972210081986000,1.738986083984375,0.6693290016174316,-8.768913217926025,6.77349577178955
1758972210091944000,1.74894384765625,0.27832594299316404,-9.236231454467774,6.054935998535156
1758972210101902800,1.75890283203125,-0.1566705711364746,-9.715071786499022,5.185092607879638
1758972210111861000,1.768861083984375,-0.436043977355957,-10.094702387237549,4.742913488769531
1758972210121819100,1.778819091796875,-0.5758054992675781,-10.370484490966795,4.76910006942749
1758972210131777000,1.788777099609375,-0.5166986457824707,-10.390835205078124,5.223998384857177
1758972210141735200,1.798735107421875,-0.3576338729858398,-10.34265189666748,5.43932689666748
1758972210151693000,1.808693115234375,-0.40028059005737304,-10.317363141632079,5.1505263214111325
1758972210161652000,1.81865185546875,-0.778265177154541,-9.859920986938477,5.075857157135009
1758972210171610000,1.828610107421875,-0.7935282127380371,-8.55538035736084,4.914547820281983
1758972210181568000,1.838568115234375,-0.2554313896179199,-6.929567792510986,4.796184475708007
1758972210191526000,1.84852587890625,0.412401235961914,-5.138106400299072,5.145139367675781
1758972210201484000,1.858484130859375,0.6510732139587402,-5.012859725952148,5.711368060302734
1758972210211442000,1.86844189453125,1.0217255584716796,-5.583727184295654,6.306327172851562
1758972210221401000,1.878401123046875,1.405695649719238,-5.880907465362548,7.353491123962402
1758972210231359000,1.88835888671875,1.8160019592285155,-5.836764372253418,8.49821879272461
1758972210241317000,1.898317138671875,1.7308581626892088,-6.161477972412109,9.173533298492432
1758972210251275000,1.90827490234375,1.5966332321166992,-6.1082069854736325,9.026289896392822
1758972210261233200,1.918233154296875,1.7482161247253416,-5.83526799621582,8.685415435028075
1758972210271192000,1.928192138671875,1.6090531532287597,-5.748627823638916,8.218246836090087
1758972210281150200,1.938150146484375,1.4496891052246093,-5.998073709106445,7.548917834472656
1758972210291107800,1.94810791015625,1.371428638458252,-5.8916813728332516,6.976703637695312
1758972210301066000,1.95806591796875,1.1846809089660644,-6.244526842498779,6.5874962303161615
1758972210311023900,1.96802392578125,0.8954314208984374,-6.757185272979736,6.457910065460204
1758972210320982000,1.97798193359375,1.3159130874633789,-6.312911227416992,6.624905631256103
1758972210330941000,1.98794091796875,1.3518261123657225,-6.750002667999267,6.704812111663818
1758972210340899000,1.997899169921875,1.2217910346984862,-7.269245153045654,6.487388673400878
1758972210350857000,2.00785693359375,1.096843635559082,-7.796268793487548,6.215048234558105
1758972210360815000,2.017815185546875,0.46193128280639645,-8.438363751220702,6.005854864501953
1758972210370773000,2.02777294921875,-0.9080009796142577,-8.876951567840576,5.542427205657959
1758972210380731100,2.037731201171875,-2.7238533012390134,-9.102305799102783,5.021688344573974
1758972210390690000,2.04768994140625,-3.7141549629211426,-9.044695321655272,4.817582653045654
1758972210400648200,2.057648193359375,-1.9632453613281249,-8.425345279693603,5.257666845703125
1758972210410605800,2.067605712890625,0.40940848388671874,-7.644236988067626,6.1644707244873045
1758972210420564000,2.07756396484375,1.4547767837524412,-7.318475924682617,6.437409713745117
1758972210430521900,2.08752197265625,2.130390564727783,-6.5777697860717765,6.782773303222656
1758972210440480000,2.09747998046875,2.43250888671875,-6.269965235137939,7.2614639976501465
1758972210450439000,2.10743896484375,2.2822727325439454,-6.22477467880249,7.34855308303833
1758972210460397000,2.11739697265625,1.7854758880615234,-6.312761589813232,7.275230657196045
1758972210470355000,2.12735498046875,1.022773021697998,-6.5312324913024895,7.049427513122558
1758972210480313000,2.13731298828125,0.2002151138305664,-6.838438491821289,6.756736360168457
1758972210490271000,2.14727099609375,-0.5306149429321289,-7.1686886833190915,6.469881073760986
1758972210500228900,2.157228759765625,-0.9132382957458496,-7.360524091339111,6.33326194152832
1758972210510188000,2.16718798828125,-0.6748655929565429,-7.3861121215820305,6.337900707244873
1758972210520146000,2.17714599609375,-0.042646717071533204,-7.265653850555419,6.532579229736328
1758972210530103800,2.187103759765625,0.6289268486022949,-7.052869178009033,6.750900493621826
1758972210540062000,2.19706201171875,1.1698667861938477,-6.8326026252746574,6.949319956207275
1758972210550020000,2.20702001953125,1.5346832641601562,-6.6054527427673335,7.1407064514160155
1758972210559978000,2.21697802734375,1.7700632148742674,-6.437858626556396,7.2444053108215325
1758972210569937000,2.22693701171875,1.917156979370117,-6.353762293243408,7.413944715881347
1758972210579895000,2.23689501953125,1.9268834236145018,-6.4356140625,7.571213837432861
1758972210589853000,2.24685302734375,1.899350104522705,-6.534524518585204,7.6382514839172355
1758972210599811000,2.25681103515625,1.7911621170043943,-6.59497811050415,7.634959456634521
1758972210609769200,2.266769287109375,1.5583260055541992,-6.75479107131958,7.6856866043090815
1758972210619726800,2.276726806640625,1.2515689178466796,-6.904129399871826,7.763797433471679
1758972210629686000,2.28668603515625,0.9841665199279784,-7.010671373748779,7.792677490997314
1758972210639644000,2.296643798828125,0.74055650100708,-7.0573583061218255,7.885752080535888
1758972210649602000,2.30660205078125,0.5925649108886718,-7.045088022613525,8.037185335540771
1758972210659560000,2.316559814453125,0.5223848747253418,-6.9527616210937495,8.24892254486084
1758972210669518000,2.32651806640625,0.5102642288208008,-6.750750856018066,8.508693424987792
1758972210679476000,2.33647607421875,0.4269160835266113,-6.542156036376952,8.803180229187012
1758972210689435000,2.346434814453125,0.14769231491088866,-6.38398908920288,9.114127169799804
1758972210699393000,2.35639306640625,-0.20530279235839843,-6.412120958709717,9.430909976959228
1758972210709351200,2.36635107421875,-0.385616104888916,-6.668300536346435,9.926060807800292
1758972210719309000,2.37630908203125,-0.02483984222412109,-7.116914072418212,10.633996311187744
1758972210729267000,2.386266845703125,0.7143699203491211,-7.497741773986816,11.069441738128662
1758972210739226000,2.39622607421875,1.2205939338684082,-7.528267845153808,10.819995852661132
1758972210749184000,2.40618408203125,1.1812392440795898,-7.348702720642089,10.088417607879638
1758972210759142000,2.416141845703125,0.5588964500427246,-7.368305246734619,9.280374547576903
1758972210769100000,2.42610009765625,-0.7700351089477538,-7.5971011428833,8.347683363342284
1758972210779058000,2.436057861328125,-2.4479215599060056,-7.776666267395019,7.737161940002441
1758972210789016000,2.44601611328125,-3.5679590240478514,-7.762600332641601,7.626130838012695
1758972210798975000,2.45597509765625,-3.4467525650024413,-7.597998968505859,7.781753945922851
1758972210808933000,2.46593310546875,-2.695571794128418,-7.478438523101806,7.995586081695556
1758972210818891000,2.47589111328125,-2.126499987030029,-7.4494088279724116,7.990199127960205
1758972210828849200,2.48584912109375,-1.8689736709594726,-7.410054138183593,7.638401121520996
1758972210838807000,2.49580712890625,-1.8932149627685546,-7.32251613998413,7.193378887939453
1758972210848765000,2.505764892578125,-2.103605433654785,-7.359626265716552,6.755239984130859
1758972210858724000,2.51572412109375,-2.463633508300781,-7.462576937103271,6.295553265380859
1758972210868682000,2.525681884765625,-2.952798834991455,-7.709927896118163,5.889885721588135
1758972210878639900,2.535639892578125,-3.132663234710693,-8.07639038772583,5.712714798736572
1758972210888598000,2.545597900390625,-2.5380033973693847,-8.463802143859862,5.867739356231689
1758972210898556000,2.555555908203125,-1.4305354919433593,-8.851662812805175,6.161777247619629
1758972210908514000,2.56551416015625,-0.27623101654052734,-9.221566969299316,6.436212612915039
1758972210918473000,2.575472900390625,0.649277562713623,-9.469815753936768,6.580762538146972
1758972210928431000,2.58543115234375,1.4790180755615234,-9.463231699371338,6.719775872039794
1758972210938389000,2.595388916015625,2.1040543464660644,-9.144204328155517,6.686107411193848
1758972210948347100,2.60534716796875,2.3425766868591307,-8.652345524597168,6.469581798553467
1758972210958304800,2.6153046875,1.868075845336914,-8.092251973724364,6.394164446258545
1758972210968263000,2.625262939453125,1.0486603271484374,-7.608623238372802,6.68446139755249
1758972210978221800,2.635221923828125,-0.09472060317993164,-7.274482469177245,7.094767707061767
1758972210988180000,2.645179931640625,-1.3829507339477538,-6.997802539825439,7.658751835632324
1758972210998137900,2.655137939453125,-2.0733786376953125,-6.798335614013672,8.097489289855957
1758972211008096000,2.665095947265625,-1.943343560028076,-6.756437084960937,8.147019336700438
1758972211018054000,2.675053955078125,-1.3486837226867674,-6.721571523284911,7.802254297637939
1758972211028012000,2.685011962890625,-0.6296750366210937,-6.725911013793945,7.238270169067382
1758972211037971000,2.694970947265625,-0.14993687896728514,-6.830358061218261,6.747458828735351
1758972211047929000,2.70492919921875,0.06913257293701172,-6.915202582550048,6.355408306884765
1758972211057887000,2.714886962890625,-0.1666962905883789,-6.919691710662842,6.14801058807373
1758972211067845000,2.72484521484375,-0.7281365798950195,-6.981492041015625,5.907991871643066
1758972211077803000,2.734802978515625,-1.064821188354492,-7.148188331604003,5.8080339523315425
1758972211087761000,2.744760986328125,-1.0600327850341795,-7.354239311981201,5.748478186035156
1758972211097719800,2.7547197265625,-0.8049006706237792,-7.631218516540527,6.108955173492431
1758972211107678000,2.764677978515625,-1.284489190673828,-7.520187414550781,6.8056678565979
1758972211117635800,2.7746357421875,-1.4085387641906737,-7.147589781188964,6.7477581039428705
1758972211127594000,2.784593994140625,-1.1254244178771973,-7.000645654296875,6.500407144927978
1758972211137552100,2.79455224609375,-0.9974842666625976,-7.222558220672607,5.690418795776367
1758972211147511000,2.804510986328125,-1.0547954689025878,-7.465868964385986,4.511573753356934
1758972211157469000,2.814468994140625,-1.0471639511108397,-7.324760704040527,3.7867292007446287
1758972211167427000,2.824427001953125,-1.2253823371887207,-6.878092456817627,3.421164534759521
1758972211177385200,2.83438525390625,-1.5665560737609863,-6.418854650878906,3.209427325439453
1758972211187342800,2.8443427734375,-1.777395457458496,-5.96275923461914,3.0129531517028805
1758972211197301000,2.854301025390625,-1.7558476425170897,-5.636848533630371,2.7410616256713864
1758972211207260000,2.864260009765625,-1.6922516609191893,-5.4518964553833005,2.410811434173584
1758972211217218000,2.874218017578125,-1.6576853744506834,-5.459827248382568,2.0796634170532227
1758972211227176000,2.884176025390625,-1.6677110939025879,-5.482123251342773,1.8851345321655273
1758972211237134000,2.894134033203125,-1.7241244705200194,-5.590311238861084,1.8876783714294432
1758972211247092000,2.904092041015625,-1.779340746307373,-5.762544120788574,2.1302409271240235
1758972211257050000,2.914050048828125,-1.9116203880310056,-5.81581510772705,2.6038439430236813
1758972211267009000,2.924009033203125,-2.1148282539367673,-5.780799908447265,3.3906384635925293
1758972211276967200,2.93396728515625,-2.2279542823791503,-5.767033248901367,4.17563733291626
1758972211286925000,2.943925048828125,-2.4473230094909666,-5.84140313796997,4.8229696067810055
1758972211296883200,2.95388330078125,-3.0041245330810544,-6.044760641479492,5.373635988616943
1758972211306840800,2.9638408203125,-3.9401077445983885,-6.331915203094482,5.9688943763732905
1758972211316799000,2.973799072265625,-5.229385338592529,-6.650044748687744,6.743418613433837
1758972211326758000,2.9837578125,-6.854748990631103,-6.909815628814697,7.797166619110107
1758972211336716000,2.993716064453125,-8.641272341918945,-7.039401793670653,9.151686208343506
1758972211346674400,3.00367431640625,-9.773280814361572,-6.958298212432861,10.656741226959229
1758972211356632600,3.013632568359375,-9.94730934753418,-6.90742142715454,11.936741289520263
1758972211366590200,3.023590087890625,-9.320178150177002,-6.960243501281738,12.735955731201171
1758972211376548400,3.03354833984375,-8.31910258102417,-7.125593053436279,13.095983805847167
1758972211386507300,3.04350732421875,-6.825420020294189,-7.420528770446777,12.80015026321411
1758972211396465400,3.05346533203125,-5.232527728271484,-7.771129676055907,11.70255843963623
1758972211406423300,3.06342333984375,-4.116979392242431,-7.899518740081787,9.945364058685302
1758972211416381400,3.07338134765625,-3.558831130218506,-7.60982033920288,7.794622779846191
1758972211426339300,3.08333935546875,-3.16019655380249,-6.6893994384765625,5.8545712471008295
1758972211436297500,3.09329736328125,-2.7533319091796873,-5.732167687225341,4.1377790191650385
1758972211446256400,3.10325634765625,-2.158672071838379,-6.454019487762451,2.7780221138000485
1758972211456214500,3.113214599609375,-1.0458172126770018,-9.291298092651367,2.683451148223877
1758972211466172400,3.12317236328125,-0.0004489128112792969,-11.199925728607177,3.361908043670654
1758972211476130600,3.133130615234375,1.1234791290283201,-11.412560763549804,3.567659748840332
1758972211486088200,3.143088134765625,0.6669347999572753,-10.87895306854248,3.7110125732421873
1758972211496046300,3.15304638671875,-3.12188932723999,-9.887005393218994,4.017320748138427
1758972211506005200,3.163005126953125,-5.272780243682861,-8.987533757019042,3.99038597946167
1758972211515963400,3.17296337890625,-2.664297534942627,-8.671199862670898,3.303250102996826
1758972211525921300,3.18292138671875,-0.6643909606933593,-7.880963677215576,3.125181354522705
1758972211535879400,3.19287939453125,0.10250175857543944,-6.835445739746094,3.608361177062988
1758972211545837300,3.20283740234375,1.7120038246154785,-6.515819818115234,4.048894282531738
1758972211555795500,3.21279541015625,2.8878561149597166,-6.960542776489257,3.9974189468383785
1758972211565754400,3.22275439453125,3.2219968841552733,-7.432799053955078,3.8302737434387204
1758972211575712500,3.23271240234375,3.168426622009277,-7.852083619689941,3.8486791687011714
1758972211585670400,3.24267041015625,3.244292887115478,-8.429385494995117,3.8979099403381343
1758972211595628300,3.252628173828125,3.334075449371338,-9.064148210144042,4.562300901031493
1758972211605586200,3.262586181640625,3.162890030670166,-9.475950895690918,5.383512070465088
1758972211615544300,3.27254443359375,2.9013234992980954,-9.306860403442382,6.189160929107666
1758972211625503200,3.282503173828125,2.6843489738464354,-8.646509658050537,6.644208882141113
1758972211635461400,3.29246142578125,2.260575279998779,-7.962516171264648,7.075015543365478
1758972211645419300,3.302419189453125,1.9155109657287597,-7.463624400329589,7.363965756225586
1758972211655377400,3.31237744140625,1.8330606460571288,-7.2912418807983395,7.197419103240966
1758972211665335300,3.322335205078125,1.8671780197143553,-7.352443660736084,6.995258700561523
1758972211675293400,3.33229345703125,1.9098247367858885,-7.295880646514892,6.964283716583251
1758972211685252400,3.34225244140625,1.8848352569580078,-7.044040559387207,7.079654309082031
1758972211695210500,3.35221044921875,2.0006547622680664,-6.676680242156982,7.352144385528564
1758972211705168400,3.36216845703125,2.1805191619873048,-6.368576416015625,7.644386625671387
1758972211715126300,3.372126220703125,2.360233924102783,-6.005854864501953,8.002619049072266
1758972211725084400,3.38208447265625,2.055122850036621,-5.5084594696044915,8.19639974594116
1758972211735042300,3.392042236328125,1.6434698020935057,-5.217264692687988,8.545803550720214
1758972211745001200,3.402001220703125,0.9109937316894531,-5.091419467926025,8.735693669891356
1758972211754959400,3.41195947265625,-0.27084406280517576,-5.15217233505249,8.622418003845214
1758972211764917200,3.421917236328125,-1.074547632598877,-5.467159490966797,8.128314636230469
1758972211774875400,3.43187548828125,-1.6593313880920408,-5.791573815917968,7.196820552825927
1758972211784833500,3.44183349609375,-1.8851345321655273,-6.0160302215576165,6.28253479385376
1758972211794792400,3.45179248046875,-1.5949872184753418,-5.972036766052246,5.970241114807129
1758972211804750300,3.461750244140625,-0.9916484001159668,-5.870133557891846,6.26308190536499
1758972211814708500,3.47170849609375,-0.5466261665344238,-5.88614478149414,6.692242552947998
1758972211824666400,3.481666259765625,-0.37394437179565426,-5.950638588714599,6.815843213653564
1758972211834624300,3.491624267578125,-0.2015618522644043,-5.86130493927002,6.900687734985351
1758972211844582400,3.50158251953125,-0.08738836059570312,-5.88584550628662,7.078157933044433
1758972211854541300,3.511541259765625,0.01092354507446289,-6.026953766632079,7.138461887359619
1758972211864499500,3.52149951171875,0.16519991455078123,-6.225223591613769,7.157914775848388
1758972211874457300,3.531457275390625,0.29837738189697266,-6.387131478881836,7.1793129531860345
1758972211884415500,3.54141552734375,0.4626794708251953,-6.415562623596191,7.1860466453552245
1758972211894373400,3.551373291015625,0.5584475372314452,-6.395511184692382,7.208492285919189
1758972211904331500,3.56133154296875,0.6304232246398925,-6.315455066680908,7.199962942504882
1758972211914290400,3.57129052734375,0.6548141540527344,-6.239139888763427,7.139958263397216
1758972211924248600,3.58124853515625,0.7209539749145507,-6.284480082702636,7.077559382629394
1758972211934206500,3.59120654296875,0.7733271362304687,-6.472574550628662,7.065438736724853
1758972211944164400,3.601164306640625,0.7959224143981933,-6.644957070159911,7.206846272277832
1758972211954122200,3.611122314453125,0.838269856262207,-6.760178025054931,7.4497081031799315
1758972211964080400,3.621080322265625,0.8898948295593261,-6.853701527404785,7.7033438415527336
1758972211974039300,3.631039306640625,0.9347861106872558,-6.879588832855224,7.923760031890868
1758972211983997400,3.64099755859375,1.045069024658203,-6.8314055244445795,8.201188149261474
1758972211993955300,3.650955322265625,1.1978490180969237,-6.744316439056396,8.444349255371094
1758972212003913500,3.66091357421875,1.3531728507995604,-6.77993018875122,8.540266959381103
1758972212013871400,3.670871337890625,1.4628572143554686,-6.839785230255127,8.566004627227782
1758972212023829500,3.68082958984375,1.4657003288269042,-6.808959883880615,8.574833245849609
1758972212033788400,3.690788330078125,1.310077220916748,-6.825569657897949,8.636483938598632
1758972212043746600,3.70074658203125,1.0305541770935058,-6.905176863098144,8.828768259429932
1758972212053704200,3.7107041015625,0.7538742477416992,-7.369951260375976,9.399186804962158
1758972212063662300,3.720662353515625,0.2819172454833984,-8.373720306396484,10.737545532989502
1758972212073620200,3.7306201171875,-1.9762638328552244,-9.38467195739746,11.97026011276245
1758972212083578400,3.740578369140625,-5.646126065063476,-10.150816488647461,12.37966859664917
1758972212093537300,3.750537353515625,-5.815216557312011,-10.025869089508056,12.295123350524902
1758972212103495400,3.760495361328125,-4.18835652923584,-9.264363323974608,11.072434490203857
1758972212113453300,3.770453369140625,-3.8612487274169918,-8.66296979446411,9.607631986999511
1758972212123411500,3.780411376953125,-4.785410568237304,-8.01877991027832,8.688707462310791
1758972212133369300,3.790369384765625,-6.017825872802734,-7.33523533630371,8.164826211547851
1758972212143327500,3.800327392578125,-5.8563668983459465,-7.015010864257812,7.486967866516113
1758972212153286400,3.810286376953125,-4.752041382598876,-6.99076957244873,6.791153009033203
1758972212163244500,3.82024462890625,-3.599382920837402,-7.113771682739257,6.395211909484863
1758972212173202200,3.8302021484375,-1.795800882720947,-7.527968569946289,6.359598159790039
1758972212183160300,3.840160400390625,0.5645826789855957,-8.412027532958984,7.040449256896972
1758972212193118200,3.8501181640625,2.7513866203308104,-9.240421307373046,8.393921382904052
1758972212203076400,3.860076416015625,4.235342736816406,-9.721955116271973,9.247903187561034
1758972212213035300,3.87003515625,5.072265854644775,-10.039186836242676,9.229348124694823
1758972212222993400,3.879993408203125,5.325751955413818,-10.389488466644286,8.645162919616698
1758972212232951300,3.889951416015625,4.8403275688171385,-10.612448496246337,7.925256407928466
1758972212242909400,3.899909423828125,3.0635306617736813,-10.257957012939453,7.287650578308105
1758972212252867600,3.90986767578125,-0.16445172653198242,-9.268403539276122,7.102548862457275
1758972212262825500,3.919825439453125,-4.741267475128174,-8.303091357421874,7.287500940704345
1758972212272784400,3.929784423828125,-6.366930402374267,-7.943811470794677,7.359326990509032
1758972212282742300,3.9397421875,-3.8865374824523924,-8.28079535446167,7.0649898239135736
1758972212292700400,3.949700439453125,-0.8592191207885742,-8.58066911239624,6.771999395751953
1758972212302658300,3.959658203125,1.271171443939209,-8.455721713256835,6.327426074981689
1758972212312616400,3.969616455078125,1.8695722213745116,-7.8399629737854,5.904699844360351
1758972212322574300,3.97957421875,1.0235212097167967,-7.116165884399414,5.412841040802002
1758972212332533200,3.989533203125,-0.03247136001586914,-6.5291375648498535,4.9090112289428705
1758972212342491400,3.999491455078125,-0.3532943824768066,-6.0598740394592285,4.819677579498291
1758972212352448800,4.00944873046875,-0.1740285331726074,-5.690119520568848,4.862623571777344
1758972212362406700,4.01940673828125,0.3263596138000488,-5.587468124389648,4.864269585418701
1758972212372364800,4.02936474609375,0.7978677032470702,-5.63699817123413,4.995801039123535
1758972212382322400,4.039322509765625,0.7757213378906249,-5.849483568572998,4.782417816162109
1758972212392281900,4.04928173828125,0.6208464179992675,-6.1373863182067865,4.578910675048828
1758972212402239500,4.059239501953125,0.522833787536621,-6.243629016876221,4.176385520935058
1758972212412197600,4.06919775390625,0.45444940261840816,-6.174346806335449,3.657591948699951
1758972212422155500,4.079155517578125,0.31708208236694335,-6.093392862701416,3.21137261428833
1758972212432113700,4.08911376953125,0.12629413757324218,-5.922805994415283,2.7926865989685057
1758972212442071600,4.099071533203125,-0.039055414581298825,-5.750722750091552,2.4352023635864257
1758972212452030700,4.10903076171875,-0.1897404815673828,-5.6574985229492185,2.1191677444458006
1758972212461988600,4.118988525390625,-0.3887584945678711,-5.482422526550293,1.8433856407165525
1758972212471946800,4.12894677734375,-0.5871779571533203,-5.248090039062499,1.7164929527282713
1758972212481904600,4.138904541015625,-0.8409633331298828,-4.980388365936279,1.6445172653198241
1758972212491862800,4.14886279296875,-1.1013327636718748,-4.739621461486816,1.673995873260498
1758972212501820700,4.158820556640625,-1.227626901245117,-4.6724341773986815,1.8439841911315917
1758972212511779800,4.16877978515625,-1.258302610015869,-4.947019180297851,2.1805191619873048
1758972212521737500,4.178737548828125,-1.5907973655700682,-5.391592501068115,2.779668127441406
1758972212531695600,4.188695556640625,-2.6734254287719725,-5.8648962417602535,3.585466623687744
1758972212541653800,4.19865380859375,-4.339041596221923,-6.404639078521728,4.652083463287354
1758972212551611600,4.208611572265625,-6.383540176391601,-7.070975328063964,6.130652626037597
1758972212561569800,4.21856982421875,-8.792705596923827,-7.767538373565674,8.282740643310547
1758972212571528700,4.22852880859375,-11.95155541229248,-8.198943585205077,11.413458589172363
1758972212581486600,4.238486572265625,-15.43796194229126,-7.750928599548339,16.051925030517577
1758972212591444700,4.24844482421875,-14.479084177398681,-7.344961780548095,20.37286047668457
1758972212601403000,4.25840283203125,-9.475801258087158,-7.804199586486816,21.76449019165039
1758972212611360500,4.268360595703125,-7.36740742111206,-8.166621862792969,20.127305168914795
1758972212621318700,4.278318603515625,-5.612457604217529,-7.53365479888916,15.711499481964111
1758972212631277600,4.288277587890625,-3.022380320739746,-5.314080222320556,11.130194605255125
1758972212641235700,4.298235595703125,-2.183960826873779,-3.4591724861145017,7.81437494354248
1758972212651193600,4.308193603515625,-1.500865165710449,-3.9987656852722164,5.314978047943115
1758972212661151700,4.31815185546875,-0.9181763366699218,-7.287949853515625,3.8015433235168454
1758972212671109600,4.328109619140625,-2.268206797790527,-11.091288828277587,2.836530416870117
1758972212681067800,4.33806787109375,-1.2431892120361328,-12.805537216949462,2.862118447113037
1758972212691026700,4.348026611328125,1.178545767211914,-12.779200998687744,2.961477816009521
1758972212700984800,4.35798486328125,-1.1857283721923828,-12.038943772888183,1.9812018737792967
1758972212710942700,4.367942626953125,-4.420145177459717,-11.220874993133544,0.6714239280700683
1758972212720900900,4.37790087890625,-4.736479071807861,-9.920224941253661,-0.027383681488037107
1758972212730858500,4.3878583984375,-2.6452935592651365,-8.199242860412598,-0.6919242797851562
1758972212740816600,4.397816650390625,-0.5686228942871093,-6.024858840179443,-0.023642741394042967
1758972212750775600,4.407775634765625,1.9443910232543944,-4.746205516052246,1.6256629272460936
1758972212760733700,4.417733642578125,3.7042788810729976,-4.881627547454833,2.957287963104248
1758972212770691600,4.427691650390625,4.3077673370361325,-6.198887373352051,3.4235587364196776
1758972212780649700,4.437649658203125,4.509478826904297,-7.822305736541748,3.5576340293884274
1758972212790607600,4.447607666015625,4.599111751556396,-9.073276103973388,4.23264925994873
1758972212800565800,4.457565673828125,4.6712370765686035,-10.045172340393066,5.248538951873779
1758972212810524700,4.467524658203125,4.5599066993713375,-10.53418802947998,6.526144812774658
1758972212820482800,4.47748291015625,4.0532337730407715,-10.402656575775145,8.1081135597229
1758972212830440700,4.487440673828125,3.42834713973999,-9.453205979919433,8.734197293853759
1758972212840398600,4.497398681640625,2.820968106079101,-8.31865366821289,8.968080868530272
1758972212850356500,4.5073564453125,1.7399860565185545,-7.084293074798584,9.028983373260498
1758972212860314600,4.517314697265625,0.062249243164062495,-5.867589718627929,9.30177272491455
1758972212870273500,4.5272734375,-0.9706991355895995,-5.363310993957519,9.16754779434204
1758972212880231700,4.537231689453125,-0.24705168380737302,-5.632509043121337,8.81036283416748
1758972212890189600,4.547189453125,0.8858546142578124,-5.928791498565674,8.89371097946167
1758972212900147700,4.557147705078125,1.2611457244873046,-5.691166983795165,9.587131635284424
1758972212910105600,4.567105712890625,1.192013151550293,-5.435885231781006,9.954940865325927
1758972212920063700,4.577063720703125,1.171512799835205,-5.289838930511475,9.877578224182129
1758972212930022700,4.587022705078125,0.7553706237792969,-5.33757332611084,9.49315922012329
1758972212939980800,4.596980712890625,-0.027234043884277342,-5.667673880004882,8.86722512359619
1758972212949938700,4.606938720703125,-0.513256980895996,-6.152948628997803,7.933187200927734
1758972212959896600,4.616896484375,-0.7425017898559569,-6.421847402954101,7.008726084899902
1758972212969854700,4.626854736328125,-0.7220014381408691,-6.49891076889038,6.418854650878906
1758972212979812600,4.6368125,-0.4358943397521972,-6.448782171630859,6.102670394134521
1758972212989771500,4.646771484375,-0.0526724365234375,-6.4089785690307615,5.966649812316894
1758972212999729700,4.656729736328125,0.33488895721435546,-6.2964510910034175,5.825242276763916
1758972213009687600,4.6666875,0.5773018753051757,-6.144868198394775,5.633107593536376
1758972213019645700,4.676645751953125,0.6657376991271973,-6.002862112426757,5.574150377655029
1758972213029603800,4.686603759765625,0.48811786346435543,-5.888538983154296,5.6866778556823725
1758972213039561700,4.696561767578125,0.28431144714355466,-5.798307508087158,5.674856484985352
1758972213049520600,4.706520751953125,0.26605565948486326,-5.81581510772705,5.691466259002685
1758972213059478800,4.716478759765625,0.2796726814270019,-5.941809970092773,5.904550206756592
1758972213069436700,4.726436767578125,0.3280056274414062,-6.07812982711792,6.149058051300049
1758972213079394600,4.73639453125,0.42871173477172847,-6.144868198394775,6.470030711364745
1758972213089352700,4.746352783203125,0.589272883605957,-6.133944653320312,6.672191114044189
1758972213099310600,4.756310546875,0.7797615531921386,-6.187664553070068,6.78651424331665
1758972213109269500,4.76626953125,0.8499415893554687,-6.254552561950684,6.957550024414062
1758972213119227600,4.7762275390625,0.8674491889953613,-6.458059703063965,7.164947743225097
1758972213129185800,4.786185791015625,0.8451531860351562,-6.753145057678222,7.296778472137451
1758972213139143700,4.796143798828125,0.7613561279296874,-7.13756406173706,7.4326494163513175
1758972213149101800,4.806101806640625,0.6070797584533691,-7.45075556640625,7.632565254974365
1758972213159059700,4.816059814453125,0.32441432495117184,-7.479037073516845,7.963713272094726
1758972213169018600,4.8260185546875,-0.03441664886474609,-7.2535332046508785,8.372223930358887
1758972213178976800,4.835976806640625,-0.32665888900756834,-6.750002667999267,8.774599446868896
1758972213188934700,4.8459345703125,-0.4499602745056152,-6.255300749969482,9.132382957458496
1758972213198892500,4.855892578125,-0.4583399803161621,-5.957821193695068,9.502586389160156
1758972213208850700,4.8658505859375,-0.512658430480957,-5.879111814117431,9.852738381958007
1758972213218808600,4.87580859375,-0.9485527702331542,-5.9002107162475586,10.27172367248535
1758972213228767700,4.885767822265625,-2.2430676803588865,-6.152050803375244,10.5858130027771
1758972213238725600,4.8957255859375,-3.5224691925048828,-6.299743118286132,10.619331826019286
1758972213248683800,4.905683837890625,-3.0277672744750976,-6.316801805114745,10.978312437438964
1758972213258641700,4.9156416015625,-1.1555015762329102,-6.402244876861572,12.40420916366577
1758972213268599800,4.925599853515625,0.5753565864562988,-6.387730029296875,14.087033655548096
1758972213278557700,4.9355576171875,1.0823287879943848,-6.386682566070556,14.802451039123534
1758972213288516900,4.945516845703125,-0.34012627334594725,-6.782174752807617,14.161403544616698
1758972213298474500,4.955474609375,-3.989488153839111,-7.347954532623291,12.278064663696288
1758972213308432600,4.9654326171875,-7.1966709152221675,-7.665186252593994,10.332775814819335
1758972213318390500,4.975390625,-7.762301057434081,-7.544279068756103,9.556156651306152
1758972213328348700,4.9853486328125,-6.963236253356933,-7.197718378448486,8.737788596343993
1758972213338306600,4.995306640625,-5.7620952079772945,-7.139958263397216,7.363516843414306
1758972213348266000,5.005265869140625,-4.438849877929687,-7.241412558746338,6.365882939147949
1758972213358224000,5.015223876953125,-2.920177837371826,-7.681646389007568,5.659593449401855
1758972213368182000,5.02518212890625,-0.9157821350097656,-8.731653454589843,5.870133557891846
1758972213378140000,5.035139892578125,1.529745223236084,-9.655516020202636,7.492354820251465
1758972213388098000,5.04509814453125,3.5326445495605467,-10.254216072845459,8.559719847869873
1758972213398056000,5.055055908203125,4.893149642944335,-10.84693062133789,8.488492348480223
1758972213408013800,5.065013916015625,5.330091445922851,-11.158775387573241,8.595632872772216
1758972213417972700,5.07497265625,5.008071322631836,-10.88463929748535,8.55493144454956
1758972213427931000,5.084930908203125,3.7593455192565917,-11.224167020416258,7.560589567565917
1758972213437888800,5.094888671875,1.1968015548706055,-11.454309654998779,6.344484761810302
1758972213447847000,5.104846923828125,-3.0515596534729004,-10.435277573394774,6.12287147064209
1758972213457804800,5.1148046875,-6.46718759689331,-9.279327084350586,6.593631372070312
1758972213467763000,5.124762939453125,-5.186738621520996,-8.845228395843506,6.599167963409424
1758972213477721900,5.134721923828125,-1.4173673828125,-8.74661721496582,6.2475195945739745
1758972213487680000,5.144679931640625,1.1333552108764648,-8.06337191619873,6.279093128967284
1758972213497638000,5.154637939453125,1.7555483673095702,-6.841730519104003,6.221482651519775
1758972213507596000,5.164595947265625,1.1837830833435057,-5.450998629760742,5.906046582794189
1758972213517554000,5.174553955078125,0.4535515769958496,-4.384232152557373,5.619041658782959
1758972213527511800,5.18451171875,0.13437456817626953,-3.957465706634521,5.40116930770874
1758972213537470700,5.194470703125,0.20395605392456054,-3.8251860649108886,5.421669659423828
1758972213547428900,5.204428955078125,0.31214404144287106,-3.775656018066406,5.5084594696044915
1758972213557386800,5.21438671875,0.47105917663574215,-3.8322190322875973,5.602731159973144
1758972213567345000,5.224344970703125,0.7505822204589844,-4.163666324615479,5.525967069244384
1758972213577303000,5.234302978515625,0.9530418983459472,-4.752789570617676,5.297769723510742
1758972213587261000,5.244260986328125,1.11075993270874,-5.220407082366943,4.998344878387451
1758972213597219800,5.2542197265625,1.1764508407592773,-5.569361974334717,4.5042415107727045
1758972213607178000,5.264177978515625,0.9692027595520019,-5.753865139770507,3.8896798721313472
1758972213617136000,5.27413623046875,0.7185597732543945,-5.703886180114746,3.293074745941162
1758972213627094000,5.284093994140625,0.41958384094238277,-5.554847126770019,2.7096377288818356
1758972213637052000,5.294052001953125,0.09157821350097656,-5.288342554473877,2.250399922943115
1758972213647009800,5.304009765625,-0.254084651184082,-4.961234752655029,1.9511247154235838
1758972213656969000,5.313968994140625,-0.6063315704345703,-4.675726204681396,1.7146973014831541
1758972213666926800,5.3239267578125,-0.9329904594421387,-4.561851988220215,1.5976806953430174
1758972213676885000,5.333885009765625,-1.2373533454895018,-4.722413137054443,1.5662567985534668
1758972213686843000,5.3438427734375,-1.725620846557617,-4.909909054565429,1.8626888916015625
1758972213696801000,5.353801025390625,-2.3356933570861815,-5.20963317489624,2.5341128196716305
1758972213706759000,5.363759033203125,-3.2972645988464353,-5.795165118408203,3.3349732749938963
1758972213716718000,5.373718017578125,-4.723011687469482,-6.654683514404296,4.418648801422119
1758972213726676000,5.383676025390625,-7.343764679718017,-7.669525743103027,6.072593235778808
1758972213736634000,5.393634033203125,-11.965172434234619,-8.616133224487305,8.632593360900879
1758972213746591700,5.403591796875,-16.762254735565186,-9.172036922454833,12.464213842773436
1758972213756550000,5.4135498046875,-15.343989527130127,-9.450512503051756,16.691476148986816
1758972213766507800,5.4235078125,-10.575338370513915,-9.850493817901611,19.641132594299314
1758972213776467000,5.433467041015625,-8.903138148498535,-9.641749360656737,20.854693560791013
1758972213786424800,5.4434248046875,-8.134300140380859,-8.936806609344481,18.830844969940184
1758972213796383000,5.453383056640625,-5.666776054382324,-7.554753701019287,13.271209439849853
1758972213806340900,5.4633408203125,-2.7373206855773926,-5.2928316825866695,8.602216927337645
1758972213816299000,5.473299072265625,-2.0184616371154784,-3.328838133239746,6.004657763671875
1758972213826257000,5.4832568359375,-2.470217562866211,-3.3176153129577637,3.573345977783203
1758972213836216000,5.493216064453125,-2.818723542022705,-6.754192520904541,1.4990695144653319
1758972213846174000,5.503174072265625,-4.651484912872315,-11.264718811035156,0.5276221908569335
1758972213856132000,5.513132080078125,-5.083339037322998,-13.31759709701538,1.0823287879943848
1758972213866089700,5.52308984375,-2.239476377868652,-13.112144667053222,2.4254759193420408
1758972213876048000,5.5330478515625,-1.2835913650512694,-11.522245127105712,2.888155390167236
1758972213886005800,5.543005859375,-0.8972270721435547,-9.892841259765625,2.6382605918884274
1758972213895965000,5.55296484375,0.7950245887756348,-8.40215145111084,2.086397109222412
1758972213905922800,5.5629228515625,2.3760955101013184,-7.047182949066162,1.3356652511596678
1758972213915881000,5.572880859375,2.5002947212219238,-6.153996092224121,1.3543699516296386
1758972213925838800,5.5828388671875,2.8405706321716306,-5.663184751892089,2.505831312561035
1758972213935797000,5.592796875,3.9363668045043942,-5.762394483184814,4.050540296173096
1758972213945755000,5.6027548828125,4.372410781860351,-6.806715319824218,4.667196861267089
1758972213955713000,5.612713134765625,4.4391491531372065,-8.00022484741211,4.812494974517822
1758972213965672000,5.622671875,4.655375490570068,-8.830114997863769,5.654655408477783
1758972213975629800,5.6326298828125,4.592826972198486,-9.504232402801513,7.344961780548095
1758972213985587700,5.642587646484375,4.395006060028076,-9.652672905731201,8.738237509155272
1758972213995545900,5.6525458984375,4.148552926635742,-9.204657920074462,9.072976828765869
1758972214005504000,5.66250390625,3.6737528099060057,-8.33137286453247,9.217826029205321
1758972214015462000,5.6724619140625,3.1274259185791013,-7.255478493499756,8.834903401184082
1758972214025420800,5.6824208984375,2.0491373458862303,-6.216394972991943,8.643367268371582
1758972214035379000,5.69237890625,0.604535919189453,-5.579686968994141,8.748562503814696
1758972214045337000,5.702337158203125,0.11177929000854492,-5.7338137008666985,8.678532105255126
1758972214055295000,5.712294921875,0.3630208267211914,-6.2487166954040525,8.709806364440917
1758972214065253000,5.722253173828125,0.8622118728637694,-6.43501551208496,9.062053283691405
1758972214075210800,5.732210693359375,1.0108020133972166,-6.310666663360595,9.208548497772217
1758972214085170000,5.742169921875,0.8180687797546387,-6.22507395401001,8.8489693359375
1758972214095127800,5.7521279296875,0.8249521095275878,-6.042665715026855,8.315361640930176
1758972214105086000,5.7620859375,0.22430676803588867,-5.890184996795654,7.709030070495605
1758972214115043800,5.7720439453125,-0.3574842353820801,-5.861903489685059,7.413346165466308
1758972214125002000,5.782001953125,-0.38636429290771485,-5.819556047821044,7.038354330444336
1758972214134959900,5.7919599609375,-0.16879121704101563,-5.6681227928161615,6.433519136047363
1758972214144919000,5.8019189453125,0.047285482788085934,-5.542127930450439,5.9246016456604
1758972214154877000,5.811876953125,0.3528454696655273,-5.347000495147705,5.67590394821167
1758972214164835000,5.8218349609375,0.7224503509521484,-5.172672686767577,5.72034631652832
1758972214174793000,5.83179296875,0.9926958633422851,-5.129128144073486,5.8096799659729
1758972214184751000,5.841751220703125,1.055992569732666,-5.087229615020751,5.851428857421874
1758972214194708700,5.851708740234375,1.221342121887207,-4.965873518371581,6.18033231048584
1758972214204668000,5.86166796875,1.2259808876037597,-5.127931043243408,6.5120788780212395
1758972214214625800,5.871625732421875,0.9166799606323242,-5.450848992156982,6.8593877563476555
1758972214224584000,5.881583984375,0.6929717430114746,-5.774215853881835,7.283311087799071
1758972214234541800,5.891541748046875,0.5954080253601074,-5.973682779693603,7.5457754447937
1758972214244500000,5.9015,0.5710170959472656,-6.0698997589111325,7.726986582946777
1758972214254457900,5.911457763671875,0.6130652626037597,-5.899761803436279,7.951143713378905
1758972214264416000,5.921416015625,0.6483797370910644,-5.831078143310546,8.160935633850098
1758972214274375000,5.931375,0.6474819114685059,-5.782745197296142,8.177695045471191
1758972214284333000,5.9413330078125,0.5322609565734863,-5.742642319488525,8.29246708755493
1758972214294291000,5.951291015625,0.23508067550659179,-5.850830307006835,8.456918814086913
1758972214304248800,5.961248779296875,-0.8060977714538574,-5.916371577453613,8.576778534698486
1758972214314206700,5.971206787109375,-3.066822689056396,-5.901557454681396,8.655487914276122
1758972214324164900,5.981164794921875,-3.031957127380371,-5.823296987915039,8.858546142578124
1758972214334123800,5.991123779296875,-1.0622773490905761,-5.7788546195983885,9.164854317474365
1758972214344082000,6.00108203125,-0.04414309310913086,-5.821800611877441,9.371354210662842
1758972214354040000,6.0110400390625,0.21487959899902342,-5.786785412597656,9.504681315612793
1758972214363998200,6.020998291015625,0.05327098693847656,-5.562029731750488,9.681403325653076
1758972214373956000,6.0309560546875,-0.14784195251464843,-5.577442404937744,9.791237326812743
1758972214383914200,6.040914306640625,-0.30316578521728516,-5.5540989387512205,9.891195246124267
1758972214393873200,6.050873046875,-0.14634557647705076,-5.518934101867676,10.167276625061035
1758972214403831300,6.060831298828125,0.29568390502929687,-5.3944356155395505,10.403704039001465
1758972214413789200,6.0707890625,0.7040449256896972,-5.238662870025634,10.366593913269043
1758972214423747300,6.080747314453125,0.9075520668029785,-5.26739328994751,10.115053101348876
1758972214433705200,6.090705322265625,0.5825391914367676,-5.440224722290039,9.683498252105712
1758972214443663400,6.100663330078125,-0.9057564155578612,-5.7149593627929685,9.881618439483642
1758972214453622300,6.110622314453125,-3.4138322921752926,-6.594529197692871,11.488277391052245
1758972214463580200,6.120580078125,-3.4186206954956053,-7.282562899780273,13.200131578063964
1758972214473538000,6.1305380859375,-1.5969325073242187,-7.4597338226318355,13.537863649749754
1758972214483496200,6.14049609375,-1.8409914390563964,-7.161954991149902,12.810475257873534
1758972214493454300,6.150454345703125,-4.108001136016846,-6.5206082214355465,11.905616667938231
1758972214503412200,6.160412109375,-6.559962911224365,-6.20562106552124,11.08904426422119
1758972214513371100,6.17037109375,-7.328501644134521,-6.233902572631836,9.923516968536376
1758972214523329300,6.180329345703125,-5.877316162872314,-6.549039366149902,8.743025912475586
1758972214533287200,6.190287109375,-4.033930522155761,-6.915501857757568,7.904756056213379
1758972214543245300,6.200245361328125,-2.446874096679687,-7.24635059967041,7.428609201049804
1758972214553203500,6.210203369140625,-0.3694552436828613,-8.150610639190674,7.293486444854736
1758972214563161000,6.2201611328125,1.893514237976074,-8.5800705619812,8.256703700256347
1758972214573120300,6.230120361328125,3.2927754707336425,-8.693346228027343,8.933215306854247
1758972214583078100,6.240078125,3.9139211639404294,-9.2963857711792,9.10365253753662
1758972214593036300,6.250036376953125,4.66091208190918,-10.147823736572265,9.4741552444458
1758972214602994200,6.259994140625,5.006874221801757,-10.791115795135497,9.629479077148437
1758972214612952300,6.269952392578125,4.804713819122314,-11.265018086242675,9.146149617004394
1758972214622910200,6.27991015625,3.6596868751525875,-10.921300510406493,8.389881167602539
1758972214632869000,6.289869140625,-0.4695628005981445,-9.507674067687988,8.283039918518066
1758972214642827300,6.2998271484375,-6.406883642578125,-8.141183470153807,8.560468035888672
1758972214652785400,6.309785400390625,-6.139032331848144,-7.525275093078613,8.49013836212158
1758972214662743300,6.319743408203125,-2.429965047454834,-7.293187169647217,8.066663943481444
1758972214672701400,6.329701416015625,0.2967313682556152,-7.089380753326416,7.407659936523437
1758972214682659000,6.3396591796875,1.4384662849426268,-6.54380205001831,6.8308069740295405
1758972214692618200,6.3496181640625,1.215506255340576,-5.78424157333374,6.415712261199951
1758972214702576000,6.359576171875,0.5735609352111816,-5.121047713470459,6.059125851440429
1758972214712534300,6.3695341796875,0.2570774032592773,-4.746504791259765,5.875370874023437
1758972214722492200,6.3794921875,0.4616320075988769,-4.5964182746887206,5.645677152252197
1758972214732450300,6.3894501953125,1.0018237571716309,-4.790348609161376,5.3387704269409175
1758972214742408200,6.399408203125,1.247528702545166,-4.943128602600098,5.226093311309814
1758972214752366300,6.409366455078125,1.2648866645812988,-5.0583495574951165,4.763413840484619
1758972214762325200,6.4193251953125,1.3756184913635252,-5.164592256164551,4.395305335235595
1758972214772283400,6.429283447265625,1.3189058395385742,-5.078999546813964,4.230703971099853
1758972214782241300,6.4392412109375,1.061678798675537,-4.9622822158813475,3.9845501129150387
1758972214792199200,6.44919921875,0.761655403137207,-4.91604419631958,3.6592379623413085
1758972214802157000,6.459156982421875,0.46836569976806636,-4.943577515411377,3.2671874404907224
1758972214812115200,6.469115234375,0.3537432952880859,-5.000290167236328,2.883217349243164
1758972214822074000,6.47907421875,0.2442085693359375,-5.072415492248535,2.6587609436035153
1758972214832032300,6.4890322265625,-0.050128597259521485,-5.041290870666503,2.450914311981201
1758972214841990100,6.498990234375,-0.46028526916503903,-4.83928010559082,2.3249194496154786
1758972214851948300,6.5089482421875,-0.9935936889648437,-4.464886820983886,2.0280384437561034
1758972214861906200,6.51890625,-1.105672254180908,-4.478204567718506,1.6193781478881835
1758972214871864300,6.5288642578125,-1.065569376373291,-4.864269585418701,1.294664547729492
1758972214881823200,6.5388232421875,-1.3108254089355469,-5.311237107849121,1.2984054878234863
1758972214891781400,6.548781494140625,-1.8456302047729491,-5.877316162872314,1.8605939651489256
1758972214901739300,6.5587392578125,-2.7536311843872068,-6.449979272460937,2.8917466926574704
1758972214911697200,6.568697265625,-4.406228880310058,-6.9998974662780755,4.209605068969727
1758972214921655300,6.5786552734375,-6.746860278320312,-7.484723302459717,6.219238087463379
1758972214931613200,6.58861328125,-10.542118822479248,-7.805995237731933,9.041552931976318
1758972214941572000,6.598572021484375,-15.46923620147705,-7.7319246238708494,13.29245797958374
1758972214951530200,6.6085302734375,-17.24333963165283,-7.2237553215026855,18.964321712493895
1758972214961488100,6.618488037109375,-12.461370728302,-6.924929026794433,23.76245147705078
1758972214971446300,6.6284462890625,-8.905382712554932,-6.170905141448975,26.423606622314452
1758972214981404400,6.638404296875,-7.1309800071716305,-5.776909330749511,24.709807146453855
1758972214991362300,6.6483623046875,-3.2794577239990232,-5.991340016937255,17.321450460815427
1758972215001321200,6.6583212890625,-1.7893664657592772,-4.920084411621094,9.816376444244383
1758972215011279400,6.668279296875,-1.8011878364562988,-2.178873148345947,6.567594429016113
1758972215021237200,6.6782373046875,-2.196829660797119,-1.1565490394592284,4.227711219024658
1758972215031195100,6.688195068359375,-1.2820949890136717,-2.659060218811035,2.2194249389648437
1758972215041153300,6.6981533203125,-1.0396820709228516,-6.581211450958252,1.3422493057250975
1758972215051111200,6.708111083984375,-1.2949638229370117,-9.917232189178467,1.6338929954528807
1758972215061070000,6.718070068359375,0.9959878906249999,-11.014824012756346,2.7980735527038574
1758972215071028200,6.7280283203125,-0.04025251541137695,-10.979210263061523,3.586663724517822
1758972215080986400,6.737986328125,-5.24779076385498,-11.475408557128906,3.963002297973633
1758972215090944300,6.7479443359375,-6.221183376312256,-12.301408129882812,4.46279189453125
1758972215100902400,6.75790234375,-0.9874585472106933,-10.914117905426025,5.170428122711181
1758972215110860300,6.7678603515625,3.216460292816162,-8.40215145111084,4.838681555175781
1758972215120818200,6.777818115234375,3.770418701934814,-6.845770734405517,3.9682396141052245
1758972215130777300,6.78777734375,3.6414310874938964,-5.813869818878174,3.8413469261169433
1758972215140735200,6.7977353515625,3.45393516998291,-5.535992788696289,3.8590041633605954
1758972215150693000,6.807693115234375,3.2787095359802243,-6.0148331207275385,3.713107499694824
1758972215160651300,6.8176513671875,3.3406595039367675,-6.757783823394775,4.0520366722106935
1758972215170609200,6.827609130859375,3.1949124778747557,-7.411550514221191,4.929062667846679
1758972215180567300,6.8375673828125,2.952499559783935,-8.084919731140136,6.639270841217041
1758972215190526200,6.847526123046875,2.817376803588867,-8.541464060211181,8.611195183563233
1758972215200484400,6.857484375,2.669834126281738,-8.57348650741577,9.890147782897948
1758972215210442200,6.867442138671875,2.4320599739074704,-8.236652261352539,10.23416463394165
1758972215220400400,6.877400390625,2.23453833694458,-7.677755811309814,9.938630366516113
1758972215230358300,6.887358154296875,2.000804399871826,-7.031022087860107,9.693523971557617
1758972215240316200,6.897316162109375,1.6166846710205076,-6.397755748748779,9.517849424743652
1758972215250275000,6.907275146484375,1.2376526206970213,-6.031891807556152,9.299677798461914
1758972215260233200,6.917233154296875,0.955136824798584,-5.689820245361328,8.9255837890625
1758972215270191000,6.927191162109375,0.7148188331604004,-5.29896682434082,8.614038298034668
1758972215280149200,6.937149169921875,0.452653751373291,-4.873696754455566,8.389282617187499
1758972215290107100,6.947107177734375,0.7423521522521972,-4.308216249847412,8.30623374710083
1758972215300065300,6.957065185546875,0.6488286499023437,-3.8639422042846676,8.361898935699463
1758972215310024200,6.967024169921875,-0.0010474632263183592,-3.74767378616333,8.624363292694092
1758972215319982300,6.976982421875,-0.37873277511596676,-3.7961563697814937,8.620771990203856
1758972215329940200,6.986940185546875,-0.5220855995178222,-3.954024041748047,8.049605256652832
1758972215339898400,6.9968984375,-0.49155952835083006,-4.106504759979248,7.479635623931884
1758972215349856300,7.006856201171875,-0.35224691925048823,-4.223970278930664,6.99705435180664
1758972215359814100,7.016814208984375,-0.1867477294921875,-4.325274936676025,6.720972972869872
1758972215369772300,7.026772216796875,-0.01945288848876953,-4.357596659088134,6.882731222534179
1758972215379731200,7.036731201171875,0.28086978225708004,-4.24551809387207,7.092223867797851
1758972215389689000,7.046689208984375,0.3586813362121582,-4.180874649047851,7.197718378448486
1758972215399647200,7.056647216796875,0.1240495735168457,-4.19479094619751,7.3377791755676265
1758972215409605400,7.06660546875,0.03591302490234375,-4.236689475250244,7.568969273376465
1758972215419563000,7.07656298828125,0.10070610733032226,-4.204966303253173,7.755417727661133
1758972215429521200,7.086521240234375,0.21772271347045896,-4.151246403503418,7.707384056854248
1758972215439480000,7.09647998046875,0.3360860580444336,-4.098274691772461,7.646930464935302
1758972215449438200,7.106438232421875,0.44113165588378905,-4.0255508163452145,7.649623941802978
1758972215459396000,7.11639599609375,0.5119102424621582,-4.077923977661133,7.851036156463622
1758972215469354200,7.126354248046875,0.46791678695678707,-4.235193099212646,8.12098239364624
1758972215479312100,7.13631201171875,0.4004302276611328,-4.330362615203857,8.495824591064453
1758972215489270300,7.146270263671875,0.36062662506103516,-4.477905292510986,8.930222554779052
1758972215499229200,7.156229248046875,0.35404257049560545,-4.57771357421875,9.415646941375732
1758972215509187300,7.166187255859375,0.3479074287414551,-4.66674794845581,9.87054525680542
1758972215519145200,7.176145263671875,0.31708208236694335,-4.885218849945068,10.192715017700195
1758972215529103400,7.186103271484375,0.31753099517822264,-5.040093769836425,10.290428372955322
1758972215539061000,7.19606103515625,0.14933832855224607,-4.962731128692627,10.397718534851073
1758972215549019100,7.20601904296875,-0.2784755805969238,-4.617068264007568,10.639981815338134
1758972215558977000,7.21597705078125,-1.012448027038574,-4.059069639587402,11.111639542388914
1758972215568936200,7.225936279296875,-1.9719243423461912,-3.4139819297790526,11.566088945007323
1758972215578894000,7.23589404296875,-2.5062802253723144,-2.9366379737854,11.870302193450927
1758972215588852200,7.245852294921875,-2.165555401611328,-2.5909751091003415,12.09146657180786
1758972215598810000,7.25581005859375,-1.4082394889831542,-2.2221184158325196,12.11106909790039
1758972215608768300,7.265768310546875,-1.0748469078063965,-1.820790362548828,11.928960134124756
1758972215618726100,7.27572607421875,-1.5904980903625487,-1.4576198982238768,11.857134084320068
1758972215628685300,7.285685302734375,-2.2137387100219725,-1.3590087173461913,12.943353450012205
1758972215638643200,7.295643310546875,-1.6332944450378417,-1.7558476425170897,15.339799674224853
1758972215648601000,7.30560107421875,-0.618003303527832,-2.203264077758789,15.995511653900145
1758972215658559000,7.31555908203125,-1.2491747161865234,-2.4034791915893554,14.660295315551757
1758972215668517000,7.32551708984375,-3.5727474273681636,-2.2512977485656736,12.981660676574707
1758972215678475300,7.335475341796875,-6.616825200653076,-2.381931376647949,11.751789211273193
1758972215688433200,7.34543310546875,-8.681075944519042,-2.976441576385498,10.739790097045898
1758972215698392000,7.35539208984375,-7.109132917022705,-3.819050923156738,9.855431858825684
1758972215708350200,7.36535009765625,-4.529979178619384,-4.734833058166504,8.917204083251953
1758972215718308000,7.37530810546875,-3.369090648651123,-5.594052178955078,8.637531401824951
1758972215728266200,7.385266357421875,-1.758241844177246,-6.701220809173583,9.196427851867675
1758972215738224400,7.395224365234375,1.1586439659118652,-8.219144661712646,10.046369441223144
1758972215748182000,7.40518212890625,3.835062146759033,-8.833257387542725,10.866682785034179
1758972215758141200,7.41514111328125,4.984578218841553,-9.082104722595215,11.053131239318848
1758972215768099000,7.42509912109375,5.308393993377686,-9.532513909912108,11.260379320526122
1758972215778057200,7.43505712890625,5.703137992095947,-9.821314485168456,11.437699880981445
1758972215788015000,7.44501513671875,5.065532162475586,-9.967360786437988,11.420042643737792
1758972215797973200,7.45497314453125,2.053925749206543,-10.511143838500976,10.875062490844726
1758972215807931100,7.46493115234375,-3.35173268661499,-9.992499903869628,9.810091664886475
1758972215817890000,7.47489013671875,-6.561908200073241,-8.622418003845214,9.044695321655272
1758972215827848200,7.48484814453125,-4.479551306152343,-7.720701803588867,8.758288948059082
1758972215837806300,7.494806396484375,-0.7610568527221679,-7.109731467437744,8.322693883514404
1758972215847764200,7.50476416015625,1.2921207084655761,-6.566397328186035,7.419930220031738
1758972215857722400,7.514722412109375,1.4312836799621582,-5.583427909088134,6.811503723144531
1758972215867680000,7.524679931640625,0.5327098693847656,-4.45635747756958,6.53108285369873
1758972215877638100,7.53463818359375,0.24390929412841794,-3.7653310234069823,6.636427726745605
1758972215887597000,7.54459716796875,0.5737105728149414,-3.356820365142822,6.768258455657959
1758972215897555200,7.55455517578125,0.635211627960205,-3.108721218109131,6.728305215454101
1758972215907513000,7.56451318359375,0.7781155395507812,-2.9884125846862792,6.881983034515381
1758972215917471200,7.57447119140625,1.0446201118469238,-3.1138088966369626,6.808660608673096
1758972215927429000,7.58442919921875,1.2128127784729004,-3.5048119552612302,6.4640452072143555
1758972215937387300,7.59438720703125,1.287182667541504,-3.803189337158203,5.804891562652587
1758972215947346200,7.60434619140625,1.4061445625305176,-4.069244996643066,5.181650942993164
1758972215957304300,7.61430419921875,1.4226046989440917,-4.247313745117188,4.753837033843994
1758972215967262200,7.62426220703125,1.1290157203674316,-4.292354663848877,4.350862966918945
1758972215977220000,7.63422021484375,0.7594108390808105,-4.23923331451416,3.831171569061279
1758972215987178000,7.644177978515625,0.3842693664550781,-4.159925384521484,3.404854035949707
1758972215997136100,7.65413623046875,0.012419921112060545,-4.083610206604003,3.014150252532959
1758972216007094300,7.66409423828125,-0.5454290657043457,-3.951180927276611,2.659209856414795
1758972216017053200,7.67405322265625,-1.0377367820739745,-3.801244048309326,2.2916999015808104
1758972216027011000,7.684010986328125,-1.4993687896728514,-3.8334161331176757,2.0477906074523924
1758972216036969200,7.69396923828125,-1.716792227935791,-4.247613020324707,2.012925045776367
1758972216046927000,7.703927001953125,-1.8210896377563475,-4.872050740814209,2.358438272857666
1758972216056885200,7.71388525390625,-2.2819734573364254,-5.494692810058593,3.160944741821289
1758972216066843400,7.723843505859375,-3.159598003387451,-5.98236176071167,4.508581001281738
1758972216076801000,7.733801025390625,-4.183717763519287,-6.260837341308593,6.337451794433593
1758972216086760200,7.74376025390625,-5.33757332611084,-6.3521162796020505,8.520215520477294
1758972216096718000,7.753718017578125,-7.445967163085937,-6.029497605895996,11.228057598114013
1758972216106676200,7.76367626953125,-10.423605840301514,-5.159803852844238,14.465317517852782
1758972216116634000,7.773634033203125,-12.043283263397216,-3.593696691894531,18.212093478393555
1758972216126592300,7.78359228515625,-10.881347270202635,-2.063352918243408,20.8499051574707
1758972216136550100,7.793550048828125,-9.369708197021485,-1.1737573638916015,21.704036599731445
1758972216146509000,7.803509033203125,-8.960898263549804,-0.7562684494018554,20.928913812255857
1758972216156467200,7.81346728515625,-7.663989151763915,-1.356015965270996,17.512687318420408
1758972216166425300,7.82342529296875,-5.249736052703857,-2.4123078102111815,12.836362563323974
1758972216176383200,7.83338330078125,-3.6578912239074706,-2.8579285942077637,9.318083223724365
1758972216186341400,7.84334130859375,-3.0129531517028805,-2.7193641731262206,6.476764403533935
1758972216196299000,7.853299072265625,-2.0988170303344726,-3.1081226676940914,4.59656791229248
1758972216206257200,7.863257080078125,-1.5541361526489257,-6.07768091430664,4.473715439605713
1758972216216216000,7.873216064453125,-3.1452327934265134,-10.275464612579345,5.606322462463378
1758972216226174200,7.88317431640625,-2.1535843933105467,-11.630582752227783,7.05466482925415
1758972216236132000,7.893132080078125,2.131737303161621,-10.661230355072021,7.785494886016846
1758972216246090200,7.90309033203125,3.27511823348999,-9.235034353637694,7.1407064514160155
1758972216256048000,7.913048095703125,1.663670878601074,-8.016684983825684,5.681440539550781
1758972216266006300,7.92300634765625,-0.9156324974060058,-6.813299374389648,3.9900867042541504
1758972216275965200,7.932965087890625,-4.035426898193359,-5.7788546195983885,2.344372338104248
1758972216285923300,7.94292333984375,-4.731391393280029,-5.290587118530273,1.9256863227844236
1758972216295881200,7.952881103515625,-0.34237083740234375,-4.716427632904052,3.324498642730713
1758972216305839000,7.962839111328125,4.265270257568359,-4.941033676147461,4.6724341773986815
1758972216315797000,7.972796875,4.581005601501465,-5.668870980834961,5.6181438331604
1758972216325755100,7.982755126953125,3.8717233596801757,-6.587945143127441,6.2128036705017085
1758972216335713000,7.992713134765625,3.4706945816040036,-7.281964349365234,7.100154660797119
1758972216345672200,8.002672119140625,3.2965164108276364,-7.77591807937622,8.42788911895752
1758972216355629800,8.0126298828125,3.122487877655029,-7.969549138641357,9.676166009521484
1758972216365588000,8.022587890625,3.2709283805847167,-7.795819880676269,10.55334164276123
1758972216375545900,8.0325458984375,3.322553353881836,-7.237222705841064,10.650306809997558
1758972216385504000,8.04250390625,3.12173968963623,-6.411372770690917,10.007463664245606
1758972216395462000,8.0524619140625,2.7009587478637695,-5.558887342071533,9.805452899169921
1758972216405419800,8.062419677734376,2.2521955741882325,-4.904222825622559,9.916184725952148
1758972216415378700,8.072378662109376,1.7995418228149413,-4.368220928955078,10.015095182037353
1758972216425336800,8.0823369140625,1.3652934967041015,-3.94549469833374,10.101585717010497
1758972216435295000,8.092294921875,0.8741828811645508,-3.604620236968994,9.96002854385376
1758972216445252900,8.1022529296875,0.4697124382019043,-3.407397875213623,9.823708686828613
1758972216455211000,8.1122109375,0.4896142395019531,-2.9937995384216305,9.86381156463623
1758972216465169000,8.1221689453125,0.7315782447814941,-2.4646809715270996,10.019285034942627
1758972216475127800,8.1321279296875,-0.00014963760375976562,-2.382679564666748,9.70459715423584
1758972216485086000,8.1420859375,-1.1424831047058104,-2.759915963745117,9.27633433227539
1758972216495044000,8.152044189453125,-1.3739724777221678,-3.1636382186889644,8.807370082092284
1758972216505002000,8.162001953125,-1.0452186622619628,-3.476829723358154,8.295759114837645
1758972216514960000,8.1719599609375,-0.390703783416748,-3.5851673484802244,8.326285186004638
1758972216524917800,8.181917724609375,0.2736871772766113,-3.5709517761230467,8.416815936279296
1758972216534876000,8.1918759765625,0.6030395431518555,-3.399018169403076,8.263437392425537
1758972216544834800,8.201834716796874,0.8255506599426269,-3.174262488555908,8.065766117858887
1758972216554793000,8.21179296875,0.8283937744140625,-2.9517513717651367,7.804798136901855
1758972216564750800,8.221750732421874,0.6323685134887695,-2.7109844673156736,7.514950098419189
1758972216574709000,8.231708984375,0.32920272827148434,-2.63676421585083,7.38012661743164
1758972216584667000,8.2416669921875,-0.011073182678222656,-2.673126153564453,7.508515681457519
1758972216594625000,8.251625,-0.21742343826293944,-2.7911902229309082,7.69316848449707
1758972216604583000,8.2615830078125,-0.26336218261718747,-2.9097032051086424,7.868244480895996
1758972216614542000,8.2715419921875,-0.12165537185668944,-3.0425813972473144,8.013093681335448
1758972216624499700,8.281499755859375,0.12000935821533203,-3.2320226036071777,8.251765659332275
1758972216634457900,8.291457763671875,0.4257189826965332,-3.3839047714233397,8.63109698486328
1758972216644415700,8.301415771484375,0.6169558403015136,-3.467851467132568,8.972270721435546
1758972216654374000,8.311373779296876,0.6724713912963867,-3.492840946960449,9.279027809143066
1758972216664332000,8.32133203125,0.6332663391113281,-3.578583293914795,9.471461767578125
1758972216674291000,8.331291015625,0.4504091873168945,-3.6917093223571773,9.676614922332764
1758972216684248800,8.341248779296874,0.09561842880249023,-3.9791631591796874,9.74290438079834
1758972216694207000,8.35120703125,-0.3672106796264648,-4.149151477050781,9.81936919631958
1758972216704164900,8.361164794921875,-0.8346785537719726,-4.263624243927001,9.935936889648437
1758972216714123000,8.371123046875,-1.1975497428894042,-4.308216249847412,10.11939259185791
1758972216724081000,8.381080810546875,-1.7733552421569823,-4.162169948577881,10.492289500427246
1758972216734038800,8.391038818359375,-1.8724153358459472,-3.780893334197998,11.01332763671875
1758972216743997700,8.400997802734375,-0.9738415252685546,-3.231872966003418,11.635371155548095
1758972216753955800,8.410955810546875,-0.2775777549743652,-2.7651532798767087,12.268188581848143
1758972216763914000,8.4209140625,-0.24615385818481444,-2.4582465545654295,12.57090545425415
1758972216773871900,8.430871826171876,-1.075146183013916,-2.3041198226928707,12.293028424072265
1758972216783830000,8.440830078125,-2.332850242614746,-2.1461025131225586,11.963376782989501
1758972216793788000,8.450787841796876,-3.049015814208984,-1.9219453826904296,12.506561284637451
1758972216803746000,8.46074609375,-2.2849662094116208,-1.9470845001220702,14.753070629882812
1758972216813705000,8.470705078125,-0.4412812934875488,-1.939602619934082,16.07616632232666
1758972216823663000,8.4806630859375,0.2551321144104004,-2.0528782859802246,15.375413423919676
1758972216833621000,8.49062109375,-1.4740800346374512,-2.485330960845947,13.897592449188231
1758972216843579000,8.500578857421875,-4.4391491531372065,-2.6454431968688965,12.524966709899902
1758972216853536800,8.510536865234375,-7.546373995208739,-3.044077773284912,11.31275248184204
1758972216863495000,8.520494873046875,-8.959401887512206,-3.6542999214172363,10.609006831359862
1758972216873453800,8.530453857421875,-7.029376074218749,-4.134636629486084,9.898228213500976
1758972216883412000,8.540411865234375,-5.059247383117675,-4.53925671005249,9.1807159034729
1758972216893369900,8.550369873046876,-4.004451914215088,-5.110722718811035,8.61224264678955
1758972216903328000,8.560327880859376,-2.249053184509277,-5.995230594635009,8.585457515716552
1758972216913286000,8.570285888671876,0.4905120651245117,-6.853551889801025,9.551667523193359
1758972216923244000,8.580244140625,3.113060708618164,-7.562834131622314,10.57922894821167
1758972216933202000,8.590201904296874,4.754435584259033,-7.920916917419433,11.017816764831542
1758972216943161000,8.6001611328125,5.403413871765136,-8.22393306503296,11.3634796295166
1758972216953118700,8.61011865234375,5.553949301147461,-8.53547855606079,11.833940255737303
1758972216963076900,8.620076904296875,4.919485861206055,-8.981697890472411,12.048370941925048
1758972216973034800,8.63003466796875,2.8841151748657223,-9.670629418182372,11.299883647918701
1758972216982993000,8.639992919921875,-2.530072604370117,-9.54403600540161,10.110115060424803
1758972216992951000,8.649950927734375,-7.222109307861328,-8.534281455230712,9.21199016265869
1758972217002910000,8.659909912109375,-4.914248545074463,-7.613262004089355,8.598326349639892
1758972217012867800,8.669867919921876,-0.8077437850952148,-6.954407634735107,8.132504489135743
1758972217022826000,8.679825927734376,1.4257470886230468,-6.290016674041747,7.458237446594238
1758972217032784000,8.689783935546876,1.539920580291748,-5.380519318389892,7.1972694656372065
1758972217042742000,8.699741943359374,0.2841618095397949,-4.4479777717590325,6.932859819793701
1758972217052700000,8.709699951171874,-0.3060088996887207,-3.7289690856933593,7.134870584869384
1758972217062657800,8.71965771484375,-0.26066870574951173,-3.327940307617187,7.349750183868408
1758972217072616700,8.72961669921875,0.2711433380126953,-3.273172944641113,7.433696879577636
1758972217082574800,8.739574951171875,0.5825391914367676,-3.3086370567321777,7.330147657775878
1758972217092533000,8.749532958984375,0.7287351303100585,-3.6355952209472653,6.674585315704345
1758972217102491000,8.759490966796875,1.1167454368591307,-3.9481881752014156,6.18646745223999
1758972217112449000,8.769448974609375,1.215506255340576,-4.2131963714599605,5.4412721855163575
1758972217122407000,8.779406982421875,1.3039420791625975,-4.47521181564331,5.0118122627258295
1758972217132365000,8.789364990234375,1.4716858329772948,-4.455609289550781,4.898536596679687
1758972217142324000,8.799323974609376,1.111508120727539,-4.36672455291748,4.409820182800293
1758972217152282000,8.8092822265625,0.7956231391906737,-4.192546382141113,4.035726173400879
1758972217162240000,8.819239990234376,0.5574000740051269,-4.09842432937622,3.84972663192749
1758972217172198000,8.829197998046874,0.3414730117797851,-4.2125978210449215,3.58801046295166
1758972217182155800,8.83915576171875,0.05162497329711914,-4.281880031585693,3.3259950187683103
1758972217192114000,8.849114013671874,-0.3051110740661621,-4.32886623916626,2.9234698646545407
1758972217202072800,8.85907275390625,-0.8393173194885254,-4.280383655548095,2.570325119781494
1758972217212031000,8.869031005859375,-1.2623428253173827,-4.239532589721679,2.403179916381836
1758972217221988900,8.87898876953125,-1.5227122558593749,-4.505737886810302,2.2545897758483884
1758972217231947000,8.888947021484375,-1.7043723068237304,-4.6727334526062005,2.4631845954895017
1758972217241905000,8.89890478515625,-2.1320365783691404,-4.893299280548096,3.035698067474365
1758972217251863000,8.908863037109375,-2.9638720176696776,-5.316474423980712,4.0638580429077145
1758972217261821000,8.918821044921875,-4.3342531929016115,-5.728875659942626,5.666776054382324
1758972217271780000,8.928780029296876,-6.546495526885986,-6.217143161010742,7.924657857513427
1758972217281737700,8.93873779296875,-10.894216104125976,-6.48005643081665,11.085752236938475
1758972217291695900,8.94869580078125,-17.005116566467283,-5.8610056640625,15.843180573272704
1758972217301653800,8.95865380859375,-16.297031425476074,-3.6604350631713864,22.206220397949217
1758972217311612000,8.96861181640625,-9.00923120956421,-1.7025766555786133,26.536433375549315
1758972217321569800,8.97856982421875,-7.631817066955566,-0.5238812507629395,27.966220679473874
1758972217331529000,8.988529052734375,-9.192088361358643,0.14619593887329102,24.946234560394284
1758972217341486800,8.99848681640625,-5.47134934387207,-0.11596914291381835,15.480159746551513
1758972217351445000,9.008445068359375,-3.1009400627136228,0.4134486991882324,8.72671541366577
1758972217361403000,9.01840283203125,-3.199700881195068,0.48347909774780273,5.109974530792236
1758972217371360800,9.02836083984375,-3.3871967987060545,-0.843357534790039,2.5836428665161133
1758972217381319000,9.03831884765625,-2.703053674316406,-5.155464362335205,1.9313725517272948
1758972217391277800,9.04827783203125,-3.9625533851623533,-10.580426049041748,2.9046155265808102
1758972217401235700,9.058235595703126,-3.397072880554199,-12.918812882995605,4.4111669212341305
1758972217411193900,9.06819384765625,0.9917980377197265,-12.515988453674316,6.041767889404296
1758972217421152000,9.078152099609374,2.9875147590637203,-11.266963375091551,6.688351975250244
1758972217431110000,9.08810986328125,3.3252468307495113,-9.940874930572509,6.241833365631103
1758972217441068000,9.098068115234375,2.8131869506835936,-8.276904776763915,4.657021504211426
1758972217451026000,9.10802587890625,0.02184709014892578,-6.013037469482422,3.012653876495361
1758972217460984800,9.11798486328125,-3.74767378616333,-3.9769185951232906,3.304596841430664
1758972217470943000,9.12794287109375,-1.365592771911621,-3.5320459991455078,4.462342981719971
1758972217480900900,9.13790087890625,3.0960020217895505,-4.169651828765869,5.346850857543945
1758972217490858800,9.147858642578125,3.9897874290466304,-5.19018028640747,5.980266834259033
1758972217500817000,9.15781689453125,3.4675521919250487,-6.290315949249267,6.410624582672119
1758972217510774800,9.16777490234375,3.060837184906006,-7.018003616333007,7.36770669631958
1758972217520734000,9.17773388671875,2.8950387199401852,-7.390301974487304,8.914061693572998
1758972217530691800,9.18769189453125,2.8681039512634277,-7.409156312561035,10.609605381774902
1758972217540650000,9.19764990234375,2.982576718139648,-7.0470333114624015,11.763012031555174
1758972217550608000,9.20760791015625,3.005022358703613,-6.539312921905517,11.254842729187011
1758972217560566000,9.21756591796875,2.59830735168457,-5.709572409057617,10.302100106048583
1758972217570524000,9.22752392578125,1.6787842765808105,-4.740818562316894,10.058490087127685
1758972217580483000,9.237483154296875,0.8470984748840331,-3.9968203964233395,10.311377637481689
1758972217590441000,9.24744091796875,0.5156511825561523,-3.7473745109558103,10.756100595855711
1758972217600398800,9.25739892578125,0.6886322525024413,-3.906738558959961,10.926687464141844
1758972217610356700,9.267356689453125,0.9259574920654297,-3.9003041419982907,10.749217266082763
1758972217620315000,9.27731494140625,1.0046668716430665,-3.714903150939941,10.472986249542236
1758972217630272800,9.287272705078125,1.2167033561706542,-3.372233038330078,10.231620794677733
1758972217640231000,9.29723095703125,1.0330980163574217,-3.130717945861816,9.746794958496093
1758972217650189800,9.30718994140625,0.5205892234802246,-3.302501914978027,9.230245950317382
1758972217660148000,9.31714794921875,0.13512275619506836,-3.5652655471801755,8.634688287353516
1758972217670105900,9.32710595703125,-0.06539163284301758,-3.648613692474365,8.026411428070068
1758972217680064000,9.33706396484375,-0.13856442108154296,-3.7205893798828122,7.748684035491943
1758972217690022000,9.34702197265625,-0.17507599639892577,-3.8016929611206054,7.639448584747314
1758972217699979800,9.356979736328125,-0.11133037719726561,-3.797203833007812,7.411101601409912
1758972217709938700,9.366938720703125,-0.04548983154296875,-3.7078701835632324,7.1881415718078605
1758972217719896800,9.376896728515625,0.11043255157470702,-3.505560143280029,7.189637947845458
1758972217729854700,9.386854736328125,0.36795886764526364,-3.298760974884033,7.251288640594482
1758972217739812900,9.396812744140625,0.5600935508728027,-3.1191958503723143,7.348702720642089
1758972217749770800,9.406770751953125,0.5430348640441894,-3.0666730514526366,7.537695014190674
1758972217759729000,9.41672900390625,0.48123453369140623,-3.090615068054199,7.738508678436279
1758972217769687800,9.426687744140626,0.44262803192138667,-3.23052622756958,7.887996644592285
1758972217779646000,9.43664599609375,0.37618893585205077,-3.328089945220947,7.951293350982666
1758972217789603800,9.446603759765624,0.3899555953979492,-3.3364696510314937,8.004414700317382
1758972217799562000,9.45656201171875,0.4752490295410156,-3.3559225395202636,8.092850524139404
1758972217809519900,9.466519775390625,0.6138134506225585,-3.370437387084961,8.317157292175292
1758972217819477800,9.476477783203125,0.6596025573730468,-3.3969232429504395,8.63124662246704
1758972217829436700,9.486436767578125,0.6127659873962402,-3.4753333473205563,9.094524643707274
1758972217839394800,9.496394775390625,0.4273649963378906,-3.7107132980346678,9.596708441925049
1758972217849353000,9.50635302734375,0.13078326568603516,-4.026299004364013,10.02302597503662
1758972217859310800,9.516310791015625,-0.37828386230468747,-4.371812231445312,10.395473970794677
1758972217869269000,9.52626904296875,-0.8373720306396484,-4.5218987480163575,10.711059677124023
1758972217879227000,9.536226806640625,-1.261594637298584,-4.376450997161865,10.794108547210692
1758972217889185000,9.54618505859375,-1.947832688140869,-4.099322154998779,10.713304241180419
1758972217899144000,9.55614404296875,-2.8673557632446287,-3.7002386657714843,10.883142921447753
1758972217909102000,9.56610205078125,-3.19850378036499,-3.323002266693115,11.225513758850097
1758972217919060000,9.57606005859375,-2.4986487075805663,-3.001281418609619,11.820023958587646
1758972217929017900,9.586017822265624,-1.4767735115051268,-2.5851392425537107,12.511200050354002
1758972217938975700,9.595975830078125,-0.7932289375305175,-2.1613655487060544,12.643629329681396
1758972217948934000,9.605933837890625,-0.5021837982177734,-1.8442834663391112,12.172570153045653
1758972217958892800,9.615892822265625,-1.0206780952453613,-1.585859324645996,11.77273847579956
1758972217968851000,9.625850830078125,-1.6932991241455078,-1.559074193572998,12.923750923919677
1758972217978808800,9.635808837890625,-1.3570634284973144,-1.7739537925720215,15.657929219818115
1758972217988767000,9.64576708984375,-0.8153753028869628,-1.9961656341552734,16.245705727386472
1758972217998724900,9.655724853515625,-1.6947955001831054,-2.071582986450195,14.933982492828369
1758972218008683000,9.66568310546875,-3.8988077659606932,-1.7093103477478027,13.570783922576904
1758972218018642000,9.675641845703124,-6.513575254058837,-1.7206828056335448,12.680140904998778
1758972218028600000,9.68560009765625,-8.220641037750244,-2.447622284698486,11.818677220153807
1758972218038557700,9.6955576171875,-6.758382373809814,-3.3373674766540526,11.051485225677489
1758972218048515800,9.705515869140624,-4.422838654327393,-4.197933335876464,10.063278490447997
1758972218058473700,9.7154736328125,-3.6041713241577145,-5.115660759735107,9.386317971038817
1758972218068432000,9.725431884765625,-3.208828775024414,-6.2413844528198235,9.55062005996704
1758972218078390800,9.735390869140625,-0.9187748870849609,-7.588871074676513,10.30434467010498
1758972218088349000,9.745348876953125,2.1253028861999512,-8.190414241790771,10.83421142501831
1758972218098306800,9.755306884765625,3.892522986602783,-8.16557439956665,11.009137783813475
1758972218108265000,9.765264892578125,4.700566046905517,-8.479065179443358,11.26142678375244
1758972218118222800,9.775222900390625,4.859630819702148,-8.836250139617919,11.68998888092041
1758972218128181000,9.785180908203126,4.624400506591797,-9.160365189361572,11.724405529785155
1758972218138139000,9.795138916015626,3.501968840789795,-9.612420390319823,10.867730248260498
1758972218148098000,9.80509814453125,-0.5995978782653808,-9.368960009002684,9.554211362457275
1758972218158055700,9.8150556640625,-5.1605520408630365,-8.354417055511474,8.68840818710327
1758972218168013800,9.825013916015624,-5.556044227600097,-7.435791806030273,8.239794651031493
1758972218177971700,9.8349716796875,-2.901772412109375,-6.790255183410644,8.176497944641113
1758972218187929900,9.844929931640625,-0.020201076507568357,-5.992836392974853,8.271667460632324
1758972218197888000,9.854887939453125,1.6672621810913084,-5.1234419151306145,7.9581766807556145
1758972218207847000,9.864846923828125,1.4076409385681152,-4.050390658569336,7.539341027832031
1758972218217804800,9.8748046875,0.4917091659545898,-3.1018378883361812,7.045686573028564
1758972218227763000,9.884762939453125,-0.03366846084594726,-2.451063949584961,6.995707613372803
1758972218237721000,9.89472119140625,-0.017208324432373044,-2.1616648239135743,6.985382618713379
1758972218247678700,9.9046787109375,0.5080196647644043,-2.156427507781982,6.969221757507324
1758972218257636900,9.914636962890626,1.0723030685424804,-2.551770056915283,6.78007982635498
1758972218267595800,9.924595703125,1.5610194824218748,-3.1082723052978514,6.466439408874511
1758972218277554000,9.934553955078124,1.904437783050537,-3.5933974166870115,6.207566354370117
1758972218287511800,9.94451171875,1.9660884757995605,-3.909132760620117,5.996577333068847
1758972218297470000,9.954469970703125,1.7348983779907226,-4.143764523315429,5.743091232299804
1758972218307427800,9.964427734375,1.3623007446289062,-4.301632195281982,5.42047255859375
1758972218317386000,9.974385986328125,1.0184335311889647,-4.366126002502441,5.047426012420654
1758972218327345000,9.984344970703125,0.751480046081543,-4.317942694091797,4.694430905151367
1758972218337303000,9.994302978515625,0.5716156463623047,-4.378994836425781,4.262277505493164
1758972218347261000,10.004260986328125,0.30181904678344723,-4.483292246246338,3.615543782043457
1758972218357219000,10.014218994140625,0.042048166656494135,-4.608090007781982,3.074454206848144
1758972218367177000,10.024177001953126,-0.3094505645751953,-4.677222580718994,2.633921101379394
1758972218377135000,10.034135009765626,-0.6811503723144531,-4.531774829864502,2.315492280578613
1758972218387094000,10.044093994140624,-1.0458172126770018,-4.245967006683349,1.9782091217041013
1758972218397052200,10.05405224609375,-1.3519757499694824,-4.081964192962646,1.8453309295654297
1758972218407010000,10.064010009765624,-1.6766893501281737,-4.242226066589355,1.9809025985717772
1758972218416968200,10.07396826171875,-1.6424223388671875,-4.753687396240234,2.3294085777282714
1758972218426925800,10.08392578125,-1.9928736068725585,-5.434688130950928,3.178153066253662
1758972218436884000,10.093884033203125,-3.274519683074951,-6.264129368591308,4.4753614532470705
1758972218446843000,10.1038427734375,-5.539284815979004,-7.1309800071716305,6.445639781951904
1758972218456801000,10.113801025390625,-9.910797772216796,-7.836820584106444,9.479242922973633
1758972218466759000,10.123759033203125,-18.851494959259032,-7.691821746063232,14.48043091583252
1758972218476717000,10.133717041015625,-22.292411657714844,-5.862053127288818,21.824045957946776
1758972218486675000,10.143675048828126,-10.56576156387329,-3.8513726455688473,27.028441816711425
1758972218496633000,10.153633056640626,-6.796839237976074,-2.046892781829834,29.575124195098876
1758972218506591000,10.163591064453126,-9.555109188079834,-0.3284545402526855,29.427282242584226
1758972218516550100,10.173550048828124,-4.499752382659912,-0.7211036125183105,19.968988584136962
1758972218526508000,10.183508056640624,-2.6274866844177245,-0.12943652725219726,9.559897591400146
1758972218536466000,10.1934658203125,-2.922123126220703,1.4321815055847167,4.6912885154724115
1758972218546423800,10.203423828125,-3.10258607635498,0.9156324974060058,1.4217068733215332
1758972218556382000,10.2133818359375,-3.0451252365112302,-2.7118822929382325,-0.31872809600830077
1758972218566340000,10.223340087890625,-4.083759844207764,-8.451232585144043,0.21757307586669922
1758972218576299000,10.233299072265625,-5.017199216461181,-11.493664344787597,2.855235117340088
1758972218586257000,10.2432568359375,-1.772307778930664,-12.403161700439453,5.7608981071472165
1758972218596215000,10.253215087890625,0.9980828170776367,-12.586168489837645,7.332242584228515
1758972218606173000,10.2631728515625,1.3295301094055174,-12.145934659576415,7.88470461730957
1758972218616131000,10.273131103515626,3.548506135559082,-10.156203442382813,6.822726543426513
1758972218626089200,10.283089111328126,4.331559716033936,-7.103446688079834,3.8959646514892574
1758972218636048100,10.293048095703124,-0.06688800888061523,-4.329315151977539,2.6499323249816893
1758972218646006000,10.303006103515624,-2.2960393920898436,-2.484582772827148,3.0903157928466793
1758972218655964000,10.3129638671875,1.3347674255371094,-2.9493571701049803,3.3054946670532224
1758972218665922000,10.322922119140625,4.027346467590331,-4.3150995796203615,3.658938687133789
1758972218675880000,10.3328798828125,4.119074318695068,-5.45863014755249,4.666448673248291
1758972218685838000,10.342838134765625,4.054580511474609,-6.28223551864624,6.221931564331054
1758972218695797000,10.352796875,4.333056092071533,-6.846219647216796,8.700678470611571
1758972218705755000,10.3627548828125,4.149450752258301,-7.325508892059326,11.966070259857178
1758972218715713000,10.372713134765625,2.8293478118896482,-7.325508892059326,14.660444953155517
1758972218725671200,10.382671142578126,-0.6096235977172851,-6.291961962890625,15.045312870025635
1758972218735629000,10.392629150390626,-3.550301786804199,-5.117456410980225,13.608642236328125
1758972218745587200,10.402587158203126,-1.394323191833496,-4.180276098632812,11.748197908782958
1758972218755546000,10.412546142578124,1.331026485443115,-3.4289456901550293,11.633126591491699
1758972218765504000,10.42250390625,2.123357597351074,-3.2609026611328122,11.91938332748413
1758972218775462000,10.4324619140625,1.6742951484680175,-3.4790742874145506,11.605443634796142
1758972218785420000,10.442419921875,0.7996633544921875,-3.6994904777526854,10.86593459701538
1758972218795378000,10.4523779296875,0.2702455123901367,-3.808277015686035,9.896582199859619
1758972218805336000,10.462336181640625,0.09711480484008789,-3.9529765785217283,8.987833032226561
1758972218815295000,10.472294921875,0.19931728820800781,-4.12476054763794,8.519317694854736
1758972218825253000,10.482253173828125,0.411802685546875,-4.040065663909912,8.37012900390625
1758972218835211000,10.4922109375,0.5493196434020996,-4.0328830589294435,8.188169677734374
1758972218845169200,10.502169189453125,0.6431424209594726,-4.075080863189697,8.090306684875488
1758972218855127000,10.512126953125,0.7139210075378417,-4.106804035186768,8.05035344467163
1758972218865085000,10.5220849609375,0.7074865905761718,-4.0075943038940425,8.085518281555176
1758972218875042800,10.532042724609376,0.7371148361206055,-3.8901287849426267,8.061426627349853
1758972218885002000,10.542001953125,0.7802104660034179,-3.825485340118408,7.926303871154785
1758972218894959900,10.5519599609375,0.8078934226989746,-3.7294179985046383,7.65501089553833
1758972218904918000,10.56191796875,0.7894879974365234,-3.589207563781738,7.312340782928467
1758972218914876000,10.5718759765625,0.6980594215393066,-3.493738772583008,7.127837617492675
1758972218924834000,10.581833984375,0.5744587608337401,-3.5112463722229004,7.02234310684204
1758972218934792000,10.5917919921875,0.4745008415222168,-3.5399767921447753,7.0549641044616695
1758972218944751000,10.601751220703125,0.42721535873413086,-3.6426281883239744,7.318475924682617
1758972218954709000,10.611708984375,0.3721487205505371,-3.7900212280273435,7.585429409790039
1758972218964667100,10.621667236328125,0.3085527389526367,-3.8166567214965816,7.8535799957275385
1758972218974625000,10.631625,0.17552490921020505,-3.7304654617309567,8.069357420349121
1758972218984583000,10.6415830078125,0.12943652725219726,-3.642328913116455,8.249820370483398
1758972218994541000,10.651541015625,0.1135749412536621,-3.623025662231445,8.436418462371826
1758972219004500000,10.6615,-0.07676409072875977,-3.7038299682617186,8.604910404205322
1758972219014457900,10.671457763671874,-1.0025719451904296,-3.9227497825622555,8.831312098693846
1758972219024416000,10.681416015625,-3.112162882995605,-4.580407051086426,9.297582872009277
1758972219034374000,10.691373779296875,-3.780893334197998,-4.834790977478027,10.187627339172362
1758972219044332000,10.70133203125,-2.1651064888000486,-4.329913702392578,10.844536419677734
1758972219054290200,10.711290283203125,-0.4294599227905273,-3.597138356781006,11.218331153869629
1758972219064249000,10.7212490234375,0.3010708587646484,-2.8981811096191405,11.532570121765136
1758972219074207000,10.73120703125,0.27099370040893556,-2.3497592918395993,11.794136653137206
1758972219084165000,10.7411650390625,-0.508169302368164,-1.737292579650879,12.298565015411377
1758972219094123000,10.751123046875,-2.52184253616333,-1.0556932945251465,12.753313693237304
1758972219104081000,10.761080810546876,-4.688445401000976,-0.6308721374511719,12.908038975524901
1758972219114039000,10.7710390625,-5.18419478225708,-0.528669654083252,12.939762147521972
1758972219123998000,10.780998046875,-3.456030096435547,-0.5437830520629883,13.633631716156005
1758972219133955800,10.790955810546874,-1.0779892974853515,-0.6865373260498047,15.66720675125122
1758972219143914000,10.8009140625,0.4471171600341797,-1.0562918449401855,16.72768844909668
1758972219153872100,10.8108720703125,0.4070142822265625,-1.741632070159912,15.822530583953856
1758972219163830000,10.820830078125,-2.5381530349731443,-2.577956637573242,13.89953773803711
1758972219173788200,10.8307880859375,-7.44357296142578,-3.4210148971557617,11.987468437194824
1758972219183747000,10.8407470703125,-10.397419259643554,-4.370764768218994,10.615590885925293
1758972219193705000,10.850705078125,-8.781033863830565,-5.259163221740723,10.152462502288818
1758972219203663000,10.8606630859375,-5.849633206176757,-5.757157167053222,9.777769942474364
1758972219213621000,10.87062109375,-3.8582559753417964,-6.047603755950927,9.311349531555175
1758972219223579000,10.880578857421876,-2.261173830413818,-6.433219860839843,9.55795230255127
1758972219233537000,10.890537109375,-0.2768295669555664,-7.0096239105224605,10.38709426498413
1758972219243496000,10.900495849609374,2.270900274658203,-7.311293319702148,11.405976708984374
1758972219253454000,10.9104541015625,3.976768957519531,-7.452102304840087,11.835885544586182
1758972219263412000,10.920411865234374,4.552424819183349,-7.522282341003417,12.180201670837402
1758972219273370000,10.9303701171875,5.097105696868896,-7.573308763885498,12.534992429351806
1758972219283328000,10.940327880859375,5.617994195556641,-7.7118731849670406,12.556091331481932
1758972219293286100,10.9502861328125,4.67961678237915,-7.9658081985473626,11.436053867340087
1758972219303245000,10.9602451171875,1.8655320060729979,-7.773074964904785,9.61481459197998
1758972219313203200,10.970203125,-2.109441300201416,-6.995258700561523,8.680477394104003
1758972219323160800,10.980160888671875,-4.736179796600341,-6.28253479385376,8.446893094635008
1758972219333119000,10.990118896484375,-3.291129457092285,-5.887341882324218,8.238896825408935
1758972219343076900,11.000076904296876,-0.24046762924194334,-5.727379283905029,8.119635655212402
1758972219353035500,11.010035400390626,1.5180734901428221,-5.534197137451171,7.898471276855468
1758972219362993400,11.019993408203124,1.1243769546508788,-5.289090742492675,7.598747156524658
1758972219372952600,11.02995263671875,0.34820670394897457,-4.844218146514892,7.696011598968505
1758972219382910500,11.039910400390625,-0.17372925796508787,-4.247164107513427,8.124424058532714
1758972219392868600,11.04986865234375,-0.3580827857971191,-3.8347628715515136,8.44614490661621
1758972219402826500,11.059826416015625,-0.016909049224853513,-3.9342718780517574,8.585457515716552
1758972219412784600,11.06978466796875,0.29822774429321286,-4.34143579788208,8.046163591766357
1758972219422742500,11.079742431640625,0.4230255058288574,-4.73049356765747,7.052569902801514
1758972219432701700,11.08970166015625,0.626981559753418,-5.0209401565551754,5.864148053741455
1758972219442659600,11.09965966796875,0.6926724678039551,-5.0680760017395015,5.0471267372131345
1758972219452617500,11.109617431640626,0.5244798011779784,-4.761618189239502,4.257489102172851
1758972219462575400,11.119575439453126,0.31259295425415035,-4.496460355377197,3.4138322921752926
1758972219472533500,11.129533447265626,0.20829554443359374,-4.349516228485107,2.6958710693359373
1758972219482491400,11.139491455078126,0.18091186294555664,-4.426579594421386,2.2870611358642576
1758972219492450600,11.149450439453124,0.1924339584350586,-4.52653751373291,2.1689970664978024
1758972219502408400,11.159408447265625,0.07556698989868163,-4.581753789520263,2.2008698760986327
1758972219512366600,11.16936669921875,-0.13512275619506836,-4.527136064147949,2.344372338104248
1758972219522324500,11.179324462890625,-0.45923780593872066,-4.288912998962402,2.559401574707031
1758972219532282600,11.18928271484375,-0.7543231605529784,-4.04171167755127,2.605340319061279
1758972219542240300,11.199240234375,-1.096095447540283,-3.88818349609375,2.5315689804077146
1758972219552199700,11.20919970703125,-1.506102481842041,-3.8419454765319823,2.4525603256225583
1758972219562157300,11.2191572265625,-1.7509096015930175,-3.8783074142456053,2.602197929382324
1758972219572115500,11.229115478515626,-1.9891326667785643,-3.9496845512390135,3.1275755561828613
1758972219582073300,11.2390732421875,-2.5656863540649413,-4.167107989501953,4.046649718475342
1758972219592031500,11.249031494140626,-3.712957862091064,-4.876539868927002,5.194370139312744
1758972219601989600,11.25898974609375,-4.920682962036133,-5.928941136169433,6.564003126525878
1758972219611948500,11.268948486328124,-6.430676021575928,-6.977302188110351,8.553734343719482
1758972219621906400,11.278906494140625,-9.380033191680907,-7.715464487457275,12.272378434753417
1758972219631864600,11.288864501953125,-14.854973838043213,-7.570764924621582,19.36235773849487
1758972219641822500,11.298822509765625,-16.37080276412964,-5.403114596557617,28.245743723297117
1758972219651780600,11.308780517578125,-10.957213535308837,-2.5930700355529783,32.740857340240474
1758972219661738500,11.318738525390625,-7.856423110198974,-0.5687725318908691,32.92326557922363
1758972219671697700,11.32869775390625,-4.984578218841553,0.043544542694091797,23.924209726715087
1758972219681655300,11.3386552734375,-4.0475475440979,0.8034042945861816,12.300061391448974
1758972219691613400,11.348613525390626,-4.452766175079345,1.9936217948913573,6.273855812835693
1758972219701571600,11.358571533203126,-4.9814358291625975,2.055122850036621,1.8944120635986328
1758972219711529500,11.368529541015626,-4.057573263549805,0.6833949363708496,-0.39803602600097654
1758972219721487600,11.378487548828126,1.103876602935791,-2.524236737823486,-0.7453449043273925
1758972219731445500,11.388445556640624,5.607519563293457,-6.1845221633911125,0.39653964996337887
1758972219741404400,11.398404296875,6.047603755950927,-8.58725316696167,2.0869956596374513
1758972219751362600,11.408362548828125,4.76266565246582,-10.888230599975586,3.9463925239562987
1758972219761320700,11.41832080078125,0.7056909393310546,-13.751097235107421,5.502773240661621
1758972219771278300,11.4282783203125,-5.6474728034973145,-14.79212604446411,5.9199628799438475
1758972219781236500,11.438236572265625,-10.500369931030272,-14.159009342956542,6.028749417877197
1758972219791194400,11.4481943359375,-5.846640454101562,-10.708815113067626,6.772448308563232
1758972219801153500,11.458153564453125,2.195034009552002,-7.176469838714599,7.156568037414551
1758972219811111400,11.468111328125,4.544194750976562,-5.651363381195068,6.531980679321289
1758972219821069600,11.478069580078126,3.684825992584228,-5.6058735496521,5.9962780578613275
1758972219831027500,11.48802734375,3.1955110282897947,-5.959916120147705,6.119729080963134
1758972219840985600,11.497985595703126,2.9453169548034666,-6.318298181152343,6.735038907623291
1758972219850943500,11.507943603515624,2.799121015930176,-6.2946554397583006,7.977180656433105
1758972219860902700,11.517902587890624,2.9474118812561034,-6.131700089263916,9.505579141235351
1758972219870860500,11.527860595703125,3.0433295852661133,-5.686977130889892,10.341903708648681
1758972219880818700,11.537818603515625,3.1669302459716797,-5.456535221099853,10.311976187896727
1758972219890776300,11.5477763671875,3.1899744369506835,-5.083339037322998,10.111461798858642
1758972219900734500,11.557734375,2.931699932861328,-4.422090466308593,10.701033957672118
1758972219910692400,11.5676923828125,2.3665187034606934,-3.91362188873291,11.472116529846192
1758972219920651500,11.577651611328125,1.5254057327270507,-3.582773146820068,11.821370697021484
1758972219930609400,11.587609375,0.8587702079772949,-3.253869693756103,12.000636546325683
1758972219940567600,11.597567626953126,0.3817255271911621,-2.9165865348815916,11.641506297302245
1758972219950525400,11.607525390625,-0.05087678527832031,-2.364872689819336,11.244517734527587
1758972219960483600,11.617483642578126,0.12150573425292968,-1.7682675636291503,10.869825174713133
1758972219970441500,11.62744140625,0.32231939849853514,-1.921047557067871,10.041581037902832
1758972219980400600,11.637400634765624,0.2668038475036621,-2.4135049110412594,9.165602505493164
1758972219990358500,11.647358642578125,0.06045359191894531,-2.73866742401123,8.40783768005371
1758972220000316400,11.65731640625,-0.1475426773071289,-2.874239093017578,7.935132489776611
1758972220010274300,11.6672744140625,-0.28640637359619137,-3.103932814788818,7.732523174285888
1758972220020232400,11.677232421875,-0.2959831802368164,-3.338265302276611,7.701997103118896
1758972220030190600,11.687190673828125,-0.28655601119995117,-3.621080373382568,7.706785506439209
1758972220040149500,11.6971494140625,-0.042945992279052735,-3.8398505500793454,7.643937712860107
1758972220050107400,11.707107421875,0.40925884628295894,-4.077325427246094,7.307851654815673
1758972220060065500,11.7170654296875,0.5033808990478515,-4.105606934356689,7.184550269317627
1758972220070023400,11.7270234375,0.5781997009277343,-3.9809588104248044,7.009174997711181
1758972220079981600,11.736981689453126,0.6676829879760742,-3.865139305114746,7.0102224609374995
1758972220089939700,11.746939697265624,0.5837362922668456,-3.9309798507690425,7.033865202331542
1758972220099898600,11.756898681640624,0.49245735397338863,-3.929333837127685,7.165546293640136
1758972220109856500,11.7668564453125,0.3342904067993164,-3.8922237113952636,7.4055650100708
1758972220119814400,11.776814453125,0.1788169364929199,-3.91975703048706,7.740902880096435
1758972220129772500,11.7867724609375,0.1396118843078613,-3.9336733276367184,8.292018174743651
1758972220139730400,11.79673046875,0.1384147834777832,-4.01597400970459,8.785971904754637
1758972220149688600,11.8066884765625,0.08813654861450194,-4.099471792602539,9.145251791381835
1758972220159647500,11.8166474609375,-0.10818798751831055,-4.082113830566406,9.421482807922363
1758972220169605400,11.82660546875,-0.36017771224975587,-4.0158243721008295,9.738265615081787
1758972220179563500,11.8365634765625,-0.33324294357299805,-3.979312796783447,9.998485408020018
1758972220189521700,11.846521728515626,0.009127893829345703,-3.8558617736816405,10.163086772155761
1758972220199479600,11.8564794921875,0.35883097381591794,-3.7247792327880855,10.244639266204834
1758972220209437700,11.866437744140624,0.47644613037109373,-3.591751403045654,10.278008451843261
1758972220219396600,11.876396728515624,0.2763806541442871,-3.4076971504211424,10.417620336151122
1758972220229354500,11.8863544921875,-0.44906244888305663,-3.2686838165283203,10.602123501586913
1758972220239312400,11.8963125,-1.871816785430908,-3.1578023521423337,10.933271518707274
1758972220249270500,11.9062705078125,-3.5473090347290035,-3.0737060188293457,11.14066923751831
1758972220259228400,11.916228515625,-3.47308878326416,-2.8842648124694823,11.618162831115722
1758972220269186600,11.9261865234375,-1.8245313026428223,-2.5559599098205563,12.342558470916748
1758972220279145500,11.9361455078125,-0.5150526321411133,-2.2700024490356445,12.075305710601805
1758972220289103600,11.946103515625,0.011671733093261718,-2.058564514923096,11.43500640411377
1758972220299061500,11.9560615234375,-0.4553472282409668,-1.7021277427673338,11.275343080902099
1758972220309019600,11.96601953125,-1.6404770500183103,-1.6062100387573242,11.897386599731444
1758972220318977500,11.9759775390625,-1.7289128738403319,-1.9877859283447263,14.159308618164061
1758972220328935400,11.985935302734376,-0.9662100074768066,-2.5673323677062987,15.358354737091064
1758972220338894600,11.99589453125,-1.4067431129455565,-3.006518734741211,14.528913499450683
1758972220348852500,12.0058525390625,-3.3611598556518554,-2.8016648551940917,13.569287546539305
1758972220358810600,12.015810546875,-5.336974775695801,-2.6075848831176756,12.752415867614745
1758972220368768800,12.025768798828125,-6.632836424255371,-2.8291981742858887,11.834688443756102
1758972220378726700,12.0357265625,-6.50534518585205,-3.374776877593994,10.851868662261962
1758972220388684500,12.0456845703125,-5.333533110809326,-4.134038079071044,9.773879364776612
1758972220398643700,12.055643798828125,-4.300135819244384,-5.111770182037353,8.889820401763915
1758972220408601600,12.0656015625,-3.469048567962646,-6.4460886947631835,8.704868323516845
1758972220418559500,12.0755595703125,-1.514332550048828,-7.322366502380371,9.26376477355957
1758972220428517600,12.085517578125,1.5816694717407225,-7.448062089538574,10.15051721343994
1758972220438475500,12.0954755859375,3.8769606758117674,-7.525724005889892,10.593594158172607
1758972220448433700,12.10543359375,4.508431363677978,-7.798214082336425,10.844686057281493
1758972220458392600,12.115392578125,4.6639048339843745,-8.0575360496521,11.25469309158325
1758972220468350700,12.125350830078125,4.8713025527954095,-8.297405128479003,11.263970623016357
1758972220478308600,12.13530859375,4.058620726776123,-8.862586357879637,10.606612629699706
1758972220488266800,12.145266845703125,0.7200561492919921,-8.71459476776123,9.627084875488281
1758972220498224600,12.155224609375,-3.7318122001647946,-7.61041888961792,9.049633362579344
1758972220508183800,12.165183837890625,-5.288342554473877,-6.678625531005859,8.981697890472411
1758972220518141400,12.175141357421875,-3.4011130958557128,-6.141426533508301,8.911368216705322
1758972220528099600,12.185099609375,-0.22400749282836913,-5.6006362335205075,8.981398615264892
1758972220538057500,12.195057373046875,1.587206063079834,-4.912153618621826,8.674641527557373
1758972220548015600,12.205015625,1.1124059463500975,-4.2965445167541505,7.90370859298706
1758972220557973500,12.214973388671876,0.17507599639892577,-3.7657799362182613,7.3292498321533195
1758972220567932700,12.2249326171875,-0.12255319747924803,-3.084928839111328,7.240365095520019
1758972220577890600,12.234890625,0.004938040924072265,-2.6167127769470215,7.294833183288574
1758972220587848700,12.2448486328125,0.3221697608947754,-2.56000012512207,7.231985389709473
1758972220597806600,12.254806640625,0.7441478034973145,-2.899078935241699,6.996904714202881
1758972220607764700,12.2647646484375,0.9425672660827636,-3.3762732536315916,6.571634644317626
1758972220617722600,12.27472265625,1.1318588348388672,-3.806930277252197,6.189460204315186
1758972220627681800,12.284681884765625,1.1409867286682127,-4.227262306213379,5.64986700515747
1758972220637639400,12.294639404296875,1.2805986129760742,-4.516362156677245,5.451447542572021
1758972220647597600,12.30459765625,1.061678798675537,-4.628141446685791,5.153818348693847
1758972220657555500,12.314555419921875,0.6712742904663086,-4.64175846862793,4.6815620712280275
1758972220667513600,12.324513671875,0.4020762413024902,-4.581005601501465,4.332756816864014
1758972220677471700,12.3344716796875,0.07930792999267577,-4.563348364257812,4.020463137817383
1758972220687430700,12.3444306640625,-0.323666136932373,-4.505887524414062,3.697245913696289
1758972220697388500,12.354388427734374,-0.7375637489318847,-4.406228880310058,3.424456562042236
1758972220707346700,12.3643466796875,-1.126172605895996,-4.229207595062255,3.107823392486572
1758972220717304800,12.374304931640625,-1.6115969924926756,-4.065803331756592,2.91119958114624
1758972220727262700,12.3842626953125,-1.8508675209045409,-4.083909481811523,2.852541640472412
1758972220737220600,12.394220703125,-1.8544588233947752,-4.176834433746338,2.9695582466125487
1758972220747179500,12.404179443359375,-2.1269488998413086,-4.219032238006592,3.3801638313293454
1758972220757137700,12.4141376953125,-2.8903999542236325,-4.4960114425659174,4.025101903533935
1758972220767095600,12.424095458984375,-4.004451914215088,-5.003282919311523,5.073911868286133
1758972220777053700,12.4340537109375,-5.279065023040771,-5.570559075164795,6.820930892181396
1758972220787011600,12.444011474609376,-7.678653636932372,-6.095487789154053,9.282319836425781
1758972220796969700,12.4539697265625,-12.026224576568604,-6.131251176452636,12.419621836853027
1758972220806928600,12.4639287109375,-14.667777195739745,-4.991012635803222,16.370952401733398
1758972220816886800,12.47388671875,-12.2705827835083,-3.0232781463623044,19.901053112030027
1758972220826844700,12.4838447265625,-8.361150747680664,-2.02384859085083,21.267693347167967
1758972220836802800,12.493802734375,-8.770110318756103,-1.7302596122741698,21.081693805694577
1758972220846760400,12.503760498046875,-8.32523772277832,-1.3893851509094237,19.518579396820066
1758972220856719600,12.5137197265625,-4.870255089569092,-1.3925275405883788,15.468039100646973
1758972220866677500,12.523677490234375,-4.2031706520080565,-1.068711766052246,10.578031847381592
1758972220876635600,12.5336357421875,-4.544942938995361,-1.250072541809082,7.32939946975708
1758972220886593500,12.543593505859375,-3.021033582305908,-3.8328175827026363,6.651391487121582
1758972220896551700,12.5535517578125,-2.427121932983398,-7.96116943283081,7.445069337463378
1758972220906509600,12.563509521484375,-1.6246154640197752,-10.077194787597655,7.673416320800781
1758972220916468700,12.57346875,3.030011838531494,-9.92067385406494,7.435043618011474
1758972220926426600,12.583426513671874,5.083339037322998,-9.185354669189453,6.731746880340576
1758972220936384800,12.593384765625,3.7083190963745114,-8.760084599304198,5.670666632080078
1758972220946342700,12.6033427734375,2.2143372604370115,-8.202235612487792,4.40548069229126
1758972220956300800,12.61330078125,-0.7314286071777343,-7.386261759185791,2.2602760047912596
1758972220966258400,12.623258544921875,-7.995436444091796,-6.510881777191162,0.29777883148193357
1758972220976217600,12.633217529296875,-4.98562568206787,-5.82883357925415,1.5164274765014647
1758972220986175500,12.643175537109375,1.9620482604980467,-5.294926609039306,3.342305517578125
1758972220996133600,12.653133544921875,2.931699932861328,-5.211129550933838,4.6082396453857415
1758972221006091500,12.663091552734375,3.0584429832458495,-5.851129582214355,5.985953063201904
1758972221016049700,12.673049560546875,3.2213983337402343,-6.838288854217529,7.244255673217773
1758972221026007600,12.683007568359375,3.395127591705322,-7.457788533782958,8.692298764801025
1758972221035966700,12.692966796875,3.74767378616333,-7.704391304779052,10.140940406799317
1758972221045924600,12.702924560546874,3.9661446876525877,-7.368754159545898,10.729614739990234
1758972221055882800,12.7128828125,3.8853403816223144,-6.510432864379882,10.913519355010985
1758972221065840600,12.722840576171874,3.746476685333252,-5.410446839141845,11.044901171112059
1758972221075798500,12.732798583984374,3.4044051231384276,-4.308814800262451,10.96170266342163
1758972221085756400,12.74275634765625,2.7455507537841797,-3.6737528099060057,10.837952365112304
1758972221095715600,12.752715576171875,2.1658546768188476,-3.3219548034667965,10.984447579193114
1758972221105673500,12.762673583984375,1.4282909278869629,-3.2517747673034667,11.087697525787354
1758972221115631600,12.772631591796875,0.8875006278991698,-3.0291140129089356,11.256937655639648
