time,seconds_elapsed,z,y,x
1758972208402791200,0.059791259765625,1.297307014465332,-1.914263367652893,0.9704029560089111
1758972208412749000,0.0697490234375,1.2518383264541626,-1.996996521949768,1.34456467628479
1758972208422707200,0.079707275390625,1.2048373222351074,-1.9159433841705322,1.7440372705459595
1758972208432665000,0.0896650390625,1.2548706531524658,-1.6965370178222656,2.259429454803467
1758972208442623200,0.099623291015625,1.3759269714355469,-1.2664052248001099,2.7142512798309326
1758972208452582100,0.10958203125,1.5583535432815552,-0.8358246088027954,2.9788780212402344
1758972208462540000,0.1195400390625,1.8742005825042725,-1.2501850128173828,3.101081132888794
1758972208472498200,0.129498291015625,2.3746118545532227,-2.388998031616211,3.135240316390991
1758972208482456300,0.139456298828125,2.772658586502075,-2.681112289428711,3.119182825088501
1758972208492414200,0.149414306640625,2.5505802631378174,-2.354381799697876,2.8535101413726807
1758972208502372400,0.159372314453125,1.8657342195510864,-2.062882900238037,2.2839035987854004
1758972208512331300,0.169331298828125,1.3489536046981812,-1.9094609022140503,1.7225972414016724
1758972208522289200,0.1792890625,1.2000352144241333,-1.945096492767334,1.2450108528137207
1758972208532247000,0.1892470703125,1.3655282258987427,-1.9048082828521729,0.8833410739898682
1758972208542205200,0.199205078125,1.6429598331451416,-1.705235481262207,0.6245279312133789
1758972208552163000,0.2091630859375,1.8572190999984741,-1.4111356735229492,0.3970143795013428
1758972208562121200,0.219121337890625,2.0309619903564453,-1.3024334907531738,0.12026381492614746
1758972208572079000,0.2290791015625,2.1887691020965576,-1.6281591653823853,-0.17728212475776672
1758972208582038300,0.239038330078125,2.15681529045105,-1.7352045774459839,-0.5222852826118469
1758972208591996200,0.24899609375,2.0374724864959717,-1.572313904762268,-0.9409635066986084
1758972208601954300,0.258954345703125,1.9705312252044678,-1.2070808410644531,-1.3899214267730713
1758972208611912200,0.268912109375,1.956236720085144,-0.6957717537879944,-1.7781291007995605
1758972208621870300,0.278870361328125,2.3968472480773926,0.1535305678844452,-2.0218183994293213
1758972208631828000,0.288827880859375,2.7865898609161377,0.6973272562026978,-2.0289697647094727
1758972208641787100,0.298787109375,2.807732582092285,1.0452290773391724,-1.6313475370407104
1758972208651745000,0.3087451171875,2.618568181991577,0.8717816472053528,-1.0247342586517334
1758972208661703200,0.318703125,2.268495559692383,0.20751550793647766,-0.4565662443637848
1758972208671661000,0.3286611328125,1.792080044746399,-0.6024686694145203,0.06332647800445557
1758972208681619200,0.338619140625,1.3901221752166748,-1.186477541923523,0.5536485910415649
1758972208691577000,0.3485771484375,1.2912616729736328,-1.961381435394287,0.8619598150253296
1758972208701536300,0.358536376953125,1.3690879344940186,-2.836282730102539,0.92198646068573
1758972208711494100,0.368494140625,1.5196723937988281,-3.3880515098571777,0.879304826259613
1758972208721452300,0.378452392578125,1.7840825319290161,-3.7924373149871826,0.8514638543128967
1758972208731410200,0.38841015625,2.1536905765533447,-4.339076042175293,0.9107218384742737
1758972208741368000,0.3983681640625,2.63645076751709,-4.942605972290039,1.1490241289138794
1758972208751326200,0.408326171875,3.205731153488159,-5.6360273361206055,1.5184266567230225
1758972208761285000,0.41828515625,3.6960484981536865,-6.221343040466309,1.8899898529052734
1758972208771243000,0.428242919921875,4.012730598449707,-6.57557487487793,2.146331787109375
1758972208781201200,0.438201171875,4.299071311950684,-6.668210506439209,2.2592077255249023
1758972208791159000,0.448158935546875,4.5022454261779785,-6.4493913650512695,2.131582498550415
1758972208801117200,0.4581171875,4.638434886932373,-5.93194055557251,1.9012972116470337
1758972208811075300,0.468075439453125,4.785806655883789,-5.157927989959717,1.792022943496704
1758972208821033200,0.478033203125,4.749683856964111,-3.702712297439575,1.8332599401474
1758972208830992100,0.4879921875,4.5503010749816895,-2.518845319747925,1.7372257709503174
1758972208840950300,0.4979501953125,4.302744388580322,-2.023905038833618,1.5116584300994873
1758972208850908200,0.507908203125,3.941391944885254,-1.554242730140686,1.4743635654449463
1758972208860866000,0.517865966796875,3.500321388244629,-1.114651083946228,1.5469932556152344
1758972208870824200,0.52782421875,3.1259496212005615,-0.9822657108306885,1.61641263961792
1758972208880782000,0.537781982421875,2.7297682762145996,-0.9913197755813599,1.794845461845398
1758972208890741000,0.547740966796875,2.3319613933563232,-1.0521351099014282,2.06154465675354
1758972208900699100,0.55769921875,2.028425455093384,-1.0814543962478638,2.3225879669189453
1758972208910657300,0.5676572265625,1.8384172916412354,-1.0018889904022217,2.469604253768921
1758972208920615200,0.577615234375,1.7797365188598633,-0.9677706360816956,2.440675973892212
1758972208930573300,0.5875732421875,1.7718205451965332,-1.1529090404510498,2.396193027496338
1758972208940531200,0.59753125,1.6839128732681274,-1.386773705482483,2.4316141605377197
1758972208950490000,0.607489990234375,1.5278311967849731,-1.6564395427703857,2.3946430683135986
1758972208960448300,0.6174482421875,1.3032708168029785,-1.7831538915634155,2.188629627227783
1758972208970406100,0.62740625,1.0017101764678955,-1.7391347885131836,1.759203553199768
1758972208980364000,0.637364013671875,0.7320581674575806,-1.6406540870666504,1.0791230201721191
1758972208990322200,0.647322265625,0.5822449922561646,-1.4469887018203735,0.36222830414772034
1758972209000280000,0.657280029296875,0.3624153435230255,-1.2582310438156128,-0.1509559601545334
1758972209010239200,0.6672392578125,0.02661016210913658,-1.4263309240341187,-0.2161615937948227
1758972209020197000,0.677197021484375,-0.2273513227701187,-1.782753586769104,0.1453852504491806
1758972209030155300,0.6871552734375,-0.48419642448425293,-2.162426233291626,0.5939566493034363
1758972209040113200,0.697113037109375,-0.6533153057098389,-2.1334402561187744,0.8360081911087036
1758972209050071300,0.7070712890625,-0.7398051619529724,-1.7358958721160889,0.7160096168518066
1758972209060029200,0.717029296875,-0.8418058753013611,-1.0314573049545288,0.2970445454120636
1758972209069987000,0.726987060546875,-0.719944417476654,-0.5609204173088074,-0.7826587557792664
1758972209079946200,0.7369462890625,-0.511541485786438,-0.18741729855537415,-2.207495927810669
1758972209089904000,0.746904052734375,-0.5898248553276062,0.6446048021316528,-2.303922414779663
1758972209099862000,0.756862060546875,-0.8867140412330627,1.1259711980819702,-1.8789479732513428
1758972209109820200,0.766820068359375,-1.1764092445373535,1.3490163087844849,-1.4096508026123047
1758972209119778000,0.776778076171875,-1.1924549341201782,1.0116430521011353,-1.2242932319641113
1758972209129736200,0.786736083984375,-0.8176395893096924,-0.22961987555027008,-1.5864471197128296
1758972209139695000,0.796695068359375,-0.23279574513435364,-1.1805189847946167,-1.7917207479476929
1758972209149653200,0.8066533203125,0.30546000599861145,-2.3854925632476807,-1.9089258909225464
1758972209159611100,0.816611083984375,0.6627663373947144,-3.2319929599761963,-1.9987006187438965
1758972209169569300,0.8265693359375,0.82500821352005,-3.789116382598877,-1.4223544597625732
1758972209179527200,0.836527099609375,1.1204663515090942,-4.0775465965271,-0.4404434561729431
1758972209189485000,0.846485107421875,1.3589940071105957,-2.6342837810516357,0.7511275410652161
1758972209199444000,0.85644384765625,1.552533507347107,0.3292299807071686,1.9369937181472778
1758972209209402000,0.866402099609375,1.6656291484832764,1.7164945602416992,1.506972312927246
1758972209219360000,0.876360107421875,1.5813628435134888,0.42547807097435,0.19397464394569397
1758972209229318100,0.886318115234375,1.168299674987793,-0.5503526329994202,-0.1708531230688095
1758972209239276300,0.8962763671875,0.8656002879142761,0.21877694129943848,0.2700912058353424
1758972209249234200,0.906234130859375,0.8078355193138123,0.22814461588859558,0.7918265461921692
1758972209259193000,0.916193115234375,0.8106253147125244,-0.19765634834766388,0.8580930829048157
1758972209269151200,0.926151123046875,1.1288502216339111,-0.6510488986968994,0.7092000246047974
1758972209279109000,0.936109130859375,1.7341909408569336,-0.37907129526138306,0.6727799773216248
1758972209289067300,0.9460673828125,2.2010645866394043,-0.01998928189277649,0.7632076144218445
1758972209299025200,0.956025146484375,2.276533842086792,0.26124757528305054,1.0129408836364746
1758972209308983000,0.965983154296875,2.392155647277832,0.4906773269176483,0.6641008853912354
1758972209318942000,0.97594189453125,2.7447831630706787,0.4664245545864105,0.08999577164649963
1758972209328900000,0.985900146484375,3.1416122913360596,0.3678732216358185,-0.4146013557910919
1758972209338858200,0.995858154296875,3.2585175037384033,0.6870636343955994,-0.8227792382240295
1758972209348816000,1.00581591796875,3.171428680419922,1.2688555717468262,-0.9982805252075195
1758972209358774000,1.01577392578125,3.286688804626465,1.7714166641235352,-0.8250459432601929
1758972209368732000,1.02573193359375,4.272388935089111,1.9098522663116455,-0.17937085032463074
1758972209378691000,1.035691162109375,5.2996506690979,2.033092498779297,0.5111525654792786
1758972209388649000,1.04564892578125,5.790154457092285,1.6666641235351562,0.9400946497917175
1758972209398607000,1.055607177734375,6.3270087242126465,0.6031391024589539,1.177783489227295
1758972209408565000,1.06556494140625,6.723247051239014,-0.6223605275154114,1.3739547729492188
1758972209418523100,1.075523193359375,6.397741317749023,-1.9377458095550537,1.4527242183685303
1758972209428481000,1.08548095703125,5.6423749923706055,-2.8649275302886963,1.3646804094314575
1758972209438440200,1.095440185546875,4.988646507263184,-2.875307559967041,1.389899730682373
1758972209448398000,1.105398193359375,4.30470609664917,-2.00229549407959,1.289328932762146
1758972209458356000,1.11535595703125,3.279541492462158,-1.2596330642700195,1.0226929187774658
1758972209468313900,1.12531396484375,2.2513177394866943,-1.1718707084655762,0.7382190823554993
1758972209478272000,1.13527197265625,1.493011236190796,-1.1575584411621094,0.5573731660842896
1758972209488230000,1.14522998046875,0.8547189235687256,-0.7723674774169922,0.47377875447273254
1758972209498189000,1.15518896484375,0.2952980697154999,-0.19568628072738647,0.38266420364379883
1758972209508147000,1.16514697265625,-0.01854613795876503,0.17864736914634705,0.2957668602466583
1758972209518105000,1.17510498046875,-0.2003345638513565,0.05743493139743805,0.12843942642211914
1758972209528063000,1.18506298828125,-0.3743359446525574,-0.3858572840690613,-0.013994942419230938
1758972209538021000,1.195021240234375,-0.4943535029888153,-0.6915827393531799,-0.12754206359386444
1758972209547979000,1.20497900390625,-0.5500248074531555,-0.7396679520606995,-0.2904566526412964
1758972209557938200,1.214938232421875,-0.44398871064186096,-0.5928963422775269,-0.47711455821990967
1758972209567895800,1.224895751953125,-0.3138000965118408,-0.2891439199447632,-0.5900735855102539
1758972209577854000,1.23485400390625,-0.2899065613746643,-0.01527495589107275,-0.6662155389785767
1758972209587811800,1.244811767578125,-0.4255618751049042,0.14747880399227142,-0.7541067600250244
1758972209597770000,1.25477001953125,-0.6125196814537048,0.19104626774787903,-0.9210235476493835
1758972209607728000,1.26472802734375,-0.7640897631645203,-0.047333016991615295,-1.1309367418289185
1758972209617687000,1.27468701171875,-0.7711890339851379,-0.6092915534973145,-1.4569530487060547
1758972209627645000,1.28464501953125,-0.7751997709274292,-0.806651771068573,-1.861070990562439
1758972209637603000,1.29460302734375,-0.9736927151679993,-1.129351258277893,-2.204810619354248
1758972209647561000,1.30456103515625,-1.3139046430587769,-1.6574790477752686,-2.54814076423645
1758972209657519000,1.31451904296875,-1.6831049919128418,-2.203881025314331,-2.9003448486328125
1758972209667477000,1.32447705078125,-1.9307960271835327,-1.7595833539962769,-2.8345322608947754
1758972209677435000,1.334434814453125,-2.059966564178467,-0.6597543358802795,-2.2988529205322266
1758972209687393800,1.344393798828125,-2.138984203338623,-0.1760273426771164,-1.8401859998703003
1758972209697352000,1.35435205078125,-1.9163813591003418,-0.005757749080657959,-1.6118630170822144
1758972209707310000,1.36431005859375,-1.0230450630187988,0.7695619463920593,-1.7153468132019043
1758972209717268000,1.37426806640625,-0.6080558896064758,-0.02639191970229149,-1.0338897705078125
1758972209727226000,1.38422607421875,-0.2624705135822296,-0.6809380650520325,-0.39298495650291443
1758972209737185000,1.39418505859375,-0.046275828033685684,-0.7701268196105957,0.012758961878716946
1758972209747143000,1.404142822265625,-0.02530130371451378,-0.5552882552146912,0.32424867153167725
1758972209757101000,1.41410107421875,-0.014433158561587334,-0.053352296352386475,0.4785020649433136
1758972209767059200,1.42405908203125,0.05250299721956253,0.4521321952342987,0.542168140411377
1758972209777017000,1.43401708984375,0.06783472001552582,0.6648948788642883,0.6265465617179871
1758972209786975000,1.44397509765625,0.03630901873111725,0.65833979845047,0.7171920537948608
1758972209796932900,1.453932861328125,-0.0014359650667756796,0.5702754259109497,0.7832509875297546
1758972209806892000,1.46389208984375,-0.02088673785328865,0.4681376516819,0.8229333758354187
1758972209816850000,1.473849853515625,-0.018733246251940727,0.42085108160972595,0.855877161026001
1758972209826808000,1.48380810546875,-0.011328326538205147,0.4644499719142914,0.8969340324401855
1758972209836766000,1.493765869140625,-0.03599570319056511,0.5674718618392944,0.9250039458274841
1758972209846724000,1.50372412109375,-0.0504542700946331,0.7892636060714722,0.9656256437301636
1758972209856683000,1.51368310546875,-0.038880642503499985,1.073054552078247,1.032991647720337
1758972209866641200,1.52364111328125,-0.0031311686616390944,1.3410495519638062,1.1086978912353516
1758972209876599000,1.53359912109375,0.027911106124520302,1.5092381238937378,1.1710243225097656
1758972209886557200,1.54355712890625,0.03228508308529854,1.519371747970581,1.2250453233718872
1758972209896514800,1.553514892578125,0.004252261482179165,1.4029737710952759,1.290926456451416
1758972209906473000,1.563472900390625,-0.041328005492687225,1.3234875202178955,1.2372477054595947
1758972209916432000,1.573431884765625,-0.11826783418655396,1.3246397972106934,0.8258161544799805
1758972209926390000,1.58339013671875,-0.21810761094093323,1.3679600954055786,0.4497487545013428
1758972209936348000,1.593347900390625,-0.2768249809741974,1.3962681293487549,0.4029237627983093
1758972209946306000,1.60330615234375,-0.3513154685497284,1.4134348630905151,0.5104531049728394
1758972209956264000,1.613263916015625,-0.5119504928588867,1.3790940046310425,0.49832677841186523
1758972209966222000,1.62322216796875,-0.7037119269371033,1.3223673105239868,0.19883646070957184
1758972209976181000,1.633180908203125,-0.8300955295562744,0.813738226890564,-0.261864572763443
1758972209986139100,1.64313916015625,-0.7637681365013123,0.3609406352043152,-0.5664417743682861
1758972209996097000,1.653096923828125,-0.5237983465194702,0.13950251042842865,-0.7035055756568909
1758972210006055200,1.66305517578125,-0.29682883620262146,-0.1086103543639183,-0.7091187238693237
1758972210016012800,1.6730126953125,-0.2542712390422821,-0.1322571039199829,-0.5879073143005371
1758972210025971000,1.682970947265625,-0.3562822937965393,-0.06471480429172516,-0.44185537099838257
1758972210035929900,1.692929931640625,-0.48437145352363586,0.03512483462691307,-0.2567517161369324
1758972210045888000,1.702887939453125,-0.564487874507904,0.06320759654045105,-0.06704863905906677
1758972210055846000,1.712845947265625,-0.5704689621925354,0.09817663580179214,-0.0036937512923032045
1758972210065804000,1.722803955078125,-0.5275009870529175,0.18260924518108368,-0.08386395871639252
1758972210075762000,1.732761962890625,-0.44702398777008057,0.35014429688453674,-0.10873746126890182
1758972210085720000,1.742719970703125,-0.33196690678596497,0.38680535554885864,-0.017943376675248146
1758972210095679000,1.752678955078125,-0.19016945362091064,0.16481265425682068,0.17825335264205933
1758972210105637000,1.76263720703125,0.0006103533087298274,-0.22229592502117157,0.3772764205932617
1758972210115595000,1.772594970703125,0.16879567503929138,-0.6973763704299927,0.5318094491958618
1758972210125553000,1.782552978515625,0.2605660855770111,-1.0560706853866577,0.6062876582145691
1758972210135511000,1.792510986328125,0.30631428956985474,-1.1801731586456299,0.6476025581359863
1758972210145469000,1.802468994140625,0.40099260210990906,-1.1228868961334229,0.6465618014335632
1758972210155427800,1.812427734375,0.5413833856582642,-1.1537786722183228,0.5735888481140137
1758972210165386000,1.822385986328125,0.6461968421936035,-1.311800241470337,0.4351081848144531
1758972210175343900,1.83234375,0.6660032272338867,-1.419925332069397,0.2621755003929138
1758972210185302000,1.842302001953125,0.48699164390563965,-1.411739468574524,0.14642544090747833
1758972210195260200,1.85226025390625,0.27486953139305115,-1.407092809677124,0.07749883085489273
1758972210205218000,1.862218017578125,0.18878711760044098,-1.4439892768859863,0.07796967774629593
1758972210215177000,1.872177001953125,0.16442851722240448,-1.4302103519439697,0.13658080995082855
1758972210225135000,1.882135009765625,0.11529212445020676,-1.2981114387512207,0.21199806034564972
1758972210235093000,1.892093017578125,0.051480598747730255,-1.1652872562408447,0.33943626284599304
1758972210245051000,1.90205078125,0.02088540606200695,-1.036535620689392,0.4783121347427368
1758972210255009000,1.912009033203125,0.015589275397360325,-0.7906380295753479,0.5863587260246277
1758972210264967000,1.921966796875,0.01321560051292181,-0.5038499236106873,0.6798911094665527
1758972210274925800,1.93192578125,0.022249381989240646,-0.10873179882764816,0.7452676892280579
1758972210284884000,1.941884033203125,0.002979814540594816,0.38209038972854614,0.7634272575378418
1758972210294842000,1.951842041015625,-0.01998702622950077,0.8539025187492371,0.7241452932357788
1758972210304800000,1.961800048828125,-0.040949564427137375,1.189975380897522,0.6419111490249634
1758972210314758100,1.971758056640625,-0.13790972530841827,1.5291818380355835,0.494457870721817
1758972210324716000,1.981716064453125,-0.2551199495792389,1.8375191688537598,0.3055438697338104
1758972210334675200,1.99167529296875,-0.3147507905960083,2.0463688373565674,0.14506687223911285
1758972210344633000,2.001633056640625,-0.33961379528045654,2.225609540939331,0.04733552038669586
1758972210354591000,2.011591064453125,-0.32994934916496277,2.370844602584839,0.009996745735406876
1758972210364548900,2.021548828125,-0.27570608258247375,2.296490430831909,0.011845245957374573
1758972210374507000,2.031507080078125,-0.15148118138313293,1.7260082960128784,0.05381578952074051
1758972210384465000,2.04146484375,0.021398713812232018,0.5957046747207642,0.06675075739622116
1758972210394424000,2.051424072265625,0.18473219871520996,-0.5563048124313354,0.13229714334011078
1758972210404382000,2.0613818359375,0.19642454385757446,-1.0559613704681396,0.2050887942314148
1758972210414340000,2.071340087890625,0.21466195583343506,-1.0324701070785522,0.23470129072666168
1758972210424298000,2.081298095703125,0.25970375537872314,-0.8596911430358887,0.33335089683532715
1758972210434256100,2.091256103515625,0.2306784838438034,-0.5254901051521301,0.44380900263786316
1758972210444214000,2.101214111328125,0.1819266676902771,-0.1325596272945404,0.529625415802002
1758972210454173200,2.111173095703125,0.14158467948436737,0.22555775940418243,0.5662127137184143
1758972210464131000,2.121131103515625,0.10608340799808502,0.44662970304489136,0.5468565821647644
1758972210474089000,2.1310888671875,0.07179474085569382,0.5138190984725952,0.4717652499675751
1758972210484046800,2.141046875,0.05928666517138481,0.45045745372772217,0.3407323956489563
1758972210494005000,2.1510048828125,0.05538560822606087,0.2721300721168518,0.17429928481578827
1758972210503963000,2.160962890625,0.05923520773649216,0.07178764045238495,0.014297102577984333
1758972210513922000,2.170922119140625,0.05695462226867676,-0.05913334712386131,-0.0977829247713089
1758972210523880000,2.1808798828125,0.041341572999954224,-0.11889894306659698,-0.1475728452205658
1758972210533838000,2.190838134765625,0.023646751418709755,-0.12232483923435211,-0.15048041939735413
1758972210543796000,2.2007958984375,0.00554764224216342,-0.10725747048854828,-0.12262535840272903
1758972210553754000,2.210754150390625,-0.0016703312285244465,-0.07957817614078522,-0.08166757225990295
1758972210563713000,2.220713134765625,0.003024821635335684,-0.043656125664711,-0.039556074887514114
1758972210573671200,2.230671142578125,0.007319746073335409,-0.013549617491662502,0.0002913454081863165
1758972210583628800,2.24062890625,-0.0010601563844829798,0.059327516704797745,0.03787627071142197
1758972210593587000,2.2505869140625,-0.020354164764285088,0.21189987659454346,0.07895225286483765
1758972210603544800,2.260544921875,-0.04961937665939331,0.43330204486846924,0.11637365818023682
1758972210613503000,2.2705029296875,-0.085086390376091,0.6067743897438049,0.14988522231578827
1758972210623462000,2.2804619140625,-0.10687211900949478,0.6577536463737488,0.16597683727741241
1758972210633420000,2.290419921875,-0.10135969519615173,0.568821907043457,0.1590716391801834
1758972210643378000,2.3003779296875,-0.0780479833483696,0.39301174879074097,0.1384609043598175
1758972210653336000,2.310336181640625,-0.04232417792081833,0.21587198972702026,0.1143142357468605
1758972210663294000,2.3202939453125,-0.009792068041861057,0.09043204039335251,0.10724487155675888
1758972210673252000,2.330252197265625,0.02397090569138527,0.03419845923781395,0.12829355895519257
1758972210683211000,2.3402109375,0.039715513586997986,-0.0021709995344281197,0.16427871584892273
1758972210693169200,2.350169189453125,0.051151495426893234,-0.06211182847619057,0.19296365976333618
1758972210703126800,2.360126708984375,0.06413786113262177,-0.2437117099761963,0.19685347378253937
1758972210713085000,2.3700849609375,0.050046131014823914,-0.5337601900100708,0.18823635578155518
1758972210723043000,2.38004296875,0.006619827356189489,-0.7898427844047546,0.18827897310256958
1758972210733001000,2.3900009765625,-0.04120240360498428,-0.9078161716461182,0.21496109664440155
1758972210742959900,2.3999599609375,-0.0898788645863533,-0.8720757961273193,0.25849446654319763
1758972210752918000,2.40991796875,-0.14149539172649384,-0.7296280860900879,0.30402374267578125
1758972210762876200,2.419876220703125,-0.15308894217014313,-0.5943917036056519,0.3133019506931305
1758972210772834000,2.429833984375,-0.13037481904029846,-0.6218556761741638,0.22827871143817902
1758972210782792200,2.439792236328125,-0.10759095102548599,-0.8349711298942566,0.020447753369808197
1758972210792749800,2.449749755859375,-0.10989627987146378,-1.0460349321365356,-0.2671622335910797
1758972210802709000,2.459708984375,-0.1423008292913437,-1.1155333518981934,-0.5538120865821838
1758972210812667000,2.4696669921875,-0.189645454287529,-1.126949429512024,-0.8050795197486877
1758972210822625000,2.479625,-0.2166600227355957,-1.1546531915664673,-1.0234017372131348
1758972210832583000,2.4895830078125,-0.22853778302669525,-1.2408044338226318,-1.210638403892517
1758972210842541000,2.499541015625,-0.2284027636051178,-1.3549696207046509,-1.3872169256210327
1758972210852499000,2.5094990234375,-0.23307175934314728,-1.4632883071899414,-1.5571777820587158
1758972210862458000,2.5194580078125,-0.23786970973014832,-1.532800555229187,-1.732911229133606
1758972210872416000,2.529416015625,-0.25395655632019043,-1.535282015800476,-1.9304083585739136
1758972210882374100,2.5393740234375,-0.30365219712257385,-1.4012411832809448,-2.131649971008301
1758972210892332000,2.54933203125,-0.3923209309577942,-1.1311070919036865,-2.30196213722229
1758972210902290200,2.559290283203125,-0.5013979077339172,-0.8371518850326538,-2.397879123687744
1758972210912247800,2.569247802734375,-0.5953251123428345,-0.6611285209655762,-2.3796985149383545
1758972210922207200,2.579207275390625,-0.6635898947715759,-0.6153096556663513,-2.2329752445220947
1758972210932164900,2.589164794921875,-0.7193275094032288,-0.6630797386169434,-1.9710973501205444
1758972210942123000,2.599123046875,-0.7351400256156921,-0.7443508505821228,-1.6277735233306885
1758972210952081000,2.609080810546875,-0.7076840996742249,-0.747589111328125,-1.3173105716705322
1758972210962039000,2.6190390625,-0.6660445332527161,-0.7161100506782532,-1.0608127117156982
1758972210971998000,2.628998046875,-0.60408616065979,-0.6752612590789795,-0.89412921667099
1758972210981956000,2.6389560546875,-0.5528466701507568,-0.6614844799041748,-0.8456474542617798
1758972210991914000,2.6489140625,-0.5313681364059448,-0.7548245191574097,-0.8490499258041382
1758972211001872100,2.6588720703125,-0.5064670443534851,-0.8613203167915344,-0.8271286487579346
1758972211011830000,2.668830078125,-0.4452663064002991,-0.9052857756614685,-0.7160905003547668
1758972211021788000,2.678787841796875,-0.3407316207885742,-0.8750535845756531,-0.5058416724205017
1758972211031747000,2.6887470703125,-0.19131988286972046,-0.8741881847381592,-0.23285628855228424
1758972211041705000,2.698705078125,-0.02592320740222931,-0.9673641920089722,0.06629765033721924
1758972211051662800,2.708662841796875,0.1135316789150238,-1.1567384004592896,0.3413482904434204
1758972211061621000,2.71862109375,0.23774763941764832,-1.3984136581420898,0.5358911752700806
1758972211071579000,2.728578857421875,0.3369898498058319,-1.6863138675689697,0.6981278657913208
1758972211081537000,2.738537109375,0.39228159189224243,-1.8439381122589111,0.8065097332000732
1758972211091496000,2.748495849609375,0.3567131757736206,-1.5176851749420166,0.6163684725761414
1758972211101454000,2.7584541015625,0.15631245076656342,-0.9246559143066406,0.16621805727481842
1758972211111412000,2.768411865234375,-0.14570260047912598,-0.5840515494346619,-0.19963866472244263
1758972211121370000,2.7783701171875,-0.5061026215553284,-0.4480229318141937,-0.376504510641098
1758972211131328000,2.788327880859375,-0.809103786945343,-0.4870157241821289,-0.33599451184272766
1758972211141286000,2.798285888671875,-0.9141092896461487,-0.5967209339141846,-0.18003952503204346
1758972211151245000,2.8082451171875,-0.8731253147125244,-0.736014723777771,0.03204406425356865
1758972211161203000,2.818202880859375,-0.7770850658416748,-0.8329465985298157,0.22423213720321655
1758972211171160800,2.828160888671875,-0.6644356846809387,-0.8394105434417725,0.3187304735183716
1758972211181119000,2.838118896484375,-0.5885805487632751,-0.7726501226425171,0.3427697718143463
1758972211191077000,2.8480771484375,-0.5226916670799255,-0.6862877011299133,0.34890297055244446
1758972211201035000,2.858034912109375,-0.44547387957572937,-0.5943076610565186,0.36241504549980164
1758972211210994000,2.867993896484375,-0.3440186083316803,-0.4773087501525879,0.36722898483276367
1758972211220952000,2.8779521484375,-0.23017966747283936,-0.35646143555641174,0.37345120310783386
1758972211230910000,2.887909912109375,-0.11829351633787155,-0.24498817324638367,0.3985976278781891
1758972211240868000,2.8978681640625,-0.015396695584058762,-0.16165359318256378,0.4548449218273163
1758972211250826000,2.907825927734375,0.08014916628599167,-0.08256490528583527,0.5226045250892639
1758972211260783900,2.917783935546875,0.16464407742023468,0.007434756960719824,0.5851342082023621
1758972211270742800,2.92774267578125,0.22488771378993988,0.12375789880752563,0.649020791053772
1758972211280701000,2.937700927734375,0.2714453637599945,0.22836394608020782,0.7241842150688171
1758972211290659000,2.9476591796875,0.3137691020965576,0.2686016261577606,0.8191775679588318
1758972211300617000,2.957616943359375,0.3560907244682312,0.21857203543186188,0.9091185927391052
1758972211310575000,2.9675751953125,0.39035823941230774,0.07510048896074295,0.964250922203064
1758972211320533000,2.977532958984375,0.40256059169769287,-0.1107383519411087,0.9526405930519104
1758972211330492000,2.987491943359375,0.3634182810783386,-0.30572742223739624,0.852850079536438
1758972211340450000,2.997449951171875,0.2472061812877655,-0.4576359689235687,0.6920750141143799
1758972211350408200,3.007408203125,0.06830763816833496,-0.5047429203987122,0.496207058429718
1758972211360366300,3.017366455078125,-0.11967025697231293,-0.41728657484054565,0.3166772425174713
1758972211370324500,3.027324462890625,-0.2972166836261749,-0.2932194769382477,0.1982802301645279
1758972211380282400,3.037282470703125,-0.4358794689178467,-0.2002866119146347,0.17468754947185516
1758972211390241300,3.0472412109375,-0.5027297735214233,-0.0799812376499176,0.2533150315284729
1758972211400199400,3.057199462890625,-0.5519460439682007,0.06805163621902466,0.3798660337924957
1758972211410157600,3.067157470703125,-0.5794749855995178,0.2711241841316223,0.45384758710861206
1758972211420115500,3.077115478515625,-0.5941556692123413,0.5149605870246887,0.4367855191230774
1758972211430073300,3.0870732421875,-0.6075855493545532,0.7566521763801575,0.3678639233112335
1758972211440032500,3.097032470703125,-0.5039888620376587,1.136249303817749,0.20468005537986755
1758972211449990400,3.106990478515625,-0.19300973415374756,1.8117328882217407,-0.10739441961050034
1758972211459948300,3.1169482421875,0.21322007477283478,2.549626350402832,-0.3898453116416931
1758972211469906400,3.126906494140625,0.5392481684684753,3.095538377761841,-0.45588478446006775
1758972211479864300,3.1368642578125,0.7162021398544312,3.16025972366333,-0.305082231760025
1758972211489822500,3.146822509765625,0.7045932412147522,2.2700798511505127,-0.20954546332359314
1758972211499781400,3.156781494140625,0.523506224155426,0.6668351888656616,-0.3335065543651581
1758972211509739500,3.166739501953125,0.36102113127708435,-0.33226674795150757,-0.4525752663612366
1758972211519697400,3.176697509765625,0.360824853181839,-0.20047223567962646,-0.4365185499191284
1758972211529655600,3.186655517578125,0.39956194162368774,0.5658683776855469,-0.3519292175769806
1758972211539613400,3.196613525390625,0.37642812728881836,1.5401042699813843,-0.23220044374465942
1758972211549571300,3.2065712890625,0.3171025216579437,2.3939929008483887,-0.11164426058530807
1758972211559530200,3.2165302734375,0.2982574701309204,2.9870874881744385,0.01972254551947117
1758972211569488400,3.22648828125,0.349794864654541,3.32554030418396,0.20818161964416504
1758972211579446300,3.2364462890625,0.49207931756973267,3.4425032138824463,0.47018900513648987
1758972211589404400,3.246404296875,0.6367748379707336,3.3236513137817383,0.7796669602394104
1758972211599362300,3.2563623046875,0.714372992515564,3.002009630203247,1.0621140003204346
1758972211609320400,3.266320556640625,0.6485465168952942,2.5460429191589355,1.223132610321045
1758972211619279400,3.276279296875,0.487845242023468,1.950323462486267,1.2614305019378662
1758972211629237500,3.286237548828125,0.2870325744152069,1.2173711061477661,1.1704540252685547
1758972211639195400,3.2961953125,0.11108125001192093,0.5130683779716492,0.921004056930542
1758972211649153500,3.306153564453125,0.03621352091431618,-0.14081770181655884,0.5920838117599487
1758972211659111200,3.316111083984375,0.0959269180893898,-0.7707096338272095,0.2764584422111511
1758972211669069300,3.3260693359375,0.22925423085689545,-1.3703594207763672,0.03519833832979202
1758972211679028200,3.3360283203125,0.37357091903686523,-1.8648868799209595,-0.10801287740468979
1758972211688986400,3.345986328125,0.4574931561946869,-2.181544780731201,-0.14207687973976135
1758972211698944300,3.3559443359375,0.46648532152175903,-2.1437087059020996,-0.08982061594724655
1758972211708902400,3.36590234375,0.3982429504394531,-1.6208745241165161,0.04828950762748718
1758972211718860300,3.3758603515625,0.25557395815849304,-0.7847583293914795,0.25280481576919556
1758972211728818400,3.385818359375,0.1288391500711441,0.6525184512138367,0.46444937586784363
1758972211738777300,3.39577734375,0.055354006588459015,2.5278820991516113,0.6737881898880005
1758972211748735500,3.405735595703125,-0.026966461911797523,3.306152820587158,0.8183216452598572
1758972211758693400,3.415693359375,-0.10457257181406021,2.9587035179138184,0.879078209400177
1758972211768651500,3.425651611328125,-0.08043203502893448,2.0056796073913574,0.8634708523750305
1758972211778609200,3.435609130859375,0.06493527442216873,0.9642656445503235,0.7560312151908875
1758972211788567300,3.4455673828125,0.25090163946151733,0.16696475446224213,0.5830100178718567
1758972211798526200,3.455526123046875,0.34992730617523193,-0.15875528752803802,0.4343970715999603
1758972211808484400,3.465484375,0.3337768018245697,-0.06358855217695236,0.3621918559074402
1758972211818442200,3.475442138671875,0.27963367104530334,0.19333459436893463,0.3411845564842224
1758972211828400400,3.485400390625,0.21724413335323334,0.41605061292648315,0.3278473913669586
1758972211838358500,3.495358642578125,0.17165960371494293,0.4867370128631592,0.3089594542980194
1758972211848316400,3.50531640625,0.15370264649391174,0.40813249349594116,0.296150267124176
1758972211858275300,3.515275390625,0.17550541460514069,0.25949960947036743,0.29010701179504395
1758972211868233500,3.5252333984375,0.22799859941005707,0.09435886889696121,0.2881218492984772
1758972211878191400,3.53519140625,0.29889142513275146,-0.048612937331199646,0.3026248812675476
1758972211888149200,3.545149169921875,0.35523369908332825,-0.12891310453414917,0.3229416012763977
1758972211898107400,3.555107421875,0.3735743463039398,-0.12233589589595795,0.3502541780471802
1758972211908065300,3.565065185546875,0.3532475233078003,-0.06410587579011917,0.38936907052993774
1758972211918024200,3.575024169921875,0.3038218915462494,0.04166635870933533,0.43600794672966003
1758972211927982300,3.584982421875,0.25184714794158936,0.19027380645275116,0.4757445454597473
1758972211937940500,3.5949404296875,0.21445637941360474,0.29313310980796814,0.5034587979316711
1758972211947898400,3.6048984375,0.16580592095851898,0.3143680691719055,0.5122455954551697
1758972211957856500,3.6148564453125,0.11348972469568253,0.24133247137069702,0.5070015788078308
1758972211967814400,3.624814453125,0.06463982909917831,0.08751587569713593,0.48757678270339966
1758972211977773300,3.634773193359375,0.013596353121101856,-0.10589353740215302,0.4598466157913208
1758972211987731500,3.6447314453125,-0.03552447259426117,-0.296294629573822,0.4399438500404358
1758972211997689600,3.654689697265625,-0.0761810913681984,-0.41016685962677,0.43069469928741455
1758972212007647200,3.664647216796875,-0.10607146471738815,-0.4296835958957672,0.43934717774391174
1758972212017605400,3.67460546875,-0.13348817825317383,-0.35810500383377075,0.4669244885444641
1758972212027563300,3.684563232421875,-0.16937772929668427,-0.22777922451496124,0.49653884768486023
1758972212037522400,3.6945224609375,-0.22585539519786835,-0.149119570851326,0.5099896788597107
1758972212047480300,3.704480224609375,-0.28700700402259827,-0.07764298468828201,0.4812261462211609
1758972212057438500,3.7144384765625,-0.3816767930984497,0.07312149554491043,0.37986040115356445
1758972212067396400,3.724396240234375,-0.5352159142494202,0.13850755989551544,0.1283826380968094
1758972212077354500,3.7343544921875,-0.6627421379089355,-0.27506619691848755,-0.4792383313179016
1758972212087312400,3.7443125,-0.7609138488769531,-0.6493186950683594,-1.2049212455749512
1758972212097271600,3.754271484375,-0.782669186592102,-0.5411615967750549,-1.695665717124939
1758972212107229400,3.7642294921875,-0.6788175106048584,-0.3498167395591736,-1.916262149810791
1758972212117187300,3.774187255859375,-0.5191090703010559,-0.5164376497268677,-2.03299880027771
1758972212127145200,3.784145263671875,-0.41567206382751465,-1.0117740631103516,-2.226412773132324
1758972212137103400,3.794103271484375,-0.39143651723861694,-1.4191431999206543,-2.4927234649658203
1758972212147062300,3.804062255859375,-0.3799757957458496,-1.580033302307129,-2.7014999389648438
1758972212157020400,3.8140205078125,-0.3728632926940918,-1.6441043615341187,-2.8412883281707764
1758972212166978300,3.823978271484375,-0.3840245306491852,-1.6413394212722778,-2.8762128353118896
1758972212176936400,3.8339365234375,-0.4410734474658966,-1.599483847618103,-2.7774789333343506
1758972212186894300,3.843894287109375,-0.5708172917366028,-1.6319538354873657,-2.5259668827056885
1758972212196852500,3.8538525390625,-0.7068299651145935,-1.7225955724716187,-2.169281244277954
1758972212206811400,3.863811279296875,-0.7927323579788208,-1.733633041381836,-1.798793077468872
1758972212216769500,3.87376953125,-0.7713213562965393,-1.4830451011657715,-1.5029278993606567
1758972212226727400,3.8837275390625,-0.6963639259338379,-0.8787941336631775,-1.2754590511322021
1758972212236685300,3.893685302734375,-0.6038723587989807,-0.17177069187164307,-1.0655156373977661
1758972212246643200,3.903643310546875,-0.5215725302696228,0.3033440411090851,-0.9124104976654053
1758972212256601300,3.913601318359375,-0.44987383484840393,0.24927359819412231,-1.0651623010635376
1758972212266560300,3.923560302734375,-0.39335277676582336,-0.23625393211841583,-1.4459964036941528
1758972212276518400,3.933518310546875,-0.3120978772640228,-0.6361768245697021,-1.6921281814575195
1758972212286476300,3.943476318359375,-0.21819671988487244,-0.7716734409332275,-1.6401923894882202
1758972212296434400,3.953434326171875,-0.1636410653591156,-0.8913921117782593,-1.2490984201431274
1758972212306392300,3.963392333984375,-0.1689838469028473,-0.8894514441490173,-0.7903168201446533
1758972212316350500,3.9733505859375,-0.20768463611602783,-0.8024275898933411,-0.48171985149383545
1758972212326309400,3.983309326171875,-0.21075861155986786,-0.7747644186019897,-0.37740108370780945
1758972212336267500,3.993267578125,-0.18541064858436584,-0.7950550317764282,-0.40150296688079834
1758972212346225000,4.003224853515625,-0.21490122377872467,-0.8439579606056213,-0.4513428807258606
1758972212356182500,4.0131826171875,-0.28550004959106445,-0.9038548469543457,-0.44249746203422546
1758972212366140700,4.023140625,-0.4105446934700012,-0.9834167957305908,-0.3351348340511322
1758972212376098600,4.0330986328125,-0.5204067230224609,-1.049843192100525,-0.21872754395008087
1758972212386057700,4.0430576171875,-0.6015898585319519,-1.0671122074127197,-0.13533635437488556
1758972212396015600,4.053015625,-0.640964686870575,-0.9987472891807556,-0.08769425749778748
1758972212405973800,4.062973876953125,-0.6342971920967102,-0.9003933072090149,-0.022153135389089584
1758972212415931600,4.072931640625,-0.5845181941986084,-0.7974392175674438,0.06936293840408325
1758972212425889800,4.082889892578125,-0.5120859146118164,-0.6714433431625366,0.1774103194475174
1758972212435847700,4.09284765625,-0.4275401532649994,-0.5459309220314026,0.310903936624527
1758972212445806800,4.102806884765625,-0.34049466252326965,-0.41197091341018677,0.4455964267253876
1758972212455764700,4.1127646484375,-0.2472613900899887,-0.27122363448143005,0.5666581392288208
1758972212465722600,4.12272265625,-0.1606791913509369,-0.16916385293006897,0.6887637376785278
1758972212475680500,4.132680419921875,-0.08430027216672897,-0.06609046459197998,0.7978683710098267
1758972212485638700,4.142638671875,0.005248732399195433,0.09231661260128021,0.8742107152938843
1758972212495596500,4.152596435546875,0.12194126099348068,0.3096159100532532,0.9472796320915222
1758972212505555700,4.1625556640625,0.2934315800666809,0.6076188087463379,1.0330007076263428
1758972212515513600,4.172513671875,0.4908043146133423,0.8960775136947632,1.1379705667495728
1758972212525471700,4.1824716796875,0.6623302698135376,1.004122018814087,1.2481988668441772
1758972212535429600,4.1924296875,0.7875209450721741,0.8497734069824219,1.3341398239135742
1758972212545387800,4.2023876953125,0.866795003414154,0.45842868089675903,1.3699352741241455
1758972212555345700,4.212345703125,0.8780120015144348,-0.09764706343412399,1.3241102695465088
1758972212565303600,4.222303466796875,0.7770302295684814,-0.7797368168830872,1.1381891965866089
1758972212575262700,4.2322626953125,0.37981894612312317,-1.6841213703155518,0.7203416228294373
1758972212585220600,4.242220703125,-0.34878864884376526,-2.144359827041626,0.14780011773109436
1758972212595178500,4.252178466796875,-1.1101545095443726,-1.472669005393982,-0.29092079401016235
1758972212605136600,4.26213671875,-1.6398142576217651,-0.7382937669754028,-0.5003869533538818
1758972212615094800,4.2720947265625,-1.670151710510254,-0.3530757427215576,-0.35586440563201904
1758972212625052700,4.282052734375,-1.3600496053695679,0.28837013244628906,0.010967368260025978
1758972212635011600,4.292011474609375,-1.0530427694320679,0.951407790184021,0.23451843857765198
1758972212644969700,4.3019697265625,-0.7155663967132568,1.3278528451919556,0.1489051729440689
1758972212654927600,4.311927734375,-0.30840161442756653,1.6556496620178223,-0.08223270624876022
1758972212664885800,4.3218857421875,0.1760137975215912,1.823606014251709,-0.4075530469417572
1758972212674843600,4.33184375,0.6630859971046448,1.8577854633331299,-0.6853633522987366
1758972212684802800,4.341802734375,1.0091838836669922,1.7516969442367554,-0.5332526564598083
1758972212694760400,4.351760498046875,1.2362055778503418,1.144819974899292,-0.277820348739624
1758972212704718600,4.361718505859375,1.346631407737732,0.19739416241645813,-0.222697913646698
1758972212714676700,4.3716767578125,1.241545557975769,-0.43088868260383606,-0.2784503996372223
1758972212724634600,4.381634521484375,1.0471185445785522,-0.292445570230484,-0.2540305256843567
1758972212734592800,4.3915927734375,0.8571059107780457,0.34784892201423645,-0.32192355394363403
1758972212744551700,4.4015517578125,0.722321093082428,1.2774252891540527,-0.42051810026168823
1758972212754509600,4.411509521484375,0.5647274255752563,2.0593531131744385,-0.35263651609420776
1758972212764467700,4.4214677734375,0.4469021260738373,2.447960376739502,-0.16125960648059845
1758972212774425900,4.43142578125,0.5022143721580505,2.584522247314453,0.08292030543088913
1758972212784383700,4.4413837890625,0.6508927941322327,2.748349189758301,0.3173624873161316
1758972212794341600,4.451341552734375,0.7876309156417847,2.9006969928741455,0.5668879151344299
1758972212804300800,4.46130078125,0.8338157534599304,2.9483580589294434,0.8456547260284424
1758972212814258700,4.4712587890625,0.6874396204948425,2.6623141765594482,1.1236006021499634
1758972212824216600,4.481216552734375,0.39844533801078796,2.065000534057617,1.3383017778396606
1758972212834174700,4.4911748046875,0.07511494308710098,1.3091214895248413,1.4358043670654297
1758972212844132600,4.501132568359375,-0.15972690284252167,0.5752760767936707,1.320355772972107
1758972212854090800,4.5110908203125,-0.3116394877433777,-0.2015935629606247,0.9299986362457275
1758972212864049700,4.521049560546875,-0.3468742072582245,-0.9399864077568054,0.33698704838752747
1758972212874007800,4.5310078125,-0.20545557141304016,-1.3736541271209717,-0.22000561654567719
1758972212883965700,4.540965576171875,0.04723580554127693,-1.4388874769210815,-0.524132251739502
1758972212893923800,4.550923828125,0.21110916137695312,-1.0958917140960693,-0.583759069442749
1758972212903881500,4.560881591796875,0.23828399181365967,-0.2706456184387207,-0.49493545293807983
1758972212913839600,4.570839599609375,0.20354466140270233,1.3031046390533447,-0.27989184856414795
1758972212923798500,4.580798583984375,0.12150704860687256,2.7158749103546143,0.053704530000686646
1758972212933756700,4.590756591796875,0.010059084743261337,3.0646486282348633,0.3659364581108093
1758972212943714600,4.600714599609375,-0.017532216385006905,2.611283302307129,0.5925787091255188
1758972212953672700,4.610672607421875,0.07323683798313141,1.8177162408828735,0.721078097820282
1758972212963630600,4.620630615234375,0.2233625203371048,1.004315733909607,0.7740588784217834
1758972212973588700,4.630588623046875,0.3499811887741089,0.38313791155815125,0.7957007884979248
1758972212983546600,4.640546630859375,0.42502936720848083,-0.025690309703350067,0.836380660533905
1758972212993505800,4.650505859375,0.45826348662376404,-0.21525385975837708,0.9185636639595032
1758972213003463700,4.660463623046875,0.46609774231910706,-0.22626416385173798,1.0237829685211182
1758972213013421800,4.670421875,0.45246580243110657,-0.13004522025585175,1.1356191635131836
1758972213023379500,4.68037939453125,0.4276984632015228,-0.08656112104654312,1.2301013469696045
1758972213033337600,4.690337646484375,0.3981562852859497,-0.13983099162578583,1.2866401672363281
1758972213043295700,4.700295654296875,0.3802635967731476,-0.18801969289779663,1.2740763425827026
1758972213053254700,4.710254638671875,0.3912675082683563,-0.23904931545257568,1.2087074518203735
1758972213063212500,4.720212646484375,0.42797011137008667,-0.3326342701911926,1.130267858505249
1758972213073170700,4.730170654296875,0.45169487595558167,-0.4280169904232025,1.0567903518676758
1758972213083128600,4.740128662109375,0.44571346044540405,-0.46467313170433044,0.9978825449943542
1758972213093086700,4.750086669921875,0.41029930114746094,-0.38825955986976624,0.9529020190238953
1758972213103044900,4.760044921875,0.3582172095775604,-0.20884868502616882,0.915669858455658
1758972213113003800,4.770003662109375,0.2867898941040039,0.017611626535654068,0.8729082942008972
1758972213122961700,4.779961669921875,0.22129766643047333,0.29835501313209534,0.8221336603164673
1758972213132919600,4.78991943359375,0.18464964628219604,0.617242157459259,0.7569717168807983
1758972213142877700,4.799877685546875,0.17329280078411102,0.937067985534668,0.6736981868743896
1758972213152835600,4.809835693359375,0.15812744200229645,1.1656938791275024,0.558751106262207
1758972213162793700,4.819793701171875,0.13263560831546783,1.201282262802124,0.41961491107940674
1758972213172752600,4.829752685546875,0.09097844362258911,1.0062369108200073,0.25756609439849854
1758972213182710500,4.83971044921875,0.017004666849970818,0.6545583009719849,0.09174157679080963
1758972213192668700,4.849668701171875,-0.08194215595722198,0.2792980968952179,-0.05382627621293068
1758972213202626800,4.859626708984375,-0.1617984175682068,0.03312147408723831,-0.16908563673496246
1758972213212584700,4.869584716796875,-0.22563251852989197,0.06717744469642639,-0.27003273367881775
1758972213222542800,4.87954296875,-0.29004451632499695,0.29248058795928955,-0.4358712434768677
1758972213232501800,4.889501708984375,-0.343269407749176,0.3293760418891907,-0.6795619130134583
1758972213242459600,4.899459716796875,-0.3709973990917206,-0.038925427943468094,-0.8757213950157166
1758972213252417500,4.90941748046875,-0.46247273683547974,-0.5902737975120544,-0.910050094127655
1758972213262375700,4.919375732421875,-0.6676223874092102,-0.9600749015808105,-0.7967063784599304
1758972213272333600,4.92933349609375,-0.9434512853622437,-1.0373637676239014,-0.6179099678993225
1758972213282291700,4.939291748046875,-1.1871649026870728,-0.8644347786903381,-0.49148979783058167
1758972213292250600,4.949250732421875,-1.1605538129806519,-0.7596098184585571,-0.6055178642272949
1758972213302208800,4.959208740234375,-0.8774038553237915,-1.131840705871582,-1.0308566093444824
1758972213312166700,4.969166748046875,-0.6426906585693359,-1.594939112663269,-1.5738160610198975
1758972213322124800,4.979124755859375,-0.601566731929779,-1.7578558921813965,-2.0329549312591553
1758972213332082700,4.989082763671875,-0.5879015326499939,-1.7576156854629517,-2.3378007411956787
1758972213342040800,4.999040771484375,-0.5356244444847107,-1.7940081357955933,-2.5360968112945557
1758972213352000000,5.009,-0.42586496472358704,-1.8876656293869019,-2.652601480484009
1758972213361958100,5.018958251953125,-0.2762501537799835,-2.0149664878845215,-2.65116286277771
1758972213371915800,5.028915771484375,-0.2641889750957489,-2.099760055541992,-2.532520294189453
1758972213381874000,5.0388740234375,-0.36775270104408264,-1.9983513355255127,-2.406496047973633
1758972213391831800,5.048831787109375,-0.39283648133277893,-1.6891921758651733,-2.331479787826538
1758972213401790000,5.0587900390625,-0.3875730335712433,-1.3576198816299438,-2.23244309425354
1758972213411748900,5.068748779296875,-0.4734985828399658,-0.9544348120689392,-2.090942144393921
1758972213421707000,5.07870703125,-0.5796145796775818,-0.47301721572875977,-1.809073567390442
1758972213431665000,5.088664794921875,-0.594540536403656,0.17563854157924652,-1.4049742221832275
1758972213441623000,5.098623046875,-0.534031093120575,0.6005618572235107,-1.1385921239852905
1758972213451581000,5.108580810546875,-0.47019296884536743,0.2336922585964203,-1.1381442546844482
1758972213461539000,5.1185390625,-0.38477692008018494,-0.5490915775299072,-1.2513834238052368
1758972213471498000,5.128498046875,-0.24214279651641846,-0.9876636266708374,-1.268118977546692
1758972213481455900,5.138455810546875,-0.10760452598333359,-1.0248957872390747,-1.1079485416412354
1758972213491413800,5.148413818359375,-0.07646844536066055,-0.7740753293037415,-0.9034425020217896
1758972213501372000,5.158371826171875,-0.1298230141401291,-0.47142452001571655,-0.7293825149536133
1758972213511329800,5.168329833984375,-0.2322724312543869,-0.37756192684173584,-0.5498612523078918
1758972213521288000,5.178287841796875,-0.337311714887619,-0.4567897915840149,-0.37918660044670105
1758972213531246800,5.188246826171875,-0.423204243183136,-0.5920783281326294,-0.2371050864458084
1758972213541205000,5.198205078125,-0.48781657218933105,-0.7329509258270264,-0.11782864481210709
1758972213551163000,5.208162841796875,-0.5466495156288147,-0.8494996428489685,-0.012151749804615974
1758972213561121000,5.21812109375,-0.5882661938667297,-1.007946491241455,0.11169448494911194
1758972213571079000,5.228078857421875,-0.5851835608482361,-1.1611100435256958,0.2449369579553604
1758972213581036800,5.238036865234375,-0.5411754250526428,-1.2988619804382324,0.3758378326892853
1758972213590996000,5.247995849609375,-0.4774249196052551,-1.3339565992355347,0.4829126298427582
1758972213600953900,5.257953857421875,-0.3908481299877167,-1.2853600978851318,0.5729942917823792
1758972213610911700,5.267911865234375,-0.3175446093082428,-1.1695533990859985,0.65998375415802
1758972213620870000,5.277869873046875,-0.25450533628463745,-1.021071434020996,0.7698355913162231
1758972213630827800,5.287827880859375,-0.1970985233783722,-0.8119538426399231,0.8887190818786621
1758972213640786000,5.297785888671875,-0.1673816293478012,-0.639213502407074,1.0335583686828613
1758972213650744800,5.307744873046875,-0.14733095467090607,-0.5048868656158447,1.1848522424697876
1758972213660703000,5.317702880859375,-0.11203091591596603,-0.36149975657463074,1.301827073097229
1758972213670660900,5.327660888671875,-0.03286072984337807,-0.13503703474998474,1.3612914085388184
1758972213680619000,5.337618896484375,0.07644142210483551,0.17154885828495026,1.3764216899871826
1758972213690577200,5.3475771484375,0.19378028810024261,0.4733004570007324,1.3993160724639893
1758972213700534800,5.35753466796875,0.33255335688591003,0.7266769409179688,1.4379937648773193
1758972213710493000,5.367492919921875,0.48167866468429565,0.8454741835594177,1.468780755996704
1758972213720451800,5.377451904296875,0.6021976470947266,0.6386297345161438,1.428170084953308
1758972213730410000,5.387409912109375,0.6192935109138489,-0.15156395733356476,1.218077301979065
1758972213740368000,5.397367919921875,0.4433889389038086,-1.5032240152359009,0.6941625475883484
1758972213750326000,5.407325927734375,0.02975689247250557,-2.3586599826812744,0.1457553654909134
1758972213760284000,5.417283935546875,-0.4793013036251068,-1.849624514579773,-0.05945315212011337
1758972213770242000,5.427241943359375,-1.0311546325683594,-1.0468875169754028,-0.15550166368484497
1758972213780201000,5.437200927734375,-1.4456876516342163,-0.540067195892334,-0.2515711784362793
1758972213790159000,5.4471591796875,-1.3943829536437988,-0.0336836539208889,-0.19676759839057922
1758972213800117000,5.457116943359375,-1.0792980194091797,0.6926669478416443,-0.09678146988153458
1758972213810075000,5.467074951171875,-0.8739856481552124,1.0679084062576294,-0.014538530260324478
1758972213820032800,5.47703271484375,-0.68899005651474,1.1511452198028564,-0.03625725582242012
1758972213829991000,5.486990966796875,-0.3464558720588684,1.4563379287719727,-0.18412767350673676
1758972213839949800,5.49694970703125,0.20590060949325562,1.65207040309906,-0.44032877683639526
1758972213849908000,5.506907958984375,0.781257688999176,1.4264034032821655,-0.7317199110984802
1758972213859865900,5.516865966796875,1.1012418270111084,1.1369818449020386,-0.702109694480896
1758972213869824000,5.526823974609375,1.1691406965255737,0.6370382308959961,-0.5251708626747131
1758972213879782000,5.536781982421875,1.0409237146377563,0.42627981305122375,-0.47321993112564087
1758972213889740000,5.546739990234375,0.7966489195823669,0.9420195817947388,-0.4248526692390442
1758972213899699000,5.556698974609375,0.6334577202796936,1.723923683166504,-0.24654951691627502
1758972213909657000,5.566656982421875,0.6724759340286255,2.3252503871917725,-0.06903305649757385
1758972213919615000,5.576614990234375,0.8006033897399902,2.8422837257385254,0.017957014963030815
1758972213929572900,5.58657275390625,0.8270003795623779,3.3237338066101074,0.11333439499139786
1758972213939530800,5.59653076171875,0.8123857975006104,3.56069016456604,0.22132322192192078
1758972213949489000,5.606489013671875,0.8607320785522461,3.4866421222686768,0.35617852210998535
1758972213959447800,5.61644775390625,0.9095160365104675,3.2903501987457275,0.5435305237770081
1758972213969406000,5.626406005859375,0.8376114964485168,2.9963536262512207,0.7512751817703247
1758972213979363800,5.63636376953125,0.5654581785202026,2.4567482471466064,0.9823082685470581
1758972213989322000,5.646322021484375,0.23199394345283508,1.8027150630950928,1.1713498830795288
1758972213999279900,5.65627978515625,-0.05141901969909668,1.1098682880401611,1.2371914386749268
1758972214009238000,5.666238037109375,-0.1918160766363144,0.561240553855896,1.139195442199707
1758972214019197000,5.676197021484375,-0.21427591145038605,0.11377529799938202,0.8851193189620972
1758972214029155000,5.686155029296875,-0.16454030573368073,-0.2585303485393524,0.4535399079322815
1758972214039112700,5.69611279296875,-0.06978428363800049,-0.650079071521759,-0.019704492762684822
1758972214049070800,5.70607080078125,0.0764608085155487,-1.0357741117477417,-0.37136906385421753
1758972214059028700,5.71602880859375,0.22547367215156555,-1.193550705909729,-0.525807797908783
1758972214068987000,5.72598681640625,0.270760715007782,-0.8890404105186462,-0.5108962059020996
1758972214078945000,5.735945068359375,0.22063294053077698,-0.060131508857011795,-0.41528499126434326
1758972214088904000,5.745904052734375,0.14288488030433655,1.8010567426681519,-0.23850809037685394
1758972214098861800,5.75586181640625,0.08267144858837128,3.1689658164978027,-0.03022833913564682
1758972214108820000,5.765820068359375,0.04473738744854927,3.2272045612335205,0.15033452212810516
1758972214118778000,5.775778076171875,0.06657014042139053,2.440403938293457,0.32709217071533203
1758972214128736000,5.785736083984375,0.17121265828609467,1.4464055299758911,0.5012897849082947
1758972214138694000,5.79569384765625,0.34549832344055176,0.5627576112747192,0.6234703063964844
1758972214148653000,5.805653076171875,0.510070264339447,-0.06963952630758286,0.7023051977157593
1758972214158611000,5.81561083984375,0.6026320457458496,-0.3915376365184784,0.7710311412811279
1758972214168568800,5.82556884765625,0.6211575269699097,-0.4292251169681549,0.8557037115097046
1758972214178527000,5.83552685546875,0.6037647724151611,-0.28637024760246277,0.9484902620315552
1758972214188484900,5.84548486328125,0.5315361022949219,-0.027665184810757637,1.0325508117675781
1758972214198443000,5.855443115234375,0.45990151166915894,0.29396677017211914,1.0578327178955078
1758972214208402000,5.86540185546875,0.4131353199481964,0.5396268963813782,1.0198078155517578
1758972214218360000,5.875360107421875,0.3837741017341614,0.657143771648407,0.9391993284225464
1758972214228318000,5.88531787109375,0.3586791157722473,0.6570612192153931,0.8414070010185242
1758972214238276000,5.895276123046875,0.3448639214038849,0.566718578338623,0.7504198551177979
1758972214248234000,5.90523388671875,0.3191013038158417,0.44112518429756165,0.6707226634025574
1758972214258192000,5.91519189453125,0.24610257148742676,0.33836448192596436,0.6169321537017822
1758972214268150800,5.92515087890625,0.17729420959949493,0.36651620268821716,0.5869715809822083
1758972214278109000,5.93510888671875,0.1049603596329689,0.5847471952438354,0.5708794593811035
1758972214288066800,5.94506689453125,0.04127725586295128,1.053912878036499,0.5429988503456116
1758972214298025000,5.95502490234375,0.01697121560573578,1.7681790590286255,0.4554380774497986
1758972214307982800,5.96498291015625,0.01939176395535469,1.8543413877487183,0.1754210740327835
1758972214317941000,5.97494091796875,0.018302110955119133,1.1217410564422607,-0.18072335422039032
1758972214327900000,5.98489990234375,-0.023261843249201775,0.4033471941947937,-0.37075215578079224
1758972214337858000,5.994858154296875,-0.056100860238075256,0.08296679705381393,-0.42672044038772583
1758972214347816200,6.004816162109375,-0.08522093296051025,0.15762771666049957,-0.43436798453330994
1758972214357774300,6.0147744140625,-0.1728443056344986,0.3481983244419098,-0.4339827001094818
1758972214367732200,6.024732177734375,-0.28148314356803894,0.4212285876274109,-0.43167001008987427
1758972214377690400,6.0346904296875,-0.3662329912185669,0.25385624170303345,-0.4256836771965027
1758972214387649300,6.044649169921875,-0.41960805654525757,-0.10761460661888123,-0.3896780014038086
1758972214397607400,6.054607421875,-0.454363614320755,-0.49891287088394165,-0.3178476095199585
1758972214407565300,6.0645654296875,-0.46168383955955505,-0.7077637910842896,-0.23056837916374207
1758972214417523200,6.074523193359375,-0.45555830001831055,-0.6032411456108093,-0.14049920439720154
1758972214427481000,6.084481201171875,-0.4198077619075775,-0.18525134027004242,-0.07992720603942871
1758972214437439200,6.094439208984375,-0.37956175208091736,0.1405806690454483,-0.12134340405464172
1758972214447398100,6.104398193359375,-0.4428158104419708,-0.2600942850112915,-0.38549381494522095
1758972214457356300,6.114356201171875,-0.6663429141044617,-1.151705026626587,-0.7477732300758362
1758972214467314200,6.124314208984375,-0.9195852875709534,-1.548275351524353,-0.9801827669143677
1758972214477272300,6.134272216796875,-1.1128671169281006,-1.2240208387374878,-1.1562250852584839
1758972214487230200,6.144230224609375,-1.1899983882904053,-0.9348156452178955,-1.4085444211959839
1758972214497188400,6.154188232421875,-1.1924750804901123,-1.2279096841812134,-1.7792649269104004
1758972214507147300,6.164147216796875,-1.112708330154419,-1.7353252172470093,-2.2137396335601807
1758972214517105400,6.17410546875,-0.992970883846283,-1.9362797737121582,-2.5372400283813477
1758972214527063000,6.18406298828125,-0.91877681016922,-1.7698204517364502,-2.689378499984741
1758972214537021200,6.194021240234375,-0.9124109745025635,-1.5313546657562256,-2.69635272026062
1758972214546979000,6.20397900390625,-0.896161675453186,-1.4235912561416626,-2.573850393295288
1758972214556937200,6.213937255859375,-0.907173216342926,-1.4375360012054443,-2.301527738571167
1758972214566895400,6.223895263671875,-0.9463768005371094,-1.5697840452194214,-1.9718010425567627
1758972214576854300,6.233854248046875,-0.8811887502670288,-1.7499843835830688,-1.7317410707473755
1758972214586812200,6.243812255859375,-0.7297259569168091,-1.751245379447937,-1.609841227531433
1758972214596770300,6.253770263671875,-0.5597488284111023,-1.5320888757705688,-1.4728444814682007
1758972214606728200,6.263728271484375,-0.38448697328567505,-1.0598186254501343,-1.2877784967422485
1758972214616686300,6.273686279296875,-0.23767800629138947,-0.3105497658252716,-1.0372273921966553
1758972214626644200,6.283644287109375,-0.17715847492218018,0.31207600235939026,-0.7475141286849976
1758972214636603400,6.293603271484375,-0.1823531836271286,0.04146422818303108,-0.7297192811965942
1758972214646561000,6.30356103515625,-0.2232537418603897,-0.8823461532592773,-0.8085086345672607
1758972214656519200,6.313519287109375,-0.2483944594860077,-1.4963759183883667,-0.7766263484954834
1758972214666477300,6.323477294921875,-0.23505309224128723,-1.5120936632156372,-0.6901026368141174
1758972214676435200,6.333435302734375,-0.21496592462062836,-1.1833314895629883,-0.6247673630714417
1758972214686393300,6.343393310546875,-0.19581539928913116,-0.8743876814842224,-0.5792030692100525
1758972214696352300,6.353352294921875,-0.21135841310024261,-0.7875595688819885,-0.5276208519935608
1758972214706310400,6.363310302734375,-0.2761975824832916,-0.8088723421096802,-0.49081066250801086
1758972214716268300,6.373268310546875,-0.37935134768486023,-0.8174200057983398,-0.45347800850868225
1758972214726226400,6.383226318359375,-0.4786587655544281,-0.8281549215316772,-0.3573107421398163
1758972214736184300,6.393184326171875,-0.5818206071853638,-0.9022421836853027,-0.1988610476255417
1758972214746142200,6.40314208984375,-0.6608810424804688,-0.9327604174613953,-0.06801115721464157
1758972214756101000,6.41310107421875,-0.6962049603462219,-1.0162533521652222,0.0840521976351738
1758972214766059300,6.423059326171875,-0.7095506191253662,-1.068430781364441,0.22490039467811584
1758972214776017200,6.43301708984375,-0.7056446075439453,-1.01253080368042,0.3126152455806732
1758972214785975300,6.442975341796875,-0.6686713695526123,-0.8913613557815552,0.3693493604660034
1758972214795933200,6.45293310546875,-0.5988935232162476,-0.7881799936294556,0.45700207352638245
1758972214805891300,6.462891357421875,-0.49527016282081604,-0.708725094795227,0.6161038279533386
1758972214815850200,6.472850341796875,-0.3701111078262329,-0.6193786859512329,0.8061026334762573
1758972214825808400,6.482808349609375,-0.2417115718126297,-0.48480838537216187,0.9671921730041504
1758972214835766300,6.492766357421875,-0.10868901759386063,-0.30287930369377136,1.0715992450714111
1758972214845724400,6.502724365234375,-0.007949624210596085,-0.13590045273303986,1.1392264366149902
1758972214855682000,6.51268212890625,0.09131278097629547,0.06006826087832451,1.1839337348937988
1758972214865640200,6.52264013671875,0.24197989702224731,0.3508611023426056,1.2198816537857056
1758972214875599000,6.53259912109375,0.4410962164402008,0.7223755121231079,1.2564208507537842
1758972214885557200,6.54255712890625,0.6811605095863342,0.9861443042755127,1.3012220859527588
1758972214895515100,6.55251513671875,0.9189639091491699,1.1187890768051147,1.3461552858352661
1758972214905473300,6.562473388671875,1.1201598644256592,1.0546505451202393,1.372534155845642
1758972214915431200,6.57243115234375,1.2465168237686157,0.7430287599563599,1.377400279045105
1758972214925389300,6.582389404296875,1.223857045173645,0.0463750958442688,1.3199175596237183
1758972214935347200,6.59234716796875,0.9804514646530151,-1.1250537633895874,1.0437742471694946
1758972214945306400,6.602306396484375,0.40555861592292786,-2.2526912689208984,0.5023415684700012
1758972214955264300,6.61226416015625,-0.4024496078491211,-1.9975147247314453,0.09607214480638504
1758972214965222400,6.622222412109375,-1.373696208000183,-0.968748927116394,-0.19815921783447266
1758972214975180000,6.632179931640625,-2.1860852241516113,-0.3302418291568756,-0.39906370639801025
1758972214985138200,6.64213818359375,-2.198420524597168,0.24192474782466888,-0.12385953962802887
1758972214995096300,6.652096435546875,-1.3977826833724976,0.6923383474349976,0.2516791522502899
1758972215005055200,6.66205517578125,-0.7887199521064758,0.6426177024841309,0.5097311735153198
1758972215015013000,6.67201318359375,-0.45514512062072754,0.5876363515853882,0.4550188481807709
1758972215024971300,6.68197119140625,-0.1077733188867569,0.955551028251648,0.10473834723234177
1758972215034929200,6.69192919921875,0.3461644649505615,1.6180139780044556,-0.2896222472190857
1758972215044887300,6.70188720703125,0.9339850544929504,1.9862494468688965,-0.7104331254959106
1758972215054845400,6.711845458984375,1.4169580936431885,2.3001277446746826,-0.8532606363296509
1758972215064804400,6.721804443359375,1.6412385702133179,2.1037237644195557,-0.7934231162071228
1758972215074762200,6.73176220703125,1.6057043075561523,0.8578802347183228,-0.8518686294555664
1758972215084720000,6.74172021484375,1.3065170049667358,-0.513947069644928,-0.9584928154945374
1758972215094678300,6.75167822265625,0.7241495251655579,-0.3889196515083313,-0.6190208196640015
1758972215104636200,6.76163623046875,0.2258310765028,0.6938353180885315,-0.16825707256793976
1758972215114594300,6.77159423828125,0.1076006218791008,1.7153514623641968,-0.04131577908992767
1758972215124553200,6.78155322265625,0.06987588107585907,2.225459337234497,0.027831334620714188
1758972215134511400,6.791511474609375,0.04745706543326378,2.338128089904785,0.11233144998550415
1758972215144469200,6.80146923828125,0.15226763486862183,2.3224194049835205,0.20473462343215942
1758972215154427400,6.811427490234375,0.36484530568122864,2.357313394546509,0.2788067162036896
1758972215164385300,6.82138525390625,0.5976479053497314,2.4310555458068848,0.3460874855518341
1758972215174343400,6.831343505859375,0.6996904611587524,2.440258502960205,0.427248477935791
1758972215184302300,6.84130224609375,0.5653781890869141,2.149667739868164,0.548664391040802
1758972215194260500,6.851260498046875,0.22734065353870392,1.5295650959014893,0.6721018552780151
1758972215204218000,6.861218017578125,-0.14627154171466827,0.8277380466461182,0.720160186290741
1758972215214176300,6.87117626953125,-0.4017188251018524,0.27685293555259705,0.6379574537277222
1758972215224134100,6.881134033203125,-0.5295324325561523,-0.1268996149301529,0.48040515184402466
1758972215234092300,6.89109228515625,-0.5671083331108093,-0.49597805738449097,0.3233643174171448
1758972215244050200,6.90105029296875,-0.538136899471283,-0.8145118355751038,0.1799778789281845
1758972215254009300,6.91100927734375,-0.4514322578907013,-0.9875472784042358,0.07092788815498352
1758972215263967200,6.92096728515625,-0.3378963768482208,-0.9087619185447693,-0.006126683205366135
1758972215273925400,6.93092529296875,-0.22234287858009338,-0.5197756886482239,-0.057987235486507416
1758972215283883300,6.94088330078125,-0.09971283376216888,0.8063908815383911,-0.05289047583937645
1758972215293841400,6.95084130859375,-0.007194352336227894,2.4127235412597656,0.0637463927268982
1758972215303799000,6.960799072265625,-0.013816834427416325,3.024566650390625,0.23353463411331177
1758972215313758200,6.97075830078125,-0.11380260437726974,2.683346748352051,0.41352176666259766
1758972215323716000,6.980716064453125,-0.1904374659061432,1.9240168333053589,0.5642556548118591
1758972215333674200,6.99067431640625,-0.18881475925445557,1.1814607381820679,0.6432179808616638
1758972215343632100,7.000632080078125,-0.1307181566953659,0.6306847333908081,0.6676913499832153
1758972215353590300,7.01059033203125,-0.047232527285814285,0.32121410965919495,0.6794595122337341
1758972215363548200,7.020548095703125,0.006200868170708418,0.2515237331390381,0.700018048286438
1758972215373507300,7.03050732421875,0.00865694135427475,0.3537444770336151,0.7498711347579956
1758972215383465000,7.04046484375,-0.0017810522112995386,0.5400187373161316,0.7981180548667908
1758972215393423000,7.050423095703125,-0.02206890657544136,0.6907471418380737,0.7915989756584167
1758972215403381000,7.060381103515625,-0.058745693415403366,0.738767147064209,0.7241445779800415
1758972215413339100,7.070339111328125,-0.12386472523212433,0.6332962512969971,0.6608485579490662
1758972215423297300,7.08029736328125,-0.19275563955307007,0.3888862133026123,0.6220881342887878
1758972215433255200,7.090255126953125,-0.2554856240749359,0.0836070105433464,0.6025948524475098
1758972215443214000,7.100214111328125,-0.29660722613334656,-0.1888868361711502,0.5950671434402466
1758972215453172200,7.110172119140625,-0.32886043190956116,-0.3765251636505127,0.6017174124717712
1758972215463130000,7.120130126953125,-0.3431626558303833,-0.44825395941734314,0.6072429418563843
1758972215473088300,7.130088134765625,-0.3495783805847168,-0.41936010122299194,0.6041219234466553
1758972215483046100,7.140046142578125,-0.3588797450065613,-0.21496276557445526,0.5713040232658386
1758972215493004000,7.150004150390625,-0.37164101004600525,0.13429921865463257,0.5195506811141968
1758972215502963000,7.159962890625,-0.4049840569496155,0.4888210594654083,0.45707905292510986
1758972215512921000,7.169921142578125,-0.3967186510562897,0.6833677887916565,0.37061232328414917
1758972215522879200,7.179879150390625,-0.31094276905059814,0.7444806694984436,0.2644107937812805
1758972215532837000,7.189837158203125,-0.1742112934589386,0.7232822179794312,0.15017178654670715
1758972215542795300,7.199795166015625,-0.031309276819229126,0.6703465580940247,0.02127879112958908
1758972215552753200,7.209753173828125,0.05902131274342537,0.5396536588668823,-0.1203441396355629
1758972215562712300,7.21971240234375,0.03423793613910675,0.29025259613990784,-0.28874140977859497
1758972215572670200,7.229670166015625,-0.04134209826588631,-0.02293061837553978,-0.4894717335700989
1758972215582628400,7.23962841796875,-0.13430878520011902,-0.3011862337589264,-0.6658017635345459
1758972215592586200,7.249586181640625,-0.17864976823329926,-0.4434574544429779,-0.7405941486358643
1758972215602544000,7.259544189453125,-0.18510554730892181,-0.3857043981552124,-0.7249425053596497
1758972215612502000,7.269501953125,-0.21374155580997467,-0.2823750972747803,-0.6886268854141235
1758972215622460200,7.279460205078125,-0.3390963077545166,-0.5359413623809814,-0.6908788681030273
1758972215632419000,7.289419189453125,-0.589945912361145,-1.098885178565979,-0.675318717956543
1758972215642377200,7.299377197265625,-0.7874134182929993,-1.4399559497833252,-0.6004353761672974
1758972215652335000,7.309335205078125,-0.7896645665168762,-1.286626935005188,-0.5605384111404419
1758972215662293200,7.319293212890625,-0.7678058743476868,-1.0150939226150513,-0.664092481136322
1758972215672251100,7.329251220703125,-0.8311037421226501,-1.1322338581085205,-0.9317803978919983
1758972215682209300,7.339209228515625,-0.904261589050293,-1.800020694732666,-1.3717732429504395
1758972215692168200,7.349168212890625,-0.9435734748840332,-2.3626842498779297,-1.795585036277771
1758972215702126300,7.359126220703125,-0.9510199427604675,-2.3302626609802246,-2.056312322616577
1758972215712084000,7.369083984375,-0.9459343552589417,-2.1405258178710938,-2.1990087032318115
1758972215722042000,7.3790419921875,-0.9763668179512024,-2.104754686355591,-2.2542953491210938
1758972215732000000,7.389,-0.9883485436439514,-2.043431282043457,-2.119460105895996
1758972215741958100,7.398958251953125,-1.0055935382843018,-1.8241233825683594,-1.8187822103500366
1758972215751916300,7.408916259765625,-0.925214946269989,-1.55548095703125,-1.5347530841827393
1758972215761875200,7.418875244140625,-0.69859778881073,-1.353442668914795,-1.2713425159454346
1758972215771833000,7.4288330078125,-0.42922642827033997,-1.103821039199829,-0.9727035164833069
1758972215781791200,7.438791259765625,-0.2707939147949219,-0.5898777842521667,-0.6636061668395996
1758972215791749000,7.4487490234375,-0.28538697957992554,0.13186095654964447,-0.5192080736160278
1758972215801707300,7.458707275390625,-0.31042948365211487,0.371082067489624,-0.6323671340942383
1758972215811665200,7.4686650390625,-0.3076145648956299,-0.24208107590675354,-0.9319004416465759
1758972215821624300,7.478624267578125,-0.31581950187683105,-0.9823389053344727,-1.0709494352340698
1758972215831582000,7.48858203125,-0.3499950170516968,-1.244706630706787,-0.9277134537696838
1758972215841540000,7.4985400390625,-0.30537348985671997,-1.1120266914367676,-0.6375011205673218
1758972215851498200,7.508498291015625,-0.23781898617744446,-0.8512944579124451,-0.42092663049697876
1758972215861456100,7.5184560546875,-0.20055603981018066,-0.6703236103057861,-0.39122679829597473
1758972215871414300,7.528414306640625,-0.21743345260620117,-0.8036109805107117,-0.2997806966304779
1758972215881373200,7.538373291015625,-0.25611239671707153,-0.9740455746650696,-0.1336631029844284
1758972215891331000,7.5483310546875,-0.2969115078449249,-0.9234379529953003,-0.007582451216876507
1758972215901289200,7.558289306640625,-0.3837137520313263,-0.7820930480957031,0.08416078239679337
1758972215911247400,7.568247314453125,-0.496669203042984,-0.6933082938194275,0.19438178837299347
1758972215921205200,7.578205322265625,-0.6014443635940552,-0.688778817653656,0.3348742127418518
1758972215931163100,7.5881630859375,-0.6475368738174438,-0.6492913365364075,0.45242366194725037
1758972215941121000,7.59812109375,-0.6278499960899353,-0.5669375658035278,0.5519090294837952
1758972215951080200,7.608080078125,-0.5888274908065796,-0.5089633464813232,0.6530070304870605
1758972215961038000,7.6180380859375,-0.5404115319252014,-0.47020721435546875,0.7278649806976318
1758972215970996200,7.627996337890625,-0.4870200455188751,-0.4013217091560364,0.7806700468063354
1758972215980954000,7.6379541015625,-0.427783340215683,-0.29640382528305054,0.829567015171051
1758972215990912300,7.647912353515625,-0.3575654625892639,-0.20150236785411835,0.9014736413955688
1758972216000870100,7.6578701171875,-0.2628730535507202,-0.09277533739805222,0.9778978824615479
1758972216010828300,7.667828369140625,-0.15414758026599884,0.034759972244501114,1.0471547842025757
1758972216020787200,7.677787109375,-0.01773674413561821,0.15752024948596954,1.103527307510376
1758972216030745300,7.687745361328125,0.17021983861923218,0.29776591062545776,1.1431630849838257
1758972216040703000,7.697702880859375,0.40150099992752075,0.49084800481796265,1.184151291847229
1758972216050661000,7.7076611328125,0.6611444354057312,0.5959779024124146,1.222182273864746
1758972216060619000,7.717618896484375,0.9097550511360168,0.513532280921936,1.2347891330718994
1758972216070577200,7.7275771484375,1.0801846981048584,0.31851381063461304,1.230472207069397
1758972216080536000,7.7375361328125,1.1308859586715698,0.08164132386445999,1.246761441230774
1758972216090494200,7.747494140625,1.0397032499313354,-0.22075141966342926,1.235597014427185
1758972216100452000,7.7574521484375,0.805191159248352,-0.7178088426589966,1.0950453281402588
1758972216110410200,7.76741015625,0.3815089762210846,-1.1747469902038574,0.8201581835746765
1758972216120368000,7.7773681640625,-0.1529395431280136,-1.0621973276138306,0.4637782573699951
1758972216130326300,7.787326171875,-0.6075182557106018,-0.46660086512565613,0.03425271809101105
1758972216140284200,7.7972841796875,-0.9317160248756409,0.008127031847834587,-0.3791881203651428
1758972216150243300,7.807243408203125,-1.0045453310012817,0.13942167162895203,-0.5262526869773865
1758972216160201000,7.817200927734375,-0.8232666850090027,0.2542707920074463,-0.30943700671195984
1758972216170159000,7.8271591796875,-0.6610957384109497,0.3522295355796814,0.060469940304756165
1758972216180117200,7.8371171875,-0.5072669982910156,0.38103190064430237,0.3032381236553192
1758972216190075100,7.8470751953125,-0.33775660395622253,0.4402371942996979,0.250751793384552
1758972216200033300,7.857033203125,-0.1120675578713417,0.6221177577972412,-0.014448712579905987
1758972216209992200,7.8669921875,0.29491543769836426,0.7220054864883423,-0.47011348605155945
1758972216219950000,7.8769501953125,0.672103226184845,0.8054319024085999,-0.9476395845413208
1758972216229908200,7.886908203125,0.725294828414917,1.0613880157470703,-1.0111206769943237
1758972216239866400,7.896866455078125,0.5178281664848328,1.265834093093872,-0.7871112823486328
1758972216249824300,7.90682421875,0.23801299929618835,1.2937217950820923,-0.5816198587417603
1758972216259782100,7.9167822265625,0.034407418221235275,1.0636012554168701,-0.5055277347564697
1758972216269740000,7.926739990234375,0.049236323684453964,0.6660073399543762,-0.5594176054000854
1758972216279699200,7.93669921875,0.3358616828918457,0.374152809381485,-0.7740324139595032
1758972216289657000,7.946656982421875,0.6442041993141174,0.8816787600517273,-1.0043998956680298
1758972216299615200,7.956615234375,0.7526137828826904,1.8053197860717773,-0.952167272567749
1758972216309573000,7.966572998046875,0.7081376910209656,2.236259698867798,-0.7348741292953491
1758972216319531300,7.97653125,0.6885711550712585,2.2703747749328613,-0.5032675266265869
1758972216329489200,7.9864892578125,0.7323765754699707,2.273850202560425,-0.34839457273483276
1758972216339448300,7.9964482421875,0.7402568459510803,2.290501594543457,-0.24347509443759918
1758972216349406000,8.006406005859375,0.6342495679855347,2.2013182640075684,-0.1654854416847229
1758972216359364000,8.016364013671875,0.44188758730888367,1.9755584001541138,-0.06825476884841919
1758972216369321700,8.02632177734375,0.2084263563156128,1.5933737754821777,0.07696184515953064
1758972216379280000,8.03627978515625,0.09424464404582977,1.151849389076233,0.22092968225479126
1758972216389237800,8.04623779296875,0.07787568867206573,0.6816567182540894,0.3124068081378937
1758972216399196000,8.05619580078125,0.09841664880514145,0.23983855545520782,0.31081369519233704
1758972216409154800,8.06615478515625,0.15429887175559998,-0.17129386961460114,0.2560470402240753
1758972216419113000,8.076113037109375,0.18330548703670502,-0.6531992554664612,0.23235023021697998
1758972216429070800,8.08607080078125,0.20376309752464294,-1.1082425117492676,0.22299109399318695
1758972216439029000,8.096029052734375,0.23307837545871735,-1.390727162361145,0.21179570257663727
1758972216448987000,8.10598681640625,0.24649804830551147,-1.0715473890304565,0.19135776162147522
1758972216458945000,8.115945068359375,0.23790243268013,0.7063714861869812,0.17419156432151794
1758972216468903000,8.12590283203125,0.19064666330814362,2.3050026893615723,0.23132772743701935
1758972216478861800,8.13586181640625,0.13380123674869537,2.4257395267486572,0.30249643325805664
1758972216488819700,8.14581982421875,0.12033313512802124,1.6529438495635986,0.3704538345336914
1758972216498777900,8.15577783203125,0.2293107509613037,0.7185754776000977,0.43546825647354126
1758972216508736000,8.165736083984376,0.3750699460506439,0.07656015455722809,0.49950191378593445
1758972216518694000,8.17569384765625,0.4741552472114563,-0.15524591505527496,0.5885436534881592
1758972216528652000,8.185652099609374,0.5018095374107361,-0.11765419691801071,0.7094883322715759
1758972216538611000,8.19561083984375,0.4670204222202301,0.06373769789934158,0.8297443985939026
1758972216548569000,8.205569091796875,0.4285498261451721,0.2956276535987854,0.931840181350708
1758972216558527000,8.21552685546875,0.39645659923553467,0.5649834871292114,0.9738308191299438
1758972216568485000,8.225485107421875,0.3883056640625,0.8176736235618591,0.9569560289382935
1758972216578442800,8.23544287109375,0.3850398361682892,0.9543614387512207,0.9137622117996216
1758972216588401000,8.24540087890625,0.3758246898651123,0.9396519064903259,0.8717806339263916
1758972216598358800,8.25535888671875,0.3701569437980652,0.7827491164207458,0.8383121490478516
1758972216608318000,8.26531787109375,0.38821062445640564,0.5258818864822388,0.8210458755493164
1758972216618275800,8.27527587890625,0.42876631021499634,0.2730347216129303,0.8045838475227356
1758972216628234000,8.28523388671875,0.4657853841781616,0.1398206204175949,0.7764345407485962
1758972216638191900,8.29519189453125,0.481179803609848,0.1403425931930542,0.7423577904701233
1758972216648150000,8.30514990234375,0.4559239149093628,0.248756542801857,0.7027655243873596
1758972216658108000,8.31510791015625,0.4033733606338501,0.42852500081062317,0.6575413346290588
1758972216668066000,8.325066162109374,0.3286726474761963,0.6224539875984192,0.6029523611068726
1758972216678025000,8.33502490234375,0.256445050239563,0.7570242881774902,0.5336398482322693
1758972216687982800,8.34498291015625,0.18662890791893005,0.8173007369041443,0.4385356903076172
1758972216697940700,8.354940673828125,0.09935393184423447,0.7956013083457947,0.31728917360305786
1758972216707899000,8.36489892578125,0.03182201832532883,0.7241436243057251,0.1667478233575821
1758972216717856800,8.374856689453125,-0.018298938870429993,0.5305507183074951,-0.011962267570197582
1758972216727815000,8.38481494140625,-0.047223951667547226,0.17906656861305237,-0.18975771963596344
1758972216737773000,8.39477294921875,-0.08426240086555481,-0.12850697338581085,-0.29235732555389404
1758972216747732000,8.40473193359375,-0.13213686645030975,-0.2883474826812744,-0.30918875336647034
1758972216757689900,8.41468994140625,-0.1799992024898529,-0.290276437997818,-0.2740504741668701
1758972216767648000,8.42464794921875,-0.15407264232635498,-0.20125214755535126,-0.2550480365753174
1758972216777606000,8.43460595703125,-0.10518818348646164,-0.1520470529794693,-0.2973158657550812
1758972216787563800,8.444563720703124,-0.16730685532093048,-0.35502853989601135,-0.38516518473625183
1758972216797522000,8.45452197265625,-0.40017446875572205,-0.888802170753479,-0.43547868728637695
1758972216807480800,8.464480712890625,-0.6594926118850708,-1.3495512008666992,-0.3601258397102356
1758972216817438700,8.474438720703125,-0.7508920431137085,-1.4024817943572998,-0.20698019862174988
1758972216827396900,8.48439697265625,-0.7159116864204407,-1.0796122550964355,-0.16483764350414276
1758972216837355000,8.49435498046875,-0.7202755212783813,-0.8620973825454712,-0.3369215428829193
1758972216847313000,8.50431298828125,-0.7488545775413513,-1.182624101638794,-0.7310764789581299
1758972216857271000,8.51427099609375,-0.7832517027854919,-1.940467357635498,-1.2710254192352295
1758972216867229000,8.52422900390625,-0.8113223910331726,-2.365630626678467,-1.7397810220718384
1758972216877187800,8.534187744140626,-0.8398123383522034,-2.2572882175445557,-2.055182933807373
1758972216887146000,8.54414599609375,-0.869167149066925,-2.087644338607788,-2.255535125732422
1758972216897104100,8.554104248046874,-0.8607653975486755,-2.0510501861572266,-2.354227304458618
1758972216907061800,8.564061767578124,-0.8716769218444824,-1.9862229824066162,-2.3020825386047363
1758972216917020000,8.57402001953125,-0.8972424864768982,-1.7996575832366943,-2.0901472568511963
1758972216926977800,8.583977783203125,-0.8400583863258362,-1.5946036577224731,-1.7888740301132202
1758972216936937000,8.59393701171875,-0.6912172436714172,-1.4542559385299683,-1.4902108907699585
1758972216946894800,8.603894775390625,-0.48221173882484436,-1.2324010133743286,-1.1738649606704712
1758972216956853000,8.61385302734375,-0.4147445559501648,-0.7036886811256409,-0.8799183964729309
1758972216966811000,8.623810791015625,-0.47628358006477356,0.02207866869866848,-0.6126465797424316
1758972216976769000,8.63376904296875,-0.5344140529632568,0.389729380607605,-0.49724942445755005
1758972216986727000,8.643726806640625,-0.5392511487007141,-0.22499170899391174,-0.666883111000061
1758972216996685000,8.65368505859375,-0.4826699197292328,-1.069764256477356,-0.752814531326294
1758972217006644000,8.66364404296875,-0.396278977394104,-1.4316792488098145,-0.5482088923454285
1758972217016601900,8.673601806640624,-0.2704664468765259,-1.334053874015808,-0.23706138134002686
1758972217026559700,8.683559814453124,-0.17334002256393433,-1.0172276496887207,-0.048257991671562195
1758972217036518000,8.693517822265624,-0.10570558905601501,-0.7924350500106812,-0.10578679293394089
1758972217046475800,8.703475830078125,-0.12127692997455597,-0.7579582333564758,-0.28456825017929077
1758972217056434000,8.713433837890625,-0.21010346710681915,-0.8598278760910034,-0.36509984731674194
1758972217066392800,8.723392822265625,-0.3344886600971222,-0.7396631836891174,-0.37529340386390686
1758972217076351000,8.73335107421875,-0.5101230144500732,-0.4969179034233093,-0.3331608772277832
1758972217086308900,8.743308837890625,-0.6129494905471802,-0.3494630455970764,-0.2390548586845398
1758972217096267000,8.75326708984375,-0.6822609305381775,-0.3866647481918335,-0.06936382502317429
1758972217106225000,8.763224853515625,-0.677646279335022,-0.5520984530448914,0.13589099049568176
1758972217116182800,8.773182861328126,-0.6265221238136292,-0.6961725354194641,0.32995232939720154
1758972217126141000,8.783140869140626,-0.597919762134552,-0.7437980771064758,0.5180594325065613
1758972217136099800,8.793099853515624,-0.561383068561554,-0.6957141757011414,0.6381296515464783
1758972217146057700,8.8030576171875,-0.4948148727416992,-0.5947126150131226,0.6903085708618164
1758972217156015900,8.813015869140624,-0.4440600872039795,-0.4944872260093689,0.731951892375946
1758972217165974000,8.82297412109375,-0.37170788645744324,-0.38432225584983826,0.8069304823875427
1758972217175932000,8.832931884765625,-0.2895253896713257,-0.20165148377418518,0.8719297051429749
1758972217185890000,8.84289013671875,-0.16972456872463226,-0.044182244688272476,0.9699759483337402
1758972217195848000,8.852847900390625,-0.014656423591077328,0.06467606127262115,1.0584757328033447
1758972217205806800,8.862806884765625,0.1327502429485321,0.1641528606414795,1.1522867679595947
1758972217215765000,8.872764892578125,0.3082085847854614,0.3337826132774353,1.214813470840454
1758972217225723100,8.88272314453125,0.48589661717414856,0.610296905040741,1.2338685989379883
1758972217235680800,8.8926806640625,0.6739025115966797,0.8475043773651123,1.2020206451416016
1758972217245639000,8.902638916015626,0.8908464908599854,0.8865978717803955,1.1672601699829102
1758972217255596800,8.9125966796875,1.102330207824707,0.6903746128082275,1.176154613494873
1758972217265556000,8.922555908203124,1.2565803527832031,0.31870153546333313,1.2383602857589722
1758972217275513900,8.932513916015624,1.2755100727081299,-0.4098391830921173,1.278324007987976
1758972217285472000,8.942471923828125,1.081926703453064,-1.7513526678085327,1.0689705610275269
1758972217295430000,8.952429931640625,0.5348891019821167,-2.6653249263763428,0.7505195140838623
1758972217305388000,8.962387939453125,-0.2312835454940796,-1.7809898853302002,0.6862547397613525
1758972217315346000,8.972345947265625,-0.9957420229911804,-0.565121054649353,0.4431810975074768
1758972217325305000,8.98230517578125,-1.5853513479232788,-0.34318453073501587,-0.023446151986718178
1758972217335263000,8.992262939453125,-1.4847607612609863,-0.013039900921285152,-0.13494925200939178
1758972217345220900,9.002220947265625,-1.1699498891830444,0.4112866222858429,0.03334426134824753
1758972217355178800,9.0121787109375,-0.9394471645355225,0.5344498753547668,0.12727448344230652
1758972217365137000,9.022136962890626,-0.6958357095718384,0.5807214379310608,-0.08639305830001831
1758972217375094800,9.0320947265625,-0.33078983426094055,0.9737329483032227,-0.4864374101161957
1758972217385053000,9.042052978515626,0.2702662944793701,1.3293304443359375,-0.9634343385696411
1758972217395011800,9.05201171875,0.8767375946044922,1.2528998851776123,-1.3001846075057983
1758972217404970000,9.061969970703124,1.1202821731567383,1.1591027975082397,-1.2007901668548584
1758972217414928000,9.071927978515625,0.972614586353302,1.0670418739318848,-0.8611964583396912
1758972217424886000,9.081885986328125,0.574173629283905,1.0810376405715942,-0.5227907299995422
1758972217434844000,9.091843994140625,0.19862240552902222,1.1318929195404053,-0.24039210379123688
1758972217444801800,9.1018017578125,0.1595262885093689,1.1283448934555054,-0.09532823413610458
1758972217454760700,9.1117607421875,0.34086889028549194,0.818989634513855,-0.3343820869922638
1758972217464718800,9.12171875,0.5389280915260315,0.8092968463897705,-0.7652738690376282
1758972217474676700,9.1316767578125,0.6507017612457275,1.381844162940979,-0.9164644479751587
1758972217484635000,9.141634765625,0.6914858222007751,1.8653098344802856,-0.8336917161941528
1758972217494593000,9.151593017578126,0.7904819250106812,2.092123031616211,-0.7144899368286133
1758972217504551000,9.161551025390626,0.9057250022888184,2.248162269592285,-0.6313495635986328
1758972217514509000,9.171509033203124,0.8925737738609314,2.310943841934204,-0.5446908473968506
1758972217524468000,9.181468017578124,0.7191160917282104,2.2481772899627686,-0.4359307289123535
1758972217534425900,9.19142578125,0.39327406883239746,2.011178493499756,-0.26297226548194885
1758972217544383700,9.2013837890625,0.15425030887126923,1.65684175491333,-0.041151512414216995
1758972217554342000,9.211341796875,0.1466299444437027,1.2783268690109253,0.12465822696685791
1758972217564299800,9.2212998046875,0.2429981380701065,0.8609673380851746,0.17947840690612793
1758972217574258000,9.2312578125,0.3050713539123535,0.38574036955833435,0.12929514050483704
1758972217584216800,9.241216796875,0.2671606242656708,-0.11357901990413666,0.04259718209505081
1758972217594175000,9.251175048828125,0.21198125183582306,-0.5574174523353577,-0.012322261929512024
1758972217604132900,9.2611328125,0.20143161714076996,-0.8464383482933044,-0.007534596137702465
1758972217614091000,9.271091064453126,0.21805931627750397,-0.7261556386947632,0.04163028672337532
1758972217624049000,9.281048828125,0.2381214052438736,0.1903325319290161,0.12643396854400635
1758972217634007000,9.291007080078124,0.2340499609708786,1.3546050786972046,0.26545044779777527
1758972217643966000,9.300966064453124,0.21116071939468384,1.8592535257339478,0.42992204427719116
1758972217653924000,9.310924072265625,0.22160644829273224,1.79708731174469,0.5748043656349182
1758972217663881700,9.3208818359375,0.30594033002853394,1.495230793952942,0.6842848062515259
1758972217673839900,9.33083984375,0.4005155861377716,1.1386018991470337,0.7742801904678345
1758972217683797800,9.3407978515625,0.4781917631626129,0.7999463677406311,0.8368945121765137
1758972217693756000,9.350755859375,0.549644410610199,0.49036771059036255,0.873934805393219
1758972217703713800,9.3607138671875,0.6066556572914124,0.26024410128593445,0.9004404544830322
1758972217713673000,9.3706728515625,0.6303085088729858,0.11155769228935242,0.9233116507530212
1758972217723630800,9.380630859375,0.6048519015312195,0.07934023439884186,0.950256884098053
1758972217733589000,9.390589111328126,0.5568505525588989,0.17777571082115173,0.9693166017532349
1758972217743547000,9.400546875,0.5163294672966003,0.3235795199871063,0.9737499356269836
1758972217753505000,9.410505126953124,0.4896317720413208,0.455026775598526,0.9518364071846008
1758972217763462700,9.420462646484374,0.4741205871105194,0.48835089802742004,0.9385806322097778
1758972217773421800,9.430421875,0.4809603989124298,0.4234866797924042,0.9319466948509216
1758972217783379700,9.440379638671875,0.4969528019428253,0.3198859989643097,0.9302991032600403
1758972217793337900,9.450337890625,0.5135408639907837,0.2637566924095154,0.917913019657135
1758972217803295700,9.460295654296875,0.5147567391395569,0.3015923500061035,0.8895483613014221
1758972217813254000,9.47025390625,0.4900795817375183,0.4315892159938812,0.8445106148719788
1758972217823212000,9.4802119140625,0.43255850672721863,0.6195571422576904,0.7854395508766174
1758972217833171000,9.4901708984375,0.3420845568180084,0.8585830330848694,0.70537930727005
1758972217843128800,9.50012890625,0.23313549160957336,1.0948561429977417,0.5905962586402893
1758972217853087000,9.5100869140625,0.13097982108592987,1.241665244102478,0.4447695314884186
1758972217863044900,9.520044921875,0.02790520340204239,1.2582898139953613,0.27135035395622253
1758972217873002800,9.530002685546876,-0.04303821176290512,1.1385756731033325,0.07365140318870544
1758972217882961000,9.5399609375,-0.06110072880983353,0.866121768951416,-0.16011951863765717
1758972217892919800,9.549919921875,-0.05012504383921623,0.3979575037956238,-0.4445776045322418
1758972217902877700,9.559877685546875,-0.041116051375865936,-0.1492278277873993,-0.7523355484008789
1758972217912835800,9.5698359375,-0.044415172189474106,-0.46584197878837585,-1.002335548400879
1758972217922794000,9.5797939453125,-0.11375562846660614,-0.40952879190444946,-1.1276606321334839
1758972217932752000,9.589751953125,-0.18468201160430908,-0.25540071725845337,-1.11418616771698
1758972217942710000,9.5997099609375,-0.22882777452468872,-0.19979406893253326,-0.9559820294380188
1758972217952669000,9.6096689453125,-0.25775930285453796,-0.2543624937534332,-0.7734492421150208
1758972217962626800,9.619626708984375,-0.35468536615371704,-0.6089574694633484,-0.6389038562774658
1758972217972585000,9.6295849609375,-0.5851521492004395,-1.1102408170700073,-0.5317214727401733
1758972217982543000,9.639543212890626,-0.7677720785140991,-1.4145699739456177,-0.4161406457424164
1758972217992500700,9.649500732421876,-0.7761866450309753,-1.2611697912216187,-0.37129512429237366
1758972218002459000,9.659458984375,-0.7710091471672058,-1.075344204902649,-0.47597330808639526
1758972218012416800,9.669416748046874,-0.8411973118782043,-1.3480002880096436,-0.7222174406051636
1758972218022376000,9.6793759765625,-0.9220826625823975,-2.065312385559082,-1.1001307964324951
1758972218032333800,9.689333740234375,-0.9683023691177368,-2.658536911010742,-1.4407531023025513
1758972218042292000,9.6992919921875,-0.9766391515731812,-2.6868162155151367,-1.6706733703613281
1758972218052249900,9.709249755859375,-0.9411429166793823,-2.4318430423736572,-1.8597239255905151
1758972218062208000,9.7192080078125,-0.8877229690551758,-2.287559747695923,-2.0536370277404785
1758972218072166000,9.729165771484375,-0.8609020113945007,-2.1510465145111084,-2.1259896755218506
1758972218082125000,9.739125,-0.8309402465820312,-1.9114080667495728,-1.9732561111450195
1758972218092083000,9.7490830078125,-0.7431240677833557,-1.696485161781311,-1.7239259481430054
1758972218102040800,9.759040771484376,-0.610550582408905,-1.4050977230072021,-1.5463160276412964
1758972218111998700,9.768998779296876,-0.49283328652381897,-1.1988353729248047,-1.3610551357269287
1758972218121956900,9.778956787109376,-0.4531736373901367,-1.0033262968063354,-1.1269251108169556
1758972218131914800,9.788914794921874,-0.49547767639160156,-0.550557553768158,-0.8422537446022034
1758972218141874000,9.7988740234375,-0.546389639377594,0.0407068133354187,-0.7331467866897583
1758972218151831800,9.808831787109375,-0.5431541800498962,0.0009697894565761089,-0.9261566996574402
1758972218161790000,9.8187900390625,-0.5220600366592407,-0.6991991996765137,-1.119573950767517
1758972218171747800,9.828747802734375,-0.4502153992652893,-1.2718638181686401,-1.077054500579834
1758972218181706000,9.8387060546875,-0.4045487940311432,-1.3290120363235474,-0.833526074886322
1758972218191663900,9.848663818359375,-0.363237589597702,-1.1406669616699219,-0.45346128940582275
1758972218201623000,9.858623046875,-0.3412936329841614,-0.9527654647827148,-0.13102509081363678
1758972218211581000,9.868580810546876,-0.30910399556159973,-0.9618430733680725,0.056200724095106125
1758972218221538800,9.878538818359376,-0.29927316308021545,-1.0810235738754272,0.16035394370555878
1758972218231496700,9.88849658203125,-0.32708320021629333,-1.09152090549469,0.18767665326595306
1758972218241454800,9.898454833984376,-0.38983047008514404,-1.015429139137268,0.2305799126625061
1758972218251413000,9.9084130859375,-0.46719422936439514,-0.9214464426040649,0.3239162564277649
1758972218261372000,9.918371826171875,-0.5196083188056946,-0.867689847946167,0.44672057032585144
1758972218271329800,9.928329833984375,-0.5530586838722229,-0.8797294497489929,0.6105741858482361
1758972218281288000,9.938287841796875,-0.5740196108818054,-0.9440566301345825,0.7894463539123535
1758972218291245800,9.948245849609375,-0.5938385725021362,-0.9595868587493896,0.9105604887008667
1758972218301204000,9.958203857421875,-0.5956982970237732,-0.8828949928283691,0.9254977703094482
1758972218311161900,9.968161865234375,-0.5881349444389343,-0.713586688041687,0.8687487840652466
1758972218321119700,9.97811962890625,-0.5925398468971252,-0.5408337712287903,0.8087062835693359
1758972218331078700,9.98807861328125,-0.5945276021957397,-0.3947703540325165,0.8178020119667053
1758972218341036800,9.998036865234376,-0.53743976354599,-0.25050440430641174,0.8881300091743469
1758972218350995000,10.007994873046876,-0.4179122745990753,-0.06946109235286713,1.006487250328064
1758972218360953000,10.017953125,-0.2508757412433624,0.09281782060861588,1.1605626344680786
1758972218370911000,10.027910888671874,-0.0779912918806076,0.27141445875167847,1.2984384298324585
1758972218380868900,10.037868896484374,0.09033709019422531,0.4445405900478363,1.402759313583374
1758972218390827800,10.047827880859375,0.27319052815437317,0.6336843967437744,1.4680975675582886
1758972218400786000,10.057785888671875,0.45996159315109253,0.8671320676803589,1.4862440824508667
1758972218410744000,10.067744140625,0.7037696838378906,1.1816915273666382,1.4737805128097534
1758972218420702000,10.077701904296875,0.9405105710029602,1.5262024402618408,1.4304890632629395
1758972218430660000,10.08766015625,1.1736366748809814,1.6111445426940918,1.3920340538024902
1758972218440618000,10.097617919921875,1.3722448348999023,1.2734063863754272,1.3816689252853394
1758972218450577000,10.107576904296875,1.4546781778335571,0.4393310248851776,1.397610068321228
1758972218460535000,10.11753515625,1.3163806200027466,-1.369563341140747,1.2125847339630127
1758972218470493200,10.1274931640625,0.7906313538551331,-3.441455125808716,0.6566237807273865
1758972218480451000,10.137451171875,0.04022258520126343,-2.6836767196655273,0.49463775753974915
1758972218490409000,10.147408935546874,-0.7882479429244995,-0.8050384521484375,0.3862271308898926
1758972218500366800,10.157366943359374,-1.6863372325897217,-0.42679205536842346,-0.079140804708004
1758972218510326000,10.167325927734375,-1.9999860525131226,0.1451108604669571,-0.18830856680870056
1758972218520284000,10.177283935546875,-1.6404485702514648,0.8658681511878967,-0.11659085750579834
1758972218530242000,10.187241943359375,-1.3684664964675903,0.7786362767219543,-0.03913388401269913
1758972218540200000,10.197199951171875,-1.0471429824829102,0.5136374831199646,-0.23104478418827057
1758972218550158000,10.207157958984375,-0.4486258327960968,0.9360849261283875,-0.7899656295776367
1758972218560116000,10.217115966796875,0.5099409818649292,1.6670477390289307,-1.4269318580627441
1758972218570075100,10.2270751953125,1.3382229804992676,1.5904719829559326,-1.8375571966171265
1758972218580033000,10.237032958984376,1.6098673343658447,0.9439727663993835,-1.7427655458450317
1758972218589991200,10.2469912109375,1.4358888864517212,0.1469312608242035,-1.3123409748077393
1758972218599948800,10.25694873046875,0.8831512928009033,-0.34645503759384155,-0.8591873049736023
1758972218609907000,10.266906982421874,0.131209596991539,0.34345096349716187,-0.43995434045791626
1758972218619864800,10.27686474609375,-0.1874593198299408,1.6310583353042603,-0.17472171783447266
1758972218629824000,10.286823974609375,-0.0694490596652031,1.9975210428237915,-0.29621005058288574
1758972218639782000,10.296781982421875,0.02562665566802025,1.4610896110534668,-0.7484073638916016
1758972218649740000,10.306739990234375,0.13895881175994873,1.1326696872711182,-1.0343009233474731
1758972218659698000,10.316697998046875,0.37629976868629456,1.2287685871124268,-0.9871612191200256
1758972218669656000,10.326656005859375,0.6934889554977417,1.3677302598953247,-0.7946562170982361
1758972218679614000,10.336614013671875,1.0113649368286133,1.5107990503311157,-0.5684598684310913
1758972218689572000,10.346572021484375,1.1573644876480103,1.7170968055725098,-0.2888880968093872
1758972218699531000,10.356531005859376,0.9978196024894714,1.8679869174957275,0.03321308642625809
1758972218709489200,10.3664892578125,0.5494793653488159,1.7466553449630737,0.29713767766952515
1758972218719446800,10.37644677734375,0.10718537122011185,1.1195173263549805,0.3074217736721039
1758972218729405000,10.386405029296874,-0.08405622094869614,-0.04803450033068657,-0.08138533681631088
1758972218739363000,10.396363037109374,0.10095144808292389,-0.6483964920043945,-0.47607967257499695
1758972218749321000,10.406321044921874,0.32445642352104187,-0.14671127498149872,-0.5570445656776428
1758972218759279900,10.41627978515625,0.36744818091392517,0.7996382117271423,-0.3554078936576843
1758972218769238000,10.426238037109375,0.2997937798500061,1.2871592044830322,-0.017421597614884377
1758972218779196000,10.43619580078125,0.21881774067878723,1.258492350578308,0.277086079120636
1758972218789154000,10.446154052734375,0.17379353940486908,1.0284216403961182,0.47967246174812317
1758972218799112200,10.4561123046875,0.18843497335910797,0.853274405002594,0.6182004809379578
1758972218809070000,10.466070068359375,0.2397298514842987,0.8313270211219788,0.6955536007881165
1758972218819029000,10.476029052734376,0.27839967608451843,0.8635728359222412,0.7645207643508911
1758972218828987000,10.48598681640625,0.3318578600883484,0.8400797843933105,0.8582442998886108
1758972218838945000,10.495945068359376,0.41048485040664673,0.7592955827713013,0.9717656373977661
1758972218848903000,10.50590283203125,0.49982911348342896,0.6745479106903076,1.087213397026062
1758972218858861000,10.515861083984374,0.5830931663513184,0.5350705981254578,1.2094513177871704
1758972218868819000,10.52581884765625,0.636625349521637,0.3354951739311218,1.3454560041427612
1758972218878777900,10.53577783203125,0.6664122343063354,0.1161845400929451,1.4877891540527344
1758972218888736000,10.545736083984375,0.6721324324607849,-0.04070308059453964,1.606445074081421
1758972218898694100,10.555694091796875,0.6625158786773682,-0.10896216332912445,1.6990176439285278
1758972218908652000,10.565652099609375,0.6431310176849365,-0.07357487827539444,1.771016001701355
1758972218918610200,10.575610107421875,0.624414324760437,0.05382488667964935,1.800505518913269
1758972218928567800,10.58556787109375,0.6019172668457031,0.24047119915485382,1.7763699293136597
1758972218938527200,10.59552734375,0.5640388131141663,0.45823654532432556,1.704131007194519
1758972218948484900,10.60548486328125,0.5364351272583008,0.6739579439163208,1.6001766920089722
1758972218958443000,10.615443115234376,0.5165153741836548,0.8667945861816406,1.4615966081619263
1758972218968401000,10.62540087890625,0.4890827238559723,0.9995880722999573,1.2955360412597656
1758972218978359000,10.635359130859374,0.4483453035354614,1.0659561157226562,1.110763430595398
1758972218988317000,10.64531689453125,0.3841649889945984,1.1610057353973389,0.8827670216560364
1758972218998276000,10.655276123046875,0.3095419704914093,1.2656053304672241,0.6208949685096741
1758972219008234000,10.66523388671875,0.21991917490959167,1.3355330228805542,0.30222320556640625
1758972219018192100,10.675192138671875,0.13492007553577423,1.2427223920822144,-0.14260472357273102
1758972219028150000,10.68514990234375,0.0467878133058548,0.9937569499015808,-0.6741477251052856
1758972219038108200,10.695108154296875,-0.037300270050764084,0.7761335372924805,-1.0643399953842163
1758972219048065800,10.705065673828125,-0.11762600392103195,0.6430460810661316,-1.2342065572738647
1758972219058025000,10.71502490234375,-0.2088901400566101,0.5039581060409546,-1.2454166412353516
1758972219067982800,10.72498291015625,-0.2588574290275574,0.34476685523986816,-1.1811507940292358
1758972219077941000,10.73494091796875,-0.28497937321662903,0.28782859444618225,-1.1076360940933228
1758972219087899000,10.74489892578125,-0.297948956489563,0.33054837584495544,-1.138706922531128
1758972219097857000,10.75485693359375,-0.2966114580631256,0.2997475862503052,-1.3012378215789795
1758972219107815000,10.76481494140625,-0.3391019403934479,-0.023426756262779236,-1.4645739793777466
1758972219117773000,10.77477294921875,-0.4685773253440857,-0.6818539500236511,-1.4193123579025269
1758972219127732000,10.78473193359375,-0.7333690524101257,-1.3895671367645264,-1.1070712804794312
1758972219137690000,10.794690185546875,-1.0091534852981567,-1.7675701379776,-0.635166585445404
1758972219147648000,10.80464794921875,-1.0999481678009033,-1.566362977027893,-0.13864737749099731
1758972219157606000,10.81460595703125,-1.0559366941452026,-1.074199914932251,0.16992461681365967
1758972219167564000,10.82456396484375,-1.0032894611358643,-1.0804919004440308,0.09298083186149597
1758972219177522000,10.83452197265625,-0.940030574798584,-1.8642427921295166,-0.3087155520915985
1758972219187480800,10.844480712890626,-0.8668474555015564,-2.6583762168884277,-0.755374014377594
1758972219197439000,10.85443896484375,-0.7738009095191956,-2.9696686267852783,-1.096004843711853
1758972219207396900,10.86439697265625,-0.6330803036689758,-2.9352521896362305,-1.3619568347930908
1758972219217355000,10.87435498046875,-0.5049940943717957,-2.732001304626465,-1.5945144891738892
1758972219227313200,10.884313232421874,-0.4393104016780853,-2.3181676864624023,-1.7930889129638672
1758972219237271000,10.89427099609375,-0.49092406034469604,-1.7351152896881104,-1.9068998098373413
1758972219247230000,10.90422998046875,-0.5148203372955322,-1.186629295349121,-2.0035903453826904
1758972219257188000,10.91418798828125,-0.5300054550170898,-0.9399678111076355,-2.0451204776763916
1758972219267146000,10.92414599609375,-0.5413606762886047,-1.1517060995101929,-1.8393176794052124
1758972219277103900,10.934103759765625,-0.661583662033081,-1.2991431951522827,-1.4637449979782104
1758972219287062000,10.94406201171875,-0.8448091745376587,-0.924109935760498,-1.030430793762207
1758972219297020000,10.95402001953125,-0.9180216193199158,-0.09138436615467072,-0.7587742805480957
1758972219306978800,10.963978759765626,-0.8519871830940247,0.17764310538768768,-0.5717955827713013
1758972219316937000,10.97393701171875,-0.7354571223258972,-0.5288721919059753,-0.4833986163139343
1758972219326895000,10.98389501953125,-0.5762357711791992,-1.2811145782470703,-0.4052489697933197
1758972219336853000,10.99385302734375,-0.42551031708717346,-1.4691578149795532,-0.2482750415802002
1758972219346811100,11.00381103515625,-0.2967856228351593,-1.2823415994644165,-0.0007240946870297194
1758972219356769500,11.01376953125,-0.14334112405776978,-1.101302981376648,0.19899408519268036
1758972219366728400,11.023728515625,-0.02788110263645649,-1.0325411558151245,0.25853946805000305
1758972219376686600,11.0336865234375,-0.07258039712905884,-1.1016511917114258,0.2487827092409134
1758972219386644500,11.04364453125,-0.24944092333316803,-1.2082303762435913,0.21012559533119202
1758972219396602400,11.053602294921875,-0.5314876437187195,-1.189483880996704,0.15928857028484344
1758972219406560500,11.063560546875,-0.7944074273109436,-1.122239351272583,0.1610763520002365
1758972219416518400,11.073518310546875,-0.9552010297775269,-1.133463978767395,0.24293331801891327
1758972219426477300,11.083477294921876,-0.9689527750015259,-1.1664866209030151,0.36940470337867737
1758972219436435500,11.093435546875,-0.9085217118263245,-1.1289631128311157,0.4943031072616577
1758972219446393600,11.1033935546875,-0.8499816656112671,-0.9607464075088501,0.5532093048095703
1758972219456351500,11.1133515625,-0.8048291206359863,-0.7411377429962158,0.5467612147331238
1758972219466309600,11.1233095703125,-0.7519118189811707,-0.5135903358459473,0.49406522512435913
1758972219476267500,11.133267578125,-0.668078601360321,-0.28264129161834717,0.4682508111000061
1758972219486225700,11.1432255859375,-0.541140615940094,-0.049545712769031525,0.4902365207672119
1758972219496184600,11.1531845703125,-0.37098875641822815,0.1828003078699112,0.5544754862785339
1758972219506142700,11.163142822265625,-0.1759127527475357,0.39170587062835693,0.6326547265052795
1758972219516100400,11.173100341796875,0.004804943222552538,0.5698862671852112,0.7211247086524963
1758972219526058500,11.18305859375,0.15398883819580078,0.7350677847862244,0.8052558302879333
1758972219536016400,11.193016357421875,0.28730490803718567,0.9209814071655273,0.8823264241218567
1758972219545974500,11.202974609375,0.4401613175868988,1.145681619644165,0.9349241256713867
1758972219555933400,11.212933349609376,0.6316843628883362,1.3504804372787476,0.97037273645401
1758972219565891600,11.2228916015625,0.8498486280441284,1.5265867710113525,1.0077002048492432
1758972219575849500,11.232849365234374,1.0638946294784546,1.70755136013031,1.0500943660736084
1758972219585807600,11.2428076171875,1.2343460321426392,1.7689249515533447,1.0925790071487427
1758972219595765500,11.252765625,1.3276162147521973,1.5923843383789062,1.1775426864624023
1758972219605723400,11.262723388671875,1.3302013874053955,0.9215425848960876,1.3718953132629395
1758972219615682600,11.2726826171875,1.2226336002349854,-0.29347580671310425,1.6122527122497559
1758972219625640400,11.282640380859375,0.8963271379470825,-2.155000686645508,1.5994306802749634
1758972219635598300,11.292598388671875,0.11601428687572479,-3.7974436283111572,1.1633721590042114
1758972219645556500,11.302556396484375,-0.7999112606048584,-3.4524197578430176,0.37868502736091614
1758972219655514400,11.312514404296875,-1.6770390272140503,-2.318530559539795,-0.3505352735519409
1758972219665472500,11.322472412109375,-2.077991008758545,-0.7732497453689575,-0.6608902215957642
1758972219675431400,11.332431396484376,-1.7524679899215698,0.3458845615386963,-0.5217501521110535
1758972219685389600,11.3423896484375,-1.3815593719482422,0.6087321639060974,-0.33365270495414734
1758972219695347500,11.352347412109374,-0.9786116480827332,0.4676620066165924,-0.36259642243385315
1758972219705305600,11.3623056640625,-0.5062898993492126,0.38900500535964966,-0.7036619186401367
1758972219715263500,11.372263427734374,0.060977354645729065,0.7810661196708679,-1.0549399852752686
1758972219725221400,11.382221435546874,0.6920019388198853,1.5529606342315674,-0.9613000154495239
1758972219735180500,11.3921806640625,1.319392204284668,2.055469036102295,-0.6797928214073181
1758972219745138400,11.402138427734375,1.718079924583435,2.4795565605163574,-0.4078848659992218
1758972219755096300,11.412096435546875,1.5717780590057373,2.550609588623047,-0.1876557171344757
1758972219765054500,11.422054443359375,1.067165493965149,1.4949514865875244,-0.14785531163215637
1758972219775012600,11.4320126953125,0.5507692098617554,-0.38866785168647766,-0.22274833917617798
1758972219784970500,11.441970458984375,0.5176264643669128,-1.0000966787338257,-0.4449547529220581
1758972219794929400,11.451929443359376,0.6777859330177307,0.23540280759334564,-0.8088231086730957
1758972219804887600,11.461887451171876,0.6660080552101135,1.6612176895141602,-0.963553249835968
1758972219814845400,11.471845458984374,0.6079829931259155,2.3509819507598877,-0.9756713509559631
1758972219824803600,11.481803466796874,0.5987407565116882,2.6291592121124268,-0.9139310121536255
1758972219834761500,11.491761474609374,0.64259272813797,2.70462965965271,-0.8128623962402344
1758972219844719400,11.50171923828125,0.6235447525978088,2.6732399463653564,-0.7046483159065247
1758972219854678300,11.51167822265625,0.4625304341316223,2.4477450847625732,-0.5521255135536194
1758972219864636400,11.521636474609375,0.20845924317836761,2.0138609409332275,-0.3251514434814453
1758972219874594600,11.531594482421875,0.05642642825841904,1.5054571628570557,-0.07308954745531082
1758972219884552400,11.541552490234375,0.10075581073760986,1.051525354385376,0.15106870234012604
1758972219894510600,11.551510498046875,0.21739929914474487,0.6850499510765076,0.3183891177177429
1758972219904468500,11.561468505859375,0.30073225498199463,0.2870858311653137,0.42977502942085266
1758972219914427400,11.571427490234376,0.3565734028816223,-0.22322748601436615,0.4966525733470917
1758972219924385500,11.581385498046876,0.39535701274871826,-0.7386764883995056,0.5170428156852722
1758972219934343700,11.59134375,0.4276025891304016,-0.9519137144088745,0.4966600239276886
1758972219944301600,11.601301513671874,0.46938464045524597,-0.3618534207344055,0.40899381041526794
1758972219954259500,11.611259521484374,0.42851561307907104,0.6938738226890564,0.37981873750686646
1758972219964217300,11.62121728515625,0.36341410875320435,1.392507553100586,0.4933338463306427
1758972219974176500,11.631176513671875,0.33163130283355713,1.5959312915802002,0.6552800536155701
1758972219984134400,11.641134521484375,0.36761221289634705,1.5980429649353027,0.7737880349159241
1758972219994092500,11.651092529296875,0.4345102906227112,1.4718070030212402,0.8730294704437256
1758972220004050400,11.661050537109375,0.4974983036518097,1.2403175830841064,0.9690390825271606
1758972220014008600,11.671008544921875,0.5109345316886902,0.9471404552459717,1.0571324825286865
1758972220023966500,11.680966552734375,0.4965590834617615,0.6497423052787781,1.1222041845321655
1758972220033925600,11.690925537109376,0.47597435116767883,0.35604771971702576,1.1633418798446655
1758972220043883500,11.700883544921876,0.48744699358940125,0.07994051277637482,1.2239229679107666
1758972220053841700,11.710841552734376,0.4916453957557678,-0.12076129019260406,1.2667288780212402
1758972220063799300,11.72079931640625,0.48211050033569336,-0.194981187582016,1.2858631610870361
1758972220073757400,11.73075732421875,0.4434197247028351,-0.062348585575819016,1.2471716403961182
1758972220083715300,11.74071533203125,0.40389442443847656,0.16406404972076416,1.168888807296753
1758972220093674500,11.750674560546875,0.3772831857204437,0.4161049425601959,1.0595932006835938
1758972220103632400,11.76063232421875,0.358433336019516,0.5999019145965576,0.9301698803901672
1758972220113590500,11.770590576171875,0.35703015327453613,0.6648338437080383,0.8044261336326599
1758972220123548400,11.78054833984375,0.3462752401828766,0.6510205268859863,0.6816847920417786
1758972220133506600,11.790506591796875,0.3206373155117035,0.6393448114395142,0.5464216470718384
1758972220143464400,11.80046435546875,0.2956387400627136,0.6793574690818787,0.3888711631298065
1758972220153423600,11.810423583984376,0.28132787346839905,0.7290390133857727,0.21386128664016724
1758972220163381500,11.820381591796876,0.24947994947433472,0.7552836537361145,0.028309520334005356
1758972220173339600,11.830339599609376,0.19589447975158691,0.7595622539520264,-0.1494748890399933
1758972220183297300,11.84029736328125,0.1358460634946823,0.7590216398239136,-0.28440341353416443
1758972220193255400,11.85025537109375,0.09160443395376205,0.7388737797737122,-0.3526707589626312
1758972220203213600,11.860213623046874,0.06630333513021469,0.6977269053459167,-0.37165749073028564
1758972220213172500,11.87017236328125,0.030983857810497284,0.6662817597389221,-0.3741374611854553
1758972220223130400,11.88013037109375,-0.004999975673854351,0.6117300987243652,-0.40182074904441833
1758972220233088500,11.890088623046875,-0.05635807663202286,0.5148553848266602,-0.5057671666145325
1758972220243046400,11.90004638671875,-0.10730088502168655,0.25632715225219727,-0.7211918830871582
1758972220253004500,11.910004638671875,-0.18537373840808868,-0.1781497597694397,-0.9262754917144775
1758972220262962700,11.919962646484375,-0.3266887962818146,-0.5448688864707947,-0.9532120227813721
1758972220272921600,11.929921630859376,-0.41888079047203064,-0.6952002048492432,-0.8077730536460876
1758972220282879500,11.93987939453125,-0.37623879313468933,-0.5963625907897949,-0.5824352502822876
1758972220292837400,11.94983740234375,-0.3351883888244629,-0.36556756496429443,-0.35933780670166016
1758972220302795500,11.95979541015625,-0.38850805163383484,-0.5060359835624695,-0.2441989630460739
1758972220312753400,11.96975341796875,-0.5538740158081055,-1.038843035697937,-0.20346733927726746
1758972220322711600,11.979711669921874,-0.7296064496040344,-1.4757883548736572,-0.1468120515346527
1758972220332670500,11.98967041015625,-0.7587947249412537,-1.379040002822876,-0.17329323291778564
1758972220342628400,11.99962841796875,-0.7620041370391846,-1.1726281642913818,-0.35264620184898376
1758972220352586500,12.00958642578125,-0.8087887167930603,-1.4538122415542603,-0.6186649203300476
1758972220362544600,12.019544677734375,-0.845948338508606,-2.073356866836548,-0.9460851550102234
1758972220372502500,12.02950244140625,-0.8591464161872864,-2.5391602516174316,-1.2823301553726196
1758972220382460700,12.039460693359375,-0.8359319567680359,-2.6092233657836914,-1.5612736940383911
1758972220392419600,12.049419677734376,-0.7966133952140808,-2.4359545707702637,-1.7844023704528809
1758972220402377700,12.059377685546876,-0.7535615563392639,-2.257063627243042,-1.9912564754486084
1758972220412335600,12.069335693359376,-0.74763023853302,-2.07079815864563,-2.1491715908050537
1758972220422293800,12.079293701171874,-0.7926602959632874,-1.7139688730239868,-2.1575164794921875
1758972220432251600,12.089251708984374,-0.7780900001525879,-1.245991826057434,-2.080965280532837
1758972220442209800,12.099209716796874,-0.6859776973724365,-0.9847205877304077,-1.9399654865264893
1758972220452168700,12.109168701171875,-0.5758904814720154,-0.9801251292228699,-1.6909042596817017
1758972220462126800,12.119126953125,-0.5344886779785156,-0.9071390628814697,-1.4081017971038818
1758972220472084500,12.12908447265625,-0.5777270197868347,-0.5040646195411682,-1.072160243988037
1758972220482042600,12.139042724609375,-0.6340318322181702,0.149282306432724,-0.8647677898406982
1758972220492000500,12.14900048828125,-0.6424399018287659,0.25711917877197266,-0.8737673759460449
1758972220501958700,12.158958740234375,-0.6018650531768799,-0.32541242241859436,-0.9389775395393372
1758972220511917600,12.16891748046875,-0.5175043344497681,-0.9099238514900208,-0.9072885513305664
1758972220521875700,12.178875732421876,-0.4521479606628418,-1.1614335775375366,-0.6443967819213867
1758972220531833600,12.18883349609375,-0.38830646872520447,-1.0527970790863037,-0.2143649309873581
1758972220541791700,12.198791748046874,-0.28618356585502625,-0.9180049300193787,0.13717792928218842
1758972220551749600,12.20874951171875,-0.14539101719856262,-0.9029321074485779,0.31742867827415466
1758972220561707800,12.218707763671874,-0.04833690822124481,-0.9923019409179688,0.40007373690605164
1758972220571666700,12.228666748046875,-0.06600400060415268,-1.0324561595916748,0.4355493187904358
1758972220581624600,12.23862451171875,-0.1608591377735138,-1.0036120414733887,0.45397788286209106
1758972220591582500,12.24858251953125,-0.2907482981681824,-0.908431351184845,0.4709690511226654
1758972220601540600,12.25854052734375,-0.39423713088035583,-0.8333632349967957,0.4853847622871399
1758972220611498500,12.26849853515625,-0.478994756937027,-0.8276199102401733,0.5259144306182861
1758972220621456600,12.27845654296875,-0.5090442895889282,-0.7918318510055542,0.5593091249465942
1758972220631415600,12.28841552734375,-0.5339691042900085,-0.7159038782119751,0.6104720830917358
1758972220641373700,12.298373779296876,-0.5637834668159485,-0.6411212682723999,0.6661310791969299
1758972220651331600,12.30833154296875,-0.5618078112602234,-0.5658336877822876,0.6868560314178467
1758972220661289700,12.318289794921874,-0.5259822010993958,-0.4691375195980072,0.7158482670783997
1758972220671247600,12.32824755859375,-0.4574117958545685,-0.3721402585506439,0.7876333594322205
1758972220681205500,12.33820556640625,-0.34224018454551697,-0.24113617837429047,0.8912204504013062
1758972220691164700,12.34816455078125,-0.22048763930797577,-0.12886475026607513,1.0125850439071655
1758972220701122600,12.35812255859375,-0.07811478525400162,-0.05760682374238968,1.150398850440979
1758972220711080400,12.36808056640625,0.07242200523614883,0.048660628497600555,1.2552353143692017
1758972220721038600,12.37803857421875,0.21329335868358612,0.2113880217075348,1.311302900314331
1758972220730996700,12.387996826171875,0.3594484031200409,0.46704360842704773,1.3191646337509155
1758972220740955600,12.39795556640625,0.515557050704956,0.6867818236351013,1.3061790466308594
1758972220750913500,12.40791357421875,0.7010824680328369,0.7602370381355286,1.3012592792510986
1758972220760871700,12.41787158203125,0.9047314524650574,0.7171729207038879,1.3277982473373413
1758972220770829600,12.42782958984375,1.0686029195785522,0.6167569160461426,1.3782756328582764
1758972220780787700,12.43778759765625,1.123631238937378,0.35653015971183777,1.3914154767990112
1758972220790745900,12.447745849609374,1.0189480781555176,-0.3608306348323822,1.2250392436981201
1758972220800704800,12.457704833984375,0.6851158142089844,-1.256816029548645,0.835864245891571
1758972220810662400,12.467662353515625,0.14731325209140778,-1.2921168804168701,0.4058593213558197
