time,seconds_elapsed,z,y,x
1758274161373270300,0.051270263671875,-1.2044178750932215,-1.655382942727208,0.910632935553044
1758274161383229200,0.061229248046875,-0.6355541577875614,-1.6205393006220459,1.1368291705973446
1758274161393187300,0.071187255859375,-0.18923194752335548,-1.653792458665371,1.2980330012492836
1758274161403146200,0.081146240234375,-0.3276496536105871,-2.2602467786967755,1.032303358848393
1758274161413104400,0.0911044921875,-0.49438335359990593,-3.144497464889288,-0.28929866097159684
1758274161423063300,0.101063232421875,-0.8354267417907715,-4.190149257871508,-1.4299118070870638
1758274161433021200,0.111021240234375,-2.0885387974262235,-5.078043853524327,-1.3931810360610484
1758274161442980400,0.12098046875,-3.110847124221921,-4.954169052052498,-0.41317499681338665
1758274161452939300,0.130939208984375,-3.297604206064343,-4.53741137444675,1.2310827407874165
1758274161462897400,0.1408974609375,-2.916609915757179,-3.0686481509178876,0.7819235535316169
1758274161472856300,0.150856201171875,-2.929597992146015,-2.377287350234389,0.5392256810195744
1758274161482814200,0.160814208984375,-2.4408628735661506,-2.4572522828310728,1.7258133003897964
1758274161492773400,0.1707734375,-1.364623050096631,-2.8801152915745973,2.257650916984677
1758274161502731300,0.180731201171875,1.3636883995950222,-3.4379309606432913,1.7902295123293994
1758274161512690400,0.1906904296875,3.5775656413048504,-3.8016514600664375,1.2670789139285683
1758274161522648300,0.2006484375,4.332827544012665,-3.8927328299611803,0.35864684942066666
1758274161532607200,0.210607177734375,2.645737795901298,-3.1492040351450443,-5.558468824398517
1758274161542566400,0.22056640625,-0.9807447287857531,-0.8501134387910365,-8.800151821276545
1758274161552524300,0.230524169921875,-3.2045524128794667,-3.129938778182864,-0.389402053168416
1758274161562483200,0.240483154296875,-1.945080174562335,-5.535998049393296,-3.1923198310330507
1758274161572441300,0.25044140625,-0.3922732246905565,-5.1873792575120925,-2.4163246446371076
1758274161582399200,0.260399169921875,-0.4452934517383575,-4.134714370897412,-0.2625496971905231
1758274161592357000,0.270357177734375,-0.13500468277335168,-2.9668785060092806,1.3402876502633094
1758274161602316000,0.28031591796875,0.2974333790451288,-2.4527146394014356,2.585508075866103
1758274161612274200,0.290274169921875,1.080703817141056,-2.1291165992692114,2.420810850140452
1758274161622233000,0.300233154296875,1.7854922546744345,-2.670525907938182,1.471950036871433
1758274161632192300,0.310192138671875,2.3469921652138233,-4.029284742176532,0.45660862647891043
1758274161642150100,0.320150146484375,2.344228545719385,-4.5908623941272495,-0.2305827795654535
1758274161652109000,0.330109130859375,1.8262153102070091,-4.012824605762958,-0.08477437870502472
1758274161662067200,0.340067138671875,0.8992623773634433,-3.0965473807126283,0.23165713079869746
1758274161672026000,0.350026123046875,0.45533495328128337,-2.136884602922201,0.7851812401533126
1758274161681984300,0.359984375,0.5298574025630951,-1.2303086876749991,1.1037912627398967
1758274161691943200,0.369943115234375,0.7668278373390436,-0.4521132147558033,0.7919125942349433
1758274161701901300,0.3799013671875,1.722629263526201,-0.41125367336198687,1.0158546206116676
1758274161711860200,0.389860107421875,2.7776620483160017,-0.2391224251780659,1.40171973182559
1758274161721818000,0.399818115234375,3.346874140667915,0.3064249331437051,2.286484212759137
1758274161731777300,0.40977734375,3.904990838509798,1.0485085706528277,3.728032681626081
1758274161741736200,0.419736083984375,4.099066134411096,1.2126079035505652,4.077998796463013
1758274161751694000,0.429694091796875,4.456509453260899,0.5796588867601007,3.5643133610218762
1758274161761653200,0.4396533203125,4.741994620358944,-0.008448825524002314,2.9437083505630492
1758274161771611100,0.449611083984375,4.894195937126875,-0.3446449928794056,2.156690542632341
1758274161781570300,0.4595703125,4.97611492640078,0.019909034758433697,2.7934236810714004
1758274161791528200,0.469528076171875,3.967611837595701,1.4731177654765546,3.9442882451534267
1758274161801487000,0.479487060546875,2.4558389089018107,2.895149779099226,4.2846494962990285
1758274161811445200,0.4894453125,1.431405260515213,3.2605437646925446,4.273059011748433
1758274161821404200,0.499404052734375,0.5645762492448091,2.986525748026371,4.10452439981699
1758274161831363300,0.50936328125,-0.7891746937036513,3.807655961178243,2.8430753084689377
1758274161841321200,0.5193212890625,-1.954908325615525,3.7485111137703058,1.8028905487209557
1758274161851280100,0.529280029296875,-2.150776934674382,1.8724670660331844,3.3248569546490905
1758274161861238300,0.53923828125,-1.644409128770232,2.191070366618037,4.567572119432688
1758274161871197200,0.549197265625,-2.0614625744521615,3.8925793929651378,3.7529321450829505
1758274161881155300,0.5591552734375,-3.2852982667207717,3.8518782570034262,2.403479776111245
1758274161891114200,0.5691142578125,-4.59903050301373,2.7795105987921356,2.2295389212220904
1758274161901072400,0.579072265625,-4.684368945342302,2.685864054584503,2.2348282598018643
1758274161911031300,0.58903125,-3.437558035677671,3.066745239906013,0.8642267198175191
1758274161920989200,0.5989892578125,-2.43591284994334,2.794978217037022,-0.0656610974341631
1758274161930948400,0.6089482421875,-1.5228262376278638,2.7921102603852748,1.9069974044054745
1758274161940907300,0.6189072265625,-1.7448218061119316,3.5081335008993744,2.421035306546092
1758274161950865200,0.628865234375,-3.594621990045905,3.2785940929070114,2.130935339128971
1758274161960824300,0.63882421875,-3.599537819138169,2.15360631288141,2.281804530510306
1758274161970782200,0.6487822265625,-2.807352837702632,1.0076707296341656,1.928270494058728
1758274161980741400,0.658741455078125,-3.4024630491599437,0.7032344860896468,2.4522616349369284
1758274161990699300,0.66869921875,-3.4998742065981028,0.7998495247140527,3.472058855694532
1758274162000658200,0.678658203125,-2.894524340677261,0.8664215995132922,0.5562918205022812
1758274162010616300,0.6886162109375,0.07015081006884574,0.994669209241867,0.006789221748709678
1758274162020575200,0.6985751953125,1.3405486392870545,1.4935522123485803,0.11119359907507896
1758274162030533400,0.708533447265625,1.5437375082314013,0.46138767744898795,-0.6425345181941986
1758274162040492300,0.7184921875,1.6534201182216406,-0.9984615872621536,-1.0671399866908788
1758274162050451200,0.728451171875,1.6083971735380589,-1.6024252595216035,-1.382187348359823
1758274162060409300,0.738409423828125,2.2935374922715126,-2.0786913571506735,-1.7025883460164069
1758274162070368300,0.7483681640625,3.065488225582242,-2.353213816207647,-2.4211627323180434
1758274162080326400,0.758326416015625,3.096784696599841,-1.2804770324230192,-0.8898965831249952
1758274162090285300,0.768285400390625,2.2722832534492015,1.0808335810005665,1.5646236443936823
1758274162100243500,0.778243408203125,1.1985486907988785,3.94805022803545,3.612214929881692
1758274162110202400,0.788202392578125,2.2560100179098543,5.150936655777692,4.3449066888630385
1758274162120160300,0.79816015625,-3.059014061132073,4.612056573325395,2.6621985168367623
1758274162130119400,0.808119384765625,-6.2215329204022884,4.660325221931934,2.504619014161825
1758274162140077300,0.818077392578125,-2.2904390878647565,4.400657217657566,3.5790590947329997
1758274162150036200,0.8280361328125,-0.5820103452570736,3.690993867564201,3.2239766597956416
1758274162159994000,0.837994140625,-1.4853836650706826,2.10713945299983,1.9724328763902186
1758274162169953300,0.847953369140625,-3.241320593306422,-0.06336041927635669,1.9636141946405172
1758274162179912400,0.857912353515625,-1.1518168963707982,-0.9402075512140988,2.7537065877109765
1758274162189870300,0.867870361328125,2.4814140796631574,0.7980354610294104,0.703390845695138
1758274162199829200,0.877829345703125,3.0977140864044426,2.1012731913149354,-2.9850480766892433
1758274162209787100,0.887787109375,-0.08332301085293292,0.27912264632880684,-4.2822433119401335
1758274162219746300,0.897746337890625,-2.658530057457089,-1.309795481365919,-5.378715483838319
1758274162229704200,0.9077041015625,-0.5705166721444577,0.19676760372519492,-4.933784435671567
1758274162239663000,0.9176630859375,-0.8687930048197507,1.085789742103219,-4.284396398320794
1758274162249621200,0.927621337890625,-1.3591717989534138,0.8194681251585483,-3.845873755891621
1758274162259580200,0.937580078125,-2.873465186035633,1.0697837791979312,-2.0210817564859984
1758274162269538000,0.9475380859375,-1.9488982715457677,2.461242813771963,-1.2220365338921546
1758274162279497200,0.957497314453125,3.9177234788328406,5.104705650478601,-1.4027499516561626
1758274162289456000,0.9674560546875,3.6275627211391925,4.897044896817207,-1.6062641070321202
1758274162299414300,0.977414306640625,1.4684464126646517,1.9767016397505996,-2.235332994453609
1758274162309373200,0.987373291015625,1.0825286944806576,0.7334492993503808,-2.26620597936213
1758274162319331000,0.9973310546875,0.4271083546957001,0.3637783670902252,-2.1028005470126865
1758274162329290200,1.007290283203125,0.007446187820099294,0.29441198539733887,-2.049762053655833
1758274162339248000,1.017248046875,-0.7637246106266975,0.6673866353780031,-1.9298897658236325
1758274162349207000,1.02720703125,-1.4696780002862213,1.7649270210295915,-1.3390228910245001
1758274162359165200,1.037165283203125,-0.8927291762024163,-1.719445957314968,0.19622567886821923
1758274162369124000,1.0471240234375,-2.14522280767858,-26.71540462582111,-3.490893612284958
1758274162379082200,1.057082275390625,-5.181798242509365,-44.41329653594494,-4.933084762969613
1758274162389041200,1.067041259765625,0.3936427960107103,-8.99693637613654,14.856585949414967
1758274162398999300,1.076999267578125,5.446940878802538,1.813962562355399,16.19960682403445
1758274162408958200,1.086958251953125,4.220540889003873,3.128133190065622,6.4993357163041825
1758274162418916400,1.096916259765625,2.6908237228184935,3.28696123149693,0.07253083707317709
1758274162428875300,1.106875244140625,0.2947340752248652,2.8411972396373746,-3.1384941328212617
1758274162438834200,1.116834228515625,-1.9950041891604662,3.787937407490611,-5.0991246354758735
1758274162448792300,1.126792236328125,-1.461554899585247,5.582548203644156,-7.21434685716629
1758274162458751200,1.136751220703125,-0.40768180622458455,3.7650071982800957,-8.548780520704389
1758274162468709000,1.146709228515625,-0.5716553938508033,1.4999322687745094,-6.0261424502491945
1758274162478668300,1.156668212890625,-0.8104302477002143,0.16988544201850891,-1.6182327772453426
1758274162488626200,1.166626220703125,-0.44963118868172164,-0.945377062806487,0.9952133991211652
1758274162498585300,1.17658544921875,0.37395080153644084,-1.4055880976915358,2.6028476254627106
1758274162508543200,1.186543212890625,0.7111030275076627,-1.1213351027369498,3.6175752878710625
1758274162518502100,1.196502197265625,0.6238274796366691,-0.7631038483798503,3.3891531934708357
1758274162528460300,1.206460205078125,0.007447393396496772,-0.6747919431984424,2.3855387534901498
1758274162538419200,1.216419189453125,-0.5437514878809452,-0.9387257882237434,1.3699877920001744
1758274162548377300,1.22637744140625,-0.5298690930008888,-0.45110301479995246,1.0884503396146
1758274162558336300,1.236336181640625,-0.48522331106662747,0.6878279503822327,0.9938381652452051
1758274162568294400,1.24629443359375,-0.23681729004085061,0.46091538376212116,0.4177272532902658
1758274162578253300,1.25625341796875,-0.04004909266061149,-0.06734861212968826,0.2253352343007922
1758274162588212200,1.266212158203125,-0.31786475717723367,-0.28724340894222256,-0.038950492902100085
1758274162598170400,1.27617041015625,-0.3472422428309917,-0.1938490859299898,-0.4489139803230762
1758274162608129300,1.28612939453125,-0.045119820053642616,0.036571196550130844,-0.6341779009982943
1758274162618087200,1.296087158203125,0.3221171539247036,0.24621406393945217,-0.6330094417408109
1758274162628046300,1.30604638671875,0.4494990867346525,0.2738268780082464,-0.6806061824351549
1758274162638004200,1.316004150390625,0.3524778053969145,0.11820026296675204,-0.8774261008694767
1758274162647963400,1.32596337890625,0.1718073499917984,0.07930792999267577,-1.1362187836140394
1758274162657921300,1.33592138671875,0.17196984707713125,0.8154898691773415,-0.9415078201577067
1758274162667880200,1.345880126953125,0.290620191898942,0.6108674602985382,-0.3035886868044734
1758274162677838300,1.35583837890625,-0.04875030377679504,-0.5444429772764444,3.364752619446814
1758274162687797200,1.36579736328125,-0.4600567211061716,-2.291463754737377,2.5020725445494056
1758274162697755400,1.37575537109375,-0.3702531160622835,-4.133434267958998,0.42594314684122797
1758274162707714300,1.38571435546875,-0.3614993162423372,-4.189802636390924,0.09087561818957328
1758274162717672400,1.39567236328125,-1.6180162118852137,-3.4546038630247113,-0.1689814789161086
1758274162727631400,1.40563134765625,-3.049758157008886,-2.6377877136796712,1.1162132296785712
1758274162737589200,1.41558935546875,-3.035849458643794,-1.6228174746870994,2.20730838471353
1758274162747548400,1.42554833984375,-1.1566549109864979,2.419225626775622,2.278188678100705
1758274162757507300,1.43550732421875,3.7105630759090182,6.755792357316613,0.43704701691865916
1758274162767465500,1.445465576171875,7.918327485448121,7.028971585071086,-2.817751482120156
1758274162777424400,1.45542431640625,8.774674265670775,5.919218199056386,-4.870240184260904
1758274162787382300,1.46538232421875,5.272554033711552,4.9611400601088995,-4.872313483403623
1758274162797341400,1.475341552734375,3.8579830036193132,4.023270011931658,-3.4796038642466067
1758274162807299300,1.48529931640625,3.99506683075428,1.6350439190536736,-1.7715794646561145
1758274162817258200,1.49525830078125,-0.5920224745750426,0.48346039304733274,-0.008750877210497856
1758274162827216400,1.50521630859375,-5.493915395945311,-1.2583037790596485,0.019881343033909798
1758274162837175300,1.51517529296875,-6.595860738557577,-3.2894121317803857,0.12529679709896444
1758274162847133400,1.525133544921875,-4.185962327575683,-4.14982543078959,1.9073910798981784
1758274162857092400,1.53509228515625,-1.2983049500584602,-2.919800820752978,4.232474487903714
1758274162867050200,1.54505029296875,0.24137013103961943,-1.1054121419399976,4.5342906120777124
1758274162877009400,1.555009521484375,0.27417994749592617,0.4208434856146574,3.064324442499876
1758274162886967300,1.56496728515625,0.3923778541088104,1.4996224721729754,1.6977255622856318
1758274162896926200,1.57492626953125,0.7843138096690178,1.2987988710552454,0.5938837384022772
1758274162906884000,1.584884033203125,0.9758540341347456,0.1390209326773882,-0.43957346665635705
1758274162916843300,1.59484326171875,0.16719136236263438,-0.8780033162355423,-1.0189652999781071
1758274162926802400,1.604802490234375,-0.4715665416359901,0.8901964428544044,-0.36544133186638356
1758274162936760000,1.614760009765625,-0.8367699730932712,16.48796199361086,-1.3955842978104949
1758274162946719200,1.62471923828125,-0.7878636111050844,6.405494818568229,-11.04605618636608
1758274162956677000,1.634677001953125,1.7392817076414822,-8.41913824174702,-9.859085120636225
1758274162966636300,1.64463623046875,1.3349907128989695,-4.658360059338808,0.16907441789656877
1758274162976594200,1.65459423828125,-0.3456587730318308,-1.8757126238256692,3.6366187187761065
1758274162986553000,1.664552978515625,-0.32556937673781067,-1.5399024601131677,4.441805220603943
1758274162996511200,1.67451123046875,0.33627485861480233,-1.2049404376626014,4.274308719548583
1758274163006470100,1.68447021484375,-0.5936778770992532,-2.0422914255142213,3.389015830826759
1758274163016428300,1.69442822265625,-1.3309171798497437,-1.6862100426673887,2.7655545541539786
1758274163026387200,1.70438720703125,0.05294080513603985,0.17966157062351704,1.5729155257903038
1758274163036345300,1.714345458984375,0.8569335671346634,0.8956219750344753,0.12181892838794738
1758274163046304300,1.72430419921875,0.6549450869560242,0.46982758901417254,-0.6620316842161118
1758274163056262100,1.73426220703125,0.4956096805244684,0.16133505581617355,-0.8632202461887151
1758274163066221300,1.74422119140625,0.5436690702944994,-0.21691899587213992,-0.5238945486359298
1758274163076179200,1.75417919921875,-0.6126403882551938,-0.08866846353411674,0.09934822644796222
1758274163086138400,1.764138427734375,-1.204616612535715,0.182878779104352,0.19369552106978372
1758274163096097300,1.77409716796875,-0.929528336289525,0.15749533152282236,0.26101496190391477
1758274163106055200,1.78405517578125,-0.606912000671029,1.095754671278596,0.5214328712301328
1758274163116014300,1.794014404296875,0.7745165652107447,1.0502718539983034,0.694674601406604
1758274163125972200,1.80397216796875,0.5921983791312202,-1.1163304263174534,0.7239124593939632
1758274163135931100,1.81393115234375,-0.9069581925630569,0.9356517876058816,0.6326403161674737
1758274163145889300,1.82388916015625,1.3240689213901757,0.746015350934863,0.003989800288528204
1758274163155848200,1.83384814453125,1.15587450119853,-0.06550970626473426,0.19411526258550582
1758274163165806300,1.843806396484375,-0.09234861335158348,-1.3350649471789597,0.568711157092452
1758274163175765200,1.85376513671875,-0.9800129073798656,-0.8176818262636661,0.9558154547125101
1758274163185723400,1.863723388671875,0.11298459241138771,-0.636795097759366,0.7143082532897591
1758274163195682300,1.873682373046875,-0.05696691884696483,-0.48003158764243126,0.561835864495486
1758274163205640200,1.88364013671875,-1.3985761731028556,-0.740802584722638,-0.0526144227258861
1758274163215599400,1.893599365234375,-1.4444745854467154,-1.2089438280850648,-0.425349126470834
1758274163225557200,1.90355712890625,-0.9546762215495109,-0.976621511375904,0.21457389405071733
1758274163235516400,1.913516357421875,-0.4457657454252243,-0.9551432545393704,0.48787338718399403
1758274163245474300,1.923474365234375,-0.3455114735156298,-0.982998060670495,0.3007952566936612
1758274163255433200,1.93343310546875,-0.5338011717528105,-1.198726969975233,0.3722122873060405
1758274163265392400,1.943392333984375,-0.8050023774325847,-1.4051941299378872,0.44278614509254693
1758274163275350300,1.953350341796875,-0.9564946691483258,-0.9944254636138677,0.6849599937304854
1758274163285309400,1.963309326171875,-0.2877957821279764,0.5567898331522941,1.0009094188056886
1758274163295267300,1.973267333984375,0.9366343689024448,2.2223943101644514,1.3406782570160924
1758274163305226200,1.983226318359375,1.2476280712664127,2.1325836908578872,0.9822272224284708
1758274163315184400,1.993184326171875,1.0594681368887424,1.4091589419156312,0.22529475615993141
1758274163325143300,2.003143310546875,0.6282143164187669,0.5704688144147396,-0.3438030621625483
1758274163335101400,2.013101318359375,-0.15033903002738952,0.1382663149178028,-0.4623905708812177
1758274163345060400,2.023060302734375,-0.5514291829019785,-0.10440554637014865,-0.19715353430286048
1758274163355018500,2.0330185546875,-0.5271376222103834,-0.02437806993126869,0.3664085694633424
1758274163364977400,2.042977294921875,-0.7364017194151878,-0.24852701705694197,0.6708335609614848
1758274163374935300,2.052935302734375,-0.7041191599696874,-0.2532014386087656,1.3749521364092827
1758274163384894500,2.06289453125,-0.6367395681798458,-0.3516740877985954,1.7491523826621471
1758274163394852400,2.072852294921875,-0.4367465726673603,-0.2399509118914604,2.140198549775779
1758274163404811300,2.082811279296875,-0.04759997383104637,-0.1021247419565916,2.041167536050826
1758274163414769200,2.09276904296875,0.40621757889091964,-0.018489011892676353,1.6756564999490975
1758274163424728300,2.102728271484375,0.5818295818626881,0.06909633257985115,0.7737522297747432
1758274163434687500,2.1126875,0.5350830282568931,0.189628253364563,-0.30513898498639463
1758274163444645000,2.12264501953125,0.06929273193478584,0.11362170300483702,-0.8909513528749347
1758274163454604300,2.132604248046875,-0.14695640185177325,0.010388123023509978,-0.9957530589558183
1758274163464562200,2.142562255859375,0.06225976455807686,-0.1729395688921213,-1.1126898778580128
1758274163474521300,2.152521240234375,0.21172084270715713,-0.0906178440362215,-0.9052275693781673
1758274163484479200,2.162479248046875,0.21207564749419688,-0.03853226749002933,-0.4021490142777562
1758274163494438100,2.172438232421875,-0.0041881358722224826,-0.06163607970178127,0.019554887558519838
1758274163504396300,2.182396240234375,-0.11234861432909965,0.035947511693835255,0.42366847990751266
1758274163514355200,2.192355224609375,-0.12949728099610655,0.11397533874809741,0.6995208723939955
1758274163524313000,2.20231298828125,-0.1771001957029104,0.1417260999828577,0.9377933296792209
1758274163534272300,2.212272216796875,-0.3776344219526276,0.23892332240939138,1.0461280321918427
1758274163544230100,2.222230224609375,-0.624293928104639,0.2645855869323015,1.0273504126161337
1758274163554189300,2.232189208984375,-0.736817314478755,0.20162556515038013,1.1213818644881248
1758274163564147200,2.242147216796875,-0.7509399478554725,0.12153671391308307,1.0199312224008141
1758274163574106000,2.252106201171875,-0.9902695129781961,0.02040624369084835,0.7783978636234998
1758274163584065800,2.262065673828125,-1.3784399785250425,0.10714870759844779,0.7043151209332048
1758274163594023700,2.272023681640625,-1.464167712432146,0.16897241882681846,0.7240200844869017
1758274163603982600,2.281982666015625,-1.0680617777109145,0.34894787770509716,0.7451840146772563
1758274163613940700,2.291940673828125,-0.8872966297596693,0.6708341454833746,0.7398178114689886
1758274163623899600,2.301899658203125,-0.986485975851491,0.7315840900003909,0.6454010135412216
1758274163633857800,2.31185791015625,-1.6629402262389659,0.6129448510944843,0.2432647126145661
1758274163643816700,2.321816650390625,-2.050855840241909,0.6554594662189484,0.39372225445508957
1758274163653774800,2.33177490234375,-1.7202420761287212,0.7834761898010969,0.7901987760543823
1758274163663733800,2.341733642578125,-1.4845026444524525,0.8721054903686046,0.8908351791493594
1758274163673691600,2.351691650390625,-1.577093834388256,0.9555015664577483,1.0032266097068787
1758274163683650800,2.36165087890625,-1.7700071007728575,0.9076800770968199,1.0984047473959624
1758274163693608700,2.371608642578125,-1.7392789311625063,0.8320213172614574,1.262822571658343
1758274163703567600,2.381567626953125,-1.6826596567094325,0.7599182040810585,1.5605857671797274
1758274163713525800,2.39152587890625,-1.5831740310847757,0.6701157680809497,1.7784867598265408
1758274163723484700,2.401484619140625,-1.5022551587641237,0.6246534090667962,1.8200658476665614
1758274163733442800,2.41144287109375,-1.466075591880083,0.6799474262654781,1.7613408331058917
1758274163743401700,2.421401611328125,-1.5501123039603233,0.5748854618132114,1.6235972268879413
1758274163753360600,2.431360595703125,-1.5887252354711294,0.21312194167673587,1.4879976469613612
1758274163763318800,2.44131884765625,-1.7765122448831796,-0.12385492772758007,1.2277788769364357
1758274163773277700,2.451277587890625,-1.9761317309081554,-0.2838958520799875,0.9526277645871043
1758274163783235800,2.46123583984375,-1.7295733835756777,-0.35511633720695973,0.9033497928075492
1758274163793194800,2.47119482421875,-1.5812217279732226,-0.6711965490549803,0.7446040228322148
1758274163803153000,2.48115283203125,-1.461836639136076,-1.1901233922809362,0.5098286138825118
1758274163813111800,2.49111181640625,-1.513724647283554,-1.7957149580031633,0.2883101613909006
1758274163823069700,2.501069580078125,-1.8982237308412788,-2.7663550568819044,0.0496069114729762
1758274163833028900,2.51102880859375,-2.4291167600624264,-4.177543458798527,0.04835413493290543
1758274163842986800,2.52098681640625,-2.761086761090159,-5.31567772064507,0.6745170717798173
1758274163852946000,2.53094580078125,-2.7296552655160427,-5.699534414646029,1.7460798433490097
1758274163862903800,2.54090380859375,-2.3736695981286466,-5.58022940530777,2.918506104767322
1758274163872862700,2.55086279296875,-2.3527006059885025,-5.45924506458044,3.6672514651879666
1758274163882820900,2.56082080078125,-2.9170775332689285,-5.932354159483313,3.994331502217054
1758274163892779800,2.57077978515625,-4.086912755280733,-6.596031418949365,3.855777310268581
1758274163902738700,2.58073876953125,-5.246728687581419,-6.4024827772706745,3.213170019099116
1758274163912696800,2.59069677734375,-5.1827083430916066,-5.29484536049664,1.6696074290432035
1758274163922655700,2.60065576171875,-4.477906461554765,-4.086315958431363,1.0214043636932968
1758274163932614000,2.61061376953125,-3.1094922024816274,-2.955501079687476,1.5429390513300896
1758274163942572800,2.62057275390625,-1.7409072630167006,-2.012056446248293,1.6244366003215311
1758274163952531000,2.630531005859375,-1.1072487097173929,-1.3887906921476125,1.0447818782798945
1758274163962489900,2.64048974609375,-0.6052151336252689,-0.7823667672544717,0.5154276759985834
1758274163972448000,2.650447998046875,-0.4607283732900396,-0.8650596635103225,0.21117826026305556
1758274163982407000,2.660406982421875,-0.5930466299910098,-1.6998533680945633,0.08048720290511846
1758274163992364800,2.67036474609375,-1.0401485924560576,-2.8637247132658956,0.15310644891411065
1758274164002324000,2.680323974609375,-1.5104631612695754,-3.314707316556573,0.23216288836374877
1758274164012281900,2.69028173828125,-1.19202805685848,-3.0048259593486786,0.33732495218962427
1758274164022240800,2.70024072265625,-0.27074586312770843,-2.5510610318630933,0.4008762909281999
1758274164032198700,2.71019873046875,0.9155860279157757,-2.2603058154076336,0.32281054301634426
1758274164042157800,2.72015771484375,1.689741723924875,-2.302640397790074,-0.1600013229943812
1758274164052117000,2.730116943359375,1.7526669666543602,-2.6553233703702688,-0.6978070542134344
1758274164062075000,2.740074951171875,2.340524722765386,-2.4540321517407895,-0.4196804331846535
1758274164072033800,2.75003369140625,3.2608810338228937,-2.8004923042833805,-0.9858193286363035
1758274164081991700,2.75999169921875,3.008446195672452,-2.6846815668016673,-0.9906046632166952
1758274164091950800,2.769950927734375,2.2525942181169984,-1.6584201184660194,-0.607365626190044
1758274164101908700,2.77990869140625,1.9997560598626731,-0.7983750682473182,-0.24603048753347245
1758274164111867600,2.78986767578125,1.9579431632667779,-0.4839198272526264,-0.8216512413512915
1758274164121825800,2.79982568359375,1.9700538722991943,-0.36065351306796073,-1.2780604728005827
1758274164131784700,2.80978466796875,2.308929853323102,-0.009356441888213158,-1.3275057639710603
1758274164141742600,2.81974267578125,2.6153788979947565,0.36654607823789115,-0.8562192083202302
1758274164151701800,2.82970166015625,2.8450536228045817,0.39518998892009255,-0.7762667698789387
1758274164161659600,2.83965966796875,3.4585388643860817,0.3283960880637169,0.048647893715091046
1758274164171618800,2.849618896484375,3.7038071719080206,0.2115519158810377,0.6983131040394306
1758274164181576700,2.85957666015625,3.737352298635244,0.3374573463976383,0.21354382035061717
1758274164191535600,2.86953564453125,3.5313954262822866,0.5671861394822597,-0.01383000710569322
1758274164201493800,2.87949365234375,3.758593239584565,0.40497546987533567,-0.10291304279007017
1758274164211452700,2.88945263671875,4.033200454315543,0.03323006942868233,1.2431354360222815
1758274164221411600,2.89941162109375,4.105963492709398,-0.27344284712672234,1.9695175734654067
1758274164231369700,2.90936962890625,4.252800067573785,-0.3457102109581232,1.7042177007839083
1758274164241328600,2.91932861328125,4.45717756178081,0.06801905873715877,2.0242986727058887
1758274164251286800,2.929286865234375,4.972725868484377,0.6851093390733003,2.022133749756962
1758274164261245700,2.93924560546875,4.645099595749378,1.451886323007941,0.5297320226177573
1758274164271203800,2.949203857421875,4.5789112595707175,2.7696225342452525,0.1138463055409491
1758274164281162800,2.959162841796875,3.5948815177649256,3.7507799354851246,0.2511180564634502
1758274164291120600,2.96912060546875,2.676788767725229,3.891663739424944,-0.5717737595334649
1758274164301079800,2.979079833984375,2.2087474776059386,3.4808155781239267,-1.6393749339953063
1758274164311037700,2.98903759765625,2.1959762588381766,2.7126947783648965,-1.7979875791102646
1758274164320996900,2.998996826171875,2.9895962415128943,1.7824971645116805,-1.3309171798497437
1758274164330954800,3.008954833984375,3.8715275448471305,1.3264853348821402,-0.9333037631750106
1758274164340913700,3.01891357421875,4.29949050707817,1.5078151309788226,-0.5316359565429389
1758274164350871800,3.028871826171875,4.155611028453707,2.351373156777024,-0.16244827775508164
1758274164360830700,3.038830810546875,3.787541686171293,3.233670955336094,0.20123758874610065
1758274164370788900,3.048788818359375,2.938433040508628,3.595299450916052,0.17960852526202797
1758274164380747800,3.058747802734375,1.9677543631851673,3.353706617036462,-0.07722484010830521
1758274164390706700,3.068706787109375,1.4801795205563306,2.790836002665758,-0.5436218701519072
1758274164400664800,3.078664794921875,1.1461778675705194,2.526588853907585,-0.45715953835994
1758274164410623700,3.088623779296875,0.8167804935097694,2.7938644105762243,-0.27059534874111413
1758274164420582000,3.098581787109375,0.19601941570639608,3.331318259617686,-0.658475891430676
1758274164430540800,3.108540771484375,-1.293390874531865,3.62973071282804,-1.5440306459590791
1758274164440499000,3.1184990234375,-3.0225568463504313,3.6915783894538876,-2.3580343682318925
1758274164450457900,3.128457763671875,-4.41890716009736,3.5199721149921417,-2.7961016681089994
1758274164460415700,3.138415771484375,-4.875448566558957,3.115218763434887,-2.8309289436012506
1758274164470375000,3.148375,-4.141607053020596,2.178082290229201,-2.8841338795661926
1758274164480332800,3.158332763671875,-2.384117488515377,0.967718073952198,-2.4232258023276922
1758274164490291700,3.168291748046875,-2.4842659619629384,-1.833741029536724,-1.4222785357296466
1758274164500249900,3.178249755859375,0.1651186660081148,-6.042473991847038,-1.944367642378807
1758274164510208800,3.188208740234375,-0.12282792276740073,-7.532597983312606,-3.1334663677871224
1758274164520167000,3.1981669921875,-1.0147224017113448,-6.656498454871773,-2.825556602913141
1758274164530125800,3.208125732421875,3.4828467916905876,-4.6495928155153985,-0.8104568434461951
1758274164540084700,3.218084716796875,0.627345132368803,-2.203232513576746,0.0627501784235239
1758274164550043000,3.22804296875,-0.5643821879774332,-0.7093243273973464,-0.6578904927581548
1758274164560001800,3.238001708984375,1.6056389608711004,0.30131401987075807,-0.7427868904076517
1758274164569960000,3.2479599609375,3.1393390592128037,0.635250790926814,-0.9302836847014725
1758274164579918800,3.2579189453125,3.0523090105354784,0.20285306111872195,-0.9262412043776362
1758274164589877000,3.267876953125,2.9729139867812395,-0.9289806392788886,-0.8901903053745627
1758274164599836000,3.2778359375,3.2996476945906874,-2.1329063469409943,-0.5324585980374366
1758274164609793800,3.287793701171875,3.7508360495865345,-2.97490837546885,0.05989003975205123
1758274164619753000,3.2977529296875,3.4918560275763273,-3.1732419133365153,0.8930231907129287
1758274164629710800,3.3077109375,3.043786681383848,-3.1823855892568824,1.5243603153273462
1758274164639670000,3.317669921875,2.163776116979122,-3.0550948418617248,1.8605913348004222
1758274164649628000,3.3276279296875,1.271409928870201,-2.734409766566753,1.8562205723702907
1758274164659586800,3.3375869140625,1.1401257279247046,-2.305059149369597,1.5773758662000297
1758274164669545000,3.347544921875,1.5313368763417006,-1.4969810177534817,1.5548523380942643
1758274164679504000,3.35750390625,2.1503478956073523,-0.726802116420865,1.4497320675835013
1758274164689462000,3.3674619140625,2.530494044652581,-0.037900399327278136,1.0003739967547356
1758274164699421000,3.3774208984375,2.6007661430135367,0.531412815311551,0.952455769021064
1758274164709379800,3.3873798828125,2.242667575125396,0.38072657928168774,0.1512677622448653
1758274164719338000,3.397337890625,1.6564336208239197,0.31054595859646794,-0.417014428845793
1758274164729297000,3.407296875,1.2219865572705864,0.31113807927072046,-0.4383101687222719
1758274164739255000,3.417255126953125,0.8794599447846412,0.4235311172634363,-0.07780117869153619
1758274164749214000,3.4272138671875,1.1594561590775847,0.6214484755456448,0.33606428460404275
1758274164759171800,3.437171875,1.578923387902975,0.7511047830283641,0.765252843107283
1758274164769131000,3.447131103515625,1.6820730889931321,0.7656617161691188,1.1904399839494377
1758274164779089000,3.4570888671875,1.027616077814996,0.903304346230626,0.9554710982542485
1758274164789048000,3.467048095703125,0.25813655692338944,0.9083569534450769,0.844127934640646
1758274164799005700,3.477005615234375,0.20733546722978352,0.7448170810610055,1.3761162117525934
1758274164808964900,3.48696484375,-0.384044763918966,0.34925416717529295,1.191535597166419
1758274164818922800,3.4969228515625,-0.9574632219195366,0.028332360514998434,1.0092156209886074
1758274164828882000,3.5068818359375,-0.9303951822519302,-0.12155074243843554,1.4637056478783488
1758274164838839800,3.51683984375,-1.21147071621418,-0.1229120939195156,1.7041805836439132
1758274164848798700,3.526798828125,-1.4663558701261876,0.3877905263185501,1.9961967599458992
1758274164858756900,3.5367568359375,-1.5475263791203497,1.0680115088284015,1.9736247165232896
1758274164868715800,3.5467158203125,-1.7859119413912294,1.3754448883622883,1.4104085035853087
1758274164878675000,3.556675048828125,-1.4649451265454292,1.776518674623966,1.010795875917375
1758274164888632800,3.5666328125,-1.2197102829016744,1.973086956384778,1.1437158613711595
1758274164898591700,3.576591796875,-1.4642146203137933,1.8452590333729981,1.0366468679454177
1758274164908550000,3.5865498046875,-0.8316144169609994,1.7087965530067681,1.1858118126921355
1758274164918508800,3.5965087890625,-0.4560299498081207,1.4143880747407673,1.668625140007585
1758274164928466700,3.606466796875,-0.544878446084261,1.0150216769188642,2.2807097210109233
1758274164938425900,3.61642578125,-0.5677975493788718,0.79066931617558,2.2900997729077934
1758274164948383700,3.6263837890625,-0.08256130576543509,0.7500695947617292,1.650784947412461
1758274164958343000,3.636343017578125,-0.07802315087914466,0.9876882643133401,1.6051482547447085
1758274164968300800,3.64630078125,-0.3958371277172118,1.0710305643886326,1.8324303853295743
1758274164978259700,3.656259765625,-1.185328559219837,0.8861386918962001,1.5762307878181336
1758274164988217900,3.6662177734375,-2.2459809374570847,0.5452770900130272,1.0071304122123867
1758274164998176800,3.6761767578125,-2.5954794347822663,0.22762802141308783,0.9568959434255957
1758274165008135000,3.686135009765625,-2.4494120907247066,-0.03760346220731735,1.3973675279654563
1758274165018093800,3.69609375,-2.330266655862331,-0.2720797420799732,1.754948063328862
1758274165028052000,3.706052001953125,-2.439219198012352,-0.7268605686098337,1.8067755734607576
1758274165038011000,3.716010986328125,-2.5565268960535525,-1.1822785239994524,2.082838101566583
1758274165047969800,3.7259697265625,-2.5323826348781586,-1.7790286116182803,2.2557563354097305
1758274165057928000,3.735927978515625,-2.132680721491575,-2.3572341577649114,1.6198166854359208
1758274165067886800,3.745886962890625,-1.748148320186138,-2.2211375881016253,0.9217805717069655
1758274165077844700,3.7558447265625,-1.945055624642968,-1.9874428139954805,0.1664836707510054
1758274165087804000,3.765803955078125,-1.9427742357075213,-1.8317355349332094,-0.5883506907271221
1758274165097761800,3.77576171875,-1.8077455875366926,-2.1125451114356517,-1.2739789025753736
1758274165107721000,3.785720947265625,-2.255334456735849,-2.8005443267315626,-1.9594187887772916
1758274165117678800,3.795678955078125,-2.8405057502418756,-4.048805435204506,-2.268085801759362
1758274165127637800,3.8056376953125,-3.2492887957066294,-5.4161272228658195,-1.582351316525042
1758274165137596000,3.815595947265625,-3.007324790427089,-6.762182935136556,-0.13681863686013965
1758274165147554800,3.825554931640625,-2.208048973947763,-7.184532733660936,1.2216639011874795
1758274165157513000,3.835512939453125,-1.7762188148945568,-7.0532719135910265,2.3931369535341855
1758274165167471900,3.845471923828125,-1.935536685669422,-6.067474577590823,2.5815593382403255
1758274165177430000,3.855429931640625,-2.9216525860995053,-4.055868213197589,1.2230387697372584
1758274165187389000,3.865388916015625,-4.580879929295182,-2.6878748098850247,-0.12557612549699843
1758274165197346800,3.875346923828125,-5.080590030875801,-1.8956226084321737,-0.8712214010104536
1758274165207306000,3.885305908203125,-4.171302518582344,-1.5611480772376058,-0.8376453676883131
1758274165217265000,3.895264892578125,-3.4064567949712274,-1.4067530498176812,0.041787762154638766
1758274165227223000,3.90522314453125,-3.13132701767087,-1.7268763995766638,0.5845693820901214
1758274165237182000,3.915181884765625,-3.4613305409312245,-2.4412229390501974,1.0132462647441773
1758274165247139800,3.925139892578125,-3.5571325096070763,-2.8440666575938462,1.950378573231399
1758274165257099000,3.93509912109375,-3.1963527398109433,-3.3012036918610335,2.2424185688003897
1758274165267057000,3.945056884765625,-2.2591092990994452,-3.1267619017124173,2.84511324403733
1758274165277015800,3.955015869140625,-0.8119206323884427,-3.0470962443232534,3.316573402689397
1758274165286974000,3.964973876953125,2.0682336760222912,-2.320510985523462,3.7528289769694205
1758274165296932900,3.974932861328125,4.2240486048638815,-2.246447970446944,3.1310400174230337
1758274165306891000,3.98489111328125,5.162240140080452,-2.106012494796514,2.137977658855915
1758274165316850000,3.994849853515625,4.921982938718796,-1.712813971954584,0.3340669733069837
1758274165326808000,4.00480810546875,4.7066301692500705,-1.0284861386477946,-1.315353407754004
1758274165336767000,4.01476708984375,4.686903139995038,-0.582083264362812,-3.1739912703990933
1758274165346724900,4.024724853515625,3.9794168416798112,-0.08138356722295284,-4.008981374338269
1758274165356684000,4.03468408203125,3.6562948946267366,0.4618927043616771,-3.326219767434895
1758274165366641700,4.0446416015625,3.0690292591899633,0.5220183795005082,-2.7893612539380785
1758274165376601000,4.05460107421875,1.7605565508604049,0.39877953784465786,-2.387275514154881
1758274165386558700,4.064558837890625,0.9197557148158549,0.4644160853594541,-2.125409999836236
1758274165396517600,4.074517578125,1.0233552055001258,0.22667758882045744,-2.0369249300450085
1758274165406475800,4.084475830078125,1.612450686712563,-0.08288286586999892,0.5480895170852541
1758274165416434700,4.0944345703125,2.2166998979151247,-0.37720425037443633,3.23771497002989
1758274165426393900,4.104393798828125,4.128701978740096,-1.676058651009202,3.68938263297528
1758274165436351700,4.114351806640625,3.5552673002570865,-2.0975901188880206,3.623701369535923
1758274165446310700,4.124310546875,3.227629921606183,-2.2154098581045867,3.0077278182700273
1758274165456268800,4.134268798828125,3.9770927826464173,-2.1097756467223165,3.268917040762305
1758274165466227700,4.144227783203125,3.8984658206552263,-1.9381611889541148,2.636978150862455
1758274165476185900,4.154185791015625,4.907694301125407,-0.5475181469380855,1.74136523591727
1758274165486144800,4.164144775390625,5.59149255760014,0.5735054056316614,1.385753224147856
1758274165496103000,4.17410302734375,5.670259220322966,1.5268231983095406,1.3074857431188225
1758274165506061800,4.184061767578125,5.814068556320667,2.283908224791288,0.402867391680181
1758274165516019700,4.194019775390625,5.416829233655333,2.908877860200405,-0.46257922532111406
1758274165525979000,4.203978759765625,4.85587760464847,3.5547225258558988,-0.5946656825602055
1758274165535936800,4.213936767578125,3.9135669436752796,3.724954589354992,-0.3901566709280014
1758274165545896000,4.22389599609375,3.1152263622194525,3.310103622153401,-0.002782324194908142
1758274165555853800,4.233853759765625,2.725579978901148,2.563634097710252,0.08786299237012862
1758274165565812700,4.243812744140625,2.5996628579467536,2.0065134251683947,0.002437164019048214
1758274165575771000,4.25377099609375,2.692370952260494,1.7792413775861262,-0.20969372079372406
1758274165585729300,4.263729248046875,2.869598573735356,1.8902607891380785,-0.31163550739884377
1758274165595687400,4.2736875,2.986383709207177,2.4409803624659774,-0.28973902515023947
1758274165605646300,4.283646240234375,3.045141018602252,3.3980379261940716,0.06980828024148941
1758274165615605200,4.293605224609375,2.8640426931738854,4.298921182757616,0.5039309341460466
1758274165625563400,4.3035634765625,2.229631860202551,4.6458425230711695,0.35215164218246936
1758274165635522300,4.313522216796875,1.0629103862971068,4.441407161197066,-0.12702157506495712
1758274165645480400,4.32348046875,-0.24598025518357752,3.8064164825111626,-0.8154574282124638
1758274165655439400,4.333439453125,-1.4513959091424942,3.1908938898831605,-1.4984619039610028
1758274165665397200,4.343397216796875,-2.724275910565257,2.7707401400983334,-1.8578826603636145
1758274165675356400,4.3533564453125,-3.842203250685334,2.509320323720574,-1.8230463247820734
1758274165685314300,4.363314208984375,-4.3622710806399585,2.290330366793275,-1.6494661198988556
1758274165695273500,4.3732734375,-3.847048352628946,2.0647008257210255,-1.5038853903144598
1758274165705231000,4.383231201171875,-1.4483751000165939,2.0419605861246586,-1.066985088390112
1758274165715190300,4.393190185546875,1.9233464816600083,2.414759879538417,-0.7408528536051512
1758274165725148200,4.403148193359375,4.051348689946532,2.957275103622675,-0.5236287373065949
1758274165735107000,4.413107177734375,2.5048627597898245,1.4517659114986656,-1.4803639372125268
1758274165745065200,4.423065185546875,-2.2616379407942295,-3.1017513790965077,-4.403194627180695
1758274165755024100,4.433024169921875,-2.758177595645189,-7.52859985358715,-5.946506018954515
1758274165764982300,4.442982177734375,-7.3939371161192655,-11.035286955070495,-7.156358778578043
1758274165774941200,4.452941162109375,-2.733209743127227,-11.685659911805391,-3.669652973371744
1758274165784899300,4.4628994140625,6.622839346376061,-7.561011592370272,3.4441149099752306
1758274165794858200,4.472858154296875,5.165373761931061,-1.7673574630469082,4.537219066745043
1758274165804816100,4.482816162109375,3.1309745509713887,1.4022370336979626,1.3382435772150754
1758274165814775300,4.492775390625,0.2361784076154232,2.7340958783119915,-1.6398346604615448
1758274165824734200,4.502734130859375,-1.0836761109501123,2.657906372600794,-2.399420417717844
1758274165834692400,4.5126923828125,1.6404314573109149,1.3666811516702175,-1.224360739056021
1758274165844651300,4.5226513671875,4.229350218403339,-0.1617372068762779,0.43453810283765193
1758274165854609200,4.532609130859375,5.197098687493801,-1.3843541710048912,1.7120267670996485
1758274165864568300,4.542568359375,5.063617268764973,-2.5771768853724,2.0024945449158547
1758274165874526200,4.552526123046875,3.5041251420408486,-3.495274896109104,2.288070459037274
1758274165884485000,4.562485107421875,2.2551570543423294,-4.649419797036051,2.256617336153239
1758274165894443300,4.572443359375,1.804872662448883,-5.065254514577984,2.516176765486598
1758274165904402200,4.582402099609375,2.170414532080293,-4.201194383499026,2.9706974797755477
1758274165914360300,4.5923603515625,2.7648572195395826,-2.734012876203656,2.8878397483468055
1758274165924319200,4.6023193359375,2.7602865506231784,-1.3778665625512598,2.2788816288009284
1758274165934277400,4.61227734375,2.3853102054312822,-0.35827275541126724,0.9431876630034297
1758274165944236300,4.622236328125,1.632514400576055,0.5992331366062164,-0.3329403073646128
1758274165954194400,4.6321943359375,0.9658180855497718,1.437476104861498,-0.937266237065196
1758274165964153300,4.6421533203125,0.6534732608377933,1.6964666482657194,-1.2267108093135057
1758274165974111200,4.652111328125,0.6641293871477246,1.7420301295667886,-1.2310422626465558
1758274165984070400,4.6620703125,0.55315147664994,1.9964415284872055,-1.2460580454707144
1758274165994028300,4.6720283203125,0.5066380011476576,1.9519775328606366,-1.079715098364651
1758274166003987200,4.6819873046875,0.06107333125248551,1.5596674832910298,-0.9490219951801001
1758274166013945300,4.6919453125,-0.32704788832515475,1.0735966154843568,-1.0576466205500066
1758274166023904300,4.701904296875,-0.4974630533061921,0.9990379258453845,-0.398233375203982
1758274166033862400,4.7118623046875,-0.6416777552343904,0.8602467102706431,0.661778367042169
1758274166043821300,4.7218212890625,-0.9017653000950813,0.47236207592785356,1.9310105865471063
1758274166053779500,4.731779541015625,-1.029970678117126,0.19792203445732592,2.843822327443957
1758274166063738400,4.74173828125,-1.023298068485409,0.10364859052300453,3.7709509091153737
1758274166073697300,4.751697265625,-0.965298299459368,-0.30310908659398555,5.2066106122046705
1758274166083655400,4.761655517578125,-1.4580908767364917,-0.8757353713035583,5.18479157910645
1758274166093614300,4.7716142578125,-1.1185060167908667,-0.1812520546853542,5.03079694918096
1758274166103572500,4.781572509765625,-1.2197368786476552,0.7754331685990095,3.6513416561335323
1758274166113531400,4.791531494140625,-0.5761293243944644,1.2193103237986564,1.7882018058940767
1758274166123489300,4.8014892578125,-0.08593165898136794,1.9533692794799804,0.7430429840605706
1758274166133448400,4.811448486328125,-0.09574234744310378,2.0435183369606733,0.15198639537561684
1758274166143406300,4.82140625,0.5486053576529025,1.8977035063594578,-0.09836283213980496
1758274166153365200,4.831365234375,0.4765817759821191,1.8285405382841824,-0.4032010806139558
1758274166163323100,4.8413232421875,-0.5970949190011248,1.1277297722101212,-1.1414219052150845
1758274166173282300,4.8512822265625,-1.719417900264263,0.8991174159348011,-1.6136133007511495
1758274166183240200,4.861240234375,-3.1475112597525117,0.45085342395305633,-2.220950394966453
1758274166193199400,4.871199462890625,-4.252024991548061,0.3485580016046762,-1.9073431491032242
1758274166203157200,4.8811572265625,-4.622237775599956,0.40959786897897715,-0.31921945972181853
1758274166213116200,4.8911162109375,-4.658687391597033,0.25087036531269546,0.9949177041102201
1758274166223074300,4.90107421875,-4.158065435868502,0.10131342557370662,2.4337924967885014
1758274166233033200,4.911033203125,-3.339937034881115,-0.33557635495662685,3.50699455999732
1758274166242991000,4.9209912109375,-2.1730594936311243,-1.1064566825568676,4.196970336063206
1758274166252950300,4.9309501953125,-1.0535106897890567,-2.144068961468339,4.701937335258722
1758274166262908200,4.940908203125,-0.36675592159628867,-2.8042233075052496,4.889909638109803
1758274166272867300,4.950867431640625,0.24163199684619902,-2.6450527362465857,4.21702148270607
1758274166282825200,4.9608251953125,0.22100129674971103,-2.1689859605818986,2.72513720356971
1758274166292784000,4.9707841796875,-0.5345937834352255,-1.8519769434511661,0.9296612419541924
1758274166302742300,4.9807421875,-1.9633651883155105,-1.9805349343031644,-0.6191017662890255
1758274166312701200,4.990701171875,-3.9941549766063686,-2.5917285578161477,-1.9642139140993355
1758274166322659300,5.000659423828125,-5.997905951324105,-3.4496108770430087,-3.2486417299747465
1758274166332618200,5.0106181640625,-6.552628915074467,-4.294125180652737,-4.064403694091737
1758274166342577200,5.0205771484375,-5.002309690365195,-4.725649050235748,-3.4776676354870197
1758274166352535300,5.030535400390625,-2.7140748345464467,-5.074069689196348,-1.6241954850420355
1758274166362494200,5.040494140625,-2.0817828934252263,-5.908018175128102,0.968565484561771
1758274166372452400,5.050452392578125,-1.6297078187227247,-6.0647501210629935,2.1830206234142184
1758274166382411300,5.060411376953125,-2.2862568337440488,-5.211038365519046,1.5956383758604527
1758274166392369200,5.070369140625,-2.225659449440241,-4.380625652498007,-0.07823007162809371
1758274166402328300,5.080328369140625,-2.3255402118623256,-3.276193169245124,-1.1534884828448295
1758274166412286200,5.0902861328125,-2.4803496653020383,-1.8917624258726835,-1.1832798099964856
1758274166422245400,5.100245361328125,-2.372093873244524,-1.361767660665512,-1.0291156687229872
1758274166432203300,5.110203369140625,-2.862231844359636,-1.3176602233916521,-0.6462763350710272
1758274166442162200,5.120162109375,-2.9941712943434715,-1.4342875379532576,0.2498293318271637
1758274166452120300,5.130120361328125,-3.1500925084173677,-1.978310828512907,0.6485322973042726
1758274166462079200,5.140079345703125,-2.4186451965391633,-2.293822885084152,1.0863783556461333
1758274166472037400,5.150037353515625,-1.4325307574138044,-3.1009973458588123,1.1626891496494411
1758274166481996300,5.159996337890625,-1.1728792658828198,-4.220374300265312,0.5553627229586243
1758274166491954400,5.169954345703125,0.30980712292790413,-3.672968966051936,1.437336550260335
1758274166501913300,5.179913330078125,0.8176400329485535,-3.8776182629376645,1.2507286676302551
1758274166511871200,5.189871337890625,1.8215163387358189,-3.885035261195898,0.5041027835816144
1758274166521830400,5.199830322265625,2.4976190722718834,-3.1857091807216404,-0.24006240944191812
1758274166531788300,5.209788330078125,3.319798502215743,-2.483943890401721,-1.5775510766364633
1758274166541747500,5.21974755859375,4.291001787935197,-1.4814391652286052,-2.775954659876227
1758274166551705300,5.229705322265625,4.791611468704045,-0.5198644163370132,-2.995945026017725
1758274166561664300,5.239664306640625,4.9531531530082225,0.11396540187597275,-3.2004104907691477
1758274166571622400,5.249622314453125,4.254997869879007,0.2610129891425371,-3.080042236113548
1758274166581582000,5.25958203125,3.294659384784102,0.42858313995599745,-2.1055904699921606
1758274166591540200,5.269540283203125,2.4841791604623196,0.298152925491333,-1.150797490195185
1758274166601499100,5.2794990234375,2.151517523908615,-0.33182255538105965,0.7674794331155717
1758274166611457000,5.28945703125,2.0880764406114816,-0.8493354401558637,2.2721417991518975
1758274166621416200,5.299416259765625,2.241017469830811,-1.4326625670999287,2.8741145898550746
1758274166631374000,5.3093740234375,1.788333615580201,-2.1037427962988615,3.207148274591565
1758274166641333000,5.3193330078125,2.2820891926705835,-2.721168592199683,3.1713334493666885
1758274166651291100,5.329291015625,2.982328880858421,-2.3703695336699484,2.0661609614014624
1758274166661250000,5.33925,4.465387171721458,-1.5827975989878176,1.7015689398407936
1758274166671208200,5.349208251953125,5.424004824373125,-0.704526571726799,2.135909328149259
1758274166681167000,5.3591669921875,4.9061523323804135,-0.07572890246212483,1.98255738004148
1758274166691125000,5.369125,5.878506249439716,1.6194763475656508,0.8914534571781754
1758274166701084200,5.379084228515625,7.593246221020817,3.243027397224307,1.3037521095484494
1758274166711042000,5.3890419921875,6.798584620338678,3.7170489307969805,0.28674773437976836
1758274166721001200,5.399001220703125,6.460005576434731,4.405080294796824,0.2629465875536203
1758274166730958800,5.408958740234375,5.776967198416591,4.813040917962789,0.45636137371957297
1758274166740918000,5.41891796875,4.660516945111751,4.751355738422275,0.5427279900521039
1758274166750877200,5.428877197265625,4.310900958886743,4.178748742935062,0.5643205209180713
1758274166760834800,5.438834716796875,4.03143519820869,3.563610765710473,0.26327713468223807
1758274166770794000,5.4487939453125,3.7180899642825125,3.0611861444741484,-0.047289866702258584
1758274166780752000,5.458751953125,3.532878358316421,2.613669171467423,-0.4311602969676256
1758274166790711000,5.4687109375,3.378870284387469,2.544246675673127,-0.6443871603235602
1758274166800669000,5.4786689453125,3.0504537380576133,2.9525439834475518,-0.21961188821792602
1758274166810627800,5.4886279296875,2.470239774698019,3.635374271672964,0.4905550274834036
1758274166820586000,5.4985859375,1.5100743080824612,4.050834310683608,0.6146577924922109
1758274166830545000,5.508544921875,0.10602817913591861,4.186532236418127,0.09100012135207652
1758274166840503000,5.5185029296875,-1.4957926847517489,4.075684089779854,-0.9795581493496894
1758274166850462000,5.5284619140625,-3.1631051347255705,3.8654683909386396,-2.192937621794641
1758274166860420000,5.538420166015625,-4.662983042964339,3.72380132766664,-3.0492671586215496
1758274166870379000,5.54837890625,-5.229948817694187,3.4111528438329697,-3.3465377483204004
1758274166880337000,5.5583369140625,-5.0294490417033435,2.7571231181561946,-3.311232041661441
1758274166890296000,5.568296142578125,-5.272407903239131,1.8990169270455837,-2.6930399375632406
1758274166900254000,5.57825390625,-2.60537539037466,0.21221710179150102,-1.785998742891848
1758274166910213000,5.588213134765625,1.2108669051021337,-3.5024247678637503,-3.0995477315723896
1758274166920171000,5.5981708984375,4.22951622262001,-5.82948707472682,-3.579427635784447
1758274166930130000,5.6081298828125,0.05896598370969295,-6.885318900939822,-5.011337630951404
1758274166940088000,5.618088134765625,0.10456687441170215,-6.912226197087764,-5.219984473040699
1758274166950047000,5.628046875,0.7104507010787725,-5.21586242467463,3.3849323609054087
1758274166960005000,5.638005126953125,6.520697068762779,-4.697814117848873,3.5986405780375
1758274166969964000,5.647964111328125,4.551380863088369,-2.7408973750203844,0.025701865880936384
1758274166979922200,5.657922119140625,0.37388124343156814,-1.0257540833353995,-3.180931883317232
1758274166989881000,5.667881103515625,-1.0582950014561414,-0.8502478788256644,-4.4153386539608235
1758274166999839000,5.6778388671875,1.7437199823498726,-1.215457740023732,-3.0346807071253656
1758274167009798100,5.687798095703125,5.193841147002577,-1.5615952364832162,-1.6112221678309142
1758274167019756000,5.697756103515625,4.6487370754688975,-1.6742969020336866,-1.1855775655448435
1758274167029715000,5.70771484375,2.9770372041910886,-1.9747446604639292,-0.7124952125184237
1758274167039673000,5.717673095703125,1.824388094779849,-2.1553432196766136,0.840442524126172
1758274167049632000,5.727632080078125,1.9968144534528254,-2.7933751657545565,2.148781961464882
1758274167059590100,5.737590087890625,2.1614219550684095,-3.1437960386216637,2.47712865742892
1758274167069549000,5.747549072265625,1.4548527715981006,-2.4607757807821034,3.1581483891010285
1758274167079507200,5.757507080078125,1.5005965779021382,-2.0401701955765486,2.7537866672098636
1758274167089466000,5.767466064453125,1.5306921486973761,-1.5689076053231954,2.1935459629513323
1758274167099424000,5.777424072265625,1.5349451299667358,-0.7196452304035424,1.6324842976987362
1758274167109383200,5.787383056640625,1.5032473846718668,0.15471300732791424,0.9199731569588184
1758274167119341000,5.797341064453125,1.1427411711201072,0.6577426087200641,0.21690365217253565
1758274167129300200,5.80730029296875,0.8107514424785971,1.2023960138767957,0.09435659217312932
1758274167139258000,5.817258056640625,0.47134822271019217,1.6483382849127053,0.33121114548444747
1758274167149217000,5.827217041015625,0.6676306732669472,1.8491601324647664,0.5869014782994986
1758274167159175000,5.8371748046875,0.9938394804194569,1.7346926262855529,0.9577283756617456
1758274167169134000,5.847134033203125,0.9731599727451801,1.470323896974325,1.1287751165445894
1758274167179092000,5.857092041015625,0.8939199934221803,1.1503589526474476,1.1312011015824972
1758274167189051000,5.86705078125,0.9186552062280475,0.7233288873523473,1.314902887507528
1758274167199009000,5.877009033203125,1.2095558225035667,0.12823708833456038,1.9849758393600583
1758274167208968000,5.886968017578125,0.288704713666439,-0.6425584835916757,2.359893878493458
1758274167218926000,5.896926025390625,-0.5535773008465766,-1.0016437244296073,2.1373335157334803
1758274167228885000,5.906885009765625,-1.4655132818222045,-0.6507336067408322,1.6361651781685649
1758274167238843000,5.9168427734375,-1.6217723495483398,0.16644143904447556,1.3446040521577
1758274167248802000,5.926802001953125,-1.2344188994728027,0.9335872562915086,1.2284490312829612
1758274167258760000,5.936760009765625,-0.8370435293376445,1.7671476196885108,0.28008776503391564
1758274167268718000,5.946718017578125,-1.6677591708280146,2.52932149374187,-0.08950834842436015
1758274167278677000,5.956677001953125,-1.879015757024288,2.1088176153451204,-0.05528795278407633
1758274167288635100,5.96663525390625,-1.0707283665716647,1.1032353824228047,0.13807137686759233
1758274167298594000,5.976593994140625,-0.8091993176657706,0.5942097554862499,0.9327665875583887
1758274167308552000,5.986552001953125,-0.507761379154399,0.35614158860147,1.6326580468304455
1758274167318511000,5.996510986328125,-0.6473685142219067,0.40555297750234603,2.1501254850283265
1758274167328469000,6.006468994140625,-0.911021788740158,0.6227770938009023,2.3934862053632733
1758274167338428000,6.016427978515625,-0.9322130453288554,0.6885299611717463,1.9233190091311931
1758274167348386000,6.026385986328125,-0.8584767779886722,0.6391010366141796,1.0771985124338417
1758274167358345000,6.036344970703125,-0.7004419327616691,0.6267407367348671,0.9585492635905742
1758274167368303000,6.04630322265625,-0.5284183462033047,0.4957698395222425,1.0596993883613497
1758274167378262000,6.056261962890625,-0.9559726911008357,0.15870821444392202,0.7813868163064122
1758274167388220200,6.06622021484375,-1.7309294743597508,-0.2065805572092533,0.47396059716567396
1758274167398179000,6.076178955078125,-2.465869889050722,-0.7248807929694652,0.6421997332818806
1758274167408137000,6.086136962890625,-2.9295395399570463,-1.2816875772565604,1.088215434880182
1758274167418096000,6.09609619140625,-2.9947885494589803,-1.936235773849487,1.85207675056383
1758274167428054000,6.106053955078125,-3.027630496352911,-2.758282809585333,2.203235290055722
1758274167438013200,6.11601318359375,-3.485373679819703,-3.239313929659128,1.947586604425311
1758274167447971000,6.12597119140625,-4.064828933766484,-3.1973242151916024,1.2608240913175046
1758274167457930000,6.135929931640625,-4.812823475819826,-3.1314205411732194,0.35309681407809257
1758274167467888000,6.14588818359375,-5.304006572073698,-3.057200289708376,-0.8021122089490293
1758274167477847000,6.155846923828125,-5.327154807949066,-2.8535090241998433,-1.827257074344903
1758274167487805200,6.16580517578125,-5.170065719139576,-3.074896689918637,-2.5762413580879566
1758274167497764000,6.17576416015625,-5.624128752788901,-3.50259252564609,-2.4660198189154268
1758274167507722200,6.18572216796875,-5.729333925104141,-4.155993305769562,-1.4458153325311838
1758274167517681200,6.19568115234375,-4.311107879635691,-4.627968428206444,-0.12657690003737807
1758274167527639000,6.20563916015625,-2.250934760472178,-4.880490067857504,1.184275689166039
1758274167537598200,6.21559814453125,-1.0345780988473445,-4.5647418644428255,2.253392967279255
1758274167547555800,6.225555908203125,-1.3002946625709533,-3.295034647837281,1.9906322576865552
1758274167557515300,6.235515380859375,-2.466454995462298,-1.7909300618141888,0.6059446169435978
1758274167567473000,6.245472900390625,-3.3576831194519996,-1.093880109578371,-0.9253156870305538
1758274167577431800,6.255431884765625,-3.434746485388279,-1.188049508616328,-1.973674108622968
1758274167587390000,6.265389892578125,-3.1291619485914706,-1.8739134654492138,-1.9514891648218033
1758274167597348900,6.275348876953125,-3.3405765018284317,-2.527948451822996,-1.6236919194340704
1758274167607307000,6.28530712890625,-3.139529028826952,-2.5239836398452518,-1.484361044024676
1758274167617266000,6.295265869140625,-2.3253555029451847,-1.9818623835146425,-0.9067408965505659
1758274167627224000,6.30522412109375,-1.1684895795565098,-1.5555875205010175,0.28025588814243674
1758274167637183000,6.315182861328125,0.813784234303236,-2.5468255862504243,0.702901162482053
1758274167647140900,6.325140869140625,1.120051492667198,-4.01291345309019,0.3050875470601022
1758274167657100000,6.33510009765625,2.5201202424153686,-3.5521114665746687,1.112824464023113
1758274167667058000,6.345057861328125,3.707553372699022,-3.482989415031671,1.7339458995714783
1758274167677016000,6.35501611328125,4.411166336712241,-3.901295491123199,1.4336014553852379
1758274167686975000,6.36497509765625,4.555973159314692,-3.1390105579107996,0.20881606117635965
1758274167696933000,6.37493310546875,3.4134590749487277,-2.158136649787426,-1.1187199518024922
1758274167706892000,6.38489208984375,3.901601780593395,-1.1349912876456976,-2.053141174700111
1758274167716850000,6.394849853515625,5.313163691997528,-0.24093933840692042,-2.6236349774256347
1758274167726809000,6.40480908203125,5.652680893534422,0.7961597302854061,-2.5784575728327033
1758274167736767000,6.41476708984375,5.053523160251975,1.1941016482621432,-2.943645806720853
1758274167746726100,6.42472607421875,3.838644389159977,1.115693297457695,-2.8960937819510697
1758274167756684000,6.43468408203125,3.2672564140737053,0.6511988861650229,-2.8937068868145346
1758274167766643000,6.444642822265625,0.6594464900285005,0.3063806556105613,-0.1511477160617709
1758274167776601000,6.45460107421875,-2.638297416767478,-0.4064133937239647,3.387245606283843
1758274167786560000,6.46456005859375,-0.13818272828757763,-2.921610500523448,1.9516136679843068
1758274167796518100,6.47451806640625,4.197655103456974,-5.699187208643555,0.1990221046537161
1758274167806477000,6.48447705078125,4.4087931778401135,-4.824196518227458,1.2359174674674869
1758274167816435200,6.494435302734375,1.4071253902614116,-3.18632526679337,2.6593799522846937
1758274167826394000,6.50439404296875,3.7802474375098942,-2.1070289783626794,3.5529154764339324
1758274167836352000,6.51435205078125,5.278046785908937,-0.8990449352204799,4.5524069912657135
1758274167846311200,6.524311279296875,5.156559756356478,0.605904869455099,4.208338117773831
1758274167856269000,6.53426904296875,5.157572148269415,2.5288784261494874,2.6195792722940445
1758274167866228200,6.544228271484375,5.7663815069943665,4.097907612025738,2.553952369390428
1758274167876186000,6.55418603515625,6.157122699812054,4.766458030486106,1.9017445984438062
1758274167886145000,6.56414501953125,6.038476446643472,4.99433798083365,0.8976444207727908
1758274167896103200,6.574103271484375,5.67579055096507,4.986707047563791,0.27727205002605915
1758274167906062000,6.58406201171875,4.991587220820784,4.517302652397752,0.1639952149361372
1758274167916020000,6.59402001953125,4.533201063275337,3.9567449911445376,0.41650574867129325
1758274167925977900,6.603977783203125,3.9530771162867544,3.5772815636664625,0.6436348806515335
1758274167935937000,6.61393701171875,2.9961463938087225,3.2686277024269104,0.499789888818562
1758274167945895000,6.62389501953125,1.4332903436094522,3.2100866661310192,0.17299188360124826
1758274167955853800,6.633853759765625,-0.07996727068424224,3.6336633761018513,-0.19474194311648607
1758274167965812000,6.64381201171875,-1.2329706003606318,4.291535748681426,-0.7555664386123419
1758274167975771000,6.65377099609375,-2.357183304360509,4.913914198553562,-1.2645067253530025
1758274167985729000,6.66372900390625,-3.4991561214566227,5.2956549233138555,-1.3412024270206688
1758274167995688000,6.67368798828125,-4.529348479500412,5.150784095564484,-1.4539695590227841
1758274168005646000,6.68364599609375,-4.591735669830441,4.537788975587487,-2.007873023083806
1758274168015605000,6.69360498046875,-3.086631551375985,3.8760394693136213,-2.2758006139203903
1758274168025563000,6.70356298828125,-0.49948973682820796,3.399114615514874,-1.8755594790905712
1758274168035522000,6.71352197265625,2.6669296370118856,2.9629046339422462,-0.9803288414612412
1758274168045480000,6.72347998046875,2.148768517461419,0.49158641635775563,-1.5700351480484007
1758274168055439000,6.733439208984375,-0.7538397609502077,-4.409913706302643,-5.1798050228655335
1758274168065397000,6.74339697265625,-0.2802104415655136,-7.111072945174574,-6.710202572530507
1758274168075356000,6.75335595703125,-3.6535534869641064,-9.177999045729637,-6.871165287902951
1758274168085314000,6.76331396484375,1.9105051202654837,-9.039600044342874,-0.821846544727683
1758274168095273000,6.77327294921875,8.038036399412155,-5.3900142919659615,5.292427193439006
1758274168105231000,6.783231201171875,5.964686403289437,-2.2076626049786805,1.922878864148259
1758274168115189000,6.79318896484375,2.6802818705379963,-0.0767272658497095,-2.7758164204493165
1758274168125148200,6.803148193359375,-0.629624183216691,1.0826397536396979,-5.248266564673185
1758274168135106000,6.81310595703125,0.8994640374153852,0.9134452164947986,-4.311462099900841
1758274168145065000,6.82306494140625,4.4977457190126175,-0.09474573762118815,-1.5990832556173205
1758274168155023000,6.833023193359375,5.3433776284754275,-1.2014321372807024,0.257376386205852
1758274168164982000,6.84298193359375,4.647983626753091,-2.1147294697374104,1.3914756934478878
1758274168174940200,6.852940185546875,3.552907000866532,-3.1161849781185387,2.351476324890554
1758274168184899000,6.862899169921875,2.949523758843541,-4.146273291265964,3.188649033565819
1758274168194857200,6.872857177734375,2.608356159751117,-4.465166222447157,4.410189016112685
1758274168204816100,6.882816162109375,2.0255451656356454,-4.607109180051088,4.392886875917017
1758274168214774000,6.89277392578125,1.522531346334517,-3.9585827279657124,3.8331332245230674
1758274168224733200,6.902733154296875,1.0346744718939065,-2.820258496505022,3.1289000827848907
1758274168234691000,6.912691162109375,1.0464692468449472,-1.574109850141406,2.500924835819006
1758274168244650200,6.922650146484375,1.308135731460154,-0.4327630559891462,1.684611375299096
1758274168254608000,6.93260791015625,1.3537582494720817,0.5138298123478889,0.8743411404661834
1758274168264567000,6.942567138671875,1.236151860745251,1.2687813339322804,0.3011211276471615
1758274168274525000,6.95252490234375,0.782638569933176,1.7844857079803942,-0.032372721946984526
1758274168284483000,6.962483154296875,0.38829321514368054,1.9445470905989408,0.07963175511956215
1758274168294442000,6.97244189453125,0.24647885235548017,1.364781455528736,-0.2406853636458516
1758274168304400000,6.98239990234375,0.3753568689420819,0.8205237716913223,-0.21316519629657268
1758274168314359000,6.992359130859375,0.7132368246659636,0.6301560981363058,0.37378012114465237
1758274168324317000,7.00231689453125,0.9805050748109817,0.3739829502403736,0.7246295946873724
1758274168334275800,7.01227587890625,0.8057986423768103,0.3683662794023752,1.0232964610502122
1758274168344234000,7.02223388671875,-0.021124621093273163,0.45981998974084853,1.2707578947022558
1758274168354193000,7.03219287109375,-0.5506042763851583,0.22889175773859022,0.46016456539481876
1758274168364151000,7.042151123046875,-1.0986214588865637,0.5851227781891822,0.34543446275666356
1758274168374110000,7.05210986328125,-1.3853589641332626,0.8560837453722954,0.12813128987252712
1758274168384068000,7.062068115234375,-1.236799218738079,1.1929951483249663,0.5976729746174066
1758274168394027000,7.072027099609375,-1.8268471783697604,1.2071616208434104,0.5774002941783517
1758274168403985000,7.08198486328125,-2.1498444761298594,1.3042816863805056,0.4593469654016196
1758274168413944000,7.091944091796875,-2.2962299462258815,1.887773648497462,1.2452321160405873
1758274168423902000,7.10190185546875,-2.5316180802464485,1.5603583881646395,1.6896965696088968
1758274168433860000,7.111860107421875,-2.1599720485210416,0.8823521590948105,1.089696321087703
1758274168443819000,7.121819091796875,-1.9053250872790812,0.7057967377930879,1.7701663829877972
1758274168453777200,7.131777099609375,-1.355104111123085,0.7828115884125232,2.5081600477695463
1758274168463736000,7.141736083984375,-0.7326596833426505,0.7579337522655725,2.9116087464690206
1758274168473694200,7.151694091796875,-0.6844061592400074,0.46493221818804736,3.0469203032344576
1758274168483653000,7.161653076171875,-0.16186930882334707,0.5488315676242113,3.231784703198075
1758274168493611000,7.171611083984375,0.379441252178885,0.45692485282123085,2.985651887801289
1758274168503570200,7.181570068359375,0.4904337391912937,0.266067349922657,2.624430219456553
1758274168513528000,7.191528076171875,0.06180385575043037,0.04273614892065525,2.1021176793150604
1758274168523487000,7.201487060546875,-0.9450479769825935,-0.34897593475580213,1.212942323136702
1758274168533445000,7.211445068359375,-2.4333599505901335,-0.7748597526252269,0.5105106047973037
1758274168543404000,7.221404052734375,-3.333621275863051,-0.918923940166831,0.49429582144692535
1758274168553362200,7.231362060546875,-3.035796851673722,-0.8903367281079292,1.0037591822136194
1758274168563321000,7.241321044921875,-2.717080446103215,-1.196455517911911,1.2619514879122375
1758274168573279200,7.251279296875,-2.8523019864976407,-1.3837456837177275,0.9429639372501522
1758274168583237000,7.261237060546875,-2.1064508862137794,-1.2209575064837932,0.782302762107551
1758274168593196000,7.271196044921875,-1.3283265788346528,-1.2517542112857103,0.6158448103196918
1758274168603154200,7.281154296875,-1.0402858820348977,-1.5338637644708155,0.2696617942180484
1758274168613113000,7.291113037109375,-0.8876543571561575,-1.7568980283528566,-0.27741927647702397
1758274168623071200,7.3010712890625,-0.9145400259941816,-1.5961638610392808,-0.9478409687019884
1758274168633030100,7.311030029296875,-0.9735282215356826,-1.351543788293004,-1.755901418530941
1758274168642988300,7.32098828125,-1.1393927374750374,-1.7821318383306264,-2.6686288421452042
1758274168652947200,7.330947265625,-2.1325854444235564,-3.003250672855973,-3.2464018420934675
1758274168662905300,7.3409052734375,-3.215302354952693,-4.473267111316323,-2.832285618907213
1758274168672864300,7.3508642578125,-3.4487276644676923,-5.695167451608181,-1.920821931618452
1758274168682822100,7.360822265625,-3.5354397332370278,-6.4059215195477,-0.9593696400627494
1758274168692780000,7.370780029296875,-3.5141526150584217,-6.619506987082958,-0.27494126899093385
1758274168702739000,7.380739013671875,-3.6345045031011103,-5.850047632196545,-0.1593222546890378
1758274168712697000,7.390697021484375,-4.295504652312398,-4.358716018506884,-0.7191599311046302
1758274168722656000,7.400656005859375,-4.849886255279183,-3.2352287061721086,-1.18396194704175
1758274168732614100,7.4106142578125,-4.4103298858881,-2.4867905120044944,-1.034114207662642
1758274168742573000,7.420572998046875,-3.5679683763980865,-2.0556056651175023,-0.3704807873383164
1758274168752531000,7.430531005859375,-2.8623171845555304,-1.6670213580727575,0.27621158118769523
1758274168762490000,7.440489990234375,-2.6733856812834738,-1.642945485958457,0.4989291803359985
1758274168772448000,7.450447998046875,-2.581796946388483,-1.8638509211182592,0.8890953497447073
1758274168782407200,7.4604072265625,-2.2939935654759407,-2.0772738915681837,1.343435739030689
1758274168792365000,7.470364990234375,-1.7959797464191913,-2.9657068318814037,1.2739926388397813
1758274168802324000,7.480323974609375,-1.5643782913304864,-3.7148996438086033,0.49180400463119145
1758274168812282000,7.4902822265625,-0.6224108908370137,-3.960942442834377,-0.8580605984032154
1758274168822240000,7.500239990234375,1.4657432911857962,-2.938860326009989,-0.04804506898373365
1758274168832199200,7.51019921875,2.834922981673479,-2.358236028283834,0.8395777239903807
1758274168842157000,7.520156982421875,3.2073037574142216,-2.7737311386078596,0.564488863222301
1758274168852116200,7.5301162109375,3.5170085890114304,-2.3188667254477737,0.27081892836391924
1758274168862074000,7.54007421875,3.752870770284533,-1.4203057743519545,0.39766427007913585
1758274168872033000,7.550032958984375,3.465626484559476,-1.108934470847249,0.6808491974107921
1758274168881991200,7.5599912109375,2.9473873313367367,-0.903791252964735,0.4910973176665604
1758274168891950000,7.5699501953125,2.75071617372334,-0.3155670016288757,-0.1520272753752768
1758274168901908200,7.579908203125,2.5683450518801805,0.02929506806731224,-0.5756368647024035
1758274168911867100,7.5898671875,2.1023680008143186,0.08292261335849761,-0.5586424752816558
1758274168921825300,7.5998251953125,1.3354425483196972,-0.11122574777901172,-0.6800508866399526
1758274168931783200,7.609783203125,1.7115671867638826,-0.27881752590239045,-0.5220832614302635
1758274168941742000,7.6197421875,2.093108005037904,0.4882330142766237,-0.7290957803159952
1758274168951700200,7.6297001953125,3.9060885706186292,0.7533236281216145,0.5444163815304637
1758274168961659100,7.6396591796875,4.597931601861119,0.2090554228901863,2.9185654337391256
1758274168971617300,7.6496171875,3.7257331725120544,-1.3026146299511194,3.0231887145131826
1758274168981576200,7.659576171875,3.9720980430990456,-1.655423859259486,2.805821390351653
1758274168991534300,7.669534423828125,4.227288025176525,-1.86776604873538,3.0950135952740907
1758274169001493200,7.6794931640625,4.475969356012344,-1.479375218436122,2.886700807444751
1758274169011451000,7.689450927734375,4.273613723021746,-0.5760995137780904,2.6954662879273292
1758274169021409000,7.699408935546875,4.232469811728596,0.3973848686158657,1.8324717402532695
1758274169031368000,7.709367919921875,4.695312364161015,1.750313973787427,1.9299650230169294
1758274169041326000,7.719326171875,4.073561690798401,3.544402207371592,1.199197217835486
1758274169051285000,7.729284912109375,4.050636742284894,5.0585570627659555,0.5589692230179906
1758274169061243100,7.7392431640625,3.9513796647191044,5.332700751638412,0.020273557221889494
1758274169071202000,7.7492021484375,3.333203927233815,4.817507249721884,-0.48556876350343225
1758274169081160200,7.75916015625,3.223433054438233,3.778696116414666,-0.5037207985267043
1758274169091119000,7.769119140625,3.526629234793782,2.9338644174188375,-0.40427725847810503
1758274169101077000,7.779076904296875,3.9313288103371855,2.380691021198034,-0.7311766782432794
1758274169111036200,7.7890361328125,4.140293632334471,2.029901899540424,-1.118542841669917
1758274169120994000,7.798994140625,4.008146677079797,1.9953350285500286,-1.1127020066872237
1758274169130952200,7.8089521484375,3.651799336773157,2.134351869574189,-0.40708763972371814
1758274169140911000,7.8189111328125,3.425109472993016,2.093992971178889,0.285877381286025
1758274169150869200,7.828869140625,3.08990487395823,2.0959446897685527,0.6338198813408613
1758274169160828200,7.838828125,2.2144261077642438,2.094545344364643,0.6610372663512826
1758274169170786000,7.8487861328125,1.046357895424962,2.045976836028695,0.43863399384915824
1758274169180745200,7.8587451171875,-0.2455845338642597,2.0571195768117905,-0.136579969266057
1758274169190703000,7.868703125,-1.5090110627651214,2.1680705993026494,-0.6769415224477648
1758274169200662000,7.878662109375,-2.6203677923232314,2.4500492195844648,-0.9285653364762664
1758274169210620200,7.8886201171875,-3.362621160376072,2.728606048724055,-0.9453107195720076
1758274169220578300,7.898578369140625,-3.273739930874109,2.740256739029288,-0.781944742450118
1758274169230537200,7.908537109375,-2.479924717888236,2.3983494274854658,-0.7053910796016454
1758274169240495000,7.9184951171875,-1.4523656309574842,2.0056284590274096,-0.3534896127879619
1758274169250454300,7.928454345703125,0.275507962962985,1.413120831283927,0.7693284219831228
1758274169260412200,7.938412109375,-0.07712532525658607,-0.3664057929843664,1.4130731927499174
1758274169270371000,7.94837109375,-1.6258271778970956,-3.808402103370428,0.010263327600061893
1758274169280329200,7.9583291015625,-0.5666963101387024,-6.747921185550093,-1.296177290380001
1758274169290288000,7.9682880859375,-2.05663500816524,-8.024015472844242,-3.7466321681559083
1758274169300246000,7.97824609375,-0.38566637377142904,-6.756704795986414,-5.503803168231249
1758274169310204000,7.988203857421875,-0.18564239859879017,-3.841031868818402,-2.9362118573278186
1758274169320163000,7.9981630859375,-0.5340075079798698,-1.5485890399158,-0.06853489930480718
1758274169330121000,8.008120849609375,1.0039058241426944,-0.03635024727582931,-0.39163258869946
1758274169340080000,8.018080078125,0.8601841664284468,1.169479832702875,-1.7492013363704084
1758274169350038000,8.0280380859375,0.5195809232205152,1.1110814197480678,-2.0498536774620413
1758274169359997000,8.037996826171875,2.0051783771723506,0.03935410526692867,-1.2083125444442033
1758274169369955000,8.047955078125,3.657019117248058,-0.6956827555358409,0.24458441691100596
1758274169379914000,8.0579140625,4.094168133236468,-1.0494646292686463,1.3398486743241547
1758274169389872000,8.0678720703125,3.8785646038770674,-1.2432768903195857,1.3923919315099715
1758274169399830000,8.077830078125,2.811699926996231,-1.440788005888462,0.9166533648863434
1758274169409789200,8.0877890625,1.5171142897218466,-1.736027674281597,0.6216660638190805
1758274169419747000,8.0977470703125,1.2567387217000126,-1.6285031191080808,1.1700221228860317
1758274169429706000,8.1077060546875,1.1245026268571614,-1.7184709748029707,0.967100818836689
1758274169439664000,8.1176640625,1.0352613318711519,-1.7629039907693862,0.5463328826762736
1758274169449623000,8.127623046875,1.3973849174916744,-1.6892074709177016,0.2590340902850032
1758274169459581200,8.137581298828126,1.7644757701307534,-1.4487223060190677,-0.18011545187085864
1758274169469540000,8.1475400390625,2.005537858134508,-0.9326122737795114,-0.41696211413666606
1758274169479498200,8.157498291015624,1.990875418792665,-0.4157897093564272,-0.564471181435138
1758274169489456000,8.1674560546875,1.5141092626869677,-0.23445056090950964,-1.1904555468447506
1758274169499415000,8.1774150390625,0.7704737926259636,-0.04313946902453899,-1.4063751564159988
1758274169509373200,8.187373291015625,0.539563096280396,0.38481297181248664,-0.7969428434871136
1758274169519332000,8.19733203125,1.3484469913214445,0.3316360928982496,0.04384381790161133
1758274169529290200,8.207290283203125,1.295222181612253,-0.11447510496377944,0.2724396614335477
1758274169539249200,8.217249267578126,1.2393053563401102,-0.14367080430984497,0.9584133622512221
1758274169549207300,8.227207275390626,1.3280509767636657,0.14830372480750084,1.6621848778270183
1758274169559165000,8.2371650390625,1.4252806401550768,0.4676636889785528,1.7427188424833118
1758274169569124000,8.2471240234375,1.0733002628862858,0.7234785249561071,1.8678338532745837
1758274169579082000,8.25708203125,0.6818130740068853,0.6330524040997028,2.128436946441978
1758274169589041200,8.267041259765625,0.024868922188133,0.5774146880298853,2.2269344378121194
1758274169598999300,8.276999267578125,-0.5731098304428159,0.46245910607278345,2.2457997356712815
1758274169608958200,8.286958251953125,-0.9268927270889281,0.3008107465237379,2.1391063706248996
1758274169618916400,8.296916259765625,-1.093318968564272,0.43633857638835905,1.353422587776929
1758274169628875300,8.306875244140626,-0.22808161039948463,0.9331938730597495,2.217857543517649
1758274169638833400,8.31683349609375,-0.44004203401617703,1.346648417466879,2.1307227192915974
1758274169648791300,8.326791259765624,-0.7462637727379798,1.656664214709401,1.2714765643656254
1758274169658750200,8.336750244140624,-0.5043569775383919,2.0288620350986717,0.5950057281695306
1758274169668708400,8.346708251953125,-0.6089536625664681,2.1441759289741515,0.4437885270681232
1758274169678667300,8.356667236328125,-0.7887550069868564,1.399329037296772,-0.1003567093707621
1758274169688625400,8.36662548828125,-1.1770248412549495,0.8998018910676241,-0.6035488809134811
1758274169698584300,8.376584228515625,-1.6886743869543075,0.6903636063396931,-0.4921818249676376
1758274169708542500,8.38654248046875,-1.8913854092538356,0.540872133052349,-0.13895546622574328
1758274169718500400,8.396500244140626,-2.033216138654947,0.5698825389593839,0.4061025742091238
1758274169728459300,8.406459228515626,-2.3057786958158015,0.21298691712021828,0.7067719395007938
1758274169738417400,8.41641748046875,-2.055838304829597,-0.16297580876052378,0.9494299183938651
1758274169748376300,8.426376220703125,-1.6040157435834408,-0.41626551017463204,1.3267963005274535
1758274169758334500,8.43633447265625,-1.572507675641775,-0.5869020628213882,1.489632700817287
1758274169768293400,8.44629345703125,-1.6381798789918423,-0.7009615727216005,1.5626960373319685
1758274169778251300,8.456251220703125,-1.7268495115697382,-0.7512520825445651,1.408303494130075
1758274169788210400,8.46621044921875,-1.796342149990797,-0.8715291517853736,1.1792345531936734
1758274169798168000,8.47616796875,-1.7903695053219795,-0.9803922620862722,1.1072153189044445
1758274169808126200,8.486126220703126,-1.5402210245430468,-1.503627616161108,1.6281375006660819
1758274169818085000,8.496085205078124,-1.1646733092039823,-2.516752519547939,1.8582237288862467
1758274169828043300,8.506043212890624,-1.5974562389373779,-3.2914678952664134,0.6951626771844923
1758274169838002200,8.516002197265625,-2.5296219379931686,-3.236617530182004,-0.9019949441324919
1758274169847960300,8.525960205078125,-3.2736247800618408,-2.848486812123656,-2.200503234743327
1758274169857919200,8.535919189453125,-4.058106347513198,-3.3520261166036125,-3.657131929972768
1758274169867877000,8.545877197265625,-5.121462139490246,-4.166935555544495,-3.891108735890686
1758274169877835300,8.555835205078125,-5.730642085093259,-4.878548870661854,-2.6152263377815483
1758274169887794200,8.565794189453126,-4.8195823024302715,-5.037526549696922,-0.9022107057750225
1758274169897752300,8.57575244140625,-3.3831963308930395,-5.2876335294216865,0.16111629849895834
1758274169907711200,8.585711181640624,-2.616992762932181,-5.723070773056149,0.5684058905355632
1758274169917669400,8.59566943359375,-2.446196051287651,-5.106552155128121,0.32464784144610165
1758274169927628300,8.605628173828125,-3.0746704799473283,-3.5147722082614896,-0.41872883154824375
1758274169937586400,8.61558642578125,-4.0142414868235585,-2.4387585947632786,-1.0292183984450995
1758274169947544300,8.62554443359375,-3.8732618212938306,-1.5231272664010524,0.24592837886586782
1758274169957503200,8.635503173828125,-3.2044740869462487,-0.7666875520855188,0.8824578114263713
1758274169967461400,8.64546142578125,-2.924801405519247,-0.5466647449791431,0.9917920463703572
1758274169977420300,8.655420166015626,-2.755018839353323,-0.9185936852991581,1.3566566012620924
1758274169987378400,8.66537841796875,-2.9314439122736453,-1.5614420917481182,1.2634376348167657
1758274169997337300,8.67533740234375,-2.861543277573585,-2.2847931909322736,0.3248521318465471
1758274170007295500,8.68529541015625,-2.4822844327569005,-2.637418880367279,-0.16198226767852902
1758274170017253400,8.69525341796875,-1.94292621139884,-2.6466660166621208,0.145762369761616
1758274170027212300,8.70521240234375,-0.9340566273689269,-2.444282326620817,0.5768284125745297
1758274170037170200,8.715170166015625,0.5792671840287744,-1.9690572624772786,1.1624462808042764
1758274170047129300,8.72512939453125,2.1734587220817803,-1.9005565577030181,1.3464680924639105
1758274170057087200,8.735087158203125,3.4072263180389997,-1.969478118237853,1.145675178745389
1758274170067046100,8.745046142578126,3.9733310920253393,-1.671632651260495,0.96697295467332
1758274170077004300,8.75500439453125,4.421466489191353,-1.2883528803646564,0.5232062741108239
1758274170086962200,8.764962158203126,4.7183825663641095,-0.6762532479226588,-0.1601217345036566
1758274170096921000,8.774921142578124,4.584206151108443,-0.22241934685409068,-1.0664981816560029
1758274170106879200,8.784879150390625,3.9776615224450826,0.30562136167585846,-1.2169196292698383
1758274170116838100,8.794838134765625,2.749199923941493,0.6034042848110198,-0.9128200703337788
1758274170126796300,8.80479638671875,1.66990772716403,0.08954057019352912,-1.3278519470602272
1758274170136755200,8.814755126953125,1.3145821311205625,-0.26307109071612356,-0.20226532435864208
1758274170146713300,8.82471337890625,0.7737392241626977,-1.450189455962181,0.7195794716909527
1758274170156671200,8.834671142578125,0.27246611104905605,-2.2296119864583015,0.46232612734287976
1758274170166630100,8.844630126953126,0.5111681919232011,-1.585230963614583,0.37327714005857704
1758274170176588300,8.85458837890625,1.6367670895844697,-1.693846821156144,1.0944365744173525
1758274170186547200,8.864547119140624,3.376065163838863,-2.968162992861867,1.0364666160076856
1758274170196505300,8.87450537109375,3.6307308297812937,-1.4570090728491545,0.1603092198997736
1758274170206464300,8.88446435546875,4.144015867727995,0.23250410301685331,0.9222913707733154
1758274170216422400,8.89442236328125,4.160123537442088,1.26040805786252,1.4279422605797647
1758274170226380300,8.90438037109375,5.31966825158596,0.8625900585263967,3.2664787076994775
1758274170236339500,8.91433935546875,5.985963000074029,0.8565700675845146,4.305839583843946
1758274170246297300,8.92429736328125,5.297506104138494,1.8395248736351728,3.7099379297479986
1758274170256256300,8.93425634765625,4.484408098533749,2.6326246318280697,3.1477804320827123
1758274170266214400,8.94421435546875,3.8637300228387117,3.1077836449980736,2.273013613550365
1758274170276172300,8.95417236328125,3.661048226633668,3.2761224420964714,0.9680041974171996
1758274170286131500,8.96413134765625,3.3233535643488166,3.2947546618521213,0.03756371471881866
1758274170296089000,8.974089111328125,3.4188930826961994,3.2722008847385644,-0.4685471938148141
1758274170306048500,8.984048583984375,3.6954450017541647,2.9473335553228854,-0.5508820704132318
1758274170316006100,8.994006103515625,3.8537919816702604,2.6177567330420017,-0.3389320951253176
1758274170325965000,9.003965087890625,3.73141063362658,2.3076357218593357,-0.23953005613088607
1758274170335923200,9.013923095703126,3.1767624886780976,2.051467250138521,-0.14643296249955892
1758274170345881300,9.02388134765625,2.2905045543164015,1.925931821978092,-0.1101002508804202
1758274170355840300,9.03384033203125,1.4641799873918293,1.9750234774053095,-0.08000555686801672
1758274170365798100,9.043798095703124,1.0770078852325677,2.106285466518998,-0.08833703962266444
1758274170375757300,9.05375732421875,0.9377502211898565,2.4486153873890637,0.030392800176143646
1758274170385715200,9.063715087890625,0.5814426283717156,2.7544021687597033,0.16979864051789045
1758274170395674000,9.073674072265625,-0.09409691832363605,3.0536323680937287,0.210728909060359
1758274170405632300,9.08363232421875,-0.9761392808169126,3.3122160842627286,0.12743074038773775
1758274170415590400,9.09359033203125,-2.224831181922555,3.4201720165908336,-0.05607698426991701
1758274170425549300,9.10354931640625,-3.294398688021302,3.2896897796779867,-0.3948854530155658
1758274170435507200,9.113507080078126,-3.8595541984587904,2.901975241205096,-0.9064809304401278
1758274170445466400,9.12346630859375,-4.381012605988979,2.3057576530277726,-1.3239236677005886
1758274170455424300,9.13342431640625,-4.1924101885408165,1.306266722717881,-0.9147054456889628
1758274170465383200,9.143383056640625,-3.3667227504760024,-1.4167752621382474,-1.009020682938397
1758274170475341300,9.15334130859375,2.7887241250783203,-4.775432779580354,-1.4981114830881357
1758274170485299500,9.163299560546875,3.871502410405874,-5.4802568729490035,-2.0797288835048673
1758274170495258400,9.17325830078125,1.4060270736306906,-4.963894327253103,-4.817399113172293
1758274170505216300,9.18321630859375,2.206718602126837,-3.7133857321143147,-5.968356616234779
1758274170515175400,9.193175537109376,-3.105387689772248,-3.1983015357911584,-4.512833690290153
1758274170525133300,9.20313330078125,-0.7066852110654115,-3.0682752259522674,-2.8987863820359108
1758274170535091500,9.213091552734374,3.161695852449536,-1.3849649963796138,-1.4620812615469096
1758274170545050400,9.22305029296875,2.4438357518970966,-0.6827969704777002,-1.1987746085092426
1758274170555008300,9.23300830078125,2.0256565170556304,-1.522667247673869,-1.1783546285539865
1758274170564967400,9.242967529296875,2.671455590003729,-2.3605858062803744,-0.963890916879475
1758274170574925300,9.25292529296875,3.2368560151129957,-2.792854356750846,-0.37527532813847064
1758274170584884000,9.262884033203125,3.9377018525004384,-2.7477438799142835,0.364535907459259
1758274170594841900,9.272841796875,3.475649573662877,-2.3176970971465107,0.7669481027178466
1758274170604800000,9.282800048828125,2.1832982713118194,-2.004379920271039,0.5831235671959817
1758274170614759000,9.292759033203126,1.2129504333779215,-1.618603071862459,0.3315723800122738
1758274170624717000,9.302717041015624,0.9946519658461213,-1.0398574274897574,1.0505471638083457
1758274170634676000,9.312676025390624,1.4005638397887348,-0.8001753956675529,1.1239404629297554
1758274170644634000,9.322634033203125,1.7808198789492249,-0.4410685275197029,1.205878156904131
1758274170654592000,9.332592041015625,1.795659428423643,0.0015028057783842085,1.3752289075240491
1758274170664551000,9.342551025390625,1.7425830872744321,0.26128128468990325,1.5564007365800439
1758274170674509000,9.352509033203125,1.8670809890806674,0.4457417800277471,1.8713111739963293
1758274170684468000,9.362468017578125,1.7349138678207991,0.44601124461889263,1.5751538062363861
1758274170694426000,9.372426025390626,1.6443620747581122,0.14757482601106167,1.3484303324475884
1758274170704385000,9.382385009765626,1.5849775733754037,-0.18397300408184528,1.271169398112595
1758274170714343200,9.39234326171875,1.6022987105324864,-0.3465373094320297,1.503489376734197
1758274170724301000,9.402301025390624,1.0399933288291097,-0.25196692837774753,1.7399492316395044
1758274170734260000,9.412260009765625,0.2952601266592741,-0.02760404624044895,2.0548384801372883
1758274170744217900,9.4222177734375,0.2013973093524575,0.047750762212276456,2.072529327389598
1758274170754177000,9.432177001953125,0.5721022608354688,0.1494073021352291,2.371240325155109
1758274170764135000,9.442135009765625,0.921930136245489,0.2688520122051239,2.5148662674099205
1758274170774092800,9.4520927734375,0.16010083784610032,0.11144611253142356,2.4768489637047053
1758274170784052000,9.462052001953126,-0.4690387767240405,-0.36964930495023723,2.077757729562372
1758274170794009900,9.472009765625,-0.338723274680227,-0.20094927332401274,1.7973561493389307
1758274170803969000,9.481968994140624,-0.1352817461490631,0.6410702908605337,1.0930576142143458
1758274170813927000,9.491927001953124,-0.215578833309561,1.2006161447227,0.29736995842009784
1758274170823885000,9.501885009765624,-0.25674291060790416,1.4886808069199322,-0.4461906197737902
1758274170833844000,9.511843994140625,-0.553301552645117,1.791304740345478,-1.2338719331145285
1758274170843801900,9.5218017578125,-0.5227659829974174,2.270491693857312,-1.2069713589683175
1758274170853761000,9.531760986328125,-0.24552841976284978,1.949820647087693,-1.0150913080889732
1758274170863719000,9.541718994140625,-0.420107572555542,1.2126830146133898,-1.2464835774064063
1758274170873678000,9.551677978515626,-0.8812216937601566,0.9646586863815784,-0.6996756976295262
1758274170883636000,9.561635986328126,-0.8798831386327743,0.5255366167545318,-0.3172862997021526
1758274170893594000,9.571593994140626,-0.9971896676301956,0.5698147344201803,0.00763451346643269
1758274170903553000,9.581552978515624,-1.061927951131016,0.7160387303441762,0.4852355860263109
1758274170913511000,9.591510986328124,-0.8623228589575738,0.7757727758169174,0.7119136132381856
1758274170923470000,9.601469970703125,-0.8091361162364482,0.735625474345684,0.7108132507808506
1758274170933428000,9.611427978515625,-0.8233998385842889,0.6296013868629932,0.7170115208990872
1758274170943386000,9.62138623046875,-0.4976304457623511,0.4805278467267751,1.1244843605481087
1758274170953345000,9.631344970703125,-0.10995207458138465,0.4029518550932407,1.4269053187474607
1758274170963303200,9.64130322265625,0.07363229550905526,0.3868313258975744,1.3169250409848987
1758274170973262000,9.651261962890626,-0.031954642665386196,0.3928296895295381,1.1368242752265185
1758274170983220200,9.66122021484375,-0.40203415572643275,0.5523305156558752,1.0322195530224592
1758274170993177900,9.671177734375,-1.0862976916253566,0.6509720916718245,0.773889738549292
1758274171003136800,9.68113671875,-1.7080314138531685,0.5420592970103025,0.649007586665824
1758274171013095000,9.691094970703125,-2.252300788128376,0.2802233010470867,0.5615612122725695
1758274171023053800,9.7010537109375,-2.7631261579632755,0.0010959785431623459,0.5184782226756215
1758274171033012000,9.711011962890625,-3.068306205612421,-0.08916004644334316,0.4934502374682575
1758274171042969900,9.720969970703125,-3.067272770911455,-0.12951017701029777,0.5978823065191508
1758274171052929000,9.730928955078125,-2.6097557974159717,-0.3098345954567194,0.9302427681691944
1758274171062887000,9.740886962890626,-1.7481962509810924,-0.8127402782082557,1.3456719736501574
1758274171072845800,9.750845703125,-0.8663327521860599,-1.4895102434813976,1.674376104749739
1758274171082804000,9.760803955078124,-0.13213935647010802,-2.027338186532259,1.634923799805343
1758274171092763000,9.770762939453125,0.24304418346537277,-2.4049545248389244,1.0533671896651386
1758274171102721000,9.780720947265625,0.16979776373505592,-2.9344167906045913,-0.1857899173106998
1758274171112679000,9.790678955078125,0.6043827744543552,-3.5020214477598666,-0.9117996412448585
1758274171122638000,9.80063818359375,0.47546179550886153,-3.729314538130164,-0.7050458463605493
1758274171132596000,9.810595947265625,0.0016682346063200384,-3.35383988802731,-0.07538812620043754
1758274171142555000,9.820554931640626,0.014900650278199463,-3.5544279268234966,-0.4039586940482259
1758274171152513000,9.830512939453126,-0.38896366175115105,-4.57946597084403,-1.3029998298764227
1758274171162471200,9.84047119140625,-1.436000771611929,-5.811454574429988,-1.7593183873675762
1758274171172430000,9.85043017578125,-2.114714272168279,-6.13281126537621,-1.242137072634697
1758274171182388000,9.860387939453124,-2.3562457312494516,-5.341566195139289,-0.3130933780569583
1758274171192347100,9.87034716796875,-2.9592133782088754,-4.130678247249127,0.4840543403524905
1758274171202305000,9.880304931640625,-3.138903590404987,-2.8021313036620614,0.9908211555115878
1758274171212263200,9.89026318359375,-2.6795278373003004,-1.807765461280942,0.8244692944467067
1758274171222222000,9.90022216796875,-2.5695108807891605,-1.260857555195689,0.45994778083898125
1758274171232180000,9.910179931640625,-2.257493096074462,-0.9481699083954095,-0.025868819945678113
1758274171242139100,9.92013916015625,-1.9530688352286814,-0.825776285392046,-0.13626900362074373
1758274171252096800,9.9300966796875,-1.937789433032274,-0.8211199840188026,-0.16069018204137683
1758274171262055000,9.940054931640624,-1.9432512055695055,-1.0188374358147383,-0.25216288934126496
1758274171272013800,9.950013916015624,-2.013658036226034,-1.0303758979171513,-0.27124299899488685
1758274171281972000,9.959971923828125,-2.3163491896688937,-0.7618570631891488,-0.3093358521543443
1758274171291931000,9.969930908203125,-2.322671378427744,-0.6202846924632788,0.6441564203076064
1758274171301889000,9.979888916015625,-1.6820410864196718,-0.6562742897331715,1.2559781125910578
1758274171311848000,9.989847900390625,-0.5979379822291433,-0.6223007084608078,1.6300927263870835
1758274171321806000,9.99980615234375,0.4080291583575308,-0.7107073061883449,1.6428475785419343
1758274171331764000,10.009763916015626,1.3510229792892932,-1.013408981025219,0.8967655921116471
1758274171341723000,10.019722900390626,2.5754841099798678,-1.0420394477039574,0.6592009908348322
1758274171351681000,10.029680908203124,3.401353626613319,-0.7002759285449981,0.8458382456898689
1758274171361640000,10.039639892578125,4.141634525549412,-0.47821314004361626,0.41313714902102944
1758274171371598000,10.04959814453125,4.602373675961792,-0.1464274095416069,-0.16938275319337845
1758274171381556000,10.059555908203125,4.76356903104633,0.18571546383500098,-1.0329958711571992
1758274171391515100,10.06951513671875,4.588924996323883,0.6178337921798229,-1.7553262489914894
1758274171401473000,10.07947314453125,4.327900024482608,1.0597563061803579,-2.6176450893610714
1758274171411432000,10.089431884765625,3.885948868909478,1.2087304775953291,-3.3356758703052996
1758274171421390000,10.09939013671875,3.072513594174385,1.1931968083769082,-3.6726489403173326
1758274171431348000,10.109347900390626,2.4706392954096197,1.6785130584239958,-3.3570600191175934
1758274171441307100,10.11930712890625,2.5028505431845782,2.0304881749957797,-2.4865233855009077
1758274171451265000,10.12926513671875,2.888150421731174,1.9905811120212078,-1.3643709750317037
1758274171461223000,10.139222900390624,3.3160061241954564,2.0645716463834045,-0.4351752316974103
1758274171471182000,10.14918212890625,3.5833880638480182,1.8714573044687508,-0.02978095188811421
1758274171481140000,10.159139892578125,3.6107647310733793,1.6004682802349328,0.4170679125986993
1758274171491099000,10.169098876953125,3.3295281613305208,1.3432827404260634,1.0610866780012846
1758274171501057000,10.17905712890625,2.8329604494288563,0.8460884210586548,1.0685239883951843
1758274171511016000,10.189015869140626,2.520650696030259,0.43879590641260147,0.7523096287734806
1758274171520973800,10.198973876953126,2.9664956441715358,0.9826835878938436,0.9137418613538145
1758274171530932000,10.208931884765626,3.62623381062299,1.9801064797580241,0.9239116654515266
1758274171540891000,10.218890869140624,3.9264524364724753,3.256511148175597,0.5475049951955676
1758274171550849000,10.22884912109375,3.7746670070290564,4.258901307058334,0.015326748469471931
1758274171560808000,10.238807861328125,3.687230423377454,4.630388348829746,-0.30008272451013324
1758274171570766000,10.24876611328125,3.585332475914061,4.445684692385792,-0.3231434282325208
1758274171580724000,10.258723876953125,3.4658535713136196,3.874721372452378,-0.08617810802310705
1758274171590683000,10.268682861328125,3.248825269848108,3.04956409574151,0.05111936186254024
1758274171600640800,10.278640869140625,2.79859991466552,2.3498411249041555,-0.17136150592043994
1758274171610599700,10.288599609375,2.307690666916966,1.72367614223063,-0.4134375932723284
1758274171620557800,10.298557861328124,1.7098457697987555,0.8515361650705338,-0.9452173422001302
1758274171630515700,10.308515625,1.1263082149744033,0.2675099499464035,-1.6491981166124343
1758274171640475000,10.318474853515625,1.3924024529039858,0.5746282721817493,-1.5506940493710337
1758274171650432800,10.328432861328125,1.6601488419547676,0.9430378062039613,-0.8313201832547783
1758274171660391700,10.3383916015625,1.215524960041046,0.7347334939420223,-0.5700125950798391
1758274171670349800,10.348349853515625,-0.20429040044546126,-0.24380992540717122,-0.7412778010189532
1758274171680308000,10.358307861328125,-1.4539470549300313,-3.3476328500807284,-2.538288059529662
1758274171690267000,10.368266845703126,-3.056515230053663,-6.814502904960513,-4.565099007317423
1758274171700224800,10.378224853515626,-6.027857437473535,-6.448204079481959,-3.544095041118562
1758274171710183000,10.388182861328126,-9.340663888844848,-3.838725345441699,1.1494425684548915
1758274171720141800,10.398141845703124,-7.255203768211603,-2.9556565625101325,4.899036070634424
1758274171730100000,10.408099853515624,-1.9765056787870823,-2.60867677000761,3.745657185643911
1758274171740059000,10.418058837890625,2.4812366772696373,-0.38345571198463435,3.3397695693597194
1758274171750017000,10.42801708984375,8.499136492091417,1.0713275015085935,3.0025004390105603
1758274171759975000,10.437974853515625,7.150934415441751,2.160234498849511,1.9573289768911897
1758274171769933800,10.447933837890625,2.6634178294986484,2.1372364850997925,1.2091297060459851
1758274171779892000,10.45789208984375,1.5694157009758054,3.0778654765963553,1.0873526075057685
1758274171789851000,10.467850830078126,0.10376344907432794,3.8490468329697847,0.7906811527438461
1758274171799809000,10.47780908203125,-2.834178593046963,3.067171648624539,-1.333989280771464
1758274171809766700,10.4877666015625,-3.640708618438244,0.5247533574223519,-2.734074835523963
1758274171819725800,10.497725830078124,-0.55903074394688,-1.4094833515644072,-1.7077306773409247
1758274171829683700,10.50768359375,2.6126374903321263,-1.1002338625192642,0.18793357827588913
1758274171839643000,10.517642822265625,2.747030763208866,-1.8974726202130316,0.5427098698735237
1758274171849600800,10.527600830078125,-0.21622180738821625,-3.9980788720518348,-0.12019421326294541
1758274171859559000,10.537558837890625,-2.3854420151174067,-2.5577491313248872,0.1373793029502034
1758274171869517800,10.547517822265625,-1.4137608827531336,1.362681268379092,1.2731615948431194
1758274171879475700,10.557475830078126,-1.4399521395862103,4.373795514217019,0.806684046909213
1758274171889435000,10.567434814453126,-2.8103321457743644,5.904606905379891,-1.5335133435979484
1758274171899392800,10.577392822265624,-0.7642857516407966,2.012940243345499,-4.0650270866870875
1758274171909351000,10.587350830078124,2.5374855109751224,-0.421722606536746,-4.895593528965115
1758274171919309800,10.597309814453125,4.195002543121576,1.1058119549125431,-4.402472158125042
1758274171929268000,10.60726806640625,1.6855483638882636,1.7925749064117669,-3.786855749733746
1758274171939227000,10.617226806640625,1.235609132170677,2.2067548424839973,-2.423466917607188
1758274171949184800,10.627184814453125,2.1654700614154336,2.3257862955778834,0.20172624904587863
1758274171959143000,10.637142822265625,2.049261264526844,0.9289660262316465,2.5965368348807094
1758274171969101800,10.647101806640626,-2.3443244073092937,-1.3274760994851589,1.3498581732936203
1758274171979060000,10.65706005859375,-2.5514111604750154,-3.7096085516631603,0.6708763771899044
1758274171989019000,10.667018798828124,0.9211888894241302,-3.586454465681314,1.857573302153498
1758274171998977000,10.67697705078125,-8.768899189400672,-5.244201214930415,6.279122355061769
1758274172008935000,10.686934814453124,4.712494969630241,-5.134745399433374,2.6910630845323205
1758274172018894000,10.69689404296875,-0.3746773622453213,-1.5825047535210848,0.6296916954949497
1758274172028851700,10.706851806640625,-7.593613885289431,-3.176998050999641,-1.9753467180103061
1758274172038809900,10.716809814453125,-3.7572593606323004,-6.913243265175819,-4.177764408072829
1758274172048768800,10.726768798828125,0.4688291525613516,-6.62886518253684,-3.4490082349747415
1758274172058727000,10.736726806640625,3.471101993361115,-3.8845623829871414,-1.0874693657532333
1758274172068685800,10.746685791015626,4.55085654695332,-3.4670080020457505,0.34127719694674014
1758274172078643700,10.756643798828126,3.599428513544798,-4.831125440707803,0.2724320626489818
1758274172088601900,10.766601806640624,2.1055162357121704,-4.208994243595003,-0.03980601375289261
1758274172098560800,10.776560791015624,1.446091957515478,-1.247909226295352,-0.33765725288391113
1758274172108519000,10.786518798828125,1.097121283456683,0.3057026102185249,-1.1275707091908902
1758274172118477800,10.796477783203125,0.8455874857991933,-1.6474141558051107,-2.158372650500387
1758274172128436000,10.80643603515625,1.3558353480070828,-4.413598532295227,-3.031401247063279
1758274172138393900,10.816393798828125,3.0524691695332526,-5.404125234904885,-2.816069228121638
1758274172148352800,10.826352783203125,5.350748449504375,-6.628414516159892,-1.355549809063971
1758274172158311000,10.836310791015626,2.533414900535345,-4.851904024842381,-0.5549300306297839
1758274172168269800,10.846269775390626,-2.3683844973325727,-4.2314153342396015,0.07246778177432715
1758274172178228000,10.85622802734375,-3.8204724803924557,-4.666178624135256,0.2526647013835609
1758274172188185900,10.866185791015624,0.2558276954591274,-4.991370947721601,2.211031204628944
1758274172198145000,10.87614501953125,0.21954992889761923,-5.0503638194382185,1.8898374491594732
1758274172208103000,10.88610302734375,0.4822901802241802,-4.161076892644167,2.3785431955143808
1758274172218061000,10.89606103515625,4.807769699561596,-3.8257472059249875,1.8036460432633756
1758274172228020000,10.90602001953125,1.900968645635247,-3.1474270886003968,1.1008595932021736
1758274172237977900,10.915977783203125,-7.099485967755317,-1.3880951110988855,0.2983960865974426
1758274172247937000,10.92593701171875,-4.055521007195114,-1.347153444379568,-1.242810441851616
1758274172257894700,10.935894775390626,-1.6664287990070878,-1.683011538887024,-2.3306109392553567
1758274172267852800,10.945852783203126,-6.562516102838516,-0.0696954675167799,-2.8770374915644523
1758274172277811700,10.955811767578124,-10.06709424934387,0.1127121869444847,-1.0916972125813365
1758274172287769900,10.965769775390624,-2.8147350569084284,-0.0846054518789053,1.643409888599813
1758274172297728800,10.975728759765625,1.1079647490322588,-0.6778250272840262,1.7727575685247778
1758274172307687000,10.98568701171875,-6.61907444088459,-0.9695148942410945,5.8140025053471325
1758274172317644800,10.995644775390625,-20.26219411635399,2.5554326710760593,13.543605992794037
1758274172327603700,11.005603759765625,-19.37856886858344,5.939399986341595,17.02328818297386
1758274172337561900,11.015561767578125,-10.757868190050125,5.544277217438816,16.909042210590837
1758274172347520800,11.025520751953126,-4.950028883507848,2.2282675861120222,13.928081110954285
1758274172357479000,11.03547900390625,-1.2663777799218892,-1.5074959820270537,8.219547981816529
1758274172367436800,11.045436767578124,0.6523205836713314,-3.535350301387906,3.0592279961436986
1758274172377396000,11.05539599609375,5.427270548170805,-3.5753345212519165,-0.05843289974629878
1758274172387353900,11.065353759765625,6.057756901174783,-2.339167170676589,-1.9174843116283415
1758274172397312000,11.07531201171875,6.333489320543408,-1.0227361968189477,-3.3512226912662384
1758274172407271000,11.08527099609375,4.3875715261131525,0.589757744513452,-4.168227641181647
1758274172417229000,11.09522900390625,1.5458172371149062,2.730197117307782,-4.885743458341062
1758274172427188000,11.10518798828125,-0.001985036337375641,5.081382058036327,-5.119613881275058
1758274172437145900,11.115145751953126,-0.3262999925673008,7.235247021853923,-4.764509819027781
1758274172447104000,11.12510400390625,-0.3849509189784527,8.159334043872356,-4.4755829870432615
1758274172457063000,11.13506298828125,-0.3940472486257553,8.462624332252144,-3.7582808126345273
1758274172467020800,11.145020751953124,-0.15585340953469276,7.082507944947481,-2.908300937095284
1758274172476980000,11.15497998046875,-0.25595745931863784,4.849640756085515,-2.0461942781716584
1758274172486937900,11.164937744140625,-0.5462228464305401,2.3183869791068137,-1.1538634536370633
1758274172496895700,11.174895751953125,-0.6676888331949711,-0.372192705822736,-0.2812180111728608
1758274172506854700,11.184854736328125,-0.009618307694792747,-2.5319237851947545,0.26746727984845636
1758274172516812800,11.194812744140625,1.0529308440744876,-4.323994541476667,0.3712678460627794
1758274172526771000,11.20477099609375,2.519555886530876,-5.412143706187606,0.352088806079328
1758274172536729900,11.214729736328126,3.9497997020512816,-6.652618983089924,-0.3023147213459015
1758274172546687700,11.224687744140626,4.8103702374488115,-8.298671202892065,-1.5920339216277002
1758274172556647000,11.23464697265625,4.534112917423248,-9.131728877463937,-3.1677418546155094
1758274172566604800,11.244604736328125,4.174189472195506,-9.900283392465115,-4.733231175927817
1758274172576563000,11.25456298828125,2.84042274813354,-10.052799182009696,-5.965946047961712
1758274172586521900,11.26452197265625,1.086940665704012,-9.351735902479291,-6.800173935356736
1758274172596480000,11.27447998046875,-1.9739421119093894,-7.942437844353914,-7.509625688526034
1758274172606437600,11.284437744140625,-4.924021166548132,-5.627689075618982,-7.221863808667659
1758274172616396500,11.294396484375,-6.37464609131813,-3.789606217485666,-5.848142675358057
1758274172626354700,11.304354736328126,-7.220472062048316,-3.082517101794481,-4.443073048582673
1758274172636313600,11.314313720703124,-7.657858686184882,-2.7761241712242364,-3.4066280598849055
1758274172646271700,11.324271728515624,-7.1267521603435275,-2.6960928953930736,-2.2922364926755425
1758274172656229600,11.334229736328124,-5.683177738606929,-2.619421451383829,-1.3224984572030603
1758274172666188800,11.344188720703125,-4.420398859959841,-2.8290333391129967,-0.6152087043732405
1758274172676146700,11.354146728515625,-3.7839024528861045,-2.4921692824333905,0.16112214371785522
1758274172686105900,11.36410595703125,-3.388197500181198,-2.133833690918982,0.8141865314938127
1758274172696063700,11.374063720703125,-2.8628374090373514,-1.9521619495168328,1.2232847803875804
1758274172706022000,11.38402197265625,-2.1933418186813594,-1.9846002840459345,1.2675447778746485
1758274172715980800,11.393980712890626,-1.694939877089858,-2.374187922914326,0.8641927444826811
1758274172725938700,11.403938720703126,-1.442031868469715,-2.7195374838665125,0.1625290879063308
1758274172735896800,11.413896728515626,5.471403119885921,-1.3333213183820247,4.247789838196337
1758274172745855700,11.423855712890624,17.09300644684434,0.2826014283552766,15.15468276080489
1758274172755814000,11.43381396484375,-0.814520731884241,-3.7044828792124984,3.2455478556126356
1758274172765772800,11.443772705078125,-1.879267685958743,-2.8954113526448606,1.061349493655935
1758274172775731000,11.45373095703125,-0.1260878013461828,-1.6514599240645764,1.874055212007463
1758274172785688800,11.463688720703125,-1.2865297565907239,-0.872852509343624,1.2971471583254635
1758274172795647700,11.473647705078125,-2.4365561162829397,-0.54296852080971,1.2793892371863127
1758274172805606000,11.48360595703125,-3.1822178314745426,0.19010522322654724,1.1872148113578558
1758274172815563800,11.493563720703126,-3.4268554398775097,0.6498284745946526,1.3709895163886248
1758274172825523000,11.50352294921875,-2.4043068745851515,0.009654840312898158,1.2636020315982401
1758274172835480600,11.51348046875,-0.5569722039818763,-1.4453954996839165,-0.3496966867784038
1758274172845439700,11.523439697265625,0.8308493508726358,-2.0599743817210197,-1.8002305357314645
1758274172855397600,11.533397705078125,-0.16367022076547144,-1.2885723683342336,-1.9139220891021191
1758274172865355800,11.543355712890625,1.6279928314983845,-1.6215522770568727,-0.21052427160004153
1758274172875314700,11.553314697265625,-0.06919570130109787,-1.661513116045296,0.40952560746036465
1758274172885272800,11.56327294921875,-1.0768968260735272,-1.068954342636466,0.5749265975411981
1758274172895230700,11.573230712890625,-0.7526648719519377,-0.2312956040099263,0.9225049404587596
1758274172905189600,11.583189697265626,-0.7866828768879175,0.00796644883453846,0.9996616107016801
1758274172915147800,11.593147705078126,-0.6020891105592251,-0.044055707086622715,1.017417486014217
1758274172925106700,11.603106689453124,-0.5512035574525594,-0.25014994208365676,0.9847979496993123
1758274172935064800,11.61306494140625,-0.8403823183715343,-0.47374651602357626,1.1943931785546242
1758274172945022700,11.623022705078125,-0.989064813363552,-0.24175182383358476,1.1935359772033989
1758274172954982000,11.63298193359375,-0.998015012538433,-0.054634384246170516,1.1432372110087423
1758274172964939800,11.642939697265625,-0.9020862026125193,-0.10980243697762489,0.908893471474573
1758274172974898000,11.65289794921875,-0.8106272315770388,-0.37928017986565826,0.8251541349057108
1758274172984856800,11.66285693359375,-0.6510410652548074,-0.5346835075452924,0.773688370758295
1758274172994815000,11.67281494140625,-0.6069751290351152,-0.4184758797004819,0.7837990650799125
1758274173004774000,11.68277392578125,-0.5939221707165241,-0.3184133309707045,0.8129581587426364
1758274173014731800,11.692731689453124,-0.618279197859764,-0.10693886424005031,0.8386006956517695
1758274173024689700,11.702689697265624,-0.6968728421032429,0.10774579670876264,0.6282614434961229
1758274173034648800,11.71264892578125,-0.7596814727157354,0.2089616071268916,0.2683791705289855
1758274173044606700,11.722606689453125,-0.795551827520132,0.2287079256042838,-0.035515020294394344
1758274173054564600,11.732564697265625,-0.7760334725797176,0.36014059510976076,-0.2456836833897978
1758274173064523800,11.742523681640625,-0.6153226861417294,0.328703546577692,-0.38710831620804964
1758274173074481700,11.752481689453125,-0.4965566059857607,0.2252434643641114,-0.355046084982343
1758274173084440800,11.76244091796875,-0.43476971963644023,0.050095864033699034,-0.19233743925802407
1758274173094398700,11.772398681640626,-0.12194178758263587,-0.1371194829702377,-0.03375880601052195
1758274173104356900,11.78235693359375,0.1949082395941019,-0.19504209510684012,0.14306765078492462
1758274173114315800,11.792315673828124,0.32339024260044097,-0.2314075399518013,0.2504657117682509
1758274173124273700,11.802273681640624,0.35602877587676046,-0.24815701470077037,0.26018439283128825
1758274173134231800,11.812231689453125,0.2599368843436241,-0.12784662771224975,0.15549772796481848
1758274173144190700,11.822190673828125,0.17279285389780996,-0.041249709755182266,0.07919477020809426
1758274173154148900,11.83214892578125,0.06179331609010696,0.11071107625514268,-0.02847913944139145
1758274173164107800,11.842107666015625,-0.17431494889855384,0.2763172335192561,-0.2777124324710108
1758274173174066000,11.85206591796875,-0.30705460934937,0.1619821215480566,-0.46217634360864757
1758274173184023800,11.86202392578125,-0.2644113994091749,0.027375205920636653,-0.4182831336073577
1758274173193982700,11.871982666015626,-0.19805062927305697,0.03316752558648586,-0.1852207025879994
1758274173203940900,11.88194091796875,-0.10159399608075619,-0.04001695308983326,0.07008222007835284
1758274173213899000,11.89189892578125,0.04522387408316135,-0.08902151475548743,0.270485093299672
1758274173223858000,11.90185791015625,0.13619067768752574,-0.23204145394116638,0.34408092925585804
1758274173233815600,11.911815673828125,0.21911796722114085,-0.3995627971768379,0.3352289297584444
1758274173243773700,11.921773681640625,0.35086277141571043,-0.31272973237633706,0.30112289947913956
1758274173253732600,11.931732666015625,0.6662783818751573,-0.34336598591953515,0.20228108818335458
1758274173263690800,11.941690673828125,0.8547025201469659,-0.6293772227182984,0.1335722114179749
1758274173273649700,11.951649658203126,1.0819985331267117,-0.7790054741278291,0.17224935813825576
1758274173283607800,11.96160791015625,1.0724714108467102,-0.6125143507227301,0.32160496661886573
1758274173293565700,11.971565673828126,2.0140268695384265,-0.4008218573272228,0.38429727737531066
1758274173303524600,11.981524658203124,0.8956891950517892,0.6944008990317583,-0.2615274780033156
1758274173313482800,11.991482666015624,-1.8604560179829597,0.9868626271441578,-0.8200919561453163
1758274173323441000,12.00144091796875,-1.334303315156698,0.6930930313035846,-1.5453442127756774
1758274173333399800,12.01139990234375,-1.6026783574998378,0.44145928040295834,-1.9211859426252542
1758274173343357700,12.021357666015625,-1.25371294413805,0.5209302920028567,-1.6355844556711614
1758274173353316900,12.03131689453125,-0.5583382316380738,0.284687586979568,-0.8926634905550629
