time,seconds_elapsed,z,y,x
1758274161373270300,0.051270263671875,7.446266438293456,2.96207636642456,0.7876923461914062
1758274161383229200,0.061229248046875,7.965957836151123,3.0892683296203614,1.0910077690124511
1758274161393187300,0.071187255859375,8.346486262512206,3.174262488555908,1.3403040168762206
1758274161403146200,0.081146240234375,8.125770796966552,2.7085902656555176,1.1763012031555176
1758274161413104400,0.0911044921875,7.8624086143493646,1.9798551353454588,-0.014664485168457031
1758274161423063300,0.101063232421875,7.414543266296386,1.0934019706726072,-0.9911994873046874
1758274161433021200,0.111021240234375,6.053289984893799,0.3511994560241699,-0.7573159126281738
1758274161442980400,0.12098046875,4.92876339263916,0.5922656356811523,0.4655225852966308
1758274161452939300,0.130939208984375,4.6441526702880855,1.0963947227478026,2.3968951370239258
1758274161462897400,0.1408974609375,4.924872814941406,2.6295816108703614,2.2691046234130856
1758274161472856300,0.150856201171875,4.799775778198242,3.3637036949157713,2.4015339027404785
1758274161482814200,0.160814208984375,5.159205302429199,3.3028011901855465,4.012981257629394
1758274161492773400,0.1707734375,6.0890533721923825,2.873790180206299,4.997297415161133
1758274161502731300,0.180731201171875,8.65683465270996,2.2943933784484862,4.971559747314453
1758274161512690400,0.1906904296875,10.711508589935303,1.9101240119934082,4.8241667076110835
1758274161522648300,0.2006484375,11.32562131576538,1.8101660926818846,4.198980799102783
1758274161532607200,0.210607177734375,9.533561373138427,2.5438392639160154,-1.5189713157653808
1758274161542566400,0.22056640625,5.833023432159424,4.795885200500488,-4.573374083709717
1758274161552524300,0.230524169921875,3.582024958801269,2.4091654205322266,4.018667486572266
1758274161562483200,0.240483154296875,4.843320320892333,-0.1632546257019043,1.4143746307373046
1758274161572441300,0.25044140625,6.400598863220215,-0.024091654205322263,2.417694763946533
1758274161582399200,0.260399169921875,6.337302156829834,0.7936778503417968,4.824465982818603
1758274161592357000,0.270357177734375,6.6240078056335445,1.7226280944824217,6.678326255798339
1758274161602316000,0.28031591796875,7.0269818725585935,2.008585555267334,8.151508464813231
1758274161612274200,0.290274169921875,7.783399959564209,2.1142297035217283,8.186074751281739
1758274161622233000,0.300233154296875,8.476072427368164,1.350928286743164,7.407809574127197
1758274161632192300,0.310192138671875,9.050680825805664,-0.2488473350524902,6.534374880981445
1758274161642150100,0.320150146484375,9.092728992462158,-1.0826280632019043,5.959766482543945
1758274161652109000,0.330109130859375,8.652495162200927,-0.8119336380004882,6.18631781463623
1758274161662067200,0.340067138671875,7.829937254333496,-0.23358429946899412,6.551433567810058
1758274161672026000,0.350026123046875,7.498789237213134,0.36750995483398435,7.132476383209228
1758274161681984300,0.359984375,7.668179004669189,0.902763663482666,7.480683087158202
1758274161691943200,0.369943115234375,7.9557824790954585,1.310077220916748,7.2249524223327635
1758274161701901300,0.3799013671875,8.91226604232788,0.9876081848144531,7.536797188568115
1758274161711860200,0.389860107421875,9.937283628082275,0.8016086433410644,8.021922299957275
1758274161721818000,0.399818115234375,10.468497121429444,0.9923965881347656,8.993369623565673
1758274161731777300,0.40977734375,10.99986025238037,1.3838485595703125,10.48974566116333
1758274161741736200,0.419736083984375,11.181669940948487,1.2033856094360351,10.860846918487548
1758274161751694000,0.429694091796875,11.5182049118042,0.24016835403442383,10.360458771514892
1758274161761653200,0.4396533203125,11.750592110443115,-0.6558616172790527,9.772382988739013
1758274161771611100,0.449611083984375,11.818377944946288,-1.2752116592407226,9.038560179901122
1758274161781570300,0.4595703125,11.79877541885376,-1.1682207725524902,9.73676923904419
1758274161791528200,0.469528076171875,10.68801548614502,0.05686228942871093,10.944344701385498
1758274161801487000,0.479487060546875,9.080608346557616,1.282693539428711,11.333252833557129
1758274161811445200,0.4894453125,7.963264359283447,1.4790180755615234,11.367519844818114
1758274161821404200,0.499404052734375,6.995707613372803,1.0532990928649901,11.251101789093017
1758274161831363300,0.50936328125,5.512649322509765,1.7220295440673827,10.06163247680664
1758274161841321200,0.5193212890625,4.17503878250122,1.4963760375976562,9.118765935516358
1758274161851280100,0.529280029296875,3.7837364486694334,-0.5380968231201172,10.750564004516601
1758274161861238300,0.53923828125,4.105457296752929,-0.34745851593017574,12.095207511901855
1758274161871197200,0.549197265625,3.540724980163574,1.2455834136962889,11.354202098083496
1758274161881155300,0.5591552734375,2.2034137153625486,1.0895113929748534,10.046369441223144
1758274161891114200,0.5691142578125,0.7761702507019043,-0.11716624374389648,9.903315892028807
1758274161901072400,0.579072265625,0.5409399375915527,-0.3597287994384765,9.954342314910889
1758274161911031300,0.58903125,1.5915455535888672,-0.13871405868530273,8.649053497314453
1758274161920989200,0.5989892578125,2.360682836914062,-0.5776011505126952,7.794922055053711
1758274161930948400,0.6089482421875,3.0241759719848633,-0.7344213592529296,9.847949978637695
1758274161940907300,0.6189072265625,2.5487773048400877,-0.1484405029296875,10.44380691680908
1758274161950865200,0.628865234375,0.4267664459228515,-0.5026327110290527,10.236558835601807
1758274161960824300,0.63882421875,0.1258452247619629,-1.7568951057434081,10.467150382995605
1758274161970782200,0.6487822265625,0.6123170745849609,-3.047818713378906,10.17625488128662
1758274161980741400,0.658741455078125,-0.303913973236084,-3.5218706420898434,10.741885023498535
1758274161990699300,0.66869921875,-0.7493851196289062,-3.614346681213379,11.78590658493042
1758274162000658200,0.678658203125,-0.5128080680847168,-3.7696705139160156,8.863184908294677
1758274162010616300,0.6886162109375,2.1308394775390624,-3.885490019226074,8.259546814727782
1758274162020575200,0.6985751953125,3.1830911071777344,-3.622576749420166,8.272116373443604
1758274162030533400,0.708533447265625,3.2775124351501463,-4.873397479248046,7.401375157165527
1758274162040492300,0.7184921875,3.3454479072570797,-6.54395168762207,6.842029794311523
1758274162050451200,0.728451171875,3.2713772933959957,-7.351096922302245,6.386832203674316
1758274162060409300,0.738409423828125,3.922001594543457,-8.027458891296387,5.9217585311889644
1758274162070368300,0.7483681640625,4.658368242645263,-8.515876029968261,5.039046306610107
1758274162080326400,0.758326416015625,4.655674765777587,-7.669525743103027,6.38473727722168
1758274162090285300,0.768285400390625,3.7989994842529295,-5.532102210998535,8.643367268371582
1758274162100243500,0.778243408203125,2.6910826660156246,-2.8757354690551757,10.4954318901062
1758274162110202400,0.788202392578125,3.7394437179565427,-1.8734627990722654,11.02529864501953
1758274162120160300,0.79816015625,-1.6011223602294922,-2.6218004554748533,9.121010499572753
1758274162130119400,0.808119384765625,-4.832546413421631,-2.789544209289551,8.728810340118407
1758274162140077300,0.818077392578125,-0.939125601196289,-3.2474352767944334,9.566631283569336
1758274162150036200,0.8280361328125,0.7987655288696288,-4.127005111694336,8.980949702453612
1758274162159994000,0.837994140625,-0.05401917495727539,-5.856965448760986,7.512705534362793
1758274162169953300,0.847953369140625,-1.815104133605957,-8.154501216888427,7.3180270118713375
1758274162179912400,0.857912353515625,0.20260931549072264,-9.132981507873534,7.970446964263916
1758274162189870300,0.867870361328125,3.7544074783325194,-7.482778013610839,5.800252796936035
1758274162199829200,0.877829345703125,4.313154290771484,-6.281337693023681,1.9571102195739745
1758274162209787100,0.887787109375,1.0633248123168946,-8.231414945220946,0.45340193939208984
1758274162219746300,0.897746337890625,-1.6314987937927246,-9.975291579437256,-0.9038111267089843
1758274162229704200,0.9077041015625,0.30885201416015623,-8.634239374542236,-0.7612064903259277
1758274162239663000,0.9176630859375,-0.14350246200561523,-7.905204969024657,-0.4364928901672363
1758274162249621200,0.927621337890625,-0.7721300354003906,-8.31835439300537,-0.3350385948181152
1758274162259580200,0.937580078125,-2.4040777420043944,-8.196250108337402,1.1555015762329102
1758274162269538000,0.9475380859375,-1.5671546241760252,-6.909965266418457,1.6424223388671875
1758274162279497200,0.957497314453125,4.295497053527832,-4.3254245742797846,1.2618939125061035
1758274162289456000,0.9674560546875,4.047098631286621,-4.551526993560791,0.9858125335693358
1758274162299414300,0.977414306640625,1.913416039276123,-7.491157719421386,0.28101941986083984
1758274162309373200,0.987373291015625,1.523310806274414,-8.773103070831299,0.1005564697265625
1758274162319331000,0.9973310546875,0.8369231178283691,-9.198373140716551,0.03441664886474609
1758274162329290200,1.007290283203125,0.3666121292114258,-9.330952057647705,-0.2075473564147949
1758274162339248000,1.017248046875,-0.4677671493530273,-9.019256929016112,-0.42931028518676756
1758274162349207000,1.02720703125,-1.2586018852233887,-7.975085729980468,-0.21742343826293944
1758274162359165200,1.037165283203125,-0.7410054138183594,-11.49890166091919,0.9100959060668945
1758274162369124000,1.0471240234375,-1.9713257919311522,-36.51890755996704,-3.31342546005249
1758274162379082200,1.057082275390625,-4.927267016601562,-54.19963790740967,-5.510255120849609
1758274162392776200,1.070776123046875,0.7390601249694824,-18.708740685272215,13.540557126617431
1758274162402734300,1.080734375,5.859958200836181,-7.810334728240966,14.363115034484862
1758274162412693200,1.090693359375,4.631583111572265,-6.42888037033081,4.339490509033203
1758274162422651400,1.1006513671875,3.030460751342773,-6.216694248199462,-2.3223756103515623
1758274162432610300,1.1106103515625,0.5211877738952636,-6.611438246917724,-5.739799205017089
1758274162442569200,1.1205693359375,-1.8972551780700682,-5.622333686065674,-7.857320935821533
1758274162452527400,1.13052734375,-1.469740544128418,-3.8262335281372066,-9.97933179473877
1758274162462486300,1.140486328125,-0.4665700485229492,-5.673060833740234,-11.211447824096679
1758274162472444400,1.1504443359375,-0.6259340965270995,-7.958775231170653,-8.614636848449706
1758274162482403300,1.1604033203125,-0.8271966735839843,-9.29518867034912,-4.183867401123047
1758274162492361200,1.170361328125,-0.41374797439575195,-10.411485194396972,-1.5664064361572265
1758274162502320400,1.1803203125,0.4578910675048828,-10.873715752410888,0.049829322052001954
1758274162512278300,1.1902783203125,0.8203133438110352,-10.595539447021483,1.0881646545410155
1758274162522237200,1.2002373046875,0.7287351303100585,-10.24673419265747,0.8951321456909179
1758274162532195300,1.2101953125,0.08813654861450194,-10.167875175476073,-0.07317278823852538
1758274162542154200,1.220154296875,-0.4869207626342773,-10.437372499847411,-1.0678139404296874
1758274162552112400,1.2301123046875,-0.4800374328613281,-9.950152462005615,-1.3479355346679687
1758274162562071300,1.2400712890625,-0.42272623062133785,-8.80946500854492,-1.4490905548095703
1758274162572029400,1.250029541015625,-0.15472528228759766,-9.03407105178833,-2.0335750350952146
1758274162581988400,1.25998828125,0.05716156463623046,-9.559897591400146,-2.2348376121520994
1758274162591947300,1.269947265625,-0.2127846725463867,-9.778667768096923,-2.503137835693359
1758274162601905400,1.279905517578125,-0.2410661796569824,-9.685443540954589,-2.9123966819763183
1758274162611864300,1.2898642578125,0.05731120223999023,-9.45530090637207,-3.0967502098083495
1758274162621822500,1.299822509765625,0.4171896392822265,-9.245508985900878,-3.09645093460083
1758274162631781400,1.309781494140625,0.5346551582336425,-9.217526753997802,-3.1458313438415524
1758274162641739300,1.3197392578125,0.4282628219604492,-9.372700949096679,-3.3446997192382812
1758274162651698400,1.329698486328125,0.24316110610961914,-9.411606726074218,-3.6035727737426755
1758274162661656300,1.33965625,0.24480711975097655,-8.67598826599121,-3.406649687194824
1758274162671615500,1.349615478515625,0.36631285400390623,-8.879495407104491,-2.7729344352722167
1758274162681573400,1.359573486328125,0.0430956298828125,-10.00402199935913,0.7805097412109374
1758274162691532300,1.3695322265625,-0.31977555923461914,-11.693729821014404,-0.2814683326721191
1758274162701490200,1.379490234375,-0.1696890426635742,-13.486388314056395,-2.51555775680542
1758274162711449300,1.389449462890625,-0.1183633445739746,-13.488632878112792,-3.0144495277404784
1758274162721407200,1.3994072265625,-1.3334206871032714,-12.698695967864989,-3.430292428588867
1758274162731366400,1.409366455078125,-2.680608033752441,-11.831097141265868,-2.2774843292236326
1758274162741324300,1.41932421875,-2.5184008712768553,-10.77675058517456,-1.272368544769287
1758274162751283200,1.429283203125,-0.4438251327514648,-6.71633420715332,-1.2152069801330565
1758274162761242400,1.439242431640625,4.610783484649658,-2.3868694175720213,-2.9939491760253905
1758274162771200300,1.4492001953125,8.914211331176757,-2.133233679199219,-6.169259127807617
1758274162781159400,1.459159423828125,9.738714527893066,-3.2632968627929686,-8.175151206207275
1758274162791117300,1.469117431640625,6.094739601135253,-4.243722442626953,-8.153304116058349
1758274162801076200,1.479076171875,4.431816910552978,-5.231480265045166,-6.67189183883667
1758274162811034000,1.4890341796875,4.266317720794677,-7.697358337402343,-4.772092821502685
1758274162820993300,1.4989931640625,-0.5975029518127442,-8.93216784362793,-2.750339157104492
1758274162830951200,1.508951171875,-5.691765534210205,-10.745476325988768,-2.4549545272827147
1758274162840910000,1.51891015625,-6.8679170997619625,-12.830825971984863,-2.123656872558594
1758274162850868200,1.5288681640625,-4.414309310913086,-13.729998332977294,-0.17552490921020505
1758274162860827100,1.5388271484375,-1.4041992736816404,-12.529755113220213,2.281075631713867
1758274162870785300,1.548785400390625,0.28655601119995117,-10.739490821838379,2.703203311920166
1758274162880744200,1.558744140625,0.4520552009582519,-9.230096312713622,1.3328221366882322
1758274162890702300,1.568702392578125,0.6536170532226562,-8.15928962020874,0.022146365356445312
1758274162900661200,1.5786611328125,1.0823287879943848,-8.358756546020507,-1.083376251220703
1758274162910619100,1.588619140625,1.2820949890136717,-9.507674067687988,-2.1767782218933105
1758274162920578300,1.598578369140625,0.46731823654174803,-10.505008696746826,-2.8631659103393554
1758274162930537200,1.608537109375,-0.17776947326660156,-8.710554552459715,-2.3427263244628906
1758274162940495400,1.618495361328125,-0.4939537300109863,6.892607304382324,-3.3910873764038083
1758274162950454300,1.628454345703125,-0.3360860580444336,-3.2207997833251953,-12.862848419189453
1758274162960412200,1.638412109375,2.2610241928100585,-18.06769319076538,-11.533467947387695
1758274162970371300,1.648371337890625,1.8647838180541991,-14.323161794281004,-1.4061445625305176
1758274162980329200,1.6583291015625,0.1671452033996582,-11.56174945449829,2.191592344665527
1758274162990288400,1.668288330078125,0.1497872413635254,-11.250503238677977,3.1578023521423337
1758274163000246300,1.678246337890625,0.7574655502319335,-10.941651224517821,3.1836896575927733
1758274163010205200,1.688205078125,-0.1927332336425781,-11.799972519683838,2.4961048683166505
1758274163020163300,1.698163330078125,-0.8999205490112304,-11.456703856658935,2.04300220413208
1758274163030122200,1.708122314453125,0.5201403106689453,-9.599252281188964,1.002871220397949
1758274163040080400,1.718080322265625,1.3420996681213377,-8.889970039367675,-0.2991255699157715
1758274163050039300,1.728039306640625,1.1420341918945311,-9.32077670059204,-0.9398737892150878
1758274163059997400,1.73799755859375,0.9763853645324706,-9.632471829223633,-1.006761798095703
1758274163069956400,1.747956298828125,1.0205284576416016,-10.011952792358398,-0.5416881256103515
1758274163079914200,1.757914306640625,-0.12913725204467771,-9.88281554031372,0.20560206756591795
1758274163089873400,1.767873291015625,-0.7068880401611328,-9.60838017501831,0.42586862030029293
1758274163099832300,1.777832275390625,-0.4132990615844726,-9.629179801940918,0.6144120010375976
1758274163109790200,1.787790283203125,-0.08589198455810547,-8.686013985443115,0.9861118087768554
1758274163119749400,1.797749267578125,1.2424410240173338,-8.72821178970337,1.2714707191467285
1758274163129707300,1.807707275390625,1.000477018737793,-10.889726976013183,1.4199112220764158
1758274163139666400,1.81766650390625,-0.5282207412719726,-8.828169709014892,1.4661492416381836
1758274163149624300,1.827624267578125,1.648557480621338,-9.005041356658936,0.9949404273986816
1758274163159583200,1.837583251953125,1.401954709625244,-9.801113408660887,1.346439158630371
1758274163169541400,1.847541259765625,0.09367313995361327,-11.053131239318848,1.87061968460083
1758274163179500300,1.857500244140625,-0.8138789268493651,-10.519822819519042,2.3740005836486815
1758274163189458400,1.86745849609375,0.26171616897583005,-10.327688136291503,2.2092495819091797
1758274163199417300,1.877417236328125,0.08394669570922851,-10.16353568496704,2.1046528968811034
1758274163209375500,1.88737548828125,-1.250072541809082,-10.419565624999999,1.5189713157653808
1758274163219334400,1.89733447265625,-1.2883797683715819,-10.88568676071167,1.1578957778930663
1758274163229292300,1.907292236328125,-0.7966706024169922,-10.653149924468993,1.7989432723999021
1758274163239251500,1.91725146484375,-0.28924948806762696,-10.631901384735107,2.070984436035156
1758274163249209000,1.927208984375,-0.18734627990722655,-10.660482167053223,1.8792986656188964
1758274163259168500,1.93716845703125,-0.36586394119262694,-10.877755967712401,1.9402011703491209
1758274163269127400,1.94712744140625,-0.6193500419616699,-11.087547888183593,1.988085203552246
1758274163279085300,1.957085205078125,-0.748936206817627,-10.683077445220947,2.187402491760254
1758274163289044500,1.96704443359375,-0.06389525680541992,-9.140912300872802,2.441337505340576
1758274163299002000,1.977002197265625,1.1643301948547362,-7.484274389648437,2.7187656227111816
1758274163308961300,1.986961181640625,1.4707880073547361,-7.580940281677246,2.311900978088379
1758274163318919200,1.996919189453125,1.275510934448242,-8.309226499176026,1.520168416595459
1758274163328878000,2.006878173828125,0.8370727554321289,-9.151386933135985,0.9259574920654297
1758274163338836200,2.016836181640625,0.0522235237121582,-9.586233809661865,0.7879916213989258
1758274163348795100,2.026795166015625,-0.3538929328918457,-9.830741654205323,1.0396820709228516
1758274163358753300,2.036753173828125,-0.33309330596923825,-9.751433724212646,1.5981296081542968
1758274163368712200,2.046712158203125,-0.5433341392517089,-9.975590854644775,1.9026421318054199
1758274163378670300,2.05667041015625,-0.5099649536132812,-9.979930345153807,2.609230896759033
1758274163388629200,2.066629150390625,-0.4391863670349121,-10.077643700408935,2.9888614974975583
1758274163398587100,2.076587158203125,-0.23403321228027343,-9.964517671966552,3.39003991317749
1758274163408546300,2.08654638671875,0.1623568000793457,-9.82460651245117,3.305943579864502
1758274163418504200,2.096504150390625,0.6257844589233398,-9.738115977478026,2.9605799903869627
1758274163428463000,2.106463134765625,0.8149263900756836,-9.647136314392089,2.081758343505859
1758274163438422300,2.11642236328125,0.7854477821350098,-9.523535653686523,1.0223241088867188
1758274163448380200,2.126380126953125,0.33803134689331055,-9.597306992340087,0.4492120864868164
1758274163458339300,2.13633935546875,0.13512275619506836,-9.698910925292969,0.3534440200805664
1758274163468297200,2.146297119140625,0.3537432952880859,-9.880720613861083,0.2454056701660156
1758274163478256000,2.156256103515625,0.5134066184997559,-9.796624280548095,0.4632780212402344
1758274163488214300,2.16621435546875,0.527322915649414,-9.7423058303833,0.9790788414001464
1758274163498173200,2.176173095703125,0.32576106338500976,-9.763105457305908,1.413476805114746
1758274163508131300,2.18613134765625,0.229843359375,-9.663297175598144,1.8300678939819335
1758274163518090200,2.19609033203125,0.22206220397949217,-9.58309141998291,2.1185691940307616
1758274163528048400,2.20604833984375,0.1836053398132324,-9.553163899230956,2.3693618179321287
1758274163538007300,2.21600732421875,-0.006284779357910156,-9.453654892730713,2.490568276977539
1758274163547965200,2.225965087890625,-0.24136545486450195,-9.425672660827637,2.4842834976196286
1758274163557924400,2.23592431640625,-0.3419219245910644,-9.486126252746581,2.5917232971191404
1758274163567882200,2.24588232421875,-0.34311902542114253,-9.56348889389038,2.504634211730957
1758274163577841400,2.25584130859375,-0.5686228942871093,-9.661950437164306,2.276586503601074
1758274163587800800,2.26580078125,-0.9431658164978027,-9.572766425323486,2.2143372604370115
1758274163597758700,2.2757587890625,-1.0178349807739258,-9.508721530914306,2.2450129692077634
1758274163607717600,2.285717529296875,-0.6133645378112793,-9.326762204742431,2.2762872283935547
1758274163617675800,2.29567578125,-0.42227731781005856,-9.002796792602538,2.2809259941101074
1758274163627634700,2.305634765625,-0.5059247383117675,-8.939948999023438,2.194884371948242
1758274163637592800,2.3155927734375,-1.1640309196472167,-9.057264880371093,1.795202332305908
1758274163647551700,2.3255517578125,-1.5406687683105469,-9.01491743850708,1.9409493583679198
1758274163657510000,2.335510009765625,-1.2057798110961913,-8.888024750518799,2.328959664916992
1758274163667468800,2.34546875,-0.9668085578918456,-8.801085302734375,2.4178444015502927
1758274163677426700,2.3554267578125,-1.0541969184875488,-8.719832083892822,2.514809568786621
1758274163687385900,2.3653857421875,-1.2392986343383787,-8.770110318756103,2.591424021911621
1758274163697343700,2.37534375,-1.197699380493164,-8.84837078552246,2.7349264839172363
1758274163707303000,2.385302978515625,-1.1267711563110352,-8.922890312194824,3.011307138061523
1758274163717260800,2.3952607421875,-1.009455274963379,-9.01461816329956,3.209277687835693
1758274163727219700,2.4052197265625,-0.9069535163879394,-9.061454733276367,3.2326211540222167
1758274163737177900,2.415177734375,-0.8447042732238769,-9.006986645507812,3.1569045265197753
1758274163747136800,2.42513671875,-0.8976759849548339,-9.112181880950928,3.003974895477295
1758274163757096000,2.435095947265625,-0.8991723609924316,-9.473407056427002,2.8540380165100094
1758274163767053800,2.4450537109375,-1.044470474243164,-9.809343476867674,2.5790041007995606
1758274163777012700,2.4550126953125,-1.20024321975708,-9.968258612060547,2.287360411071777
1758274163786971000,2.464970947265625,-0.9096469932556152,-10.038139373016357,2.2213702278137206
1758274163796929800,2.4749296875,-0.716913759613037,-10.352527978515624,2.0465935066223144
1758274163806888000,2.484887939453125,-0.5542576843261718,-10.869675537109375,1.7955016075134276
1758274163816846800,2.494846923828125,-0.5648819541931152,-11.473612905883789,1.556530354309082
1758274163826805000,2.504804931640625,-0.9114426445007323,-12.44296530303955,1.298555125427246
1758274163836764000,2.514763916015625,-1.41093296585083,-13.85404790649414,1.2726678199768067
1758274163846721800,2.5247216796875,-1.7233762825012207,-14.993987171936034,1.8677765701293945
1758274163856681000,2.534680908203125,-1.690007096862793,-15.381997478485106,2.9034184257507323
1758274163866638800,2.544638916015625,-1.3524246627807617,-15.269170725250243,4.037372187042236
1758274163876597800,2.55459765625,-1.3660416847229002,-15.15619433441162,4.747103341674804
1758274163886555600,2.5645556640625,-1.9707272415161132,-15.637279230499267,5.037998843383789
1758274163896514800,2.574514892578125,-3.1830911071777344,-16.307805332946778,4.873098204040527
1758274163906474000,2.584473876953125,-4.397400261688232,-16.12001014022827,4.222473902893066
1758274163916431600,2.594431640625,-4.414458948516845,-15.018677376556395,2.683151873016357
1758274163926390800,2.604390869140625,-3.8283284545898435,-13.819032707214355,2.032677209472656
1758274163936348700,2.6143486328125,-2.6179098777770995,-12.69854633026123,2.5438392639160154
1758274163946307800,2.624307861328125,-1.4348749824523925,-11.763909857177733,2.6134207496643067
1758274163956265700,2.634265625,-1.0046668716430665,-11.146205828857422,2.020855838775635
1758274163966224600,2.644224609375,-0.7191583236694336,-10.541220996856689,1.4757260482788086
1758274163976182800,2.654182861328125,-0.8038532073974609,-10.620379289245605,1.1526584617614746
1758274163986141700,2.6641416015625,-1.1797428680419921,-11.445780311584471,0.9986813674926758
1758274163996099600,2.674099609375,-1.885882720184326,-12.593201457214354,1.043273373413086
1758274164006058800,2.684058837890625,-2.63032979888916,-13.019369352722167,1.0899603057861327
1758274164016016600,2.6940166015625,-2.5918729347229004,-12.676100689697265,1.1602899795532227
1758274164025975800,2.703975830078125,-1.944091748046875,-12.18154840927124,1.1908160507202148
1758274164035933700,2.71393359375,-1.0160393295288086,-11.844564525604248,1.0851719024658202
1758274164045892600,2.723892578125,-0.48332946014404293,-11.836783370208739,0.5804442649841308
1758274164055851800,2.733851806640625,-0.650624301147461,-12.136208215332031,0.014514847564697266
1758274164065809700,2.7438095703125,-0.2888005752563476,-11.877784073638916,0.2510918991088867
1758274164075768800,2.753768798828125,0.41539398803710936,-12.165237910461425,-0.37334582138061523
1758274164085726700,2.763726806640625,-0.042646717071533204,-11.98971300125122,-0.46372693405151366
1758274164095685600,2.773685546875,-1.0079588989257813,-10.897807406616211,-0.19153613281249998
1758274164105643800,2.783643798828125,-1.4802151763916014,-9.962273107910155,0.04234744186401367
1758274164115602700,2.793602783203125,-1.748665037536621,-9.561842880249023,-0.6708253776550293
1758274164125560800,2.803560791015625,-1.9672855766296387,-9.342174877929686,-1.2735656455993651
1758274164135519700,2.813519775390625,-1.8570026626586913,-8.885929824066162,-1.4752771354675291
1758274164145478000,2.823477783203125,-1.7755998062133789,-8.397213410186767,-1.149815347290039
1758274164155436800,2.833436767578125,-1.7642273483276367,-8.250418920898436,-1.1985972061157226
1758274164165394700,2.843394775390625,-1.3531728507995604,-8.200140686035155,-0.48228199691772455
1758274164175353900,2.853353759765625,-1.2874819427490234,-8.207472928619385,0.08394669570922851
1758274164185311700,2.863311767578125,-1.4125789794921875,-7.980173408508301,-0.4688146125793457
1758274164195270700,2.873270751953125,-1.7676690132141113,-7.651569230651855,-0.7502829452514648
1758274164205228800,2.883228759765625,-1.688660358428955,-7.7121724601745605,-0.8837596878051758
1758274164215187700,2.893187744140625,-1.5547347030639647,-7.983016522979736,0.41539398803710936
1758274164225147000,2.90314697265625,-1.6130933685302733,-8.189516416168212,1.0758943710327147
1758274164235104800,2.913104736328125,-1.5994763465881348,-8.15300484085083,0.7206546997070312
1758274164245063700,2.923063720703125,-1.5363292778015136,-7.614608742523193,0.9172785110473632
1758274164255021800,2.933021728515625,-1.1674725845336913,-6.857442467498779,0.7658452560424804
1758274164264980700,2.942980712890625,-1.6404770500183103,-5.940762506866455,-0.8882488159179687
1758274164274939000,2.95293896484375,-1.8388965126037597,-4.473116889190673,-1.4751274978637694
1758274164284897800,2.962897705078125,-2.9300539192199704,-3.3583167411804196,-1.497124225616455
1758274164294856000,2.97285595703125,-3.9296331123352046,-3.1063270164489745,-2.4568998161315916
1758274164304814800,2.98281494140625,-4.457853853607178,-3.430292428588867,-3.630208267211914
1758274164314772700,2.992772705078125,-4.513070129394531,-4.131194964599609,-3.876511763000488
1758274164324732000,3.00273193359375,-3.751863639068603,-5.007023859405518,-3.4816181266784665
1758274164334689800,3.012689697265625,-2.8981811096191405,-5.417928719329834,-3.136553812408447
1758274164344649000,3.02264892578125,-2.4965537811279295,-5.201103831481933,-2.762010890197754
1758274164354606800,3.03260693359375,-2.6626515213012696,-4.3339539176940916,-2.3958476737976073
1758274164364565800,3.042565673828125,-3.046471974945068,-3.442263436889648,-2.0120272201538083
1758274164374524000,3.05252392578125,-3.901950155639648,-3.088669779205322,-1.989282304382324
1758274164384482800,3.06248291015625,-4.865466686248779,-3.3565210899353026,-2.1868039413452145
1758274164394441700,3.072441650390625,-5.330241083526611,-3.960757733917236,-2.5941174987792968
1758274164404399900,3.08239990234375,-5.626523538970947,-4.2788872795104975,-2.4537574264526367
1758274164414358800,3.09235888671875,-5.904849481964111,-4.078372890472412,-2.2102970451354977
1758274164424317000,3.10231689453125,-6.46105245513916,-3.6227263870239255,-2.5279776779174803
1758274164434275800,3.11227587890625,-7.870788320159912,-3.420715621948242,-3.3327287109375
1758274164444234000,3.12223388671875,-9.50587841644287,-3.4644098022460934,-4.069394634246826
1758274164454193000,3.13219287109375,-10.798747312927246,-3.741837919616699,-4.44962378540039
1758274164464150800,3.14215087890625,-11.15338843383789,-4.241028965759277,-4.4568063903808595
1758274164474110000,3.15210986328125,-10.33546929168701,-5.249736052703857,-4.507084625244141
1758274164484067600,3.162067626953125,-8.520215520477294,-6.506093373870849,-4.054430873870849
1758274164494027000,3.172027099609375,-8.598625624847411,-9.325864379119873,-3.051110740661621
1758274164503984600,3.181984619140625,-5.957821193695068,-13.533973072052001,-3.5435680946350097
1758274164513943600,3.191943603515625,-6.233004747009277,-15.040374829101562,-4.70490553741455
1758274164523901700,3.201901611328125,-7.081150685119629,-14.197017294311523,-4.409670545196533
1758274164533860600,3.211860595703125,-2.5098715278625487,-12.250082431793212,-2.3885154312133787
1758274164543819800,3.22181982421875,-5.278167197418212,-9.886855755615233,-1.439663385772705
1758274164553777700,3.231777587890625,-6.375160470581054,-8.484152857971191,-2.0569185012817384
1758274164563736600,3.241736572265625,-4.095730852508544,-7.569717461395263,-2.051082634735107
1758274164573694700,3.25169482421875,-2.439541854095459,-7.334636785888671,-2.166153952026367
1758274164583654000,3.26165380859375,-2.4021324531555175,-7.8627078895568845,-2.0950760902404784
1758274164593612000,3.271612060546875,-2.360832474517822,-9.084199649047852,-1.9919757812499999
1758274164603571000,3.281571044921875,-1.9138649520874023,-10.37377651824951,-1.5705962890624998
1758274164613529000,3.291529052734375,-1.334917063140869,-11.302277849578857,-0.9201216255187987
1758274164623488000,3.301488037109375,-1.4538789581298828,-11.590779149627686,-0.03172317199707031
1758274164633446000,3.31144580078125,-1.7494132255554198,-11.694029096221923,0.6597521949768066
1758274164643405000,3.321405029296875,-2.4652795219421386,-11.663503025054931,1.0621277114868164
1758274164653362700,3.33136279296875,-3.186233496856689,-11.438597706604003,1.1234791290283201
1758274164663321900,3.34132177734375,-3.145083155822754,-11.100416722106933,0.9072527915954589
1758274164673279700,3.35127978515625,-2.5848399673461913,-10.377218183135986,0.9475053070068359
1758274164683239000,3.361239013671875,-1.8008885612487793,-9.685892453765868,0.9085995300292968
1758274164693196800,3.37119677734375,-1.2575544219970702,-9.070881902313232,0.5246294387817383
1758274164703155700,3.38115576171875,-1.0226233840942383,-8.572139768981932,0.5440823272705078
1758274164713115000,3.391114990234375,-1.2093711135864258,-8.791957408905029,-0.18884265594482422
1758274164723072800,3.40107275390625,-1.6193781478881835,-8.928576541137694,-0.6964134078979491
1758274164733031700,3.41103173828125,-1.8766051887512205,-8.990227233886719,-0.6700771896362304
1758274164742989800,3.42098974609375,-2.0458453186035155,-8.934562045288086,-0.2754828285217285
1758274164752948700,3.43094873046875,-1.601271997833252,-8.787019367980957,0.16430208892822265
1758274164762907000,3.440906982421875,-1.0230722969055175,-8.702923034667968,0.6190507667541504
1758274164772865800,3.45086572265625,-0.7586626510620117,-8.731653454589843,1.0712556053161622
1758274164782823700,3.46082373046875,-1.2482768905639647,-8.635137200164795,0.8614636848449706
1758274164792782800,3.470782958984375,-1.85775085067749,-8.667010009765624,0.7682394577026367
1758274164802740700,3.48074072265625,-1.7510592391967772,-8.864082733917236,1.311872872161865
1758274164812700000,3.490699951171875,-2.1883003173828124,-9.28980171661377,1.1311106468200682
1758274164822657800,3.50065771484375,-2.624643569946289,-9.635314943695068,0.9398737892150878
1758274164832616700,3.51061669921875,-2.4838345848083496,-9.803956523132324,1.3729250144958496
1758274164842574800,3.520574951171875,-2.6665420989990234,-9.820267021942138,1.583914035797119
1758274164852533800,3.53053369140625,-2.8291981742858887,-9.322572351837158,1.848174044036865
1758274164862492000,3.540491943359375,-2.8233623077392576,-8.653841900634765,1.8056769645690918
1758274164872450800,3.550450927734375,-2.982726355743408,-8.356212706756592,1.2291232772827148
1758274164882409700,3.56040966796875,-2.588880182647705,-7.963713272094726,0.82360537109375
1758274164892368000,3.570367919921875,-2.2713491874694824,-7.775319528961181,0.9620201545715331
1758274164902326800,3.580326904296875,-2.443282794189453,-7.910891197967529,0.8653542625427245
1758274164912285000,3.590284912109375,-1.7381904052734374,-8.054543297576904,1.0254664985656738
1758274164922243800,3.600243896484375,-1.2918214332580567,-8.355464518737792,1.5209166046142577
1758274164932202000,3.610201904296875,-1.3136685234069823,-8.760533512115478,2.147000338745117
1758274164942161000,3.620160888671875,-1.2759598472595215,-8.989628683471679,2.1689970664978024
1758274164952118800,3.630118896484375,-0.7366659233093261,-9.03407105178833,1.5361796401977539
1758274164962078000,3.640077880859375,-0.6807014595031737,-8.799738564300537,1.4891934326171874
1758274164972035800,3.650035888671875,-0.9442132797241211,-8.719532808685303,1.7118541870117185
1758274164981994800,3.659994873046875,-1.6744447860717773,-8.907477639007567,1.4487912796020508
1758274164991953000,3.669952880859375,-2.6768670936584473,-9.25089593963623,0.8667010009765624
1758274165001911800,3.679911865234375,-2.973748099517822,-9.57037222366333,0.7941267631530762
1758274165011870000,3.689869873046875,-2.7775732009887695,-9.836876795959473,1.2051812606811523
1758274165021828900,3.699828857421875,-2.606687057495117,-10.072256746673583,1.5301941360473632
1758274165031787000,3.709787109375,-2.6604069572448727,-10.52760397491455,1.548150648498535
1758274165041746000,3.719745849609375,-2.718316709899902,-10.983250478363036,1.7910124794006346
1758274165051704800,3.729704833984375,-2.6288334228515624,-11.580005242156982,1.9364602302551268
1758274165061663000,3.7396630859375,-2.155978594970703,-12.158055305480957,1.2825439018249511
1758274165071622000,3.749621826171875,-1.6891092712402342,-12.02143617324829,0.5738602104187012
1758274165081580000,3.759580078125,-1.798494359588623,-11.786654772949218,-0.18614917907714842
1758274165091539000,3.7695390625,-1.710357810974121,-11.629236013793944,-0.9424176284790039
1758274165101496800,3.779496826171875,-1.4927847351074217,-11.907711594390868,-1.6288053169250487
1758274165111456000,3.7894560546875,-1.861641428375244,-12.592602906799316,-2.321328147125244
1758274165121414000,3.799413818359375,-2.3759458724975584,-13.836989219665526,-2.650231600189209
1758274165131373000,3.809373046875,-2.733280470275879,-15.20033742752075,-1.9987094734191893
1758274165141331000,3.8193310546875,-2.4754548789978026,-16.543634196472166,-0.5958569381713866
1758274165151289900,3.829289794921875,-1.703923394012451,-16.965462601470946,0.7220014381408691
1758274165161248000,3.839248046875,-1.3347674255371094,-16.83557716140747,1.8620903411865233
1758274165171207000,3.84920703125,-1.5702970138549803,-15.85170991668701,2.0286369941711424
1758274165181165000,3.8591650390625,-2.6321254501342772,-13.84177762298584,0.6551134292602538
1758274165191124000,3.8691240234375,-4.378994836425781,-12.47528702545166,-0.7053916641235352
1758274165201081900,3.879081787109375,-5.0005894424438475,-11.683554463958739,-1.471536195373535
1758274165211041000,3.889041015625,-4.252401423645019,-11.346720217895507,-1.4751274978637694
1758274165221000000,3.899,-3.6815339653015133,-11.18526124343872,-0.6477811866760254
1758274165230957800,3.908957763671875,-3.623175299835205,-11.492317606353758,-0.16684592819213867
1758274165240917000,3.9189169921875,-4.186710515594482,-12.186187174987792,0.18869301834106444
1758274165250875000,3.928875,-4.527136064147949,-12.560430821990966,1.0438719238281249
1758274165260834000,3.938833984375,-4.4190977142333985,-12.980313938140869,1.2473790649414063
1758274165270791700,3.948791748046875,-3.7466263229370114,-12.759149559783936,1.7612345962524414
1758274165280750800,3.958750732421875,-2.586037068176269,-12.62163260192871,2.1541829437255857
1758274165290708700,3.968708740234375,-0.008828618621826172,-11.827505838775634,2.539050860595703
1758274165300667600,3.978667724609375,1.8490718696594237,-11.681459537506102,1.9020435813903807
1758274165310625800,3.988625732421875,2.516904495239258,-11.470021603393555,0.9181763366699218
1758274165320584700,3.998584716796875,2.0395605392456053,-11.008090320587158,-0.8741828811645508
1758274165330542800,4.00854296875,1.60875387802124,-10.254365710449218,-2.522291448974609
1758274165340501800,4.018501708984375,1.3868413116455078,-9.73572177581787,-4.395006060028076
1758274165350460000,4.0284599609375,0.4786906944274902,-9.15512787322998,-5.26694437713623
1758274165360418800,4.038418701171875,-0.04848258361816406,-8.521412621307373,-4.647295059967041
1758274165370376700,4.048376708984375,-0.8385691314697266,-8.361599660491942,-4.197334785461425
1758274165380335900,4.0583359375,-2.3431752372741697,-8.376862696075438,-3.909731311035156
1758274165390293800,4.068293701171875,-3.375824340820312,-8.191910617828368,-3.7946599937438963
1758274165400253000,4.0782529296875,-3.4585739356994627,-8.296656940460204,-3.890428060150146
1758274165410210800,4.0882109375,-3.0460230621337887,-8.462605043029784,-1.5132850868225096
1758274165420169700,4.098169677734375,-2.625092482757568,-8.60565859222412,0.9971849914550781
1758274165430129000,4.10812890625,-0.8928875816345214,-9.76116016845703,1.3260884445190428
1758274165440086800,4.118086669921875,-1.6256629272460936,-10.060136100769043,1.1893196746826171
1758274165450046000,4.1280458984375,-2.1136311531066894,-10.064475591278075,0.5514145698547362
1758274165460003800,4.13800390625,-1.521365517425537,-9.85079309310913,0.816572403717041
1758274165469962800,4.147962646484375,-1.750011775970459,-9.565583820343017,0.1696890426635742
1758274165479921000,4.1579208984375,-0.8877999031066894,-8.042273014068604,-0.7906850982666015
1758274165489879800,4.1678798828125,-0.3485059791564941,-6.7651160659790035,-1.265934127807617
1758274165499838000,4.177837890625,-0.39743747558593745,-5.644031138610839,-1.5089455963134766
1758274165509796900,4.187796875,-0.35239655685424803,-4.728249003601074,-2.592920397949219
1758274165519755000,4.197755126953125,-0.8174702293395996,-3.9655461372375487,-3.632153556060791
1758274165529714000,4.2077138671875,-1.4220061485290527,-3.2065842109680176,-3.9178117416381832
1758274165539671800,4.217671875,-2.390909632873535,-2.954744123840332,-3.826083890533447
1758274165549631000,4.227630859375,-3.2047885597229,-3.3159692993164063,-3.5131916610717773
1758274165559588900,4.2375888671875,-3.6029742233276365,-4.029890306854248,-3.4681507423400877
1758274165569547800,4.2475478515625,-3.7310640121459957,-4.5702316940307615,-3.580678220367431
1758274165579506000,4.257505859375,-3.6337995697021483,-4.792293898010254,-3.8103719421386715
1758274165589464000,4.267464111328125,-3.446902202606201,-4.6857519241333,-3.921103768920898
1758274165599422200,4.277422119140625,-3.3170167625427243,-4.150348577880859,-3.8941690002441405
1758274165609381000,4.287381103515625,-3.2418986854553222,-3.220949420928955,-3.5124434730529783
1758274165619340300,4.29734033203125,-3.4000656326293943,-2.3630770385742186,-3.0385411819458006
1758274165629298200,4.307298095703125,-4.002506625366211,-2.076820302581787,-3.1316157714843746
1758274165639257000,4.317257080078125,-5.129128144073486,-2.3573908096313474,-3.533692012786865
1758274165649215200,4.32721533203125,-6.392069519805908,-3.0781951469421385,-4.131793515014648
1758274165659174100,4.337174072265625,-7.545925082397461,-3.784035723876953,-4.719869297790527
1758274165669132300,4.34713232421875,-8.760383874511719,-4.295347415924072,-4.989366622161865
1758274165679091200,4.35709130859375,-9.81188731613159,-4.645798683929443,-4.878784432983398
1758274165689049300,4.36704931640625,-10.25990230178833,-4.94761773071289,-4.649539624023437
1758274165699008300,4.37700830078125,-9.670779055786133,-5.246294387817382,-4.471021962738037
1758274165708966100,4.386966064453125,-7.199813304901123,-5.332784922790527,-4.017320748138427
1758274165718925300,4.39692529296875,-3.756652042388916,-5.021987619781494,-3.6739024475097652
1758274165728883200,4.40688330078125,-1.5541361526489257,-4.550180255126953,-3.4196681587219238
1758274165738842400,4.41684228515625,-3.0342016914367673,-6.132448277282714,-4.30327820892334
1758274165748800300,4.42680029296875,-7.7784619186401365,-10.741136835479736,-7.11885936126709
1758274165758759200,4.43675927734375,-8.266430144500731,-15.211111334991454,-8.555829270172119
1758274165768717300,4.44671728515625,-12.859257116699219,-18.759168557739258,-9.733626849365233
1758274165778676200,4.45667626953125,-8.12726717300415,-19.441815306091307,-6.299593480682373
1758274165788634400,4.46663427734375,1.314566349029541,-15.381249290466307,0.8294412376403808
1758274165798593300,4.47659326171875,-0.03920505218505859,-9.694571434783935,2.0388123512268064
1758274165808551400,4.486551513671875,-1.9524714538574217,-6.649595835876465,-1.0063128852844239
1758274165818510300,4.49651025390625,-4.722562774658203,-5.4339399429321285,-3.8453871414184566
1758274165828469200,4.50646923828125,-5.927594397735596,-5.604676448822021,-4.505737886810302
1758274165838427400,4.516427490234375,-3.100341512298584,-6.973261972808838,-3.259256647491455
1758274165848386300,4.52638623046875,-0.4086602958679199,-8.576479259490966,-1.5279495719909668
1758274165858344200,4.53634423828125,0.6702268272399902,-9.879224237823486,-0.16280571289062498
1758274165868303400,4.546303466796875,0.6607996582031249,-11.158775387573241,0.22999299697875975
1758274165878261200,4.55626123046875,-0.7579144630432129,-12.16912848815918,0.6238391700744629
1758274165888220400,4.566220458984375,-1.8493711448669432,-13.418003929138182,0.6961141326904297
1758274165898178300,4.57617822265625,-2.1282956382751466,-13.928866708374022,1.0543465560913086
1758274165908137200,4.58613720703125,-1.5818191093444822,-13.158981237030028,1.610848804473877
1758274165918095400,4.596095458984375,-0.7993640792846679,-11.784410208892822,1.6400281372070311
1758274165928054300,4.60605419921875,-0.6108206985473632,-10.517278980255126,1.1487678840637205
1758274165938012400,4.616012451171875,-0.7938274879455566,-9.579799392700195,-0.07018003616333007
1758274165947971300,4.625971435546875,-1.3645453086853025,-8.694244053649902,-1.2381015335083008
1758274165957929500,4.635929443359375,-1.8634370796203612,-7.917175977325439,-1.7473182991027831
1758274165967888400,4.645888427734375,-2.0159177978515626,-7.711424272155761,-1.9590555084228514
1758274165977846300,4.65584619140625,-1.8442834663391112,-7.7142673866271965,-1.9068319847106932
1758274165987805400,4.665805419921875,-1.7961001579284668,-7.503128727722167,-1.8860323577880858
1758274165997763300,4.675763427734375,-1.6903063720703124,-7.585130134582519,-1.7021277427673338
1758274166007722500,4.685722412109375,-1.990629042816162,-8.009801654052733,-1.57044665145874
1758274166017680100,4.69568017578125,-2.244713694000244,-8.522609722137451,-1.6946458625793457
1758274166027639300,4.705639404296875,-2.291250988769531,-8.61927561416626,-1.0621277114868164
1758274166037597200,4.71559716796875,-2.3130980789184568,-8.77789147415161,-0.033219548034667964
1758274166047556400,4.725556396484375,-2.4455273582458497,-9.184756118774413,1.2048819854736328
1758274166057514200,4.73551416015625,-2.4435820693969723,-9.477147996520996,2.092083338165283
1758274166067473200,4.74547314453125,-2.309207501220703,-9.587730185699462,3.0002339553833006
1758274166077432300,4.755432373046875,-2.1253028861999512,-10.00955859069824,4.425831406402588
1758274166087390200,4.76539013671875,-2.4999954460144043,-10.595988359832763,4.409221632385254
1758274166097349000,4.77534912109375,-2.044947492980957,-9.915286900329589,4.282029669189453
1758274166107307300,4.785307373046875,-2.032677209472656,-8.971971446228027,2.9459155052185055
1758274166117266200,4.79526611328125,-1.2900257820129393,-8.538920220947265,1.1266215187072752
1758274166127224300,4.805224365234375,-0.7161655715942382,-7.812878567504883,0.11566986770629882
1758274166137183200,4.815183349609375,-0.6540659660339355,-7.728333321380615,-0.45594577865600583
1758274166147141000,4.82514111328125,0.05401917495727539,-7.877970925140381,-0.7000047103881836
1758274166157100300,4.835100341796875,0.0430956298828125,-7.950245887756347,-1.0013748443603514
1758274166167058200,4.84505810546875,-0.9662100074768066,-8.653692263031004,-1.739686781311035
1758274166177017000,4.85501708984375,-2.02384859085083,-8.883834897613525,-2.2231658790588376
1758274166186975200,4.864975341796875,-3.394379403686523,-9.331700245666504,-2.862118447113037
1758274166196934100,4.87493408203125,-4.459649504852295,-9.431059614562988,-2.60474176864624
1758274166206892300,4.884892333984375,-4.8129438873291015,-9.365069431304931,-1.087266828918457
1758274166216851200,4.894851318359375,-4.845265609741211,-9.517849424743652,0.15367781906127928
1758274166226809300,4.904809326171875,-4.340837247467041,-9.661351886749268,1.5242086318969725
1758274166236768300,4.914768310546875,-3.5072061569213866,-10.09290673599243,2.539050860595703
1758274166246726400,4.924726318359375,-2.308459313201904,-10.85935054244995,3.180547267913818
1758274166256685300,4.934685302734375,-1.1463736824035644,-11.893496022033691,3.6481647796630856
1758274166266643200,4.944643310546875,-0.4176385520935058,-12.5517518409729,3.815908533477783
1758274166276602400,4.954602294921875,0.23104046020507812,-12.392836705780029,3.144185330200195
1758274166286560300,4.964560302734375,0.2642600082397461,-11.91878477706909,1.6716016716003417
1758274166296519200,4.974519287109375,-0.4107552223205566,-11.604396171569823,-0.09277531433105468
1758274166306477300,4.984477294921875,-1.7347487403869628,-11.73473052444458,-1.6059107635498047
1758274166316436200,4.994436279296875,-3.6550481094360348,-12.346000135803221,-2.9179332733154295
1758274166326394400,5.004394287109375,-5.56726704788208,-13.202376142120361,-4.180575373840332
1758274166336353300,5.014353271484375,-6.069750121307373,-14.044237300872801,-4.998494515991211
1758274166346312200,5.024312255859375,-4.510975202941895,-14.47235048522949,-4.442441180419921
1758274166356270300,5.034270263671875,-2.248304996490478,-14.81711552429199,-2.637362766265869
1758274166366229200,5.044229248046875,-1.6633716033935546,-15.64790350036621,-0.09442132797241211
1758274166376187400,5.0541875,-1.2744634712219238,-15.802329507446288,1.0767921966552734
1758274166386146300,5.064146240234375,-2.0034978767395017,-14.947150601959228,0.4560954162597656
1758274166396104400,5.0741044921875,-2.0259435173034666,-14.115464800262451,-1.2458826889038086
1758274166406063400,5.0840634765625,-2.2273557319641113,-13.008595445251464,-2.353949144744873
1758274166416021200,5.094021240234375,-2.516605220031738,-11.619659207153319,-2.4230817176818844
1758274166425980400,5.10398046875,-2.5713725830078125,-11.081263108825683,-2.3183353950500485
1758274166435938300,5.113938232421875,-3.252074042510986,-11.022904443359375,-1.9978116477966308
1758274166445897200,5.123897216796875,-3.6037224113464355,-11.118223596954346,-1.171512799835205
1758274166455855400,5.13385546875,-4.00310517578125,-11.633276229095458,-0.8429086219787597
1758274166465814300,5.143814208984375,-3.5315970863342283,-11.911153259277343,-0.4752490295410156
1758274166475772400,5.1537724609375,-2.812139487457275,-12.67325757522583,-0.4617816452026367
1758274166485731300,5.1637314453125,-2.8291981742858887,-13.73882695159912,-1.1257236930847168
1758274166495689500,5.173689453125,-1.63449154586792,-13.129801904296874,-0.28266543350219725
1758274166505648400,5.1836484375,-1.413476805114746,-13.268665600585937,-0.4815338088989258
1758274166515606300,5.193606201171875,-0.6841431243896484,-13.207463820648192,-1.2234370483398436
1758274166525565400,5.2035654296875,-0.26276363220214843,-12.437727986907959,-1.9578584075927734
1758274166535523000,5.213523193359375,0.3238157745361328,-11.663054112243652,-3.291728007507324
1758274166545482500,5.223482421875,1.0752958206176757,-10.583119525909423,-4.5048400611877435
1758274166555440000,5.233440185546875,1.3688847991943358,-9.53805050125122,-4.764461303710937
1758274166565399300,5.2433994140625,1.327285545349121,-8.811859210205078,-5.031564426422118
1758274166575357200,5.253357177734375,0.4186860153198242,-8.558971659851073,-4.993406837463379
1758274166585317000,5.263317138671875,-0.7565677246093749,-8.271517823028564,-4.122067070770264
1758274166595275000,5.27327490234375,-1.777395457458496,-8.270320722198486,-3.2933740211486815
1758274166605234200,5.283234130859375,-2.3130980789184568,-8.75903713607788,-1.5171756645202636
1758274166615192000,5.293192138671875,-2.5822961280822754,-9.12879165496826,-0.1379658706665039
1758274166625151000,5.30315087890625,-2.6473884857177734,-9.560645779418945,0.3821744400024414
1758274166635108900,5.31310888671875,-3.3207577026367185,-10.081683915710448,0.6733692169189452
1758274166645068000,5.323068115234375,-3.045873424530029,-10.551545991516113,0.6280290229797363
1758274166655026000,5.33302587890625,-2.5471312911987303,-10.05534769744873,-0.4905120651245117
1758274166664984800,5.34298486328125,-1.256357321166992,-9.115623545837401,-0.8846575134277344
1758274166674943000,5.35294287109375,-0.4831798225402832,-8.081029153442381,-0.4837783729553222
1758274166684902000,5.36290185546875,-1.168968960571289,-7.294982820892334,-0.6905775413513183
1758274166694860000,5.372860107421875,-0.34925416717529295,-5.42017328338623,-1.9065327095031737
1758274166704819000,5.38281884765625,1.2271779884338379,-3.6022260353088376,-1.6603788513183593
1758274166714777000,5.392777099609375,0.3227683113098144,-2.9433716659545897,-2.8553847549438474
1758274166724736000,5.402736083984375,-0.09068038787841796,-2.0986673927307127,-3.047669075775146
1758274166734694000,5.41269384765625,-0.8207622566223144,-1.574337229156494,-2.984821282196045
1758274166744653000,5.422653076171875,-1.9690812278747558,-1.5547347030639647,-2.986018383026123
1758274166754612000,5.432612060546875,-2.3406313980102538,-2.073528275299072,-3.018489743041992
1758274166764570000,5.442570068359375,-2.6336218261718747,-2.6581623931884764,-3.3473931961059566
1758274166774529000,5.452529052734375,-2.952499559783935,-3.149123371124267,-3.6674680305480956
1758274166784487000,5.46248681640625,-3.1371523628234863,-3.60058002166748,-4.045602255249023
1758274166794446000,5.472446044921875,-3.284246127319336,-3.689015845489502,-4.238784401702881
1758274166804404000,5.482404052734375,-3.595641980743408,-3.3182138633728027,-3.780145146179199
1758274166814363000,5.49236279296875,-4.14331561050415,-2.696170344543457,-3.0226795959472654
1758274166824321000,5.502321044921875,-5.054758255004883,-2.366668341064453,-2.833388027191162
1758274166834280000,5.512280029296875,-6.396109735107421,-2.337489008331299,-3.2749685958862305
1758274166844238000,5.522238037109375,-7.924807495117187,-2.5668834548950192,-4.252850336456299
1758274166854197000,5.532197021484375,-9.51291138381958,-2.8980314720153806,-5.371840337371826
1758274166864155100,5.542155029296875,-10.931176592254639,-3.15391177444458,-6.143970372772216
1758274166874114000,5.552114013671875,-11.418546267700195,-3.567061198425293,-6.375759020996093
1758274166884072200,5.562072265625,-11.146505104064941,-4.302530020904541,-6.296750366210937
1758274166894031000,5.572031005859375,-11.342081452178954,-5.212476289367675,-5.652111569213867
1758274166903989000,5.581989013671875,-8.668356748199463,-6.917746421813964,-4.714183068847656
1758274166913948200,5.5919482421875,-4.8883612396240235,-10.628160444641113,-5.962011046600342
1758274166923906000,5.601906005859375,-1.8896236602783203,-12.975076622009276,-6.348375339508056
1758274166933865000,5.611864990234375,-6.010643267822266,-14.086884017944335,-7.74404526977539
1758274166943823000,5.621822998046875,-5.872527759552002,-14.184747010803221,-7.968651313018798
1758274166953782000,5.631781982421875,-5.193173038482666,-12.574945669555664,0.7088333290100097
1758274166963740200,5.641740234375,0.7009025360107421,-12.183493698120117,1.0956465347290039
1758274166973699000,5.651698974609375,-1.1354501373291015,-10.388441003417968,-2.2863129478454587
1758274166983657200,5.6616572265625,-5.15830747680664,-8.828768259429932,-5.343858105468749
1758274166993616100,5.6716162109375,-6.449380722045898,-8.774000896453856,-6.493972727966308
1758274167003574000,5.681573974609375,-3.531896361541748,-9.22500863418579,-5.080495922851562
1758274167013533200,5.691533203125,0.02558803024291992,-9.647884502410887,-3.6290111663818356
1758274167023491000,5.701490966796875,-0.4043208053588867,-9.842862300109863,-3.163338943481445
1758274167033450200,5.7114501953125,-1.9488801513671874,-10.230872606658934,-2.646939572906494
1758274167043408000,5.721407958984375,-2.9589339767456053,-10.503213045501708,-1.0577882209777831
1758274167053367000,5.731366943359375,-2.6223990058898923,-11.241375344848633,0.28745383682250975
1758274167063325000,5.741324951171875,-2.2750901275634763,-11.699565687561034,0.6642413230895996
1758274167073284000,5.7512841796875,-2.7911902229309082,-11.126453665161133,1.4124293418884277
1758274167083242000,5.761241943359375,-2.5579051986694332,-10.810867958831787,1.0883142921447753
1758274167093201000,5.771200927734375,-2.3433248748779296,-10.43841996307373,0.6142623634338379
1758274167103159000,5.781158935546875,-2.1574749710083005,-9.680505500030517,0.13602058181762694
1758274167113118000,5.791117919921875,-2.005892078399658,-8.891466415405272,-0.5023334358215332
1758274167123075800,5.801075927734375,-2.185157927703857,-8.4666452583313,-1.1399392654418945
1758274167133035000,5.811034912109375,-2.3377882835388184,-7.993790430450439,-1.2045827102661133
1758274167142993000,5.820992919921875,-2.4959552307128905,-7.615057655334472,-0.9157821350097656
1758274167152952000,5.8309521484375,-2.114528978729248,-7.477839972686767,-0.6118681617736816
1758274167162910000,5.840909912109375,-1.5981296081542968,-7.652766331481933,-0.1945288848876953
1758274167172868900,5.850868896484375,-1.4263456390380858,-7.972990803527831,0.016759411621093748
1758274167182827000,5.860826904296875,-1.3172598258972168,-8.341847496795653,0.04534019393920898
1758274167192786000,5.870785888671875,-1.1136030471801757,-8.81006355895996,0.24031799163818357
1758274167202744000,5.880744140625,-0.6546645164489746,-9.439888233184814,0.9144353965759277
1758274167212703000,5.890702880859375,-1.415422093963623,-10.2410479637146,1.2943652725219725
1758274167222661000,5.9006611328125,-2.1134815155029294,-10.625766242980957,1.0821791503906248
1758274167232620000,5.9106201171875,-2.8962358207702636,-10.296114601898193,0.5921159980773926
1758274167242578000,5.920577880859375,-2.938882537841797,-9.495553421783447,0.30466216125488277
1758274167252537000,5.930537109375,-2.45151286239624,-8.741679174041748,0.19003975677490234
1758274167262495000,5.940494873046875,-1.9653402877807615,-7.9192709037780755,-0.754622435760498
1758274167272453000,5.950453125,-2.7169699714660642,-7.166444119262695,-1.1198878265380858
1758274167282412000,5.960412109375,-2.856432218170166,-7.594706941223144,-1.0832266136169433
1758274167292370200,5.9703701171875,-1.9776105712890624,-8.607005330657959,-0.8910919303894043
1758274167302329000,5.9803291015625,-1.643320164489746,-9.122506875610352,-0.09681552963256836
1758274167312287000,5.990286865234375,-1.2662334030151365,-9.367463632965087,0.6096235977172851
1758274167322246100,6.00024609375,-1.327285545349121,-9.325265828704833,1.1405378158569335
1758274167332204000,6.0102041015625,-1.5108908851623535,-9.115174633026122,1.4021043472290038
1758274167342163200,6.0201630859375,-1.452981132507324,-9.055768504333496,0.9497498710632324
1758274167352121000,6.03012109375,-1.304241354370117,-9.109638041687012,0.11088146438598633
1758274167362080000,6.040080078125,-1.0770914718627929,-9.124003251647949,-0.016909049224853513
1758274167372038100,6.0500380859375,-0.8387187690734863,-9.255085792541504,0.062249243164062495
1758274167381997000,6.0599970703125,-1.1997943069458008,-9.590722937774657,-0.24794950942993163
1758274167391955200,6.069955078125,-1.9080290855407713,-9.95299557647705,-0.5967547637939453
1758274167401914000,6.0799140625,-2.5776573623657226,-10.466551832580565,-0.47928924484252927
1758274167411872300,6.089872314453125,-2.977788314819336,-11.016918939208983,-0.09217676391601562
1758274167421831200,6.0998310546875,-2.977040126800537,-11.664550488281249,0.6151601890563965
1758274167431788800,6.109788818359375,-2.93035319442749,-12.480673979187012,0.9241618408203125
1758274167441748200,6.119748291015625,-3.2876877922058103,-12.956970471954344,0.6443395217895508
1758274167451705900,6.129705810546875,-3.7502176254272457,-12.910882089996337,-0.04997895965576172
1758274167461665000,6.1396650390625,-4.377648097991943,-12.840851691436766,-0.953790086364746
1758274167471623000,6.149622802734375,-4.759373625183105,-12.76199267425537,-2.102408332824707
1758274167481581800,6.159581787109375,-4.6909892402648925,-12.552948941802978,-3.125929542541504
1758274167491540000,6.1695400390625,-4.457853853607178,-12.767828540802002,-3.8839936431884765
1758274167501499000,6.179498779296875,-4.8500540130615235,-13.187711656951903,-3.7963060073852537
1758274167511457000,6.18945703125,-4.920982237243652,-13.833397917175292,-2.811391299438476
1758274167521416000,6.199416015625,-3.5139398490905758,-14.300117603302,-1.5352818145751952
1758274167531374000,6.2093740234375,-1.5147814628601073,-14.550760589599609,-0.26979659957885743
1758274167541333000,6.2193330078125,-0.39758711318969725,-14.235923071289061,0.7591115638732909
1758274167551291000,6.229290771484375,-0.7824550300598144,-12.968941480255125,0.4682160621643066
1758274167561250000,6.23925,-2.075473564147949,-11.467777039337157,-0.9355342987060546
1758274167571208000,6.2492080078125,-3.1069255668640134,-10.772261457061767,-2.4862287864685055
1758274167581167000,6.2591669921875,-3.3514334114074704,-10.865036771392822,-3.5609260566711423
1758274167591125000,6.269125,-3.243694336700439,-11.544690767669676,-3.5742438034057615
1758274167601084000,6.279083984375,-3.6810850524902343,-12.186187174987792,-3.2888848930358883
1758274167611042000,6.2890419921875,-3.733009300994873,-12.160898419952392,-3.2013468948364254
1758274167621001000,6.2990009765625,-3.1944635650634763,-11.587038209533691,-2.683151873016357
1758274167630959000,6.308958984375,-2.326266188049316,-11.119719972991943,-1.552041226196289
1758274167640918000,6.31891796875,-0.6338648895263671,-12.063783615112303,-1.1685200477600097
1758274167650876200,6.328876220703125,-0.6162076522827148,-13.476063319396971,-1.593490842437744
1758274167660835000,6.3388349609375,0.49155952835083006,-12.954725907897949,-0.7966706024169922
1758274167670793000,6.34879296875,1.3946224670410154,-12.822895178985595,-0.15996259841918944
1758274167680751000,6.358751220703125,1.8409914390563964,-13.180678689575194,-0.42586862030029293
1758274167690710000,6.3687099609375,1.7658733619689941,-12.361562446594238,-1.6160861206054686
1758274167700668200,6.378668212890625,0.43230303726196284,-11.323376751708985,-2.9302035568237303
1758274167710627000,6.388626953125,0.7344213592529296,-10.23371572113037,-3.884143280792236
1758274167720585200,6.398585205078125,1.9514239906311035,-9.259574920654297,-4.5033436851501465
1758274167730544000,6.408544189453125,2.0883423980712887,-8.129661374664305,-4.526687151336669
1758274167740502000,6.418501953125,1.2882301307678221,-7.6288243148803705,-4.980538003540039
1758274167750461200,6.428461181640625,-0.11791443176269531,-7.594557303619385,-5.051915140533447
1758274167760419000,6.438419189453125,-0.8589198455810546,-7.937975604248046,-5.211279188537597
1758274167770378200,6.448378173828125,-3.6022260353088376,-8.156446505737303,-2.6788123825073242
1758274167780336000,6.458336181640625,-7.042095270538329,-8.729558528137206,0.6482300994873047
1758274167790295000,6.468294921875,-4.776581949615478,-11.065850435638428,-0.934037922668457
1758274167800253000,6.4782529296875,-0.7640496047973633,-13.625401647949218,-2.7551275604248047
1758274167810212000,6.488212158203125,-0.8948328704833984,-12.521076132202147,-1.7305588874816893
1758274167820170000,6.498169921875,-4.172494943237305,-10.67484737701416,-0.33399113159179683
1758274167830129200,6.508129150390625,-2.0005051246643064,-9.411906001281737,0.48826750106811523
1758274167840087000,6.518087158203125,-0.6723217536926269,-8.039729174804688,1.4260463638305663
1758274167850046000,6.5280458984375,-0.9470563941955565,-6.379649598693847,1.0274117874145507
1758274167860003800,6.53800390625,-1.0794856735229492,-4.297591979980469,-0.646733723449707
1758274167869963000,6.547962890625,-0.5741594856262207,-2.5725696838378904,-0.833182177734375
1758274167879921000,6.5579208984375,-0.25468320159912106,-1.7669208251953124,-1.615936483001709
1758274167889880000,6.567880126953125,-0.42182840499877927,-1.4282909278869629,-2.7334301078796384
1758274167899838000,6.577837890625,-0.8144774772644042,-1.3593079925537108,-3.434183006286621
1758274167909796900,6.587796875,-1.5129858116149901,-1.7841291496276854,-3.5980361824035643
1758274167919755000,6.597755126953125,-1.970876879119873,-2.3274632888793945,-3.3750761528015136
1758274167929713000,6.607712890625,-2.5387515853881832,-2.7156232330322263,-3.154510324859619
1758274167939672000,6.617672119140625,-3.474435521697998,-3.0557495063781737,-3.2823008384704586
1758274167949630000,6.6276298828125,-5.010764799499511,-3.1652842323303223,-3.5685575744628903
1758274167959589000,6.637589111328125,-6.4920274391174315,-2.8076503593444824,-3.877858501434326
1758274167969547000,6.647547119140625,-7.603086647033691,-2.227056456756592,-4.374954621124267
1758274167979506000,6.657505859375,-8.670601312255858,-1.6895581840515135,-4.828955110931396
1758274167989464000,6.667464111328125,-9.739013803100585,-1.396867031097412,-4.8689083511352536
1758274167999423000,6.677423095703125,-10.682778170013426,-1.6289549545288085,-4.9669209815979
1758274168009381000,6.687381103515625,-10.653898112487793,-2.3204303215026854,-5.527164170074463
1758274168019340000,6.697340087890625,-9.05980871963501,-3.0481179885864256,-5.8180596717834465
1758274168029298200,6.707298095703125,-6.392368795013427,-3.5781343811035153,-5.448005877685547
1758274168039257000,6.717257080078125,-3.158251264953613,-4.061763116455078,-4.5708302444458
1758274168049215000,6.727215087890625,-3.6367923217773437,-6.575225946807861,-5.141847340393066
1758274168059174100,6.737174072265625,-6.549937191772461,-11.499200936126709,-8.68945565032959
1758274168069132000,6.747132080078125,-6.069001933288574,-14.231583580780029,-10.168324088287353
1758274168079091200,6.75709130859375,-9.366116894531249,-16.345663646697997,-10.358513482666016
1758274168089049000,6.767049072265625,-3.7165491645812985,-16.256329997253417,-4.346822751617432
1758274168099008000,6.777008056640625,2.477699443054199,-12.705728935241698,1.8670283821105955
1758274168108966100,6.786966064453125,0.4827309097290039,-9.668534491729735,-1.3103764961242674
1758274168118924000,6.796924072265625,-2.694823606109619,-7.691821746063232,-5.823596263122559
1758274168128883200,6.80688330078125,-5.883301667022705,-6.6611179313659665,-8.181435985565185
1758274168138840800,6.8168408203125,-4.238485126495361,-6.922085912322998,-7.205649171447753
1758274168148800300,6.82680029296875,-0.5327098693847656,-8.005162888336182,-4.478354205322265
1758274168158758000,6.8367578125,0.41584290084838865,-9.188796334075928,-2.5872341690063476
1758274168168717000,6.846717041015625,-0.17612345962524412,-10.187328063964843,-1.3890858757019042
1758274168178675000,6.856675048828125,-1.1565490394592284,-11.284470974731445,-0.34491467666625975
1758274168188633900,6.8666337890625,-1.619078872680664,-12.42351241455078,0.5837362922668456
1758274168198592000,6.876592041015625,-1.788319002532959,-12.865841171264648,1.9065327095031737
1758274168208551000,6.886551025390625,-2.178274597930908,-13.13892979812622,2.0040964271545407
1758274168218509000,6.896509033203125,-2.48323603439331,-12.619836950683593,1.5732897659301757
1758274168228468000,6.906468017578125,-2.778321389007568,-11.60095450668335,1.0003273811340332
1758274168238425900,6.91642578125,-2.583193953704834,-10.460267053222656,0.4929062667846679
1758274168248385000,6.926385009765625,-2.148945627593994,-9.41070890045166,-0.21682488784790038
1758274168258343000,6.936343017578125,-1.94079972076416,-8.544007899475098,-0.9344868354797363
1758274168268302000,6.946302001953125,-1.901295393371582,-7.860014412689209,-1.4285902030944824
1758274168278260000,6.956260009765625,-2.1978771240234374,-7.408707399749756,-1.6973393394470213
1758274168288218000,6.966218017578125,-2.4316110610961914,-7.3085998428344725,-1.53213942489624
1758274168298177000,6.976177001953125,-2.4052748428344723,-7.9457567596435545,-1.80672442779541
1758274168308135000,6.986135009765625,-2.1001637687683106,-8.545354637908934,-1.737142942047119
1758274168318094000,6.996093994140625,-1.5797241828918456,-8.789862482452392,-1.1013327636718748
1758274168328052000,7.006052001953125,-1.1252747802734375,-9.098714496612548,-0.6910264541625977
1758274168338011100,7.01601123046875,-1.1116577583312988,-9.154230047607422,-0.32351649932861326
1758274168347969000,7.025968994140625,-1.7536030784606933,-9.107992028045654,-0.004339490509033203
1758274168357928000,7.035927978515625,-2.1097405754089356,-9.377040439605713,-0.7504325828552245
1758274168367886000,7.045885986328125,-2.5034371109008786,-9.050680825805664,-0.8156745780944824
1758274168377845000,7.055844970703125,-2.664297534942627,-8.801384577941894,-0.9979331794738769
1758274168387803100,7.06580322265625,-2.413953823852539,-8.479963005065917,-0.506224013519287
1758274168397762000,7.075761962890625,-2.9141923332214352,-8.477718441009522,-0.5140051689147949
1758274168407720200,7.08572021484375,-3.1509190223693846,-8.390180442810058,-0.629525399017334
1758274168417679000,7.09567919921875,-3.208230224609375,-7.8152727691650385,0.1545756446838379
1758274168427637000,7.105636962890625,-3.3476924713134766,-8.151658102416992,0.6028899055480956
1758274168437595100,7.11559521484375,-2.8755858314514158,-8.838195428466797,0.008379705810546874
1758274168447554000,7.125553955078125,-2.527528765106201,-9.02150149307251,0.6917746421813964
1758274168457512200,7.13551220703125,-1.900547205352783,-8.949376168060303,1.4323311431884764
1758274168467471000,7.14547119140625,-1.2110171272277832,-8.978405863189696,1.8414403518676756
1758274168477429000,7.155428955078125,-1.0989385620117187,-9.274837956237793,1.9813515113830564
1758274168487388200,7.16538818359375,-0.51071314163208,-9.193734375,2.168248878479004
1758274168497346000,7.175345947265625,0.10160393295288085,-9.287856427764892,1.9214964698791503
1758274168507305200,7.18530517578125,0.2883516624450683,-9.479841473388671,1.5535376022338867
1758274168517262800,7.195262939453125,-0.06329670639038086,-9.703100778198241,1.018882444000244
1758274168527222000,7.205221923828125,-0.9979331794738769,-10.094103836822509,0.117465518951416
1758274168537180000,7.215179931640625,-2.4218846168518064,-10.518775356292725,-0.5969044013977051
1758274168547138800,7.225138916015625,-3.2671874404907224,-10.6609310798645,-0.6278793853759765
1758274168557097000,7.235096923828125,-2.9204771125793454,-10.630105733489989,-0.13377601776123046
1758274168567056000,7.245055908203125,-2.553266432952881,-10.934169344329833,0.11282675323486327
1758274168577014000,7.255013916015625,-2.64289935760498,-11.119570335388183,-0.21472996139526365
1758274168586972000,7.264971923828125,-1.8586486763000487,-10.95526824645996,-0.38052842636108397
1758274168596931300,7.274931396484375,-1.0488099647521971,-10.985195767211913,-0.5470750793457031
1758274168606889000,7.284888916015625,-0.733523533630371,-11.266813737487793,-0.8904933799743652
1758274168616848100,7.29484814453125,-0.5559036979675293,-11.489474491882323,-1.433827519226074
1758274168626806000,7.304805908203125,-0.5575497116088867,-11.328314792633057,-2.10031340637207
1758274168636765000,7.314764892578125,-0.5882254203796387,-11.0830587600708,-2.9046155265808102
1758274168646723000,7.32472314453125,-0.7220014381408691,-11.512369045257568,-3.816955996704101
1758274168656682000,7.334681884765625,-1.6843208679199217,-12.731017690277099,-4.403984316253662
1758274168666640100,7.34464013671875,-2.7515362579345704,-14.197765482330322,-4.011035968780518
1758274168676599000,7.35459912109375,-2.9927520751953125,-15.415965214538573,-3.132663234710693
1758274168686557000,7.364556884765625,-3.1106665069580077,-16.122853254699706,-2.212840884399414
1758274168696515000,7.37451513671875,-3.1407436653137206,-16.332794812774658,-1.5722423027038572
1758274168706474000,7.384473876953125,-3.3261446563720702,-15.560515139770507,-1.4942811111450194
1758274168716432100,7.39443212890625,-4.0626609420776365,-14.067281491851805,-2.0829554443359375
1758274168726391000,7.40439111328125,-4.709394665527343,-12.94125852355957,-2.5781062751770016
1758274168736349200,7.41434912109375,-4.3920133079528805,-12.187833188629149,-2.4693197372436524
1758274168746308000,7.42430810546875,-3.710563660430908,-11.747449720764159,-1.8598457771301269
1758274168756266200,7.434266357421875,-3.203741096496582,-11.343577828216553,-1.2788029617309569
1758274168766225200,7.44422509765625,-3.2441432495117186,-11.296292345428466,-1.131260284423828
1758274168776183000,7.45418310546875,-3.404105847930908,-11.484386813354492,-0.8254010223388671
1758274168786142200,7.46414208984375,-3.375973978424072,-11.655871507263184,-0.45938744354248046
1758274168796100000,7.47410009765625,-3.130717945861816,-12.494291001129149,-0.6220435188293457
1758274168806059000,7.48405908203125,-3.1616929298400875,-13.18352180404663,-1.4992191520690916
1758274168816017200,7.49401708984375,-2.503736386108398,-13.35605396118164,-2.9468133308410644
1758274168825975300,7.503975341796875,-0.7107786178588866,-12.248885330963134,-2.2290017456054687
1758274168835934200,7.513934326171875,0.3736450965881347,-11.581351980590819,-1.4068927505493163
1758274168845892000,7.52389208984375,0.4900631523132324,-11.913996373748779,-1.7251719337463378
1758274168855851300,7.533851318359375,0.5790975265502929,-11.380837591552734,-2.057217776489258
1758274168865809200,7.54380908203125,0.6227917068481444,-10.407444979095459,-1.9696797782897948
1758274168875768000,7.55376806640625,0.15442600708007811,-10.021828874206543,-1.720533168029785
1758274168885726200,7.563726318359375,-0.5502174690246582,-9.737966339874268,-1.9367595054626463
1758274168895685000,7.57368505859375,-0.9434650917053222,-9.063100746917724,-2.602347566986084
1758274168905643300,7.583643310546875,-1.3238438804626464,-8.623166191864014,-3.056796969604492
1758274168915602200,7.593602294921875,-1.9853917266845702,-8.4666452583313,-3.0816368118286133
1758274168925560000,7.60356005859375,-2.948309706878662,-8.547449564361571,-3.2588077346801754
1758274168935518000,7.61351806640625,-2.7666496559143066,-8.589797006225586,-3.1760581398010252
1758274168945477000,7.62347705078125,-2.583044316101074,-7.6847887786865225,-3.4687492927551267
1758274168955435000,7.63343505859375,-0.9683049339294433,-7.275230657196045,-2.2756886779785157
1758274168965394000,7.643393798828125,-0.4387374542236328,-7.69316848449707,0.027682956695556638
1758274168975352000,7.65335205078125,-1.4544775085449217,-9.09093334121704,0.07736264114379883
1758274168985311000,7.66331103515625,-1.3555670524597168,-9.326313291931152,-0.18480244064331053
1758274168995269000,7.67326904296875,-1.252616381072998,-9.414150565338135,0.06299743118286133
1758274169005228000,7.68322802734375,-1.1667243965148926,-8.889072213745116,-0.1836053398132324
1758274169015186200,7.693186279296875,-1.535431452178955,-7.835473845672607,-0.42332478103637694
1758274169025144000,7.70314404296875,-1.7356465660095213,-6.696582043457031,-1.365592771911621
1758274169035103000,7.71310302734375,-1.4125789794921875,-5.171924498748779,-1.3786112434387205
1758274169045061000,7.72306103515625,-2.1398177337646485,-3.2103251510620114,-2.2559365142822263
1758274169055020000,7.73302001953125,-2.227655007171631,-1.547552098083496,-3.0621839233398433
1758274169064978200,7.742978271484375,-2.3638252265930175,-1.1598410667419432,-3.7394437179565427
1758274169074937000,7.75293701171875,-3.0060698219299313,-1.5933412048339843,-4.3436803619384765
1758274169084895200,7.762895263671875,-3.1317654090881346,-2.569726569366455,-4.438101689910888
1758274169094854100,7.772854248046875,-2.836081504058838,-3.3646015205383297,-4.406228880310058
1758274169104812000,7.78281201171875,-2.43265852432251,-3.878008139038086,-4.793042086029052
1758274169114771200,7.792771240234375,-2.222866603851318,-4.201823913574218,-5.222950921630859
1758274169124729000,7.80272900390625,-2.3555951583862305,-4.225317017364501,-5.232976641082764
1758274169134687200,7.812687255859375,-2.7138275817871094,-4.09213955001831,-4.515613968658447
1758274169144646100,7.822646240234375,-2.940079638671875,-4.152593141937255,-3.7927147048950194
1758274169154604300,7.832604248046875,-3.2742204078674315,-4.18222138748169,-3.397671430969238
1758274169164563200,7.842563232421875,-4.150498215484619,-4.225466654968262,-3.303250102996826
1758274169174521000,7.85252099609375,-5.319467176055908,-4.3263223999023435,-3.4395699600219722
1758274169184480300,7.862480224609375,-6.608445494842529,-4.377797735595703,-3.914968627166748
1758274169194438100,7.872438232421875,-7.855674922180175,-4.338742321014404,-4.358195209503173
1758274169204397300,7.882397216796875,-8.930222554779052,-4.134786267089844,-4.533570481109619
1758274169214355200,7.892355224609375,-9.613767128753661,-3.937114992523193,-4.5036429603576655
1758274169224313000,7.90231298828125,-9.447968663787842,-4.007893579101562,-4.319139794921875
1758274169234272000,7.91227197265625,-8.568099553680419,-4.433762199401855,-4.2305543334960936
1758274169244230100,7.922230224609375,-7.454795781707763,-4.912003981018066,-3.858854525756836
1758274169254189000,7.93218896484375,-5.644779326629639,-5.594501091766357,-2.696768894958496
1758274169264147000,7.94214697265625,-5.933280626678466,-7.46272657470703,-1.9807529609680175
1758274169274106000,7.952106201171875,-7.466168239593506,-10.970082369232177,-3.2716765686035156
1758274169284064000,7.96206396484375,-6.415562623596191,-13.964181182861328,-4.440495891571045
1758274169294023000,7.97202294921875,-7.887697369384765,-15.302689548492431,-6.778134537506103
1758274169303981000,7.98198095703125,-6.142174721527099,-14.1093296585083,-8.499116618347168
1758274169313939200,7.991939208984375,-5.835567271423339,-11.28117894744873,-5.91831686630249
1758274169323898000,8.001898193359375,-6.080075115966797,-9.08434928665161,-3.005171996307373
1758274169333856000,8.01185595703125,-4.44363828125,-7.673565958404541,-3.2495302032470703
1758274169343815200,8.021815185546876,-4.484339709472656,-6.570587181091308,-4.523694399261474
1758274169353773000,8.03177294921875,-4.717325458526611,-6.726210289001465,-4.755782322692871
1758274169363732200,8.041732177734374,-3.1233857032775876,-7.8906901214599605,-3.8507740951538083
1758274169373690000,8.051690185546875,-1.359158354949951,-8.72072990951538,-2.325817275238037
1758274169383649000,8.06164892578125,-0.8037035697937012,-9.17368293609619,-1.1457751319885254
1758274169393607200,8.071607177734375,-0.8972270721435547,-9.46802010269165,-0.9983820922851562
1758274169403565000,8.08156494140625,-1.8394950630187987,-9.764302558135986,-1.375917766571045
1758274169413524200,8.091524169921875,-3.001131781005859,-10.155604891967773,-1.5843629486083983
1758274169423482000,8.101482177734376,-3.1124621582031247,-10.14468134689331,-0.9642647186279296
1758274169433441300,8.111441162109376,-3.0814871742248533,-10.332326902008056,-1.1020809516906738
1758274169443399200,8.121399169921874,-3.0009821434020996,-10.4708913230896,-1.4661492416381836
1758274169453358000,8.131358154296874,-2.4703672004699704,-10.483760157012938,-1.7073650588989258
1758274169463316200,8.141316162109375,-1.9397522575378416,-10.322151544952392,-2.1065981857299803
1758274169473275100,8.151275146484375,-1.5435118827819823,-9.87727894897461,-2.305765836334228
1758274169483233300,8.1612333984375,-1.4092869522094726,-9.426420848846435,-2.41320563583374
1758274169493191000,8.17119091796875,-1.7399860565185545,-9.307458953857422,-2.9964930152893063
1758274169503150300,8.181150390625,-2.339434297180176,-9.17413184890747,-3.173813575744629
1758274169513108000,8.19110791015625,-2.4295161346435545,-8.79809255065918,-2.5374048469543458
1758274169523067000,8.20106689453125,-1.4781202499389647,-8.901342497253417,-1.668758557128906
1758274169533025000,8.21102490234375,-1.3817536331176756,-9.399037167358397,-1.4012065216064453
1758274169542984000,8.22098388671875,-1.279401512145996,-9.48133784942627,-0.6646902359008788
1758274169552942000,8.230942138671875,-1.0197802696228027,-9.244910435485838,0.10474632263183593
1758274169562900000,8.24089990234375,-0.7383119369506835,-8.98259571609497,0.26560674667358397
1758274169572859100,8.250859130859375,-0.9002198242187499,-8.781632414245605,0.4791396072387695
1758274169582817000,8.260817138671875,-1.1010334884643553,-8.921693211364746,0.8251017471313477
1758274169592776200,8.270776123046875,-1.5780781692504882,-9.018658378601074,0.9955389778137207
1758274169602734300,8.280734375,-2.0266917053222655,-9.164405404663086,1.070657054901123
1758274169612693200,8.290693359375,-2.2649147705078123,-9.347861106872559,1.0063128852844239
1758274169622651400,8.3006513671875,-2.3466169021606444,-9.226953923034667,0.24869769744873046
1758274169632610300,8.3106103515625,-1.4016554344177246,-8.742576999664307,1.1350012245178223
1758274169642568400,8.320568359375,-1.5225626182556151,-8.342595684814453,1.073799444580078
1758274169652526300,8.3305263671875,-1.7305588874816893,-8.046013954162596,0.24211364288330076
1758274169662485200,8.3404853515625,-1.3902829765319824,-7.686135517120361,-0.40716391983032224
1758274169672443400,8.350443359375,-1.401356159210205,-7.5816884696960445,-0.5309142181396485
1758274169682402300,8.36040234375,-1.4887445198059082,-8.336011630249024,-1.050904891204834
1758274169692360200,8.370360107421876,-1.7854758880615234,-8.84313346939087,-1.5391723922729492
1758274169702319400,8.3803193359375,-2.213439434814453,-9.057863430786131,-1.4233528869628906
1758274169712277200,8.39027734375,-2.343624150085449,-9.210493786621093,-1.0752958206176757
1758274169722235100,8.400235107421874,-2.4247277313232423,-9.182960467529297,-0.5421370384216309
1758274169732194300,8.4101943359375,-2.6446950088500976,-9.540295065307618,-0.2570774032592773
1758274169742152200,8.420152099609375,-2.344821250915527,-9.916035088348387,-0.03277063522338867
1758274169752111000,8.430111083984375,-1.840692163848877,-10.168773001098632,0.3253121505737305
1758274169762069200,8.4400693359375,-1.7552490921020507,-10.338611681365967,0.469263525390625
1758274169772028200,8.450028076171876,-1.7708114028930664,-10.45143843460083,0.5229834251403809
1758274169781986300,8.459986328125,-1.8155530464172362,-10.499771380615234,0.3458125022888183
1758274169791945200,8.4699453125,-1.84503165435791,-10.61723689956665,0.088735099029541
1758274169801903400,8.4799033203125,-1.7983447219848632,-10.722432135009765,-0.016609774017333982
1758274169811861200,8.489861328125,-1.504157192993164,-11.241674620056152,0.4707599014282226
1758274169821820200,8.499820068359375,-1.0767921966552734,-12.25172844543457,0.678007982635498
1758274169831778300,8.5097783203125,-1.4463970779418944,-13.02445703125,-0.4950011932373047
1758274169841737200,8.5197373046875,-2.3101053268432614,-12.967744379425048,-2.0967221038818358
1758274169851695400,8.5296953125,-2.9882629470825193,-12.5777887840271,-3.3961750549316405
1758274169861654300,8.539654296875,-3.713706050109863,-13.079074756622314,-4.855590604400635
1758274169871612400,8.5496123046875,-4.73079284286499,-13.890709119415282,-5.101894100189209
1758274169881570300,8.5595703125,-5.318718988037109,-14.598195709991455,-3.8518215583801267
1758274169891529200,8.569529296875,-4.4199955398559565,-14.752172804260253,-2.1814169876098632
1758274169901487400,8.5794873046875,-3.027467999267578,-14.99712956161499,-1.1691185981750487
1758274169911446300,8.5894462890625,-2.3329998802185057,-15.427786585235594,-0.8129811012268066
1758274169921404400,8.599404296875,-2.25369195022583,-14.807239442443846,-1.1001356628417969
1758274169931363300,8.60936328125,-2.982576718139648,-13.211653673553466,-1.8789993904113769
1758274169941321500,8.619321533203125,-4.035426898193359,-12.129624160766602,-2.5315689804077146
1758274169951279000,8.629279052734375,-4.037521824645996,-11.203816306304931,-1.3121721473693846
1758274169961238300,8.63923828125,-3.547009759521484,-10.4325840965271,-0.7372644737243652
1758274169971196200,8.649196044921876,-3.470395306396484,-10.191517916870117,-0.6962637702941894
1758274169981155300,8.6591552734375,-3.5139398490905758,-10.536133318328856,-0.4032733421325683
1758274169991113200,8.66911328125,-3.909731311035156,-11.145756916046142,-0.5680243438720702
1758274170001072000,8.679072021484375,-4.069693909454346,-11.827954751586914,-1.582716934967041
1758274170011030300,8.6890302734375,-3.9342718780517574,-12.128127784729003,-2.159120984649658
1758274170020988200,8.69898828125,-3.65190571975708,-12.07321078414917,-1.9494787017822264
1758274170030947300,8.708947265625,-2.910002480316162,-11.796381217193602,-1.6150386573791502
1758274170040905200,8.7189052734375,-1.6639701538085936,-11.240477519226074,-1.1133037719726562
1758274170050864000,8.728864013671876,-0.3263596138000488,-11.090241365051268,-0.9925462257385254
1758274170060822300,8.738822265625,0.670975015258789,-11.079766732788086,-1.2388497215270995
1758274170070781200,8.74878125,1.0199299072265624,-10.705523085784911,-1.4489409172058105
1758274170080739300,8.7587392578125,1.262791738128662,-10.247332743072509,-1.9119196632385254
1758274170090697200,8.768697265625,1.3615525566101074,-9.560196866607665,-2.6050410438537597
1758274170100656400,8.778656494140625,1.0356418556213378,-9.029581923675536,-3.518428977203369
1758274170110614300,8.7886142578125,0.25004443588256836,-8.423100715637206,-3.68362889175415
1758274170120573200,8.7985732421875,-1.140837091064453,-8.045864316558838,-3.4084453384399414
1758274170130531300,8.80853125,-2.364124501800537,-8.476222064971923,-3.882197991943359
1758274170140490200,8.818490234375,-2.8514941772460936,-8.736591495513915,-2.850596351623535
1758274170150448400,8.828448486328124,-3.534889113616943,-9.817274269866942,-2.0368670623779295
1758274170160406300,8.83840625,-4.200177899932861,-10.473285524749755,-2.402581365966797
1758274170170365400,8.848365478515625,-4.15004930267334,-9.686191728973387,-2.5962124252319336
1758274170180323300,8.8583232421875,-3.225887461853027,-9.642497548675536,-1.9623475357055662
1758274170190282200,8.8682822265625,-1.697488977050781,-10.762983925628662,-2.0732290000915525
1758274170200240400,8.878240478515625,-1.650353131866455,-9.099612322235107,-2.98152925491333
1758274170210199300,8.88819921875,-1.32788409576416,-7.259518708801269,-2.2554876014709473
1758274170220157400,8.898157470703126,-1.4829086532592772,-6.081272216796875,-1.801038198852539
1758274170230115000,8.908114990234376,-0.47270519027709956,-6.3238347724914545,-0.046238019561767575
1758274170240074500,8.918074462890624,0.05551555099487304,-6.168959852600097,0.89378540725708
1758274170250032000,8.9280322265625,-0.7650970680236816,-5.0191445053100585,0.19228432083129882
1758274170259991300,8.9379912109375,-1.695693325805664,-4.062960217285156,-0.4779425064086914
1758274170269949200,8.94794921875,-2.3988404258728027,-3.4488474914550777,-1.4634557647705078
1758274170279907300,8.9579072265625,-2.6506805130004882,-3.1714193740844725,-2.8740894554138183
1758274170289866200,8.9678662109375,-3.0268694488525387,-3.0627824737548828,-3.8901287849426267
1758274170299824000,8.97782421875,-2.964769843292236,-3.0125042388916015,-4.458751679229736
1758274170309783300,8.987783203125,-2.7168203338623047,-3.2788591735839843,-4.586691830444336
1758274170319741200,8.9977412109375,-2.5800515640258785,-3.5634698959350586,-4.4093712699890135
1758274170329700400,9.007700439453124,-2.717568521881103,-3.8429929397583007,-4.332307904052734
1758274170339658200,9.017658203125,-3.283348301696777,-4.084358394622803,-4.243872080230712
1758274170349616400,9.027616455078125,-4.179078997802734,-4.210502894592285,-4.191648556518555
1758274170359575300,9.0375751953125,-5.0118122627258295,-4.175936608123779,-4.129399313354492
1758274170369533200,9.047533203125,-5.40072039489746,-4.070591735076904,-4.095281939697266
1758274170379492400,9.057492431640625,-5.537489164733886,-3.7632360969543455,-3.9261914474487303
1758274170389450200,9.0674501953125,-5.884648405456542,-3.501220652770996,-3.7324107505798336
1758274170399409400,9.077409423828126,-6.5391632843017575,-3.2568624458312985,-3.637540509796142
1758274170409367300,9.0873671875,-7.38641139678955,-3.068169427490234,-3.6632781776428223
1758274170419325400,9.097325439453124,-8.586056066131592,-3.045873424530029,-3.7837364486694334
1758274170429284400,9.107284423828125,-9.592967501831055,-3.2746693206787105,-4.056525800323486
1758274170439242200,9.1172421875,-10.08737014465332,-3.7666777618408203,-4.500051657867432
1758274170449201400,9.127201416015625,-10.54032317123413,-4.460696968078613,-4.8521489395141595
1758274170459159300,9.1371591796875,-10.29761097793579,-5.540481916809082,-4.381538675689697
1758274170469118500,9.147118408203125,-9.455450543975829,-8.314463815307617,-4.403086490631103
1758274170479076400,9.157076416015625,-3.3158196617126463,-11.707197205352783,-4.792892448425293
1758274170489034200,9.1670341796875,-2.222417691040039,-12.472294273376464,-5.264999088287353
1758274170498993400,9.176993408203124,-4.630834923553467,-12.038644497680663,-7.9278002471923825
1758274170508951300,9.186951416015624,-3.7364509658813474,-10.893617553710937,-9.016862727355957
1758274170518910200,9.19691015625,-8.95655877304077,-10.486453633880615,-7.4821794631958
1758274170528868000,9.2068681640625,-6.479607518005371,-10.45113915939331,-5.786186862182617
1758274170538826200,9.216826171875,-2.5194483345031737,-8.869469687652588,-4.268711922454834
1758274170548785200,9.22678515625,-3.1281741065979003,-8.277652964782714,-3.9266403602600097
1758274170558743300,9.236743408203125,-3.4267011260986324,-9.231143775939941,-3.828178816986084
1758274170568702200,9.2467021484375,-2.656516379547119,-10.18298857345581,-3.5315970863342283
1758274170578660400,9.256660400390626,-1.9675848518371581,-10.72557452468872,-2.856432218170166
1758274170588619000,9.266618896484376,-1.143380930328369,-10.787823767852782,-2.025045691680908
1758274170598577000,9.276576904296874,-1.4769231491088866,-10.465803644561767,-1.524507907104492
1758274170608535000,9.28653515625,-2.6316765373229978,-10.26035121459961,-1.6135422813415525
1758274170618494000,9.296493896484375,-3.4536358947753905,-9.97858360671997,-1.790713204193115
1758274170628452000,9.3064521484375,-3.5131916610717773,-9.49974327468872,-1.018283893585205
1758274170638411000,9.316410888671875,-2.9415760147094723,-9.356240812683104,-0.903362213897705
1758274170648369200,9.326369140625,-2.392106733703613,-9.089287327575683,-0.7854477821350098
1758274170658327000,9.3363271484375,-2.20909994430542,-8.733149830627442,-0.5838859298706054
1758274170668286200,9.3462861328125,-2.101061594390869,-8.551938692474364,-0.37334582138061523
1758274170678243800,9.356243896484376,-1.8240823898315428,-8.43956085205078,-0.02528875503540039
1758274170688203000,9.366203125,-1.811961743927002,-8.506748136138915,-0.2790741310119629
1758274170698161000,9.376160888671874,-1.764676261138916,-8.868422224426268,-0.4572925170898437
1758274170708120000,9.3861201171875,-1.6862661567687987,-9.261071296691894,-0.4825812721252441
1758274170718078000,9.396077880859375,-1.5230115310668944,-9.485078789520264,-0.19647417373657225
1758274170728035800,9.406035888671875,-1.9283797996520995,-9.452906704711914,0.0962169792175293
1758274170737995000,9.4159951171875,-2.5124153671264646,-9.290549904632568,0.4783914192199707
1758274170747953000,9.425952880859375,-2.447771922302246,-9.274987593841551,0.5762544120788574
1758274170757911800,9.435911865234376,-1.919850456237793,-9.230545225524901,0.9651625442504882
1758274170767870000,9.445869873046876,-1.4107833282470703,-9.166201055908203,1.2077250999450684
1758274170777828000,9.455828125,-2.0121768577575683,-9.375544063568114,1.2732663703918456
1758274170787787000,9.465787109375,-2.488024437713623,-9.90226842880249,0.971746598815918
1758274170797745000,9.475744873046875,-2.214786173248291,-9.772233351135254,0.7769184387207031
1758274170807704000,9.4857041015625,-1.8778022895812987,-8.962993190002441,0.14649521408081054
1758274170817662000,9.495661865234375,-1.8375497741699218,-8.430133683013915,-0.5904699844360352
1758274170827620000,9.5056201171875,-1.772906329345703,-8.163030560302733,-1.2924199836730956
1758274170837579000,9.5155791015625,-1.9786580345153808,-7.876324911499023,-2.05587103805542
1758274170847537200,9.525537109375,-1.8695722213745116,-7.409455587768554,-2.0163667106628416
1758274170857496000,9.53549609375,-1.5189713157653808,-7.7410525177001945,-1.8124106567382812
1758274170867454000,9.545453857421874,-1.619078872680664,-8.488641986083984,-2.032078659057617
1758274170877413000,9.5554130859375,-2.006490628814697,-8.7463179397583,-1.4749778602600097
1758274170887371000,9.56537109375,-1.9340660285949707,-9.194332925415038,-1.0809820495605469
1758274170897329200,9.5753291015625,-1.9858406394958494,-9.157970987701415,-0.7428010650634765
1758274170907288000,9.5852880859375,-1.993771432495117,-9.018508740997314,-0.25004443588256836
1758274170917246200,9.59524609375,-1.7431284461975096,-8.964788841247557,-0.006434416961669922
1758274170927205000,9.605205078125,-1.6392799491882324,-9.010577947998046,0.008828618621826172
1758274170937162800,9.615162841796876,-1.6042647499084473,-9.121459412384032,0.026036943054199218
1758274170947121000,9.625120849609376,-1.2346598686218262,-9.274239405822753,0.4376899909973144
1758274170957079800,9.635079833984374,-0.8101379867553711,-9.354445161437988,0.7389104873657226
1758274170967038000,9.645037841796874,-0.5955576629638671,-9.3722520362854,0.6220435188293457
1758274170976996900,9.654996826171875,-0.672920304107666,-9.367164357757568,0.4282628219604492
1758274170986955000,9.664955078125,-1.0134954902648925,-9.208249222564696,0.3058592620849609
1758274170996913000,9.674912841796875,-1.6626234153747557,-9.11023659210205,0.027533319091796873
1758274171006872000,9.6848720703125,-2.243366955566406,-9.219771318054198,-0.11941080780029296
1758274171016830000,9.694829833984375,-2.7446529281616208,-9.481936399841308,-0.23104046020507812
1758274171026788900,9.704788818359376,-3.214963916778564,-9.760860893249511,-0.3003226707458496
1758274171036747000,9.7147470703125,-3.484161965942383,-9.850344180297851,-0.35314474487304687
1758274171046705000,9.724704833984376,-3.4488474914550777,-9.88954923248291,-0.2775777549743652
1758274171056664000,9.7346640625,-2.952499559783935,-10.068665444183349,0.025737667846679687
1758274171066622000,9.7446220703125,-2.044199304962158,-10.570549967193603,0.41404724960327144
1758274171076581000,9.7545810546875,-1.1109095703125,-11.246463023376464,0.7191583236694336
1758274171086539000,9.7645390625,-0.3269581642150879,-11.783512383270264,0.6605003829956054
1758274171096498000,9.774497802734375,0.09576806640624999,-12.160599144744872,0.06539163284301758
1758274171106456000,9.7844560546875,0.07287351303100585,-12.689717711639403,-1.1833341705322264
1758274171116414000,9.7944140625,0.5674257934570313,-13.256993867492675,-1.916558428955078
1758274171126373000,9.804373046875,0.5092167655944824,-13.483994112396239,-1.7127520126342772
1758274171136331000,9.8143310546875,0.10235212097167969,-13.108553364562988,-1.078288572692871
1758274171146290200,9.824290283203124,0.16774375381469725,-13.309516666412353,-1.3965677558898926
1758274171156248000,9.834248046875,-0.1970727241516113,-14.334534252166748,-2.2890064247131345
1758274171166206000,9.8442060546875,-1.2101193016052245,-15.565453180694579,-2.7486931434631345
1758274171176165000,9.8541650390625,-1.8556559242248534,-15.88492946472168,-2.2418705795288085
1758274171186123000,9.864123046875,-2.0649989318847655,-15.091251614379882,-1.3275848205566405
1758274171196082000,9.87408203125,-2.647089210510254,-13.877241735076904,-0.5539584091186524
1758274171206039800,9.884039794921875,-2.836680054473877,-12.545467061614989,-0.07990648040771484
1758274171215998000,9.893998046875,-2.4250270065307618,-11.547833157348633,-0.2876034744262695
1758274171225956900,9.903956787109376,-2.3933038345336914,-10.997017137908935,-0.7004536231994628
1758274171235915000,9.9139150390625,-2.1799206115722654,-10.679037229919434,-1.2401964599609374
1758274171245874000,9.9238740234375,-1.986289552307129,-10.549451065063476,-1.4088380393981932
1758274171255832000,9.93383203125,-2.093430076599121,-10.535834043121337,-1.491288359069824
1758274171265790000,9.9437900390625,-2.236034712982178,-10.722581772613525,-1.6385317611694334
1758274171275748900,9.953748779296875,-2.460640756225586,-10.720486846160888,-1.7108067237854003
1758274171285707000,9.96370703125,-2.9372365242004395,-10.434230110168457,-1.8026842124938964
1758274171295666000,9.973666015625,-3.139097651672363,-10.269778383636474,-0.9021651130676269
1758274171305624000,9.9836240234375,-2.7082909904479977,-10.278008451843261,-0.33758243408203126
1758274171315583000,9.9935830078125,-1.8396447006225585,-10.212317543792723,-0.0008978256225585938
1758274171325541000,10.003541015625,-1.0480617767333984,-10.26603744354248,-0.014215572357177733
1758274171335499000,10.0134990234375,-0.31543606872558594,-10.530896002197265,-0.7797615531921386
1758274171345458000,10.0234580078125,0.7070376777648926,-10.518924993896483,-1.0342951171875
1758274171355416000,10.033416015625,1.343296768951416,-10.135852728271484,-0.8584709327697754
1758274171365375000,10.043375,1.908178723144531,-9.872939458465575,-1.29601128616333
1758274171375333000,10.0533330078125,2.207154655456543,-9.50064110031128,-1.8816928672790527
1758274171385291000,10.063291015625,2.217928562927246,-9.127594554138183,-2.7512369827270504
1758274171395250200,10.073250244140626,1.8994997421264648,-8.652644799804687,-3.4861072547912597
1758274171405207800,10.083207763671876,1.4969745880126952,-8.16467657394409,-4.368669841766357
1758274171415167000,10.0931669921875,0.9156324974060058,-7.9661074737548825,-5.116109672546386
1758274171425124900,10.103124755859374,-0.03037643356323242,-7.92929662322998,-5.495440998077393
1758274171435083000,10.1130830078125,-0.752677146911621,-7.390900524902343,-5.23492192993164
1758274171445042000,10.1230419921875,-0.8259995727539062,-6.986729357147216,-4.43047017211914
1758274171454999800,10.132999755859375,-0.5322609565734863,-6.976254724884033,-3.3810616569519043
1758274171464958000,10.1429580078125,-0.18390461502075195,-6.855347541046142,-2.522291448974609
1758274171474916900,10.152916748046875,0.01631049880981445,-7.008127534484863,-2.174384020233154
1758274171484875000,10.162875,-0.008978256225585938,-7.248445526123047,-1.7657237243652342
1758274171494834000,10.172833984375,-0.32935236587524414,-7.4868182289123535,-1.132607022857666
1758274171504792000,10.1827919921875,-0.8485948509216308,-7.978228119659423,-1.1104606575012206
1758274171514751000,10.1927509765625,-1.162534543609619,-8.390030805206298,-1.4055460121154784
1758274171524708900,10.202708984375,-0.6947673942565917,-7.859266224670409,-1.227626901245117
1758274171534667000,10.2126669921875,0.010773907470703125,-6.883629048156738,-1.2051812606811523
1758274171544626000,10.2226259765625,0.3719990829467773,-5.634454331970215,-1.5707459266662598
1758274171554584000,10.232583984375,0.2807201446533203,-4.657769692230224,-2.095525003051758
1758274171564543000,10.24254296875,0.24361001892089842,-4.3053731353759765,-2.4129063606262204
1758274171574501000,10.252501220703126,0.18525135345458985,-4.502445859527588,-2.454056701660156
1758274171584459000,10.262458984375,0.10788871231079102,-5.081244110870361,-2.2506991981506346
1758274171594418000,10.27241796875,-0.0674865592956543,-5.912780274963379,-2.150890916442871
1758274171604375800,10.282375732421874,-0.4786906944274902,-6.619369039916992,-2.403628829193115
1758274171614334700,10.292334716796875,-0.9331400970458984,-7.253982117462158,-2.664896085357666
1758274171624292900,10.30229296875,-1.4885948822021484,-8.139088543701172,-3.205536747741699
1758274171634250800,10.312250732421875,-2.002749688720703,-8.74661721496582,-3.913023338317871
1758274171644210000,10.3222099609375,-1.6123451805114746,-8.481758656311035,-3.8142625198364257
1758274171654167800,10.332167724609375,-1.1623849060058593,-8.173954105377197,-3.086125939941406
1758274171664127000,10.342126953125,-1.3902829765319824,-8.450933309936524,-2.8069021713256834
1758274171674084900,10.3520849609375,-2.5936685859680173,-9.492411032104492,-2.9604303527832028
1758274171684043000,10.36204296875,-3.6649241912841797,-12.643030779266356,-4.746804066467285
1758274171694002000,10.372001953125,-5.1523219726562495,-16.13347752456665,-6.78651424331665
1758274171703960000,10.3819599609375,-8.074894011688231,-15.764321556091307,-5.82224952468872
1758274171713918000,10.39191796875,-11.40837091064453,-13.126360239410399,-1.2243348739624023
1758274171723876900,10.401876953125,-9.406070134735106,-12.198457458496094,2.4262241073608397
1758274171733835000,10.4118349609375,-4.200177899932861,-11.816283018493651,1.2068272743225097
1758274171743794000,10.4217939453125,0.24361001892089842,-9.581146131134032,0.7773673515319823
1758274171753751800,10.431751708984375,6.300192031097412,-8.14597187347412,0.4773439559936523
1758274171763709700,10.441709716796876,5.021688344573974,-7.100902848815918,-0.46507367248535153
1758274171773668900,10.4516689453125,0.6061819328308106,-7.173626724243164,-1.0812813247680664
1758274171783626800,10.461626708984374,-0.42661680831909177,-6.276250014495849,-1.077540384674072
1758274171793585700,10.471585693359375,-1.8360533981323242,-5.540930829620361,-1.2674305038452147
1758274171803543800,10.481543701171875,-4.704456624603271,-6.353463018035888,-3.314921836090088
1758274171813502000,10.491501953125,-5.412841040802002,-8.923638500213622,-4.672583815002441
1758274171823460900,10.5014609375,-2.193537633514404,-10.892270815277099,-3.5986347328186032
1758274171833418800,10.511418701171875,1.16837041015625,-10.632350297546386,-1.6074071395874023
1758274171843378000,10.5213779296875,1.5315408744812011,-11.48513500137329,-1.1215338401794432
1758274171853335800,10.531335693359376,-1.1864765602111815,-13.635876280212402,-1.6505027694702148
1758274171863294000,10.5412939453125,-3.1286230194091793,-12.229881355285643,-1.3006500518798827
1758274171873252900,10.5512529296875,-1.9542671051025389,-8.330624676513672,-0.11177929000854492
1758274171883211000,10.5612109375,-1.8034324005126952,-5.332036734771728,-0.5479729049682617
1758274171893170000,10.571169921875,-3.077895871734619,-3.8043864379882812,-2.8878561149597166
1758274171903127800,10.5811279296875,-1.043273373413086,-7.690624645233154,-5.455487757873535
1758274171913086000,10.5910859375,2.2240637046813965,-10.115950926971434,-6.3426891105651855
1758274171923044900,10.601044921875,3.873967923736572,-8.58051947479248,-5.899911441040039
1758274171933003000,10.6110029296875,1.363647483062744,-7.888744832611083,-5.316175148773193
1758274171942962000,10.6209619140625,0.8942343200683593,-7.4676646156311035,-3.9917327178955078
1758274171952920000,10.630920166015626,1.7989432723999021,-7.336133161926269,-1.4363713584899902
1758274171962877700,10.640877685546876,1.6693571075439453,-8.715492593383788,0.8614636848449706
1758274171972836900,10.6508369140625,-2.653972540283203,-10.950479843139648,-0.5135562561035156
1758274171982794800,10.660794677734375,-2.586785256195068,-13.305925363922118,-1.348982997894287
1758274171992754000,10.67075390625,1.3896844261169432,-13.144765664672851,-0.28476035995483395
1758274172002711800,10.6807119140625,-7.820958998107909,-14.762647436523437,4.11787721786499
1758274172012669700,10.690669677734375,5.805490113067626,-14.638148950195312,0.5321113189697265
1758274172022628900,10.70062890625,0.6988076095581054,-11.099668534088135,-1.4778209747314452
1758274172032586800,10.710586669921875,-6.587047317504882,-12.728324213409422,-3.957615344238281
1758274172042545000,10.720544921875,-2.8266543350219724,-16.502034942626953,-6.010643267822266
1758274172052503800,10.73050390625,1.3245920684814452,-16.251840869140626,-5.1331683593749995
1758274172062462000,10.7404619140625,4.252850336456299,-13.537863649749754,-2.627935597229004
1758274172072420900,10.7504208984375,5.264101262664795,-13.150152618408203,-1.0365396812438965
1758274172082378800,10.760378662109375,4.257788377380371,-14.542979434204101,-0.9178770614624023
1758274172092337000,10.7703369140625,2.7234043884277344,-13.946823220825195,-1.0212766456604003
1758274172102295800,10.7802958984375,2.0192098251342774,-11.008988146209717,-1.0881646545410155
1758274172112254000,10.79025390625,1.6092027908325195,-9.475053070068359,-1.6225205375671385
1758274172122212900,10.800212890625,1.2678794166564942,-11.442488284301756,-2.378788986968994
1758274172132171000,10.8101708984375,1.6555904479980468,-14.215572357177734,-2.9884125846862792
1758274172142129000,10.82012890625,3.199700881195068,-15.205874018859863,-2.5432407135009765
1758274172152087800,10.830087890625,5.380818593597412,-16.422427737426755,-0.8587702079772949
1758274172162046000,10.8400458984375,2.495506317901611,-14.631115982818603,0.1771709228515625
1758274172172004900,10.8500048828125,-2.4405893173217774,-13.986926098632813,1.070058504486084
1758274172181963000,10.859962890625,-3.8986581283569333,-14.386009587860107,1.5523405014038085
1758274172191920600,10.869920654296875,-4.257938014984131,-14.219762210083006,2.28556475982666
1758274172201880000,10.879880126953125,0.1892915687561035,-14.663736980438232,3.8269817161560056
1758274172211837700,10.889837646484375,0.5588964500427246,-13.70126791305542,4.64774397277832
1758274172221795800,10.8997958984375,5.081094473266601,-13.275100017547606,4.412364022064208
1758274172231754800,10.909754638671876,2.494159579467773,-12.487108396148681,4.031536320495605
1758274172241713000,10.919712890625,-6.14845950088501,-10.60436806564331,3.5118449226379393
1758274172251671800,10.929671875,-2.758569225311279,-10.433930834960936,2.2095488571166992
1758274172261629700,10.939629638671875,0.01915361328125,-10.640430728149413,1.2879308555603026
1758274172271587800,10.949587890625,-4.444236831665039,-8.898798657989502,0.8283937744140625
1758274172281546800,10.959546630859375,-7.542932330322265,-8.601768014526368,2.6307787117004393
1758274172291505000,10.9695048828125,0.08933364944458007,-8.68945565032959,5.343858105468749
1758274172301463800,10.9794638671875,4.460846605682373,-9.155726423645019,5.385756634521484
1758274172311422000,10.989421875,-2.749590969085693,-9.28875425338745,9.27633433227539
1758274172321379800,10.9993798828125,-15.913510247039794,-5.5844753723144525,16.86041700363159
1758274172331339000,11.009339111328124,-14.669273571777342,-2.006490628814697,20.318093113708496
1758274172341297000,11.019296875,-5.7597010063171385,-2.165405764007568,20.336797814178464
1758274172351255800,11.029255859375,0.3504512680053711,-5.1708770355224605,17.578827139282225
1758274172361214000,11.0392138671875,4.393509683990478,-8.505102122497558,12.114361125183105
1758274172371171800,11.049171875,6.728155577850341,-10.049811106109619,7.160009702301025
1758274172381131000,11.059131103515625,11.973402502441406,-9.540295065307618,4.153191692352294
1758274172391089000,11.0690888671875,13.118579084014891,-7.687931168365478,2.2903531631469725
1758274172401046800,11.079046875,13.909563457489012,-5.697302125549316,0.7624035911560059
1758274172411006000,11.089005859375,12.44925008239746,-3.384204046630859,-0.24555530776977538
1758274172420963800,11.0989638671875,10.020182860565185,-0.5593453628540038,-1.2068272743225097
1758274172430922800,11.1089228515625,8.795099798583983,2.428468671417236,-1.6927005737304686
1758274172440881000,11.118880859375,8.71459476776123,5.156960738372803,-1.5843629486083983
1758274172450838800,11.1288388671875,8.842983831787109,6.587346592712402,-1.5524901390075683
1758274172460797700,11.138797607421875,8.974964198303223,7.327005268096923,-1.0932523330688475
1758274172470755800,11.148755859375,9.312546632385253,6.318298181152343,-0.47195700225830073
1758274172480714800,11.15871484375,9.274837956237793,4.393210408782958,0.21787235107421873
1758274172490673000,11.1686728515625,9.013570700073242,2.107944924163818,1.0224737464904785
1758274172500630800,11.178630859375,8.891316777801514,-0.39160160903930663,1.9086276359558105
1758274172510590000,11.18858984375,9.523535653686523,-2.388365793609619,2.562843239593506
1758274172520547800,11.1985478515625,10.541220996856689,-4.015076184082031,2.8303952751159667
1758274172530506000,11.208506103515624,11.9511064994812,-4.907963765716552,2.9906571487426756
1758274172540465000,11.21846484375,13.322834413146971,-5.906645133209228,2.48338567199707
1758274172550422800,11.2284228515625,14.1346184135437,-7.259219433593749,1.2624924629211425
1758274172560382000,11.2383818359375,13.823671472930908,-7.756315553283691,-0.34237083740234375
1758274172570339800,11.24833984375,13.443591959381102,-8.164526936340332,-2.0433014793395996
1758274172580298000,11.258298095703125,12.096254975128174,-7.943961108398437,-3.5057097808837887
1758274172590256600,11.268256591796876,10.320804806518554,-6.868665287780761,-4.622904130554199
1758274172600214800,11.27821484375,7.219715106201171,-5.108178879547119,-5.608567026519775
1758274172610172700,11.288172607421876,4.210802169799805,-2.4889222633361814,-5.5267152572631835
1758274172620131800,11.2981318359375,2.6924294044494625,-0.3993827644348144,-4.278139091491699
1758274172630089700,11.30808984375,1.7817349479675293,0.5029319862365722,-2.934692684936523
1758274172640048600,11.318048583984375,1.293467446899414,0.9395745140075683,-1.9107225624084472
1758274172650006800,11.3280068359375,1.795202332305908,1.079635311126709,-0.7713818473815918
1758274172659964700,11.337964599609375,3.23696064453125,1.1490671592712403,0.22670096969604492
1758274172669923800,11.347923828125,4.529380628204345,0.8722375923156738,0.9250596664428711
1758274172679881700,11.3578818359375,5.223399834442138,1.0922048698425293,1.641374875640869
1758274172689841000,11.3678408203125,5.693710823059082,1.2973580245971679,2.1984756744384764
1758274172699798800,11.377798828125,6.298396379852295,1.304241354370117,2.503137835693359
1758274172709757000,11.3877568359375,7.042693820953369,1.0889128425598145,2.4589947425842285
1758274172719715800,11.3977158203125,7.606378674316406,0.5193921226501464,1.996913822174072
1758274172729674000,11.407674072265625,7.912836486816405,0.003591302490234375,1.2767080352783202
1758274172739631900,11.4176318359375,14.867543396759032,1.2452841384887694,5.3585225906372065
1758274172749590800,11.4275908203125,26.511294258117672,2.8631659103393554,16.052972493743894
1758274172759548700,11.437548583984375,8.588599905395506,-1.0013748443603514,3.9125744255065915
1758274172769507800,11.4475078125,7.491157719421386,-0.06329670639038086,1.648407843017578
1758274172779465700,11.4574658203125,9.208249222564696,1.3007996894836424,2.4438813446044922
1758274172789423600,11.467423583984376,8.01877991027832,2.1779753227233885,1.8206407249450682
1758274172799382800,11.4773828125,6.852953339385986,2.568978381347656,1.7166425903320313
1758274172809340700,11.487340576171874,6.1070098846435545,3.3168671249389647,1.5096937843322753
1758274172819298800,11.497298828125,5.877914713287353,3.74123936920166,1.5575778175354003
1758274172829257700,11.5072578125,6.927921778869629,3.0228292335510254,1.2897265068054198
1758274172839215900,11.5172158203125,8.804526967620848,1.4712369201660156,-0.5108627792358398
1758274172849174800,11.5271748046875,10.207080227661132,0.7966706024169922,-2.110488763427734
1758274172859132700,11.537132568359375,9.214982914733886,1.555782166290283,-2.2616227432250975
1758274172869090800,11.5470908203125,11.000907715606688,1.2490250785827637,-0.49096097793579097
1758274172879049700,11.5570498046875,9.291447730255127,1.2548609451293944,0.20096330184936523
1758274172889007900,11.5670078125,8.272415648651123,1.8875287338256834,0.43364977569580077
1758274172898965800,11.5769658203125,8.58770207977295,2.754828285217285,0.8176198669433593
1758274172908925000,11.586925048828125,8.545504275512695,3.0199861190795896,0.9080009796142577
1758274172918882800,11.5968828125,8.72072990951538,2.9972412033081053,0.9403227020263671
1758274172928841700,11.606841796875,8.760982424926757,2.8239608581542965,0.9262567672729491
1758274172938799900,11.6167998046875,8.461557579803467,2.6315268997192383,1.1547533882141112
1758274172948757800,11.6267578125,8.304887008666991,2.887556839752197,1.177199028778076
1758274172958717000,11.636717041015626,8.291269986724853,3.0885201416015624,1.1555015762329102
1758274172968674800,11.6466748046875,8.385392039489746,3.0383915443420406,0.953790086364746
1758274172978632700,11.6566328125,8.476371702575683,2.769642407989502,0.9047089523315429
1758274172988591600,11.666591552734374,8.635137200164795,2.615665313720703,0.8858546142578124
1758274172998549800,11.6765498046875,8.676886091613769,2.737619960784912,0.9229647399902343
1758274173008508700,11.6865087890625,8.686163623046875,2.8479028747558592,0.9705494979858398
1758274173018466800,11.696466796875,8.656984290313721,3.0731074684143063,1.0034697708129883
1758274173028424700,11.7064248046875,8.572887957000733,3.303998291015625,0.7891887222290038
1758274173038383600,11.716383544921875,8.5049524848938,3.4205659843444822,0.41853637771606444
1758274173048341800,11.726341796875,8.46499924468994,3.452588431549072,0.10295067138671875
1758274173058300000,11.7362998046875,8.481609018707275,3.5926492286682126,-0.1140238540649414
1758274173068258800,11.7462587890625,8.640524153900145,3.566313010406494,-0.2545335639953613
1758274173078216700,11.756216796875,8.758588223266601,3.4645594398498534,-0.21532851181030271
1758274173088175900,11.76617578125,8.820687828826903,3.28798706741333,-0.04085106582641601
1758274173098133800,11.7761337890625,9.134178608703612,3.098246585845947,0.13063362808227538
1758274173108092000,11.786091796875,9.450961415863036,3.0400375579833985,0.31663316955566406
1758274173118050800,11.79605078125,9.577704466247559,3.0084640235900877,0.4273649963378906
1758274173128009000,11.806009033203125,9.606883798980713,3.001730331420898,0.4342483261108398
1758274173137966800,11.815966796875,9.50602805404663,3.135955261993408,0.3221697608947754
1758274173147925800,11.82592578125,9.413252739715576,3.238905933380127,0.23687632675170897
1758274173157884000,11.8358837890625,9.296535408782958,3.407397875213623,0.11911153259277343
1758274173167842800,11.8458427734375,9.055469229125976,3.5872622749328613,-0.13946224670410157
1758274173177801000,11.855801025390624,8.91929900970459,3.482665589904785,-0.3286041778564453
1758274173187758600,11.865758544921874,8.960449350738525,3.3521815994262694,-0.2841618095397949
1758274173197717800,11.8757177734375,9.026738809204101,3.3580174659729,-0.047285482788085934
1758274173207675600,11.885675537109375,9.12355433883667,3.2836475769042965,0.21248539733886718
1758274173217633800,11.8956337890625,9.270348828125,3.2345664428710936,0.4161421760559082
1758274173227592700,11.9055927734375,9.360729940795897,3.093158907318115,0.4900631523132324
1758274173237550800,11.91555078125,9.443778810882568,2.9254151535034176,0.47854105682373044
1758274173247508700,11.9255087890625,9.577105915832519,3.0080151107788082,0.44068274307250976
1758274173257467600,11.935467529296876,9.89463691101074,2.971653173065185,0.33803134689331055
1758274173267425800,11.94542578125,10.084527030181885,2.6816554969787596,0.26695348510742184
1758274173277384700,11.955384765625,10.31047981185913,2.535908470916748,0.3021183219909668
1758274173287342800,11.9653427734375,10.293870037841796,2.7225065628051754,0.4391863670349121
1758274173297300700,11.97530078125,11.218181516265869,2.9824270805358886,0.47120881423950195
1758274173307260000,11.985260009765625,10.05519805984497,4.197783698272705,-0.2518400871276855
1758274173317217800,11.9952177734375,7.255328855895995,4.602254141235352,-0.862511148071289
1758274173327176000,12.005176025390625,7.7587097549438475,4.365078539276123,-1.60875387802124
1758274173337134800,12.015134765625,7.495048297119141,4.101865994262695,-1.9776105712890624
1758274173347093000,12.025093017578126,7.867197017669677,4.123563446807861,-1.6561889984130858
1758274173357052000,12.035052001953124,8.585008602905273,3.829974468231201,-0.869544115447998
