time,seconds_elapsed,z,y,x
1758274161373270300,0.051270263671875,8.650684313386678,4.617459601412714,-0.12294064416056498
1758274161383229200,0.061229248046875,8.601511409416794,4.709807337981462,-0.04582141985120251
1758274161393187300,0.071187255859375,8.535718210035562,4.828054947221279,0.042271024760091674
1758274161403146200,0.081146240234375,8.453419866055249,4.968837044352293,0.14399788083974271
1758274161413104400,0.0911044921875,8.35679196794927,5.124352600234746,0.27463423060206693
1758274161423063300,0.101063232421875,8.249970008087157,5.283551228544115,0.4387124293802306
1758274161433021200,0.111021240234375,8.141828782320022,5.429243309548497,0.6358651964981109
1758274161442980400,0.12098046875,8.03961051686108,5.54643468773365,0.8786975821100175
1758274161452939300,0.130939208984375,7.941756876352429,5.633805512672662,1.1658123231712727
1758274161462897400,0.1408974609375,7.841482730698585,5.698229761788249,1.487181069881469
1758274161472856300,0.150856201171875,7.729373770344257,5.740990460628271,1.862308221720904
1758274161482814200,0.160814208984375,7.600068175995349,5.760052888494729,2.287167957239598
1758274161492773400,0.1707734375,7.453676422289013,5.753905471780896,2.7396464981764552
1758274161502731300,0.180731201171875,7.2931456685930485,5.732324339091777,3.181330234985053
1758274161512690400,0.1906904296875,7.133942364108562,5.711774887537956,3.5570875014215706
1758274161522648300,0.2006484375,6.992793771752715,5.702898922643065,3.8403339496821163
1758274161532607200,0.210607177734375,6.887823577237129,5.69304329906106,4.039497216372192
1758274161542566400,0.22056640625,6.813768745467066,5.645998054769635,4.226777737566828
1758274161552524300,0.230524169921875,6.786577371680736,5.53910478323698,4.408069539740682
1758274161562483200,0.240483154296875,6.788400495454669,5.372743423691392,4.606694461770355
1758274161572441300,0.25044140625,6.792871503388882,5.163287018784881,4.834019116322696
1758274161582399200,0.260399169921875,6.782595608568191,4.928392221239209,5.087015680009126
1758274161592357000,0.270357177734375,6.759013072928786,4.689506600491702,5.33803860553503
1758274161602316000,0.28031591796875,6.729548493513464,4.461299902407824,5.566000388947129
1758274161612274200,0.290274169921875,6.702696142423153,4.24334630279094,5.765263901141285
1758274161622233000,0.300233154296875,6.690580172693729,4.021453902420402,5.935859537255764
1758274161632192300,0.310192138671875,6.70368866059184,3.780437407124042,6.077766254502534
1758274161642150100,0.320150146484375,6.7485004467427725,3.5082340386644004,6.1903492621093985
1758274161652109000,0.330109130859375,6.826279851993918,3.200890675501525,6.2710921933412545
1758274161662067200,0.340067138671875,6.930674876970052,2.862963081243634,6.3197764370113605
1758274161672026000,0.350026123046875,7.043454283931851,2.5043942654952405,6.3472951430559155
1758274161681984300,0.359984375,7.138321602106094,2.133072351157665,6.376892408940195
1758274161691943200,0.369943115234375,7.188954641756415,1.762190289542079,6.43303982809782
1758274161701901300,0.3799013671875,7.18963619427979,1.3988620043069124,6.520942567956447
1758274161711860200,0.389860107421875,7.159620995244383,1.0407310685191302,6.620202568131685
1758274161721818000,0.399818115234375,7.121622980761527,0.6859715819258242,6.706885410806536
1758274161731777300,0.40977734375,7.094869413870573,0.3353400619827211,6.761712979537248
1758274161741736200,0.419736083984375,7.0826038065373895,-0.00922224959040177,6.782848122024536
1758274161751694000,0.429694091796875,7.0616954585433005,-0.33949053272567686,6.796145410493016
1758274161761653200,0.4396533203125,7.0085974900841705,-0.6474127186898142,6.828674638175964
1758274161771611100,0.449611083984375,6.924182007819414,-0.9305668124917894,6.881869637268781
1758274161781570300,0.4595703125,6.822659907931089,-1.1881297342456876,6.943344973450898
1758274161791528200,0.469528076171875,6.720403064027428,-1.4162553299173712,7.000055871710181
1758274161801487000,0.479487060546875,6.624768853133917,-1.61245594740957,7.04860275273621
1758274161811445200,0.4894453125,6.531858514246344,-1.781525543000549,7.094460248547792
1758274161821404200,0.499404052734375,6.431131364127993,-1.933226801291853,7.146577389276027
1758274161831363300,0.50936328125,6.301823431691527,-2.08562641711086,7.218557168337703
1758274161841321200,0.5193212890625,6.129946523594856,-2.2521349300421774,7.315874802273512
1758274161851280100,0.529280029296875,5.934513383343815,-2.4105638891533014,7.42570704986751
1758274161861238300,0.53923828125,5.7498664255231615,-2.538528590287268,7.5276353924691675
1758274161871197200,0.549197265625,5.602187554615735,-2.6469959792688487,7.601269953000545
1758274161881155300,0.5591552734375,5.48871139756143,-2.762366864028573,7.642889665111899
1758274161891114200,0.5691142578125,5.375201338237524,-2.896677134796977,7.673778139850497
1758274161901072400,0.579072265625,5.225308298411965,-3.0455931462839243,7.719514055109023
1758274161911031300,0.58903125,5.029104173788428,-3.2054595908522603,7.784826192975044
1758274161920989200,0.5989892578125,4.796595394596457,-3.3725787830278273,7.8605825679659835
1758274161930948400,0.6089482421875,4.547002209612727,-3.526531619638204,7.94095257423222
1758274161940907300,0.6189072265625,4.293598818691074,-3.656574003829062,8.02277161026299
1758274161950865200,0.628865234375,4.021388728229701,-3.7812276807188985,8.105624665516615
1758274161960824300,0.63882421875,3.725383043900132,-3.910501418624818,8.185345852485298
1758274161970782200,0.6487822265625,3.419669912287593,-4.055489443013072,8.247984971749782
1758274161980741400,0.658741455078125,3.09854907592386,-4.22510571270138,8.289624557605386
1758274161990699300,0.66869921875,2.7504890869691967,-4.414196790449321,8.313848898279666
1758274162000658200,0.678658203125,2.3817162725925445,-4.636092113429307,8.306893087792396
1758274162010616300,0.6886162109375,2.0606886674702167,-4.880159228467941,8.252757592979073
1758274162020575200,0.6985751953125,1.8425421756297349,-5.116128377246857,8.160921605324745
1758274162030533400,0.708533447265625,1.7337750730492174,-5.334785156697034,8.043909675359725
1758274162040492300,0.7184921875,1.692027642904967,-5.545490100359916,7.909169781002402
1758274162050451200,0.728451171875,1.6629804121188818,-5.748671078258752,7.76901896751225
1758274162060409300,0.738409423828125,1.6284639561414718,-5.948766949623823,7.624346292683482
1758274162070368300,0.7483681640625,1.592880163193494,-6.162661629238724,7.460207869884371
1758274162080326400,0.758326416015625,1.558890507569164,-6.389048126158118,7.274633275824785
1758274162090285300,0.768285400390625,1.526716230803728,-6.612935791999101,7.078743623977899
1758274162100243500,0.778243408203125,1.4925338290862737,-6.823785697090625,6.883216960224509
1758274162110202400,0.788202392578125,1.483433261655271,-7.024398870328068,6.680391371634602
1758274162120160300,0.79816015625,1.4578915547721087,-7.233856444278359,6.4588113982141016
1758274162130119400,0.808119384765625,1.3889859224587677,-7.449868846699595,6.224190741434693
1758274162140077300,0.818077392578125,1.3513134866684675,-7.648093078973889,5.987572188836336
1758274162150036200,0.8280361328125,1.3807755818657577,-7.817998394736647,5.756972458136081
1758274162159994000,0.837994140625,1.4313641978524625,-7.964103732717037,5.5402720734506845
1758274162169953300,0.847953369140625,1.4262168980918823,-8.09114079761207,5.354412817230821
1758274162179912400,0.857912353515625,1.3544259196005761,-8.192772787615656,5.216739792031049
1758274162189870300,0.867870361328125,1.2729932525388896,-8.280813474640249,5.096861951240897
1758274162199829200,0.877829345703125,1.21544042356275,-8.382609715294837,4.942157711741328
1758274162209787100,0.887787109375,1.1466476039741187,-8.510537591549754,4.735645251332223
1758274162219746300,0.897746337890625,1.0270311905991285,-8.665496098071337,4.474904357129335
1758274162229704200,0.9077041015625,0.8793686863046138,-8.831008147311211,4.172578822128474
1758274162239663000,0.9176630859375,0.7252903966836631,-8.990994711127877,3.8479035081535575
1758274162249621200,0.927621337890625,0.5870415808899327,-9.13782193364203,3.510834868812561
1758274162259580200,0.937580078125,0.46938715177029366,-9.266033887535333,3.176583332718909
1758274162269538000,0.9475380859375,0.38174339164141563,-9.371208080190419,2.864458872759342
1758274162279497200,0.957497314453125,0.3777733920319006,-9.430130224758386,2.6646435719013213
1758274162289456000,0.9674560546875,0.4195358370821923,-9.448571305856108,2.592076348340511
1758274162299414300,0.977414306640625,0.4449694074157625,-9.467858774650097,2.516352414314449
1758274162309373200,0.987373291015625,0.4407818195328116,-9.50655178565979,2.3667623029582203
1758274162319331000,0.9973310546875,0.4098145074043423,-9.562150923284888,2.1372171958774326
1758274162329290200,1.007290283203125,0.35916594139132646,-9.625363458523154,1.8422145511105656
1758274162339248000,1.017248046875,0.29595724207796154,-9.686642395350336,1.5005793345063925
1758274162349207000,1.02720703125,0.21107602373128756,-9.74001275101006,1.1215995258267968
1758274162359165200,1.037165283203125,0.1517240637781564,-9.77945570360422,0.713870154133439
1758274162369124000,1.0471240234375,0.17389663215493784,-9.803500596058369,0.1774680426346138
1758274162379082200,1.057082275390625,0.25453139030458405,-9.786340786942839,-0.5771704309452325
1758274162389041200,1.067041259765625,0.34541692709997296,-9.711805478179453,-1.3160288227975367
1758274162398999300,1.076999267578125,0.41301688364222644,-9.624298459640144,-1.836492081810534
1758274162408958200,1.086958251953125,0.411041966840066,-9.557013560396433,-2.159844915010035
1758274162418916400,1.096916259765625,0.3396372477199882,-9.503655479696393,-2.3949064474247392
1758274162428875300,1.106875244140625,0.22645415532812474,-9.452636655598878,-2.6013053644567727
1758274162438834200,1.116834228515625,0.09774888322623446,-9.410271093556284,-2.758196592606604
1758274162448792300,1.126792236328125,-0.008186014435929246,-9.408782900825143,-2.764985229833424
1758274162458751200,1.136751220703125,-0.05888802766923327,-9.438066278454661,-2.6626664266094564
1758274162468709000,1.146709228515625,-0.05427908626878634,-9.458707499945163,-2.5884946904614567
1758274162478668300,1.156668212890625,-0.0167664338752802,-9.465073527845739,-2.565634331616759
1758274162488626200,1.166626220703125,0.03588324168543331,-9.466107547068596,-2.561619543017447
1758274162498585300,1.17658544921875,0.08393995544118807,-9.468127654719352,-2.553018303410709
1758274162508543200,1.186543212890625,0.10921064509693533,-9.474204344284534,-2.529410633330047
1758274162518502100,1.196502197265625,0.10490752280922606,-9.48362975975573,-2.4940207555189726
1758274162528460300,1.206460205078125,0.0806892008837778,-9.49308323227763,-2.4587115417286753
1758274162538419200,1.216419189453125,0.05683081657821312,-9.498646711623667,-2.4378020246908068
1758274162548377300,1.22637744140625,0.049831605340633536,-9.499049447205662,-2.4363860204130408
1758274162558336300,1.236336181640625,0.06249711697790771,-9.497294127970934,-2.4429291584461925
1758274162568294400,1.24629443359375,0.08209222694896161,-9.49498643555045,-2.451302434515953
1758274162578253300,1.25625341796875,0.09721022803857922,-9.492550148314237,-2.4601731387138366
1758274162588212200,1.266212158203125,0.10508000243245623,-9.491424359154701,-2.4641870505303145
1758274162598170400,1.27617041015625,0.10617597184246405,-9.49159562406838,-2.463482993914187
1758274162608129300,1.28612939453125,0.10243083963054232,-9.49187327196598,-2.462572308810055
1758274162618087200,1.296087158203125,0.095072677153768,-9.491723049840331,-2.463441785120964
1758274162628046300,1.30604638671875,0.08515628156154416,-9.491354801049829,-2.4652254536673426
1758274162638004200,1.316004150390625,0.075785454954952,-9.490900043019652,-2.4672733261078594
1758274162647963400,1.32596337890625,0.07135350038949399,-9.490914656066893,-2.467353990128636
1758274162657921300,1.33592138671875,0.07283720417518634,-9.491477550646662,-2.4651412825152277
1758274162667880200,1.345880126953125,0.07569230591193772,-9.49036228288114,-2.4693454562067982
1758274162677838300,1.35583837890625,0.09184587886068038,-9.459578437560797,-2.5842425859749314
1758274162687797200,1.36579736328125,0.14028102487423455,-9.402267235320807,-2.7835411694824694
1758274162697755400,1.37575537109375,0.20056403686609117,-9.352954046097397,-2.9415009036466477
1758274162707714300,1.38571435546875,0.24313617259776218,-9.298830241721868,-3.1053254381909965
1758274162717672400,1.39567236328125,0.28459534211885185,-9.244092104840279,-3.2613109496727586
1758274162727631400,1.40563134765625,0.3691502693869173,-9.193308258542418,-3.393697266641259
1758274162737589200,1.41558935546875,0.5174483316386118,-9.153933110487461,-3.4796769294828174
1758274162747548400,1.42554833984375,0.7128296321045607,-9.135559249407052,-3.4933956582337617
1758274162757507300,1.43550732421875,0.9002206279363483,-9.142661774888634,-3.4309964852049943
1758274162767465500,1.445465576171875,0.9958835534676909,-9.162205264270305,-3.3515079379484054
1758274162777424400,1.45542431640625,0.9640404083527624,-9.182515061849355,-3.30491102194637
1758274162787382300,1.46538232421875,0.8221852020975202,-9.204863671779632,-3.280991217176616
1758274162797341400,1.475341552734375,0.5738343453250825,-9.254751446020602,-3.1922885591119528
1758274162807299300,1.48529931640625,0.2712506343120709,-9.332401671934127,-3.000513064585626
1758274162817258200,1.49525830078125,-0.005481155945247155,-9.415628236675262,-2.741587987633049
1758274162827216400,1.50521630859375,-0.19785022959643975,-9.48717254692912,-2.4748355780556794
1758274162837175300,1.51517529296875,-0.2720560689434409,-9.541413255682587,-2.2489535235270854
1758274162847133400,1.525133544921875,-0.22834667281014842,-9.580171148622036,-2.082915404586494
1758274162857092400,1.53509228515625,-0.10589470721567049,-9.609954292467236,-1.951398856189847
1758274162867050200,1.54505029296875,0.04518586189402267,-9.63407867989838,-1.8310871540270746
1758274162877009400,1.555009521484375,0.1778751621307805,-9.65094096737206,-1.7315025980725884
1758274162886967300,1.56496728515625,0.26123934524431824,-9.658912092381716,-1.6755791969291864
1758274162896926200,1.57492626953125,0.2980148504612036,-9.657554832553863,-1.677259843492508
1758274162906884000,1.584884033203125,0.3062404982211999,-9.646693831321597,-1.7372047552369534
1758274162916843300,1.59484326171875,0.3001271116411313,-9.627004795989393,-1.8442003181003033
1758274162926802400,1.604802490234375,0.29379706836938857,-9.60075099531412,-1.977284992596507
1758274162936760000,1.614760009765625,0.3428160604191944,-9.595355273750425,-1.9955033708542584
1758274162946719200,1.62471923828125,0.4517775895932689,-9.626294601893424,-1.8167922328233719
1758274162956677000,1.634677001953125,0.521742777429521,-9.648554949018358,-1.6743832651428878
1758274162966636300,1.64463623046875,0.5297928128942847,-9.664800565898418,-1.5752186881661414
1758274162976594200,1.65459423828125,0.5128041590945794,-9.686036830672622,-1.4450263741105793
1758274162986553000,1.664552978515625,0.4753563989056274,-9.71060019404292,-1.284002576200664
1758274162996511200,1.67451123046875,0.4211906550845131,-9.73671078685522,-1.0906189158253372
1758274163006470100,1.68447021484375,0.40094431466311214,-9.757679925125837,-0.8929111086405813
1758274163016428300,1.69442822265625,0.4309963385775685,-9.770493813991546,-0.7225523500218987
1758274163026387200,1.70438720703125,0.46719957859814165,-9.77891502085626,-0.5700444880554453
1758274163036345300,1.714345458984375,0.4851660644540563,-9.785590260836482,-0.42094449830371883
1758274163046304300,1.72430419921875,0.4870887761449441,-9.790604289606213,-0.2778422511294484
1758274163056262100,1.73426220703125,0.48077553787752986,-9.793806885039805,-0.14354162497222422
1758274163066221300,1.74422119140625,0.4768595700101927,-9.795033796486258,-0.01779359067415353
1758274163076179200,1.75417919921875,0.4835032458083704,-9.794145907735825,0.10625392331634648
1758274163086138400,1.764138427734375,0.4977282801136374,-9.791258369600772,0.23217302616527302
1758274163096097300,1.77409716796875,0.5162290920419618,-9.78667454894185,0.3533969660684466
1758274163106055200,1.78405517578125,0.5210198699824512,-9.781768656721711,0.46467893754672257
1758274163116014300,1.794014404296875,0.46792467800229787,-9.778481890136003,0.5767961177401244
1758274163125972200,1.80397216796875,0.40827874920442697,-9.77339538065195,0.6959987626824528
1758274163135931100,1.81393115234375,0.378737707019411,-9.763820912098884,0.8335087793402374
1758274163145889300,1.82388916015625,0.32448855923116204,-9.751056123071908,0.9909505540449172
1758274163155848200,1.83384814453125,0.24608009882885962,-9.735604871439934,1.1523238960448652
1758274163165806300,1.843806396484375,0.18602189943566919,-9.718066292139888,1.301908527508378
1758274163175765200,1.85376513671875,0.166133834400028,-9.702140408733486,1.418184982805699
1758274163185723400,1.863723388671875,0.14873128430349752,-9.690894207575917,1.4949414747498928
1758274163195682300,1.873682373046875,0.14091382461874746,-9.68350409732461,1.542816886255145
1758274163205640200,1.88364013671875,0.14850365869323723,-9.678762455755471,1.571585446230322
1758274163215599400,1.893599365234375,0.15609483534144236,-9.676742932626604,1.583244758233428
1758274163225557200,1.90355712890625,0.15800547300204634,-9.67652841309309,1.5843692322187124
1758274163235516400,1.913516357421875,0.1565160016292706,-9.676757545673846,1.5831109027206898
1758274163245474300,1.923474365234375,0.15816482828222214,-9.677483521860838,1.5785031166642904
1758274163255433200,1.93343310546875,0.16793730362541973,-9.67902841321528,1.567988736912608
1758274163265392400,1.943392333984375,0.1856528834601864,-9.682353758245705,1.545299058459699
1758274163275350300,1.953350341796875,0.2075584440643899,-9.688651981607078,1.5024424980297684
1758274163285309400,1.963309326171875,0.22390068971933796,-9.697702134025096,1.4404280865348875
1758274163295267300,1.973267333984375,0.22769608168061822,-9.706669868856668,1.378087365695089
1758274163305226200,1.983226318359375,0.22315995435463262,-9.713525141578913,1.3296739017903805
1758274163315184400,1.993184326171875,0.21604276102688164,-9.718385441091655,1.2948736604355275
1758274163325143300,2.003143310546875,0.20885884087216108,-9.721855747550725,1.269760554227978
1758274163335101400,2.013101318359375,0.20256269987002015,-9.724500124579668,1.2503821922801435
1758274163345060400,2.023060302734375,0.19753603081442414,-9.726336107835174,1.2368354590952395
1758274163355018500,2.0330185546875,0.19404471809994428,-9.727055654281378,1.231720892560482
1758274163364977400,2.042977294921875,0.193067634962406,-9.727063837587833,1.231808570843935
1758274163374935300,2.052935302734375,0.19415387756284325,-9.726728322023153,1.2342787603497505
1758274163384894500,2.06289453125,0.19755321941124274,-9.72596844356656,1.2397089687049387
1758274163394852400,2.072852294921875,0.2027133055881597,-9.724567929118871,1.249841363401711
1758274163404811300,2.082811279296875,0.20995651818206532,-9.722480601450801,1.264775897683203
1758274163414769200,2.09276904296875,0.2195668982987292,-9.719626381063462,1.2849233443073929
1758274163424728300,2.102728271484375,0.23309678994668645,-9.71623264697194,1.3080062598615885
1758274163434687500,2.1126875,0.25036479041073467,-9.713163907051086,1.327462947742641
1758274163444645000,2.12264501953125,0.2687388889531605,-9.710928695344924,1.340163439361751
1758274163454604300,2.132604248046875,0.28207882925327865,-9.709299048316478,1.3491970790363847
1758274163464562200,2.142562255859375,0.2914835124637,-9.707781044968963,1.3580956941545008
1758274163474521300,2.152521240234375,0.30168555659689006,-9.706006436511874,1.3685055906184016
1758274163484479200,2.162479248046875,0.3152474508183077,-9.703773562893272,1.3812278556779025
1758274163494438100,2.172438232421875,0.32994923578985036,-9.701468793082237,1.3939217714257537
1758274163504396300,2.182396240234375,0.3421919006388634,-9.69924468729198,1.406399414074421
1758274163514355200,2.192355224609375,0.3515591927146539,-9.697067927774786,1.4190484677672386
1758274163524313000,2.20231298828125,0.3607052797878161,-9.694889999213814,1.4315684882529078
1758274163534272300,2.212272216796875,0.3713495695294812,-9.692579384183883,1.444440244785696
1758274163544230100,2.222230224609375,0.38292847324013707,-9.690257078716158,1.4569329388730228
1758274163554189300,2.232189208984375,0.3948953533550724,-9.687751233375073,1.4703412865005432
1758274163564147200,2.242147216796875,0.4078210685648024,-9.685025607803464,1.484703135460615
1758274163574106000,2.252106201171875,0.4216461802996695,-9.682357849898933,1.4981887861080467
1758274163584065800,2.262065673828125,0.4352745638860389,-9.679915132921934,1.5100221395038067
1758274163594023700,2.272023681640625,0.44633254899512975,-9.677693949741125,1.5209928847208618
1758274163603982600,2.281982666015625,0.4546973129648715,-9.675710082447528,1.5311032137162983
1758274163613940700,2.291940673828125,0.4650189831560477,-9.673630353564024,1.5411080365106462
1758274163623899600,2.301899658203125,0.4805613471375778,-9.67153191998005,1.549483212276548
1758274163633857800,2.31185791015625,0.49890890473295,-9.670210900509357,1.5519377658218145
1758274163643816700,2.321816650390625,0.510187035398744,-9.670376904726028,1.5472271039128302
1758274163653774800,2.33177490234375,0.5144624476956203,-9.671500940319895,1.5387608888626099
1758274163663733800,2.341733642578125,0.5176941596258431,-9.673190793102979,1.5270092224009335
1758274163673691600,2.351691650390625,0.5228967332376167,-9.67533306582868,1.5115829590797423
1758274163683650800,2.36165087890625,0.530708539499715,-9.677790395852924,1.4930192745156585
1758274163693608700,2.371608642578125,0.5415796602671966,-9.680390349218248,1.4721037661284206
1758274163703567600,2.381567626953125,0.5558885369310155,-9.682807347232103,1.4507212247513235
1758274163713525800,2.39152587890625,0.5737186830561608,-9.68473334685862,1.4307909280091524
1758274163723484700,2.401484619140625,0.595301861571893,-9.686109311386943,1.4125554524861275
1758274163733442800,2.41144287109375,0.6213713917214423,-9.68693407177329,1.3955636934138833
1758274163743401700,2.421401611328125,0.6524360998097807,-9.68706675824225,1.380377522458881
1758274163753360600,2.431360595703125,0.6895528014134615,-9.686528413581847,1.366040223418176
1758274163763318800,2.44131884765625,0.7320418437052517,-9.685487964618206,1.3512250777326524
1758274163773277700,2.451277587890625,0.7758883650206029,-9.684362759980559,1.334732646484673
1758274163783235800,2.46123583984375,0.819926536450535,-9.683022451287508,1.3180202888756989
1758274163793194800,2.47119482421875,0.8643081875558942,-9.681329675894975,1.3019894837900996
1758274163803153000,2.48115283203125,0.9075788086794316,-9.679552144828438,1.2856729936309157
1758274163813111800,2.49111181640625,0.9488424008294939,-9.677897947880625,1.2682201929181813
1758274163823069700,2.501069580078125,0.986781232471019,-9.676610246157646,1.2489480678237974
1758274163833028900,2.51102880859375,1.0181843787334859,-9.676505616739393,1.2243138311743735
1758274163842986800,2.52098681640625,1.037710551654175,-9.678310620334743,1.1932595714148133
1758274163852946000,2.53094580078125,1.0396480225227773,-9.682463063839077,1.1573385093364863
1758274163862903800,2.54090380859375,1.0212451545435934,-9.688942488986253,1.118866228405386
1758274163872862700,2.55086279296875,0.9866590673960745,-9.69694926983118,1.0798517303563653
1758274163882820900,2.56082080078125,0.9463502917528152,-9.704923317450284,1.0436670489057898
1758274163892779800,2.57077978515625,0.9038221595596522,-9.711773329475522,1.0173207476414738
1758274163902738700,2.58073876953125,0.8493287912193686,-9.717526778435706,1.0093040299244225
1758274163912696800,2.59069677734375,0.7682491023138165,-9.723832016059756,1.0135444439731538
1758274163922655700,2.60065576171875,0.6495781530953944,-9.732716748782991,1.011272772714123
1758274163932614000,2.61061376953125,0.49158199591096485,-9.743045250573754,1.0009001395206898
1758274163942572800,2.62057275390625,0.3060319517707452,-9.75185341092944,0.9889841493427752
1758274163952531000,2.630531005859375,0.1025819750716444,-9.757416305753589,0.9760740335609763
1758274163962489900,2.64048974609375,-0.11394290691637433,-9.758854229602218,0.9602983722802251
1758274163972448000,2.650447998046875,-0.3431250167705118,-9.755320794779061,0.9414802745636552
1758274163982407000,2.660406982421875,-0.5866966033771633,-9.745928112533688,0.9181941645875573
1758274163992364800,2.67036474609375,-0.8457335432063787,-9.72947791299224,0.8901669975642115
1758274164002324000,2.680323974609375,-1.1198672952067106,-9.704663205209373,0.857797417422384
1758274164012281900,2.69028173828125,-1.3998442933425306,-9.671272976782918,0.8229649542983621
1758274164022240800,2.70024072265625,-1.673345738788694,-9.630487377408146,0.7899397597920149
1758274164032198700,2.71019873046875,-1.931624919053167,-9.584257541152834,0.7623612863842397
1758274164042157800,2.72015771484375,-2.1730719147212803,-9.534142972418666,0.7404455149132758
1758274164052117000,2.730116943359375,-2.403290537149459,-9.480883675917983,0.7123219017781317
1758274164062075000,2.740074951171875,-2.6293252980217336,-9.423753090941906,0.6707724053587764
1758274164072033800,2.75003369140625,-2.845487922568619,-9.364747944265604,0.6124735803209245
1758274164081991700,2.75999169921875,-3.05109320500493,-9.305032603493332,0.5268778022304177
1758274164091950800,2.769950927734375,-3.260552824781835,-9.23938728815019,0.41582942031230774
1758274164101908700,2.77990869140625,-3.4799706517323847,-9.163897455140948,0.28837791113117706
1758274164111867600,2.78986767578125,-3.7066084930643437,-9.077924806562066,0.15082579063102602
1758274164121825800,2.79982568359375,-3.937338864406943,-8.981521364861726,0.004494870869112492
1758274164131784700,2.80978466796875,-4.1659319314599035,-8.87657221313417,-0.1477713440970052
1758274164141742600,2.81974267578125,-4.390979873251915,-8.763761826512217,-0.2935961755024269
1758274164151701800,2.82970166015625,-4.609280971132218,-8.645607156252861,-0.4223303266389295
1758274164161659600,2.83965966796875,-4.811711715185642,-8.528536774098873,-0.5309298175675794
1758274164171618800,2.849618896484375,-4.991287945613265,-8.419024259978531,-0.6143664083302021
1758274164181576700,2.85957666015625,-5.149931862649321,-8.317631339427829,-0.6823585059951991
1758274164191535600,2.86953564453125,-5.299065608540177,-8.218756539177894,-0.7364529381457716
1758274164201493800,2.87949365234375,-5.44725242896974,-8.117146761006117,-0.7808464988846331
1758274164211452700,2.88945263671875,-5.587933988335728,-8.016245423364639,-0.8277413018546999
1758274164221411600,2.89941162109375,-5.719056861239672,-7.91607356904149,-0.893623202432692
1758274164231369700,2.90936962890625,-5.852275245118141,-7.807292876327037,-0.9835627088159322
1758274164241328600,2.91932861328125,-5.9935056705385445,-7.682626632216572,-1.1070198693975806
1758274164251286800,2.929286865234375,-6.140199037539959,-7.542552975615859,-1.256288639844954
1758274164261245700,2.93924560546875,-6.285576645767688,-7.392648829874396,-1.417980838535726
1758274164271203800,2.949203857421875,-6.417807772174477,-7.242738838914036,-1.588973657274246
1758274164281162800,2.959162841796875,-6.524934852463007,-7.109096092143655,-1.748242282079905
1758274164291120600,2.96912060546875,-6.6064218800604335,-6.997990755873918,-1.8851260565981267
1758274164301079800,2.979079833984375,-6.666601915735006,-6.9111080067127935,-1.9908336254775523
1758274164311037700,2.98903759765625,-6.709046388232707,-6.843890327486395,-2.078524037759751
1758274164320996900,2.998996826171875,-6.741458711537718,-6.789519270351529,-2.150700362306833
1758274164330954800,3.008954833984375,-6.769707485422492,-6.744413469690084,-2.203249610842019
1758274164340913700,3.01891357421875,-6.796043119162321,-6.708917793416976,-2.23037464139387
1758274164350871800,3.028871826171875,-6.818264887842536,-6.685328828036785,-2.233400126694888
1758274164360830700,3.038830810546875,-6.834013661116361,-6.675934392225742,-2.213264808899909
1758274164370788900,3.048788818359375,-6.840382611626386,-6.683968645599484,-2.1688905373834073
1758274164380747800,3.058747802734375,-6.833221049433946,-6.710227706971764,-2.1095791012369096
1758274164390706700,3.068706787109375,-6.810421773126721,-6.751595490148663,-2.0504962131492794
1758274164400664800,3.078664794921875,-6.772701991063356,-6.805477886983752,-1.9965984726145862
1758274164410623700,3.088623779296875,-6.72162997547388,-6.872237301048636,-1.9397018425248562
1758274164420582000,3.098581787109375,-6.657071870845556,-6.954044646641612,-1.8695017864868044
1758274164430540800,3.108540771484375,-6.577398614671826,-7.050446919298172,-1.7886983572393655
1758274164440499000,3.1184990234375,-6.48332040104866,-7.155987022656202,-1.711360119884461
1758274164450457900,3.128457763671875,-6.379838399264216,-7.261808865565061,-1.6535216788999736
1758274164460415700,3.138415771484375,-6.277941620844603,-7.356249482759833,-1.6258778851710258
1758274164470375000,3.148375,-6.193861069622636,-7.427817173889279,-1.6229508918084203
1758274164480332800,3.158332763671875,-6.136098031961917,-7.4738114478230475,-1.631205071543157
1758274164490291700,3.168291748046875,-6.114359078362583,-7.4921233495831485,-1.6288323510624467
1758274164500249900,3.178249755859375,-6.122939275181293,-7.491498495683073,-1.5992004522562027
1758274164510208800,3.188208740234375,-6.110176824241877,-7.507777430310845,-1.5714393157579003
1758274164520167000,3.1981669921875,-6.0664271143645045,-7.54051825491786,-1.5841137961529195
1758274164530125800,3.208125732421875,-5.992717735031246,-7.600488447234034,-1.5780582955062388
1758274164540084700,3.218084716796875,-5.905511745265126,-7.683621488472819,-1.5024134180657565
1758274164550043000,3.22804296875,-5.8107794516474005,-7.774829699617624,-1.3990281546540557
1758274164560001800,3.238001708984375,-5.7013680598139755,-7.871030312222242,-1.3082957443274557
1758274164569960000,3.2479599609375,-5.578880328786373,-7.969886407771706,-1.2358702673248947
1758274164579918800,3.2579189453125,-5.454440879169106,-8.065559781631826,-1.1688345936018973
1758274164589877000,3.267876953125,-5.333746461299062,-8.155220178812742,-1.1017856950711458
1758274164599836000,3.2778359375,-5.2135126466780894,-8.240871340352296,-1.038137910220772
1758274164609793800,3.287793701171875,-5.085753112727403,-8.327369474110007,-0.9800115922056138
1758274164619753000,3.2977529296875,-4.94573440118432,-8.41753665176928,-0.9247461435142904
1758274164629710800,3.3077109375,-4.793199906939268,-8.51164350696504,-0.8646080472853034
1758274164639670000,3.317669921875,-4.629055346660316,-8.608408183193207,-0.7984636233136058
1758274164649628000,3.3276279296875,-4.45764517929256,-8.704190278124809,-0.7327415894724428
1758274164659586800,3.3375869140625,-4.285209468269348,-8.795358741781115,-0.6701230746045709
1758274164669545000,3.347544921875,-4.116177428209782,-8.880238334426283,-0.607347286815755
1758274164679504000,3.35750390625,-3.951236749117076,-8.959091506388782,-0.5411328298151493
1758274164689462000,3.3674619140625,-3.788047297605872,-9.032980333942174,-0.4757445579729974
1758274164699421000,3.3774208984375,-3.623388942585885,-9.103551999771595,-0.4083733321527019
1758274164709379800,3.3873798828125,-3.4520392732337117,-9.172685157230497,-0.3401103816570714
1758274164719338000,3.397337890625,-3.2758105996683238,-9.239121915212273,-0.27939890598691997
1758274164729297000,3.407296875,-3.098591453760862,-9.30136472863555,-0.231766838250868
1758274164739255000,3.417255126953125,-2.925305263388157,-9.358093162551521,-0.19768155849864705
1758274164749214000,3.4272138671875,-2.7607284491717814,-9.40846901257038,-0.17176232353998347
1758274164759171800,3.437171875,-2.601994808025658,-9.454027817696332,-0.14620213115205988
1758274164769131000,3.447131103515625,-2.440735155533254,-9.497314001715182,-0.11918433296750298
1758274164779089000,3.4570888671875,-2.275893552900851,-9.5384427154392,-0.09400756867290475
1758274164789048000,3.467048095703125,-2.1158881382532417,-9.575366963210701,-0.07588851347062736
1758274164799005700,3.477005615234375,-1.958394414165616,-9.608900984022021,-0.06424346745489165
1758274164808964900,3.48696484375,-1.8042562841162084,-9.639054714745283,-0.06042480878245551
1758274164818922800,3.4969228515625,-1.667179909635335,-9.663647304210066,-0.06934179980747866
1758274164828882000,3.5068818359375,-1.553438964165002,-9.682405780693887,-0.09078052378464489
1758274164838839800,3.51683984375,-1.455071236654371,-9.697354928022623,-0.1202665387136396
1758274164848798700,3.526798828125,-1.3628421580292285,-9.71036054006815,-0.14802258804487065
1758274164858756900,3.5367568359375,-1.2758369515322148,-9.721853409463167,-0.1679478250194341
1758274164868715800,3.5467158203125,-1.196813902895525,-9.731657595118879,-0.18128529936783014
1758274164878675000,3.556675048828125,-1.1239343254499137,-9.740231362196802,-0.1871905413562432
1758274164888632800,3.5666328125,-1.0516389776330441,-9.748407654389739,-0.18169574333224445
1758274164898591700,3.576591796875,-0.979067954679951,-9.756151400384306,-0.17129260540269314
1758274164908550000,3.5865498046875,-0.9065749653991311,-9.763339266061783,-0.16034520452860743
1758274164918508800,3.5965087890625,-0.8357919218413531,-9.76985259347856,-0.14770857192594558
1758274164928466700,3.606466796875,-0.7687904426489025,-9.775555189034343,-0.1337094187984243
1758274164938425900,3.61642578125,-0.7081623709458857,-9.780297999647258,-0.12110272467629983
1758274164948383700,3.6263837890625,-0.6541051290005445,-9.784140062028168,-0.11460523414947092
1758274164958343000,3.636343017578125,-0.6026791123416274,-9.787426828613876,-0.11595481299436651
1758274164968300800,3.64630078125,-0.5483764808004722,-9.790564542117714,-0.12057633531517349
1758274164978259700,3.656259765625,-0.4891162999171763,-9.793616330903768,-0.12743960868078283
1758274164988217900,3.6662177734375,-0.43088648499492554,-9.796172445127368,-0.14042944776844232
1758274164998176800,3.6761767578125,-0.37826789755057544,-9.798001414120197,-0.16276936293561012
1758274165008135000,3.686135009765625,-0.3281604892095551,-9.799272164708375,-0.1921861576864496
1758274165018093800,3.69609375,-0.2764197623119689,-9.80017700459361,-0.22475398208042605
1758274165028052000,3.706052001953125,-0.22118706511277705,-9.800743406304717,-0.25862485189698636
1758274165038011000,3.716010986328125,-0.1617894302538596,-9.800971369841694,-0.29182564043225717
1758274165047969800,3.7259697265625,-0.09645127203059382,-9.8009766305387,-0.3192961416872218
1758274165057928000,3.735927978515625,-0.0232975857847603,-9.800821147716045,-0.3372728201435879
1758274165067886800,3.745886962890625,0.059038861716235985,-9.800298000624775,-0.34792036128826437
1758274165077844700,3.7558447265625,0.1465614659837447,-9.799210789909958,-0.3526327767629176
1758274165087804000,3.765803955078125,0.23241671699434518,-9.797500478860735,-0.35406690121926365
1758274165097761800,3.77576171875,0.3149607428314164,-9.795166482955217,-0.35482634128443896
1758274165107721000,3.785720947265625,0.3936927360996604,-9.792058580067753,-0.3619095044784248
1758274165117678800,3.795678955078125,0.4645596950812265,-9.788182615417242,-0.3821455792341381
1758274165127637800,3.8056376953125,0.5160084350286052,-9.784209620133042,-0.41635804729629305
1758274165137596000,3.815595947265625,0.5318699844945222,-9.781450676813721,-0.4590381917133927
1758274165147554800,3.825554931640625,0.5041257625984028,-9.78092928328812,-0.49966238998137413
1758274165157513000,3.835512939453125,0.44145124322697515,-9.782304663294553,-0.5310465392824262
1758274165167471900,3.845471923828125,0.3652395622165873,-9.784235339096188,-0.5529223075365647
1758274165177430000,3.855429931640625,0.28952719076415523,-9.785908825266361,-0.5679253404770046
1758274165187389000,3.865388916015625,0.2018849284726195,-9.787411046522855,-0.5798153924960643
1758274165197346800,3.875346923828125,0.0800010816222988,-9.787930686482786,-0.600314648232609
1758274165207306000,3.885305908203125,-0.08109893246213905,-9.785571556136011,-0.6374819840449839
1758274165217265000,3.895264892578125,-0.27507729819444937,-9.778507024577259,-0.6895688027001917
1758274165227223000,3.90522314453125,-0.49184784377291796,-9.765441206777096,-0.7514153102822602
1758274165237182000,3.915181884765625,-0.7253803399894386,-9.744964235937594,-0.8245531733378767
1758274165247139800,3.925139892578125,-0.970003043084219,-9.716362995353341,-0.9065064302075654
1758274165257099000,3.93509912109375,-1.2227448282919824,-9.679109661757945,-0.9950396499894559
1758274165267057000,3.945056884765625,-1.4875167315766213,-9.632387658071517,-1.0838787939153611
1758274165277015800,3.955015869140625,-1.7741157051354646,-9.574535188561677,-1.1623903128333388
1758274165286974000,3.964973876953125,-2.0770634636878964,-9.506994853252172,-1.2137780433084815
1758274165296932900,3.974932861328125,-2.374976296813041,-9.43501098253727,-1.2289961437717078
1758274165306891000,3.98489111328125,-2.6453359371021388,-9.36400910859704,-1.2198011760555207
1758274165316850000,3.994849853515625,-2.882421522690356,-9.295277517676354,-1.2082502197977154
1758274165326808000,4.00480810546875,-3.097875414445996,-9.225878987279534,-1.2069380412206052
1758274165336767000,4.01476708984375,-3.3000618283495307,-9.153639680498838,-1.2210152280203996
1758274165346724900,4.024724853515625,-3.500726439513266,-9.073744306007027,-1.2579630027979611
1758274165356684000,4.03468408203125,-3.704777185983956,-8.98330415662527,-1.3210751464016735
1758274165366641700,4.0446416015625,-3.9075972216159105,-8.883616870948671,-1.4079735315233468
1758274165376601000,4.05460107421875,-4.103731788134574,-8.775642233920097,-1.5224559430107474
1758274165386558700,4.064558837890625,-4.295579763375223,-8.656326703187823,-1.6692499939076602
1758274165396517600,4.074517578125,-4.481930310243368,-8.523336282846332,-1.8535037146270275
1758274165406475800,4.084475830078125,-4.658472579802573,-8.379721592637896,-2.061374311646819
1758274165416434700,4.0944345703125,-4.841792380672693,-8.228454341849684,-2.2405299785748123
1758274165426393900,4.104393798828125,-5.0215895603746175,-8.08510093292594,-2.3632938961952923
1758274165436351700,4.114351806640625,-5.18092964298129,-7.962544812837242,-2.4343816948533057
1758274165446310700,4.124310546875,-5.341261659234762,-7.8490669022172685,-2.456313540676236
1758274165456268800,4.134268798828125,-5.498458884593844,-7.741019199952483,-2.4523452215671537
1758274165466227700,4.144227783203125,-5.6484775966256855,-7.627422046867013,-2.4672888159379363
1758274165476185900,4.154185791015625,-5.795494788753986,-7.494756036174297,-2.532050918705761
1758274165486144800,4.164144775390625,-5.939999121278524,-7.338622056132555,-2.651687644216418
1758274165496103000,4.17410302734375,-6.067697864952683,-7.170854921442269,-2.8164316316932436
1758274165506061800,4.184061767578125,-6.166465697696805,-7.012157812914252,-2.9957880818903444
1758274165516019700,4.194019775390625,-6.234299462994933,-6.874423412916064,-3.169574038478732
1758274165525979000,4.203978759765625,-6.277883753177523,-6.7613073213458055,-3.3231466435998676
1758274165535936800,4.213936767578125,-6.304476576548814,-6.679698713195323,-3.435926927344501
1758274165545896000,4.22389599609375,-6.320015506464243,-6.626073505991697,-3.510409629137814
1758274165555853800,4.233853759765625,-6.328554202228784,-6.5935244045645,-3.556014026971161
1758274165565812700,4.243812744140625,-6.33072628557086,-6.576744534677267,-3.58311479986459
1758274165575771000,4.25377099609375,-6.326169937440753,-6.57153527559638,-3.6006782213449475
1758274165585729300,4.263729248046875,-6.316500776341557,-6.57601212874949,-3.6094682615220544
1758274165595687400,4.2736875,-6.303398718184233,-6.591327771303058,-3.6044290983110665
1758274165605646300,4.283646240234375,-6.2870391195356845,-6.6189867626011365,-3.5822517532944675
1758274165615605200,4.293605224609375,-6.26410832580328,-6.661998221331834,-3.542472408352792
1758274165625563400,4.3035634765625,-6.232138485568761,-6.722662825652956,-3.483767705927789
1758274165635522300,4.313522216796875,-6.192040283936262,-6.798798555350303,-3.406670729982853
1758274165645480400,4.32348046875,-6.146088680100441,-6.884611044931411,-3.3163357945412395
1758274165655439400,4.333439453125,-6.094529757776856,-6.974929613760113,-3.221407686090469
1758274165665397200,4.343397216796875,-6.036107963946462,-7.066086971500516,-3.1314839617982506
1758274165675356400,4.3533564453125,-5.969684649968147,-7.155119592171907,-3.0557386927232146
1758274165685314300,4.363314208984375,-5.897630636626482,-7.237947512984276,-3.000072919602692
1758274165695273500,4.3732734375,-5.8237301186352965,-7.3109952135384075,-2.967136572423577
1758274165705231000,4.383231201171875,-5.751438204884529,-7.374745508915185,-2.9503359520092607
1758274165715190300,4.393190185546875,-5.679999108570814,-7.43674866836369,-2.933049886165559
1758274165725148200,4.403148193359375,-5.605484258073568,-7.507454774227738,-2.896039129154384
1758274165735107000,4.413107177734375,-5.539063866704702,-7.5842136042594905,-2.822914271710813
1758274165745065200,4.423065185546875,-5.5168245623677965,-7.639385456383228,-2.715664734086394
1758274165755024100,4.433024169921875,-5.508254302421212,-7.682513234969973,-2.6093241280004382
1758274165764982300,4.442982177734375,-5.465320585101843,-7.723882771712542,-2.577268655309081
1758274165774941200,4.452941162109375,-5.394058014398813,-7.7561565633296965,-2.629940799571574
1758274165784899300,4.4628994140625,-5.308271828302741,-7.820237113574147,-2.614673380073905
1758274165794858200,4.472858154296875,-5.20457822959423,-7.927213387215137,-2.498406423257291
1758274165804816100,4.482816162109375,-5.083446004828811,-8.051834038618207,-2.3445569008909164
1758274165814775300,4.492775390625,-4.958741182273626,-8.16803582124412,-2.205552480956912
1758274165824734200,4.502734130859375,-4.843918871307372,-8.262583990466593,-2.106317761353403
1758274165834692400,4.5126923828125,-4.740773554131389,-8.339944878044724,-2.0348964929573237
1758274165844651300,4.5226513671875,-4.638010806532204,-8.414742052614688,-1.9624876748286186
1758274165854609200,4.532609130859375,-4.526872737036645,-8.494870066818594,-1.8748324799902736
1758274165864568300,4.542568359375,-4.402817610561847,-8.58159850220084,-1.7725015479370951
1758274165874526200,4.552526123046875,-4.262039897345006,-8.673852423006295,-1.664231288962811
1758274165884485000,4.562485107421875,-4.104527614687383,-8.768583547580242,-1.5605030573323369
1758274165894443300,4.572443359375,-3.933168885245919,-8.863612193796039,-1.461830063264817
1758274165904402200,4.582402099609375,-3.7522345182076093,-8.957788022574782,-1.3598491136930881
1758274165914360300,4.5923603515625,-3.5642215910851953,-9.050398501732944,-1.2478116111397743
1758274165924319200,4.6023193359375,-3.3711075414314866,-9.139412417703866,-1.1301135986067354
1758274165934277400,4.61227734375,-3.179137401115894,-9.221525468245147,-1.0133675530362873
1758274165944236300,4.622236328125,-2.997059709261358,-9.293478359299897,-0.9051613722741604
1758274165954194400,4.6321943359375,-2.829254872909188,-9.354653251230717,-0.8100522081680596
1758274165964153300,4.6421533203125,-2.669390766428411,-9.407890920421481,-0.7323446260441094
1758274165974111200,4.652111328125,-2.508412268964946,-9.456296931672096,-0.6757895028684288
1758274165984070400,4.6620703125,-2.349251050056517,-9.499571425253153,-0.6399743123173713
1758274165994028300,4.6720283203125,-2.19694437321797,-9.537107082921265,-0.6224125713374465
1758274166003987200,4.6819873046875,-2.0517019356772304,-9.569468552821874,-0.62142465627864
1758274166013945300,4.6919453125,-1.9176662440665064,-9.596204584056139,-0.6369991689641028
1758274166023904300,4.701904296875,-1.7937883738547562,-9.618312955489754,-0.663894190152362
1758274166033862400,4.7118623046875,-1.6714200314231216,-9.638139353466034,-0.694997915076837
1758274166043821300,4.7218212890625,-1.5437620581507683,-9.657118194702267,-0.7261285280082375
1758274166053779500,4.731779541015625,-1.4136106606274843,-9.675069446456432,-0.7517389162134379
1758274166063738400,4.74173828125,-1.2859103095181286,-9.691379945266247,-0.7707170998625457
1758274166073697300,4.751697265625,-1.1600053173929452,-9.706450673148035,-0.7807791327368467
1758274166083655400,4.761655517578125,-1.041903765560314,-9.720251819485425,-0.7755696544602513
1758274166093614300,4.7716142578125,-0.9264411839291453,-9.734034845644235,-0.7487673530567437
1758274166103572500,4.781572509765625,-0.8129410614773631,-9.747402861261367,-0.7054261509150266
1758274166113531400,4.791531494140625,-0.7138960192270577,-9.758230544745922,-0.6615802141215652
1758274166123489300,4.8014892578125,-0.6302340587433427,-9.766247262462972,-0.6273729702237993
1758274166133448400,4.811448486328125,-0.5583235455255955,-9.771851658341287,-0.6079321740316227
1758274166143406300,4.82140625,-0.49458614616300905,-9.775674431499839,-0.6016418417157605
1758274166153365200,4.831365234375,-0.43348654795810576,-9.77878584151864,-0.5981737272137776
1758274166163323100,4.8413232421875,-0.36911465008426453,-9.781421450719236,-0.5982648760959506
1758274166173282300,4.8512822265625,-0.30443136644000185,-9.782951729026436,-0.6095525417750701
1758274166183240200,4.861240234375,-0.24686858232542871,-9.78255366961956,-0.6411680521465838
1758274166193199400,4.871199462890625,-0.20762440370637922,-9.779617031645774,-0.6973985464777797
1758274166203157200,4.8811572265625,-0.1907064770553261,-9.774666715762018,-0.7680472961314022
1758274166213116200,4.8911162109375,-0.18657823641048743,-9.768719205534458,-0.8412397389184683
1758274166223074300,4.90107421875,-0.18277223172364757,-9.762664727801084,-0.909583864891529
1758274166233033200,4.911033203125,-0.1672685557846911,-9.757328627470136,-0.9679434802059084
1758274166242991000,4.9209912109375,-0.13540029449481517,-9.752892690849304,-1.016422775888443
1758274166252950300,4.9309501953125,-0.09286332140807062,-9.749427060565353,-1.0537727017261087
1758274166262908200,4.940908203125,-0.05088218753922265,-9.747529702511429,-1.0740010315667836
1758274166272867300,4.950867431640625,-0.010591634822532068,-9.747783969533442,-1.072836006375402
1758274166282825200,4.9608251953125,0.04325883935419842,-9.749798231965302,-1.0535355319693684
1758274166292784000,4.9707841796875,0.12383892644084989,-9.752418643596767,-1.022436483220011
1758274166302742300,4.9807421875,0.22861655752640217,-9.754194421097635,-0.9868087780650705
1758274166312701200,4.990701171875,0.33910686717033384,-9.754270408943295,-0.9537192130856216
1758274166322659300,5.000659423828125,0.43063901303987945,-9.752765265077352,-0.9319337899960577
1758274166332618200,5.0106181640625,0.4828788668323308,-9.750110951176286,-0.9340905296385288
1758274166342577200,5.0205771484375,0.49133467008639126,-9.746700850471854,-0.9647735449329018
1758274166352535300,5.030535400390625,0.4657694727297872,-9.743044666051864,-1.0131672081585974
1758274166362494200,5.040494140625,0.4184112169664353,-9.739886494281887,-1.0629869586646556
1758274166372452400,5.050452392578125,0.35524427443556483,-9.737579386383295,-1.1062284267589448
1758274166382411300,5.060411376953125,0.28275893873823804,-9.736111067396402,-1.1395427404049783
1758274166392369200,5.070369140625,0.1997164983923547,-9.734839147764443,-1.1676525442104786
1758274166402328300,5.080328369140625,0.09818421503673307,-9.73240227600634,-1.2004607349652796
1758274166412286200,5.0902861328125,-0.03625582872433588,-9.727896781280636,-1.2398020538158714
1758274166422245400,5.100245361328125,-0.19927797911092637,-9.71949544816017,-1.2892198724575339
1758274166432203300,5.110203369140625,-0.3898431114668026,-9.705243635445832,-1.3515350204646586
1758274166442162200,5.120162109375,-0.6095513727312907,-9.683937228044867,-1.421342277792841
1758274166452120300,5.130120361328125,-0.8530133980162441,-9.654964816060662,-1.4914409192830322
1758274166462079200,5.140079345703125,-1.1129518897950648,-9.617330374193191,-1.5616275313176213
1758274166472037400,5.150037353515625,-1.3796090223044155,-9.572258475801348,-1.624470502591133
1758274166481996300,5.159996337890625,-1.656318323881179,-9.518451482290029,-1.6810862699128686
1758274166491954400,5.169954345703125,-1.9442992533177137,-9.456832938244938,-1.7200021298930048
1758274166501913300,5.179913330078125,-2.2311175687156615,-9.391046168604493,-1.732262184268236
1758274166511871200,5.189871337890625,-2.5056588786035774,-9.322428559452295,-1.7275396857909857
1758274166521830400,5.199830322265625,-2.760382412213087,-9.252017637142538,-1.7177957058899103
1758274166531788300,5.209788330078125,-2.9959833122014996,-9.17911255992949,-1.7141772231318055
1758274166541747500,5.21974755859375,-3.2157059673175215,-9.101681529724598,-1.7288856935724615
1758274166551705300,5.229705322265625,-3.422726084987819,-9.018185500392317,-1.7685159854322672
1758274166561664300,5.239664306640625,-3.6258681921809908,-8.92582344303727,-1.8311537895224987
1758274166571622400,5.249622314453125,-3.836311270037293,-8.81998464899361,-1.9133647474803028
1758274166581582000,5.25958203125,-4.051227986176312,-8.700102132028341,-2.01647703916952
1758274166591540200,5.269540283203125,-4.2615737411379815,-8.56847189412415,-2.1425762386925515
1758274166601499100,5.2794990234375,-4.464616479609907,-8.42721633426249,-2.2846558282881975
1758274166611457000,5.28945703125,-4.670371984171867,-8.279455045768618,-2.410107231426984
1758274166621416200,5.299416259765625,-4.88840507876575,-8.127982627797126,-2.4919398575916887
1758274166631374000,5.3093740234375,-5.109091902738809,-7.977942288455367,-2.5337793499335644
1758274166641333000,5.3193330078125,-5.327962617200613,-7.83037739931643,-2.5433044263869524
1758274166651291100,5.329291015625,-5.5294607565790415,-7.68497991734445,-2.556673611047864
1758274166661250000,5.33925,-5.721743323844671,-7.532825946849584,-2.586226453268528
1758274166671208200,5.349208251953125,-5.907184646913409,-7.376503750759363,-2.619687993365526
1758274166681167000,5.3591669921875,-6.075120123907923,-7.219253333908319,-2.673134921392798
1758274166691125000,5.369125,-6.22775983209312,-7.039649630951881,-2.797986166681349
1758274166701084200,5.379084228515625,-6.3660670635432,-6.845252848011254,-2.964130668605864
1758274166711042000,5.3890419921875,-6.475816309028864,-6.66042059675157,-3.142132489323616
1758274166721001200,5.399001220703125,-6.550685964313149,-6.503748272049426,-3.3106159555897117
1758274166730958800,5.408958740234375,-6.5977306240826845,-6.3873799006849525,-3.441183532698452
1758274166740918000,5.41891796875,-6.629598172986507,-6.306090441486239,-3.5287466653391717
1758274166750877200,5.428877197265625,-6.6515341104626655,-6.252278771799802,-3.5828111407428977
1758274166760834800,5.438834716796875,-6.665057608902454,-6.221773743420839,-3.610670330788195
1758274166770794000,5.4487939453125,-6.670590108588337,-6.210309515598416,-3.620178163845837
1758274166780752000,5.458751953125,-6.670030136618018,-6.214249193134903,-3.6144419582813976
1758274166790711000,5.4687109375,-6.663116411706805,-6.233261936640739,-3.5943969491183756
1758274166800669000,5.4786689453125,-6.646095718801021,-6.270757846820354,-3.560533550222218
1758274166810627800,5.4886279296875,-6.6135530471146105,-6.331543447172641,-3.5132340389087795
1758274166820586000,5.4985859375,-6.564834901174902,-6.41750440531373,-3.448046696466207
1758274166830545000,5.508544921875,-6.5021384987652295,-6.524021244749426,-3.365969009499252
1758274166840503000,5.5185029296875,-6.429014810365438,-6.642567544674873,-3.273292479367554
1758274166850462000,5.5284619140625,-6.349805664572119,-6.763498693910241,-3.17890242331624
1758274166860420000,5.538420166015625,-6.268195302855968,-6.8777148556768894,-3.0947043831944465
1758274166870379000,5.54837890625,-6.188597450006008,-6.978214042258262,-3.029220980414748
1758274166880337000,5.5583369140625,-6.117056646883487,-7.059652554538846,-2.9855180322885513
1758274166890296000,5.568296142578125,-6.069673548939824,-7.11149263189137,-2.9590710471287367
1758274166900254000,5.57825390625,-6.062980773302912,-7.129962354561686,-2.9281837414339185
1758274166910213000,5.588213134765625,-6.099228729248047,-7.125735092255472,-2.8624630227670074
1758274166920171000,5.5981708984375,-6.11913988289833,-7.145589547282457,-2.7689474114626647
1758274166930130000,5.6081298828125,-6.069609251531959,-7.201564532482624,-2.732707054302096
1758274166940088000,5.618088134765625,-5.977095218485593,-7.272521398237347,-2.7486671322390435
1758274166950047000,5.628046875,-5.9036249086052175,-7.359084413924813,-2.6760993241563438
1758274166960005000,5.638005126953125,-5.819794532752037,-7.485679580271244,-2.5029940433084965
1758274166969964000,5.647964111328125,-5.68683100041747,-7.6475436283975835,-2.312014813726395
1758274166979922200,5.657922119140625,-5.532189304760098,-7.803014176094532,-2.1629263682819904
1758274166989881000,5.667881103515625,-5.391085720589756,-7.923752433106303,-2.0786340740054845
1758274166999839000,5.6778388671875,-5.275615759369731,-8.009550894162059,-2.0458152157261966
1758274167009798100,5.687798095703125,-5.1682525322377675,-8.086288681405783,-2.0177888524204493
1758274167019756000,5.697756103515625,-5.0530584653496735,-8.168566567119955,-1.9777616701975465
1758274167029715000,5.70771484375,-4.925917355558276,-8.256129115238785,-1.9344447987794875
1758274167039673000,5.717673095703125,-4.783322363786399,-8.347871579390764,-1.8982308912344277
1758274167049632000,5.727632080078125,-4.619217258735,-8.448000763615966,-1.8613284169033169
1758274167059590100,5.737590087890625,-4.436512082631886,-8.55576906441748,-1.8128871882088482
1758274167069549000,5.747549072265625,-4.246043286789954,-8.66567788437903,-1.7457193394735455
1758274167079507200,5.757507080078125,-4.058502653354406,-8.770700101342797,-1.6654731057174503
1758274167089466000,5.767466064453125,-3.8740173158362508,-8.869512357750535,-1.5792837456479667
1758274167099424000,5.777424072265625,-3.692420685496926,-8.960860269626975,-1.4964637158811092
1758274167109383200,5.787383056640625,-3.5091403398543592,-9.046180007255076,-1.422306738910824
1758274167119341000,5.797341064453125,-3.3279028982162475,-9.124387867051363,-1.3568432098753749
1758274167129300200,5.80730029296875,-3.1485400182783603,-9.196187613371015,-1.298939448569715
1758274167139258000,5.817258056640625,-2.9673037456840277,-9.263395355725288,-1.246993280494213
1758274167149217000,5.827217041015625,-2.78215994425714,-9.326998936107755,-1.198769567007944
1758274167159175000,5.8371748046875,-2.591968504051864,-9.387458373245597,-1.152257260549441
1758274167169134000,5.847134033203125,-2.3995050272613763,-9.443314700502157,-1.1120156318582595
1758274167179092000,5.857092041015625,-2.211179819319397,-9.492205864921212,-1.085860834578052
1758274167189051000,5.86705078125,-2.0322586917996404,-9.533394784399867,-1.0745852611955256
1758274167199009000,5.877009033203125,-1.8642212157353757,-9.568125321519375,-1.0705403697188942
1758274167208968000,5.886968017578125,-1.7041270998910067,-9.598489480122923,-1.0655286059714852
1758274167218926000,5.896926025390625,-1.5599046530477703,-9.62412251855135,-1.0551544384080915
1758274167228885000,5.906885009765625,-1.4307222466871141,-9.64538099515736,-1.0440491800911724
1758274167238843000,5.9168427734375,-1.3171103344239294,-9.661994860827923,-1.039941817837581
1758274167248802000,5.926802001953125,-1.2170940359886735,-9.675265261289477,-1.0384090553123504
1758274167258760000,5.936760009765625,-1.1282969776388256,-9.686418523466587,-1.0347102007944136
1758274167268718000,5.946718017578125,-1.049211604355648,-9.695766782048343,-1.0303796973094344
1758274167278677000,5.956677001953125,-0.977416899537295,-9.703524556568265,-1.0279387338981032
1758274167288635100,5.96663525390625,-0.9068825700435786,-9.710240713080763,-1.0291633072569966
1758274167298594000,5.976593994140625,-0.8341209198892116,-9.71671780014038,-1.0295821902561932
1758274167308552000,5.986552001953125,-0.7584718046650291,-9.723606390610337,-1.0230345952436328
1758274167318511000,5.996510986328125,-0.6799167388662696,-9.73081880620718,-1.0095875961061567
1758274167328469000,6.006468994140625,-0.599870009737648,-9.737951726827024,-0.9913818581342697
1758274167338428000,6.016427978515625,-0.5207679410479963,-9.744297880983352,-0.973568918872252
1758274167348386000,6.026385986328125,-0.4457641014574095,-9.74873907830119,-0.9663171211130916
1758274167358345000,6.036344970703125,-0.3766503428187221,-9.750745157426595,-0.9754584589459001
1758274167368303000,6.04630322265625,-0.31029961915258314,-9.750856801107526,-0.9974502913277595
1758274167378262000,6.056261962890625,-0.24382092172522096,-9.74943115221858,-1.0293363257363437
1758274167388220200,6.06622021484375,-0.1770984604035504,-9.746415019267797,-1.0707153609596192
1758274167398179000,6.076178955078125,-0.11178723585298284,-9.74167220865488,-1.1214891973201184
1758274167408137000,6.086136962890625,-0.04824925435290206,-9.735231361952424,-1.1803921257309615
1758274167418096000,6.09609619140625,0.017748369001160606,-9.728314714431763,-1.2369165615074336
1758274167428054000,6.106053955078125,0.09727741152327507,-9.722390585079788,-1.279073303104937
1758274167438013200,6.11601318359375,0.19768585108127443,-9.717656542295217,-1.3032470826357603
1758274167447971000,6.12597119140625,0.3146111987413838,-9.713557874804735,-1.3108030509732662
1758274167457930000,6.135929931640625,0.43517537782788274,-9.709430565741657,-1.3068867543123661
1758274167467888000,6.14588818359375,0.5446331660863012,-9.704791800025104,-1.3002961238756776
1758274167477847000,6.155846923828125,0.6361657868798822,-9.699438748559356,-1.2986723220661283
1758274167487805200,6.16580517578125,0.7122120847281068,-9.692930681839584,-1.307752138970047
1758274167497764000,6.17576416015625,0.7740745935969054,-9.685118546783924,-1.3302860423393548
1758274167507722200,6.18572216796875,0.8083518339909612,-9.677404611405729,-1.36557582077682
1758274167517681200,6.19568115234375,0.7971683958712965,-9.672149175095557,-1.4087050606682896
1758274167527639000,6.20563916015625,0.7361531514815985,-9.670271690785885,-1.4540725810058415
1758274167537598200,6.21559814453125,0.6369912048533558,-9.671180622324346,-1.4942812572754918
1758274167547555800,6.225555908203125,0.5178394863806665,-9.673906832417845,-1.5224161955222486
1758274167557515300,6.235515380859375,0.3909816870426759,-9.676846977522969,-1.5414789156496524
1758274167567473000,6.245472900390625,0.2507580092457123,-9.678380762961506,-1.5609130994379519
1758274167577431800,6.255431884765625,0.08331310138027183,-9.676986678254604,-1.5872519480481744
1758274167587390000,6.265389892578125,-0.11453243377474136,-9.670777302220463,-1.622754638583958
1758274167597348900,6.275348876953125,-0.34050833146609366,-9.658239892208575,-1.6651931197322904
1758274167607307000,6.28530712890625,-0.5934796876460313,-9.63691594915092,-1.7169862892031669
1758274167617266000,6.295265869140625,-0.8691087927706539,-9.605175826019048,-1.7764109764657914
1758274167627224000,6.30522412109375,-1.1577760239709167,-9.564131867969035,-1.8322969682082533
1758274167637183000,6.315182861328125,-1.4476489776991306,-9.51695744433999,-1.8714212102420626
1758274167647140900,6.325140869140625,-1.7362584142975508,-9.46314986630678,-1.898578243367374
1758274167657100000,6.33510009765625,-2.028560860195011,-9.402615610367059,-1.9094953587010501
1758274167667058000,6.345057861328125,-2.312930759527534,-9.339905179432034,-1.893908205729723
1758274167677016000,6.35501611328125,-2.5701751899167893,-9.279385536539554,-1.859470514076948
1758274167686975000,6.36497509765625,-2.790099212823808,-9.222551304161549,-1.824902035651356
1758274167696933000,6.37493310546875,-2.9811566222086547,-9.165241270965337,-1.8114837511517106
1758274167706892000,6.38489208984375,-3.1671804213404653,-9.098724433484673,-1.831002106092125
1758274167716850000,6.394849853515625,-3.3617397013664245,-9.018636751291154,-1.879708853854984
1758274167726809000,6.40480908203125,-3.5643382032021877,-8.925821104949712,-1.9482294323734939
1758274167736767000,6.41476708984375,-3.765293906266987,-8.822927132186294,-2.036892489080131
1758274167746726100,6.42472607421875,-3.956557651878893,-8.71025001655519,-2.15582092019096
1758274167756684000,6.43468408203125,-4.126175967393816,-8.58917449041307,-2.3175724478535353
1758274167766643000,6.444642822265625,-4.261671940815448,-8.462825992304086,-2.5276643741846083
1758274167776601000,6.45460107421875,-4.403797561509907,-8.32314630345702,-2.7390157990574835
1758274167786560000,6.46456005859375,-4.63840039037168,-8.144241104158759,-2.8856518829137086
1758274167796518100,6.47451806640625,-4.9617041237324475,-7.926214439305663,-2.9541499573394656
1758274167806477000,6.48447705078125,-5.303626632845401,-7.69688078301847,-2.966476647210121
1758274167816435200,6.494435302734375,-5.579621502542495,-7.488523863786458,-2.99337166839838
1758274167826394000,6.50439404296875,-5.780751977652311,-7.3048764383971685,-3.0646476831048726
1758274167836352000,6.51435205078125,-5.950367955079674,-7.140683070540428,-3.126360042913258
1758274167846311200,6.524311279296875,-6.103617319595814,-6.985555637192726,-3.1809274994030594
1758274167856269000,6.53426904296875,-6.237058406314254,-6.826470406129956,-3.266312995743751
1758274167866228200,6.544228271484375,-6.340541577142477,-6.670477880385517,-3.3871348393857477
1758274167876186000,6.55418603515625,-6.411807654976845,-6.533380609247088,-3.5176822504892944
1758274167886145000,6.56414501953125,-6.46030602068603,-6.422629493242502,-3.631074820913374
1758274167896103200,6.574103271484375,-6.490266859185695,-6.346013871073723,-3.7114544717907902
1758274167906062000,6.58406201171875,-6.504572447913885,-6.301431217503548,-3.762030812817812
1758274167916020000,6.59402001953125,-6.50407735787332,-6.2842082800239325,-3.7915821937337517
1758274167925977900,6.603977783203125,-6.491828117153048,-6.292904796698689,-3.7981452055111524
1758274167935937000,6.61393701171875,-6.470581330984831,-6.324375455239415,-3.7820898505061864
1758274167945895000,6.62389501953125,-6.444054558587074,-6.3753703139394515,-3.741549165803194
1758274167955853800,6.633853759765625,-6.412059583911299,-6.441312566402554,-3.68311597379595
1758274167965812000,6.64381201171875,-6.3701148776292795,-6.518591036394238,-3.6193878902509806
1758274167975771000,6.65377099609375,-6.31341917693913,-6.603472967126965,-3.5644483855783937
1758274167985729000,6.66372900390625,-6.239858266165852,-6.6925219544112675,-3.5277062163755297
1758274167995688000,6.67368798828125,-6.153430275034904,-6.779739634615183,-3.5129520070970055
1758274168005646000,6.68364599609375,-6.062163611701131,-6.858219881612062,-3.5192917315125465
1758274168015605000,6.69360498046875,-5.973177168259024,-6.924158042421936,-3.542259642384946
1758274168025563000,6.70356298828125,-5.89287788914144,-6.9772484120965,-3.5724461063340303
1758274168035522000,6.71352197265625,-5.825180901965498,-7.024668334919214,-3.590501402984559
1758274168045480000,6.72347998046875,-5.785561423760652,-7.066812947687506,-3.5718124846056103
1758274168055439000,6.733439208984375,-5.7960968463003635,-7.089286645302176,-3.5096509197250008
1758274168065397000,6.74339697265625,-5.788790907201171,-7.1205112201273435,-3.4581215157568455
1758274168075356000,6.75335595703125,-5.7125639920890325,-7.16766518549025,-3.487348779284954
1758274168085314000,6.76331396484375,-5.627053700324892,-7.216729952910542,-3.5249759146288033
1758274168095273000,6.77327294921875,-5.560337540879845,-7.315716396841406,-3.42539998037219
1758274168105231000,6.783231201171875,-5.481956078082323,-7.460873055794835,-3.2332559447944162
1758274168115189000,6.79318896484375,-5.375104307603836,-7.615093311169743,-3.047779258151352
1758274168125148200,6.803148193359375,-5.253677483806014,-7.743757100483775,-2.933169128631055
1758274168135106000,6.81310595703125,-5.137950917476416,-7.835532297861576,-2.894187363807857
1758274168145065000,6.82306494140625,-5.030456172919273,-7.910418319758772,-2.8792715342268345
1758274168155023000,6.833023193359375,-4.927534727627038,-7.987364196795225,-2.8446105552121996
1758274168164982000,6.84298193359375,-4.824106209595501,-8.072598594227433,-2.7805615691497922
1758274168174940200,6.852940185546875,-4.709456332586705,-8.168287165656686,-2.6963912938177583
1758274168184899000,6.862899169921875,-4.568602047002315,-8.277237954241038,-2.604912156777084
1758274168194857200,6.872857177734375,-4.396675162284076,-8.400673195251821,-2.5036554298266767
1758274168204816100,6.882816162109375,-4.203819471305608,-8.531820033553242,-2.3887904487624763
1758274168214774000,6.89277392578125,-4.005767088466882,-8.66125363819599,-2.2598434585928917
1758274168224733200,6.902733154296875,-3.812997029945254,-8.780697179222106,-2.1285729939118028
1758274168234691000,6.912691162109375,-3.629663200549781,-8.88615837212503,-2.0080188612952825
1758274168244650200,6.922650146484375,-3.4570804822713135,-8.977945259940624,-1.9014362631469963
1758274168254608000,6.93260791015625,-3.2945579702362418,-9.057838880866765,-1.808828122076392
1758274168264567000,6.942567138671875,-3.137446961855888,-9.1287951620996,-1.7297111846111715
1758274168274525000,6.95252490234375,-2.980514524912834,-9.19319310773015,-1.6649667636305092
1758274168284483000,6.962483154296875,-2.8199042762398716,-9.253146933433413,-1.61177103388533
1758274168294442000,6.97244189453125,-2.651753110668063,-9.31053821517229,-1.5660389180190861
1758274168304400000,6.98239990234375,-2.4755206377103924,-9.365877825078368,-1.523977599620074
1758274168314359000,6.992359130859375,-2.2929614459492265,-9.420019749632477,-1.4751130309469997
1758274168324317000,7.00231689453125,-2.1057792705625293,-9.472697446852921,-1.4156561949804425
1758274168334275800,7.01227587890625,-1.9174562545776366,-9.522595742487907,-1.3468129603788255
1758274168344234000,7.02223388671875,-1.7324784573674201,-9.567812017786503,-1.2750972390808164
1758274168354193000,7.03219287109375,-1.5591361528933048,-9.605931612822413,-1.2105971482500433
1758274168364151000,7.042151123046875,-1.40481594427526,-9.635801850429177,-1.161108748590201
1758274168374110000,7.05210986328125,-1.278938132417947,-9.65746832331419,-1.1260645424116402
1758274168384068000,7.062068115234375,-1.1771545320492236,-9.672958153390883,-1.1038969881366938
1758274168394027000,7.072027099609375,-1.0873447164602577,-9.684880061852931,-1.0914055361583828
1758274168403985000,7.08198486328125,-1.001074546239525,-9.694460375624894,-1.0888720721580087
1758274168413944000,7.091944091796875,-0.9120001322530209,-9.7030464176625,-1.0906564713567495
1758274168423902000,7.10190185546875,-0.8160748294584452,-9.71201765962541,-1.0868068101912736
1758274168433860000,7.111860107421875,-0.715613709865138,-9.720547003039718,-1.08131654221192
1758274168443819000,7.121819091796875,-0.6222046276751906,-9.727298230865598,-1.0783917408064008
1758274168453777200,7.131777099609375,-0.5454428019687533,-9.732188925516605,-1.0758290507115422
1758274168463736000,7.141736083984375,-0.478357553482987,-9.736340784499049,-1.0701686137970536
1758274168473694200,7.151694091796875,-0.41453265850003806,-9.73977017442584,-1.0655686457209288
1758274168483653000,7.161653076171875,-0.34884372321087864,-9.74256594262421,-1.0635359708495438
1758274168493611000,7.171611083984375,-0.27783748362278565,-9.744780111542344,-1.064155344856903
1758274168503570200,7.181570068359375,-0.20208258820287883,-9.745908238789438,-1.070892763353139
1758274168513528000,7.191528076171875,-0.12510080873598345,-9.745835758075117,-1.0832350161191076
1758274168523487000,7.201487060546875,-0.0528856134832371,-9.745127317544817,-1.0954766580548136
1758274168533445000,7.211445068359375,0.011475331455038394,-9.743915603667498,-1.1074150792602449
1758274168543404000,7.221404052734375,0.06643381253944244,-9.74200713969767,-1.1221751337576658
1758274168553362200,7.231362060546875,0.11531997655639424,-9.739768420860171,-1.1375351269096134
1758274168563321000,7.241321044921875,0.16381397661771624,-9.737713826417922,-1.1491247346773743
1758274168573279200,7.251279296875,0.20940273849051444,-9.735823482626676,-1.1576936794497072
1758274168583237000,7.261237060546875,0.24780215511480344,-9.734310739976166,-1.1628312615338712
1758274168593196000,7.271196044921875,0.27951666888138277,-9.733441555926204,-1.1629199627306313
1758274168603154200,7.281154296875,0.30676267719808964,-9.732949973016977,-1.1601551741924137
1758274168613113000,7.291113037109375,0.33175109758004545,-9.732575879007577,-1.1564080966185777
1758274168623071200,7.3010712890625,0.3569903874505311,-9.732150931593775,-1.152472437670082
1758274168633030100,7.311030029296875,0.3853028742212802,-9.731516140821576,-1.148714254180342
1758274168642988300,7.32098828125,0.4173913723994046,-9.73023779144883,-1.1483273737546056
1758274168652947200,7.330947265625,0.44826486876457927,-9.727766432899235,-1.1575822549644856
1758274168662905300,7.3409052734375,0.463765877822414,-9.724498371013999,-1.1787503498733043
1758274168672864300,7.3508642578125,0.45597562580499795,-9.720798931974173,-1.2118413761574773
1758274168682822100,7.360822265625,0.4247734454747289,-9.716931150630115,-1.2534710982061923
1758274168692780000,7.370780029296875,0.3734090958751738,-9.71328665664792,-1.297300887582451
1758274168702739000,7.380739013671875,0.3083603216530755,-9.71046867661774,-1.3349590025864542
1758274168712697000,7.390697021484375,0.2328435275716707,-9.70856547334492,-1.3637956593617797
1758274168722656000,7.400656005859375,0.14049176328177562,-9.70603098643124,-1.3941446203961967
1758274168732614100,7.4106142578125,0.018316479753807652,-9.701043845668435,-1.435205821841955
1758274168742573000,7.420572998046875,-0.1425960603509564,-9.691845224690438,-1.4893652820527552
1758274168752531000,7.430531005859375,-0.34142456952817735,-9.676557054665684,-1.5550146890491245
1758274168762490000,7.440489990234375,-0.5707577508913353,-9.65334627494812,-1.6301894647598265
1758274168772448000,7.450447998046875,-0.8223086823467165,-9.620535892236232,-1.7144963720835744
1758274168782407200,7.4604072265625,-1.0819800476219505,-9.578597615695,-1.8028231825731693
1758274168792365000,7.470364990234375,-1.3347371765293181,-9.528584169247745,-1.8960363037995993
1758274168802324000,7.480323974609375,-1.5973146385096013,-9.468623329281806,-1.9910235950917003
1758274168812282000,7.4902822265625,-1.8813250568799673,-9.395112687391043,-2.0887530246987938
1758274168822240000,7.500239990234375,-2.1765217629142106,-9.310026173996924,-2.180957115013152
1758274168832199200,7.51019921875,-2.461278469607234,-9.223115952306985,-2.246470474539697
1758274168842157000,7.520156982421875,-2.7172400205790996,-9.14026348157525,-2.2896603585772213
1758274168852116200,7.5301162109375,-2.9379110624611378,-9.06197086610496,-2.3280368509836493
1758274168862074000,7.54007421875,-3.130078186653554,-8.987137451177835,-2.367343756107986
1758274168872033000,7.550032958984375,-3.311200769740343,-8.912895572403073,-2.401382657701522
1758274168881991200,7.5599912109375,-3.4976050926223397,-8.834175086909532,-2.427856823129207
1758274168891950000,7.5699501953125,-3.6941821422114964,-8.747534914332627,-2.4503204377412793
1758274168901908200,7.579908203125,-3.8921903936475513,-8.652463598018883,-2.481160981684923
1758274168911867100,7.5898671875,-4.087758850716054,-8.549566702646016,-2.5229940442860124
1758274168921825300,7.5998251953125,-4.28375167067647,-8.43622264753878,-2.578756555779278
1758274168931783200,7.609783203125,-4.478216842678189,-8.310978311279415,-2.653974586109817
1758274168941742000,7.6197421875,-4.676151736617088,-8.173020623919367,-2.7396529279172417
1758274168951700200,7.6297001953125,-4.874394673591852,-8.028556038883329,-2.8201059362918137
1758274168961659100,7.6396591796875,-5.036669056084752,-7.902225076431035,-2.890882769304514
1758274168971617300,7.6496171875,-5.1802112655788655,-7.788318711265921,-2.9458260733693837
1758274168981576200,7.659576171875,-5.327664511036873,-7.670888263627886,-2.9906235387340185
1758274168991534300,7.669534423828125,-5.479904406249523,-7.546384516602754,-3.032016164091229
1758274169001493200,7.6794931640625,-5.642694921571016,-7.409696995308995,-3.0703061472579836
1758274169011451000,7.689450927734375,-5.8090463442444795,-7.259376085460185,-3.1187922380074857
1758274169021409000,7.699408935546875,-5.968117546781897,-7.093967496594786,-3.1980648044258353
1758274169031368000,7.709367919921875,-6.107891928175091,-6.9222402261018745,-3.3085771432384847
1758274169041326000,7.719326171875,-6.213381178128719,-6.754729111999273,-3.455134608900547
1758274169051285000,7.729284912109375,-6.278289411368966,-6.606107407283782,-3.6211522695749996
1758274169061243100,7.7392431640625,-6.315203137746453,-6.4925406493365765,-3.7597169829174875
1758274169071202000,7.7492021484375,-6.3392737491637465,-6.410847870033979,-3.858111306174099
1758274169081160200,7.75916015625,-6.355199632570147,-6.34842443934679,-3.9343817681670186
1758274169091119000,7.769119140625,-6.362711907896399,-6.298467691522836,-4.001952206353843
1758274169101077000,7.779076904296875,-6.363987919181585,-6.25869974475801,-4.061865992307663
1758274169111036200,7.7890361328125,-6.36315906714201,-6.231724644070863,-4.104406910917163
1758274169120994000,7.798994140625,-6.363741250944138,-6.22065204591453,-4.120274049873649
1758274169130952200,7.8089521484375,-6.365628087604046,-6.2264914195925,-4.108526621195674
1758274169140911000,7.8189111328125,-6.3651879426211115,-6.246585528594255,-4.0785917939201
1758274169150869200,7.828869140625,-6.3641246973037715,-6.278165492728352,-4.03149072778821
1758274169160828200,7.838828125,-6.364921985161304,-6.320010830289125,-3.9642867848262187
1758274169170786000,7.8487861328125,-6.365823317915201,-6.3722974823653695,-3.878203369349241
1758274169180745200,7.8587451171875,-6.362860960978269,-6.434917312407493,-3.778388657900691
1758274169190703000,7.868703125,-6.346663859415054,-6.506812920317054,-3.6812539793163537
1758274169200662000,7.878662109375,-6.309854762455821,-6.584836071196198,-3.6050054368942974
1758274169210620200,7.8886201171875,-6.25114596837759,-6.665721041247248,-3.558332240785658
1758274169220578300,7.898578369140625,-6.174228732913732,-6.74815031813085,-3.5371953447327016
1758274169230537200,7.908537109375,-6.088174835792183,-6.832111042365431,-3.5251629616335034
1758274169240495000,7.9184951171875,-6.002430150750279,-6.917631855523586,-3.5053646207079288
1758274169250454300,7.928454345703125,-5.920288458636403,-7.007622507572174,-3.4660976092025635
1758274169260412200,7.938412109375,-5.856154716899991,-7.096320781722665,-3.393826153717935
1758274169270371000,7.94837109375,-5.84034106169641,-7.1616796813398595,-3.2819398962035775
1758274169280329200,7.9583291015625,-5.848866897979378,-7.2162599973112345,-3.144318601191044
1758274169290288000,7.9682880859375,-5.831061776697635,-7.278673491126298,-3.03150207708925
1758274169300246000,7.97824609375,-5.75650893227756,-7.352626616087555,-2.9953143268987534
1758274169310204000,7.988203857421875,-5.64992370378077,-7.4401459095865485,-2.982105008974671
1758274169320163000,7.9981630859375,-5.546066438943147,-7.535759077692031,-2.936636512480676
1758274169330121000,8.008120849609375,-5.447544689914584,-7.6372174646943805,-2.857898491330445
1758274169340080000,8.018080078125,-5.3445250449448825,-7.7400681828379625,-2.7744933551520106
1758274169350038000,8.0280380859375,-5.236905797225236,-7.837290539705753,-2.7059280607089398
1758274169359997000,8.037996826171875,-5.128565249493718,-7.9300453957706685,-2.6424618429705498
1758274169369955000,8.047955078125,-5.0161774721980095,-8.02504715397954,-2.570401692149043
1758274169379914000,8.0579140625,-4.897870826247334,-8.124217722305655,-2.4856235140517353
1758274169389872000,8.0678720703125,-4.775792552803456,-8.224744965937733,-2.3907747544474898
1758274169399830000,8.077830078125,-4.651194990015029,-8.323514552247524,-2.292571277587861
1758274169409789200,8.0877890625,-4.518246070727706,-8.419578386729956,-2.206029304688424
1758274169419747000,8.0977470703125,-4.369200879903137,-8.51617764326334,-2.1342865492530168
1758274169429706000,8.1077060546875,-4.205990970125794,-8.613857096248864,-2.0691820627883075
1758274169439664000,8.1176640625,-4.036243475273252,-8.707985578754544,-2.012481832053512
1758274169449623000,8.127623046875,-3.867751533439755,-8.794552686095237,-1.9663992953144012
1758274169459581200,8.137581298828126,-3.704226858624816,-8.873428069889545,-1.926482441598177
1758274169469540000,8.1475400390625,-3.549050617699325,-8.944666675195098,-1.8888038683280348
1758274169479498200,8.157498291015624,-3.400162663263082,-9.010632308533788,-1.8487348927900193
1758274169489456000,8.1674560546875,-3.2540950269445776,-9.073008392947912,-1.806037468444556
1758274169499415000,8.1774150390625,-3.109907213023305,-9.13099179536104,-1.7674384193286299
1758274169509373200,8.187373291015625,-2.9690792309239504,-9.182904937949775,-1.7404620034672318
1758274169519332000,8.19733203125,-2.826567533521354,-9.232980928239225,-1.7126029595524073
1758274169529290200,8.207290283203125,-2.676974937947094,-9.284562062394619,-1.673646183039993
1758274169539249200,8.217249267578126,-2.518707453007996,-9.337668214160203,-1.623103598152101
1758274169549207300,8.227207275390626,-2.347831830908358,-9.393215329337119,-1.557438701325655
1758274169559165000,8.2371650390625,-2.1635925771057605,-9.450259405073522,-1.477112095809728
1758274169569124000,8.2471240234375,-1.973519502583146,-9.505110939201712,-1.3886942460358143
1758274169579082000,8.25708203125,-1.7828471469931304,-9.554746784508227,-1.303335345441103
1758274169589041200,8.267041259765625,-1.6029476759605108,-9.596074235674738,-1.2313956061288713
1758274169598999300,8.276999267578125,-1.4535812903575598,-9.626865679779648,-1.175142753835395
1758274169608958200,8.286958251953125,-1.3380218972884117,-9.648671853396296,-1.1327936314709484
1758274169618916400,8.296916259765625,-1.253298810379207,-9.663292499423026,-1.1047248172629625
1758274169628875300,8.306875244140626,-1.1735737509530038,-9.675770872724057,-1.0828564651302992
1758274169638833400,8.31683349609375,-1.0825202919784933,-9.689243517759442,-1.0569232747115194
1758274169648791300,8.326791259765624,-0.9842956992655992,-9.702678168871998,-1.029363067612797
1758274169658750200,8.336750244140624,-0.8859264373850076,-9.714996967697143,-1.0021696479998528
1758274169668708400,8.346708251953125,-0.7924030811656266,-9.725863814148306,-0.9747026721425354
1758274169678667300,8.356667236328125,-0.6999905357323587,-9.735340667545795,-0.9505481818340719
1758274169688625400,8.36662548828125,-0.6084504257520661,-9.742935360458493,-0.9356235113594681
1758274169698584300,8.376584228515625,-0.5247647555992007,-9.748227037125826,-0.9311710619952529
1758274169708542500,8.38654248046875,-0.45223903309255836,-9.751365919673443,-0.9363404274571686
1758274169718500400,8.396500244140626,-0.3915115561356768,-9.75284242196679,-0.9482396126307546
1758274169728459300,8.406459228515626,-0.33891580157764256,-9.753283151471614,-0.9638495619557798
1758274169738417400,8.41641748046875,-0.2889830374174751,-9.753059279587864,-0.9822006997477263
1758274169748376300,8.426376220703125,-0.2366759818740189,-9.752506906402111,-1.0014839307580143
1758274169758334500,8.43633447265625,-0.18274055794375016,-9.751709618544577,-1.020369175426662
1758274169768293400,8.44629345703125,-0.1326308571809437,-9.75047627735734,-1.0397124660611152
1758274169778251300,8.456251220703125,-0.0887033521844074,-9.748520467114448,-1.062491137971729
1758274169788210400,8.46621044921875,-0.048690225886320694,-9.745707747781276,-1.0904995272293687
1758274169798168000,8.47616796875,-0.007975559727000654,-9.742041041967273,-1.1238253851827233
1758274169808126200,8.486126220703126,0.03606343197437236,-9.738046419373154,-1.1573776723030953
1758274169818085000,8.496085205078124,0.0878812130134087,-9.734975341364741,-1.1802157462507485
1758274169828043300,8.506043212890624,0.15105900573185643,-9.732990305027364,-1.1901640896175056
1758274169838002200,8.516002197265625,0.2195163006226532,-9.731126264721155,-1.1947270866841078
1758274169847960300,8.525960205078125,0.2853619060445577,-9.729301971903443,-1.1956717471230773
1758274169857919200,8.535919189453125,0.34440077232737093,-9.72704980906248,-1.198458747493103
1758274169867877000,8.545877197265625,0.3906692600926384,-9.723772979348897,-1.2107851451028138
1758274169877835300,8.555835205078125,0.4119229874582961,-9.71964567028582,-1.236595074468106
1758274169887794200,8.565794189453126,0.39958690870478747,-9.714644500997663,-1.2792059895738959
1758274169897752300,8.57575244140625,0.3557286238864064,-9.709496032193302,-1.3302348966740072
1758274169907711200,8.585711181640624,0.28399244432225823,-9.704716981223225,-1.3813871378928422
1758274169917669400,8.59566943359375,0.19250419239336625,-9.700687287315725,-1.4247835042878985
1758274169927628300,8.605628173828125,0.09209384400607086,-9.696881465291977,-1.460270558863133
1758274169937586400,8.61558642578125,-0.02118566253155004,-9.690865566003321,-1.502350581962615
1758274169947544300,8.62554443359375,-0.16426069747190922,-9.680689039903879,-1.5581005262352525
1758274169957503200,8.635503173828125,-0.34253512458596375,-9.665895959919691,-1.6197222851507365
1758274169967461400,8.64546142578125,-0.545594485399127,-9.644853171890974,-1.6880558166645467
1758274169977420300,8.655420166015626,-0.758920936672017,-9.617539048507808,-1.759929943394661
1758274169987378400,8.66537841796875,-0.9782869603700936,-9.584314824298023,-1.831461978688836
1758274169997337300,8.67533740234375,-1.208150924141705,-9.54316156065464,-1.907569066813588
1758274170007295500,8.68529541015625,-1.4519868607729673,-9.490708904361725,-1.9971388631016014
1758274170017253400,8.69525341796875,-1.708978777705878,-9.426544767487048,-2.09524092541337
1758274170027212300,8.70521240234375,-1.9759459990777075,-9.352098890572785,-2.19186706995368
1758274170037170200,8.715170166015625,-2.243236607185006,-9.271419672226905,-2.2757500527769325
1758274170047129300,8.72512939453125,-2.499818628142774,-9.189683053782582,-2.3390138798110187
1758274170057087200,8.735087158203125,-2.7362518873021004,-9.110287445506453,-2.384524461881071
1758274170067046100,8.745046142578126,-2.953401184798777,-9.033889265480637,-2.4159137257486583
1758274170077004300,8.75500439453125,-3.158675043323636,-8.958978693664074,-2.435125791218877
1758274170086962200,8.764962158203126,-3.356829425232112,-8.883943034163117,-2.444919017089158
1758274170096921000,8.774921142578124,-3.5485645877480505,-8.807163745865225,-2.451931087808311
1758274170106879200,8.784879150390625,-3.727617963345349,-8.728723246356845,-2.4667095547452567
1758274170116838100,8.794838134765625,-3.890037015005946,-8.649269770413637,-2.4956255603671074
1758274170126796300,8.80479638671875,-4.034032228964567,-8.565762635165452,-2.5543460448831317
1758274170136755200,8.814755126953125,-4.166076308366656,-8.473521573841571,-2.648331611786783
1758274170146713300,8.82471337890625,-4.308627753257751,-8.367083644860982,-2.7564462418079376
1758274170156671200,8.834671142578125,-4.472643718720972,-8.243672369247674,-2.8649072010487315
1758274170166630100,8.844630126953126,-4.661218079118431,-8.100960180836916,-2.9694892730295654
1758274170176588300,8.85458837890625,-4.862655135959386,-7.948651896563172,-3.056784402383864
1758274170186547200,8.864547119140624,-5.073554725411534,-7.794820932766795,-3.109695616099238
1758274170196505300,8.87450537109375,-5.281083961647749,-7.642603249385952,-3.1418384748131034
1758274170206464300,8.88446435546875,-5.471900548014045,-7.492024565383791,-3.177779849027097
1758274170216422400,8.89442236328125,-5.643032775223255,-7.341679690137505,-3.228980167171359
1758274170226380300,8.90438037109375,-5.79237285734117,-7.186424831017852,-3.3127170195221898
1758274170236339500,8.91433935546875,-5.930446864557266,-7.025529335662722,-3.412053884325921
1758274170246297300,8.92429736328125,-6.062603756684065,-6.858669963467121,-3.5176536089167
1758274170256256300,8.93425634765625,-6.1801008398175235,-6.695584264591336,-3.625722646230459
1758274170266214400,8.94421435546875,-6.2625716177552935,-6.556631720975041,-3.7364699628427624
1758274170276172300,8.95417236328125,-6.311730493199825,-6.447542400702834,-3.8420942373529074
1758274170286131500,8.96413134765625,-6.350224766767025,-6.357538889172673,-3.927693084183335
1758274170296089000,8.974089111328125,-6.383662925988435,-6.284704539108276,-3.9902047776758667
1758274170306048500,8.984048583984375,-6.412267673704028,-6.226194482472539,-4.035810344552994
1758274170316006100,8.994006103515625,-6.433842376652359,-6.18122604445517,-4.070438590341806
1758274170325965000,9.003965087890625,-6.448979155507684,-6.150629246139526,-4.092778724704683
1758274170335923200,9.013923095703126,-6.460110205852985,-6.1358250602394335,-4.097438825470209
1758274170345881300,9.02388134765625,-6.469585305684805,-6.136436470136046,-4.081549766942858
1758274170355840300,9.03384033203125,-6.475994588205218,-6.150961839094758,-4.049394925530255
1758274170365798100,9.043798095703124,-6.477730033695697,-6.1768789551615715,-4.006945776857435
1758274170375757300,9.05375732421875,-6.475239385923743,-6.211852068865299,-3.9565848321467634
1758274170385715200,9.063715087890625,-6.466091033828258,-6.255622821530699,-3.9022096833586692
1758274170395674000,9.073674072265625,-6.445066365978121,-6.310495398446917,-3.848270003378391
1758274170405632300,9.08363232421875,-6.410272700494527,-6.380386096274853,-3.7907097948133943
1758274170415590400,9.09359033203125,-6.361226637774705,-6.466047194686531,-3.727660341182351
1758274170425549300,9.10354931640625,-6.298570567375421,-6.564360853922366,-3.66164093182981
1758274170435507200,9.113507080078126,-6.227815361672639,-6.668652418524027,-3.593570142905414
1758274170445466400,9.12346630859375,-6.159308811679482,-6.766453452062606,-3.5282246872916816
1758274170455424300,9.13342431640625,-6.105200204873085,-6.846748055005073,-3.4668326454788443
1758274170465383200,9.143383056640625,-6.088728378021717,-6.897689137691259,-3.3940658076927064
1758274170475341300,9.15334130859375,-6.104543786790966,-6.931763841250539,-3.2947806730762124
1758274170485299500,9.163299560546875,-6.093920685967802,-6.99203740042746,-3.1852704970434305
1758274170495258400,9.17325830078125,-6.036861412662267,-7.07474958590567,-3.110400841759145
1758274170505216300,9.18321630859375,-5.943170737051964,-7.180233575162291,-3.0485064033821225
1758274170515175400,9.193175537109376,-5.851171083268523,-7.288151513567566,-2.9693457729056476
1758274170525133300,9.20313330078125,-5.77292172241807,-7.382863348919153,-2.887400187885761
1758274170535091500,9.213091552734374,-5.68114360243082,-7.484503522229194,-2.8066303686469793
1758274170545050400,9.22305029296875,-5.572011612060666,-7.594857747870683,-2.7278660440117117
1758274170555008300,9.23300830078125,-5.452356474110484,-7.708475943744182,-2.6498238961711524
1758274170564967400,9.242967529296875,-5.327971969550847,-7.8224027671754355,-2.567706169454753
1758274170574925300,9.25292529296875,-5.204439697906374,-7.932718998894095,-2.4811563055098054
1758274170584884000,9.262884033203125,-5.081082782828807,-8.040080472460389,-2.3895817452706396
1758274170594841900,9.272841796875,-4.952571553727984,-8.148105962893366,-2.291455863691866
1758274170604800000,9.282800048828125,-4.814974224112928,-8.25597070980668,-2.1966657024070617
1758274170614759000,9.292759033203126,-4.666586035892367,-8.359978781291842,-2.122284999683499
1758274170624717000,9.302717041015624,-4.507844503700733,-8.459885262677073,-2.0688310573935507
1758274170634676000,9.312676025390624,-4.342140731281042,-8.556064832493663,-2.027302530696988
1758274170644634000,9.322634033203125,-4.172925151348114,-8.64821821553409,-1.9913257929086683
1758274170654592000,9.332592041015625,-4.004758788207173,-8.734652636405825,-1.9591148373946545
1758274170664551000,9.342551025390625,-3.843644973926246,-8.813221146208047,-1.929746850221604
1758274170674509000,9.352509033203125,-3.6911630866512652,-8.885302632078528,-1.896600075162202
1758274170684468000,9.362468017578125,-3.5468747349649665,-8.952758211714029,-1.8542274988569318
1758274170694426000,9.372426025390626,-3.4090377513751386,-9.015995881393552,-1.8057227034069596
1758274170704385000,9.382385009765626,-3.2712440224051473,-9.077099461653829,-1.7537506702378391
1758274170714343200,9.39234326171875,-3.125309949338436,-9.138540895566344,-1.699963404340297
1758274170724301000,9.402301025390624,-2.9683722516983746,-9.200938607290386,-1.6437319601610303
1758274170734260000,9.412260009765625,-2.807674909263849,-9.262944104826449,-1.576446476395428
1758274170744217900,9.4222177734375,-2.6491695239156483,-9.322737771531939,-1.4962749153107404
1758274170754177000,9.432177001953125,-2.4919530093342064,-9.379951358616351,-1.4060776347741484
1758274170764135000,9.442135009765625,-2.3327128799706696,-9.435053068113326,-1.307141459725797
1758274170774092800,9.4520927734375,-2.172276380429417,-9.486989007055758,-1.2035823010519147
1758274170784052000,9.462052001953126,-2.0189856609895824,-9.532617370286584,-1.1060107654202729
1758274170794009900,9.472009765625,-1.8760620217852293,-9.57128349328935,-1.0204377106182276
1758274170803969000,9.481968994140624,-1.7425205434322357,-9.604063480862974,-0.9465624001335352
1758274170813927000,9.491927001953124,-1.6219710869908333,-9.630750996780394,-0.8878400889866054
1758274170823885000,9.501885009765624,-1.5161637109987436,-9.651710198178886,-0.846229217768833
1758274170833844000,9.511843994140625,-1.4253567741312085,-9.66763082088828,-0.8219992510713636
1758274170843801900,9.5218017578125,-1.3468056538552045,-9.679947281625866,-0.8093953516945243
1758274170853761000,9.531760986328125,-1.2734434805244206,-9.690873164787888,-0.7973192755840718
1758274170863719000,9.541718994140625,-1.198971957712248,-9.701325000697373,-0.7855950816512107
1758274170873678000,9.551677978515626,-1.1252695195764302,-9.710976626139878,-0.7753022356957197
1758274170883636000,9.561635986328126,-1.0541834014188498,-9.71986954216957,-0.7636958229236305
1758274170893594000,9.571593994140626,-0.988650314278528,-9.727785722121595,-0.7504356515951455
1758274170903553000,9.581552978515624,-0.9318426045812666,-9.73454864038527,-0.7352802411045879
1758274170913511000,9.591510986328124,-0.8808064640227705,-9.740560448020696,-0.7183479571346193
1758274170923470000,9.601469970703125,-0.8301436868213117,-9.746203422343731,-0.7019846321590244
1758274170933428000,9.611427978515625,-0.7808661534331739,-9.751063137334585,-0.6909748701058328
1758274170943386000,9.62138623046875,-0.7370300073813647,-9.754768421593308,-0.686794588746503
1758274170953345000,9.631344970703125,-0.700186131369695,-9.757397016531229,-0.6879949044469743
1758274170963303200,9.64130322265625,-0.6691897392772138,-9.759082193139195,-0.6948813029598444
1758274170973262000,9.651261962890626,-0.6409654422465711,-9.759994047287107,-0.708561380200833
1758274170983220200,9.66122021484375,-0.6114608961470425,-9.760579738220573,-0.7263603640027344
1758274170993177900,9.671177734375,-0.5763258333472535,-9.761208683773875,-0.7463564925227314
1758274171003136800,9.68113671875,-0.5353364184960723,-9.7618306150645,-0.7684183944661169
1758274171013095000,9.691094970703125,-0.4923516285765916,-9.762158531844616,-0.7926015263471752
1758274171023053800,9.7010537109375,-0.4518375396195799,-9.761956871792673,-0.8188010395519435
1758274171033012000,9.711011962890625,-0.41585528540592637,-9.761185302898287,-0.8465950554065406
1758274171042969900,9.720969970703125,-0.38157475707624106,-9.760038470950722,-0.8754599884282797
1758274171052929000,9.730928955078125,-0.34274387196581807,-9.758832017770409,-0.9045051003225147
1758274171062887000,9.740886962890626,-0.2960034193072468,-9.757810858029126,-0.9316249432425946
1758274171072845800,9.750845703125,-0.24457734784940255,-9.756953948938847,-0.9552179272107779
1758274171082804000,9.760803955078124,-0.19481908173961562,-9.756174196738003,-0.9744234898749738
1758274171092763000,9.770762939453125,-0.14727599832811392,-9.755645788949728,-0.9879757029525935
1758274171102721000,9.780720947265625,-0.09692394017679616,-9.755302090078592,-0.9975444724172353
1758274171112679000,9.790678955078125,-0.03695759063538862,-9.754971835210918,-1.0047587877102195
1758274171122638000,9.80063818359375,0.03375504315085709,-9.754680743309855,-1.0077063124042003
1758274171132596000,9.810595947265625,0.10068389549851417,-9.754714645579456,-1.002900592622906
1758274171142555000,9.820554931640626,0.15284295740602538,-9.755089908632636,-0.9926092810373752
1758274171152513000,9.830512939453126,0.1918909558658488,-9.755067112278939,-0.9860065217714756
1758274171162471200,9.84047119140625,0.2258813969414681,-9.75399977530837,-0.989374975291267
1758274171172430000,9.85043017578125,0.25905854887282476,-9.75211703030169,-0.999733287698403
1758274171182388000,9.860387939453124,0.29124698202777655,-9.749685419240594,-1.0144915155649186
1758274171192347100,9.87034716796875,0.3121238754376769,-9.746563487827776,-1.038012822536379
1758274171202305000,9.880304931640625,0.30222388299098235,-9.743335757952927,-1.0707276359193025
1758274171212263200,9.89026318359375,0.25450064810644835,-9.74006769606769,-1.1120727688729763
1758274171222222000,9.90022216796875,0.17620742984795942,-9.736158998191357,-1.1604011848427354
1758274171232180000,9.910179931640625,0.07757287722784094,-9.730866737002133,-1.214327493884787
1758274171242139100,9.92013916015625,-0.0332205914975726,-9.72367419514954,-1.2725688896469771
1758274171252096800,9.9300966796875,-0.15564055223530157,-9.714715228146314,-1.3305983231589198
1758274171262055000,9.940054931640624,-0.29278321515172717,-9.703744336798787,-1.3863688718281686
1758274171272013800,9.950013916015624,-0.4469825008038431,-9.690110363721846,-1.439563578660041
1758274171281972000,9.959971923828125,-0.6208868230748922,-9.672371877935529,-1.4933480680786073
1758274171291931000,9.969930908203125,-0.8164272230926901,-9.649493691173195,-1.5463215333752334
1758274171301889000,9.979888916015625,-1.0262500501587986,-9.62173299306631,-1.5935602544121443
1758274171311848000,9.989847900390625,-1.2417071567848323,-9.590018004375695,-1.6309906981401145
1758274171321806000,9.99980615234375,-1.4560913734823464,-9.555328968310356,-1.6570628586381673
1758274171331764000,10.009763916015626,-1.6664587557539343,-9.517487021172046,-1.6765271453037858
1758274171341723000,10.019722900390626,-1.868445993823558,-9.476885546192527,-1.6934959618918597
1758274171351681000,10.029680908203124,-2.058056857661903,-9.435577968770264,-1.704309470720589
1758274171361640000,10.039639892578125,-2.2334559485353527,-9.394725733900069,-1.709148289053887
1758274171371598000,10.04959814453125,-2.3952182898528873,-9.354212521725893,-1.7123099679552019
1758274171381556000,10.059555908203125,-2.5456401758581397,-9.313311187016964,-1.7182412577003239
1758274171391515100,10.06951513671875,-2.689424377414584,-9.270477422940731,-1.7307808596692977
1758274171401473000,10.07947314453125,-2.830924267426133,-9.22443054203689,-1.751024167883396
1758274171411432000,10.089431884765625,-2.9703172482863067,-9.174840289437771,-1.7804340945020316
1758274171421390000,10.09939013671875,-3.1028900277376175,-9.122493431606888,-1.8227920577600598
1758274171431348000,10.109347900390626,-3.2233167345821854,-9.069414752370118,-1.8778622030749916
1758274171441307100,10.11930712890625,-3.3288504081994295,-9.017216947621106,-1.9439467866182325
1758274171451265000,10.12926513671875,-3.420409916999936,-8.966833498817682,-2.0166903896592556
1758274171461223000,10.139222900390624,-3.4999098624333738,-8.919917433863878,-2.0871156327553093
1758274171471182000,10.14918212890625,-3.567077565038204,-8.879584838953614,-2.1446029222145677
1758274171481140000,10.159139892578125,-3.619743571820855,-8.848913806357979,-2.1827916369639335
1758274171491099000,10.169098876953125,-3.6588796504229304,-8.830099800294636,-2.193693262467533
1758274171501057000,10.17905712890625,-3.681555592611432,-8.82431595619619,-2.1789844997659324
1758274171511016000,10.189015869140626,-3.683185239639878,-8.82882788066268,-2.157855933149904
1758274171520973800,10.198973876953126,-3.661264207471907,-8.841952150651812,-2.141369200990349
1758274171530932000,10.208931884765626,-3.615459318630397,-8.863734358870982,-2.129092633871734
1758274171540891000,10.218890869140624,-3.554453061264753,-8.890964895623922,-2.1182506296008823
1758274171550849000,10.22884912109375,-3.493946862375736,-8.916670999288558,-2.1108516053907573
1758274171560808000,10.238807861328125,-3.4436206967175003,-8.935762653249501,-2.1128239283770323
1758274171570766000,10.24876611328125,-3.400081122459471,-8.948129967391491,-2.1309132734276353
1758274171580724000,10.258723876953125,-3.357963689959049,-8.95596548332274,-2.164521090127528
1758274171590683000,10.268682861328125,-3.316310952360928,-8.962344370704889,-2.202010278305411
1758274171600640800,10.278640869140625,-3.2772909013539553,-8.969212502908706,-2.2322679077945646
1758274171610599700,10.288599609375,-3.2408293026581405,-8.977656506127119,-2.2514581998243925
1758274171620557800,10.298557861328124,-3.198440359739959,-8.990624708771705,-2.2603194055415687
1758274171630515700,10.308515625,-3.1290579036951063,-9.014127164912223,-2.2638252217054364
1758274171640475000,10.318474853515625,-3.004746756632626,-9.056386928492785,-2.263568470465392
1758274171650432800,10.328432861328125,-2.822533163438737,-9.116991327059269,-2.254805610556155
1758274171660391700,10.3383916015625,-2.6058082288339732,-9.185666803878545,-2.236889576245844
1758274171670349800,10.348349853515625,-2.3893776010006667,-9.24860110669732,-2.2191526978947222
1758274171680308000,10.358307861328125,-2.210978159267455,-9.295399098229408,-2.2085164453290402
1758274171690267000,10.368266845703126,-2.095806596472114,-9.318974035084247,-2.2214147976078094
1758274171700224800,10.378224853515626,-2.047037012606114,-9.316118645653129,-2.2781549219615758
1758274171710183000,10.388182861328126,-2.067706583408266,-9.287633140403031,-2.3737770040258765
1758274171720141800,10.398141845703124,-2.1508657820016146,-9.24279972694218,-2.4728116710126398
1758274171730100000,10.408099853515624,-2.2236717827543613,-9.207605663964152,-2.5388299113214012
1758274171740059000,10.418058837890625,-2.237626658348739,-9.197691588193178,-2.562402510088682
1758274171750017000,10.42801708984375,-2.198944460994005,-9.217299374982714,-2.525156483016908
1758274171759975000,10.437974853515625,-2.129245778606832,-9.261138516709208,-2.422402941637486
1758274171769933800,10.447933837890625,-2.0572367734506725,-9.310864962908624,-2.2904117614664137
1758274171779892000,10.45789208984375,-1.9960319247730076,-9.354114906570315,-2.1648926999188958
1758274171789851000,10.467850830078126,-1.9398169933371245,-9.389976493546365,-2.058111364328116
1758274171799809000,10.47780908203125,-1.870277593164891,-9.420635835704207,-1.9809328475795684
1758274171809766700,10.4877666015625,-1.7721331530161202,-9.448393026679753,-1.9385092717394232
1758274171819725800,10.497725830078124,-1.6345074740894139,-9.482786294668912,-1.8909037632167338
1758274171829683700,10.50768359375,-1.4442660572625696,-9.532116435027122,-1.795340571732819
1758274171839643000,10.517642822265625,-1.2154893042057753,-9.587663550204038,-1.6642438561834394
1758274171849600800,10.527600830078125,-0.970254972018674,-9.637798577204347,-1.5303088484682141
1758274171859559000,10.537558837890625,-0.7431813696179539,-9.672133393004536,-1.4380295009605586
1758274171869517800,10.547517822265625,-0.5405067338060587,-9.693305944892764,-1.3849408848516642
1758274171879475700,10.557475830078126,-0.36348033399172125,-9.705830495423077,-1.35465665961653
1758274171889435000,10.567434814453126,-0.26756312317205594,-9.708992758846282,-1.3543424791008234
1758274171899392800,10.577392822265624,-0.2789885898866691,-9.703564888578653,-1.3904606711864471
1758274171909351000,10.587350830078124,-0.3134215870980173,-9.694229489478468,-1.4470957277305423
1758274171919309800,10.597309814453125,-0.32103483858071263,-9.686331429705023,-1.4974391367845237
1758274171929268000,10.60726806640625,-0.32190124615170057,-9.68132090806663,-1.5293195451699197
1758274171939227000,10.617226806640625,-0.3413748121023178,-9.674420627158879,-1.568265946418792
1758274171949184800,10.627184814453125,-0.3665270812764764,-9.661918872982262,-1.6380974614053965
1758274171959143000,10.637142822265625,-0.3799037185914814,-9.644456866049765,-1.735072857774794
1758274171969101800,10.647101806640626,-0.3096477676477283,-9.62300374365449,-1.8634145755276084
1758274171979060000,10.65706005859375,-0.03537383314186009,-9.596317981302738,-2.0198595212146637
1758274171989019000,10.667018798828124,0.46849590201899405,-9.558310029947757,-2.1423332237169146
1758274171998977000,10.67697705078125,0.9479397529013455,-9.518446221593022,-2.1612449910663067
1758274172008935000,10.686934814453124,1.0929952165026218,-9.503402966240047,-2.158951619432121
1758274172018894000,10.69689404296875,1.0734848987381904,-9.51716319604516,-2.107512670226395
1758274172028851700,10.706851806640625,1.0065664216540753,-9.551326162409781,-1.9822686262279747
1758274172038809900,10.716809814453125,0.9306050986755638,-9.588791677451134,-1.8328790058799087
1758274172048768800,10.726768798828125,0.855762696724385,-9.622975102081893,-1.684160124400258
1758274172058727000,10.736726806640625,0.7817487084213643,-9.653301266762613,-1.5404662314757704
1758274172068685800,10.746685791015626,0.7132442773200571,-9.683144031840563,-1.3778164397992192
1758274172078643700,10.756643798828126,0.6583596446398645,-9.711853993496298,-1.1903089779809117
1758274172088601900,10.766601806640624,0.6178881527155637,-9.737828392708302,-0.9814705588422715
1758274172098560800,10.776560791015624,0.5731180502818897,-9.761078919914365,-0.7505073285918682
1758274172108519000,10.786518798828125,0.512081361245364,-9.780755680286884,-0.4949497187783941
1758274172118477800,10.796477783203125,0.4222916020637378,-9.795072959452867,-0.22041633646860717
1758274172128436000,10.80643603515625,0.2997550086594187,-9.801972655838727,0.04298866237699985
1758274172138393900,10.816393798828125,0.14723175732758825,-9.801749952998756,0.27282835022388024
1758274172148352800,10.826352783203125,0.030070153226191176,-9.794013221266866,0.4967796376192942
1758274172158311000,10.836310791015626,-0.03790841367037501,-9.779211957976221,0.7321008804161101
1758274172168269800,10.846269775390626,-0.07220508941726293,-9.75551076439321,0.9975908688422291
1758274172178228000,10.85622802734375,-0.07818550183400512,-9.719830963724851,1.2996758000202475
1758274172188185900,10.866185791015624,-0.06653605820436496,-9.672364863672852,1.615950365396589
1758274172198145000,10.87614501953125,-0.030258928680384996,-9.613372576478124,1.9371442669965326
1758274172208103000,10.88610302734375,0.07660607345572207,-9.540191020411253,2.269200777263939
1758274172218061000,10.89606103515625,0.2733248833028599,-9.449352811622619,2.6087179788008332
1758274172228020000,10.90602001953125,0.5931910799629986,-9.339681307548284,2.9306764350324865
1758274172237977900,10.915977783203125,0.9510262476745992,-9.216272954544424,3.2134491283014417
1758274172247937000,10.92593701171875,1.296951928014308,-9.08677739058137,3.452359298968315
1758274172257894700,10.935894775390626,1.6855822661578654,-8.9574186047405,3.6185415025547143
1758274172267852800,10.945852783203126,2.118278978912532,-8.829102021428943,3.70543097371757
1758274172277811700,10.955811767578124,2.5241619190216062,-8.71448020147085,3.7224759242817758
1758274172287769900,10.965769775390624,2.904068414092064,-8.604849613928794,3.700447924607992
1758274172297728800,10.975728759765625,3.352881564389169,-8.477901396360993,3.612999065996706
1758274172307687000,10.98568701171875,3.8694834717988966,-8.319238774624466,3.462331534667313
1758274172317644800,10.995644775390625,4.348683284792304,-8.139907458868622,3.31681071857661
1758274172327603700,11.005603759765625,4.709295589067041,-7.9458906151562925,3.294805515256524
1758274172337561900,11.015561767578125,4.998166599211096,-7.7096829814463845,3.4277553113266825
1758274172347520800,11.025520751953126,5.300480151513218,-7.399144621634483,3.650746612849831
1758274172357479000,11.03547900390625,5.6598874639123675,-6.997605555948614,3.894813143366575
1758274172367436800,11.045436767578124,6.07583499417901,-6.514460804721713,4.100781706157327
1758274172377396000,11.05539599609375,6.546131954270601,-5.9649605440557,4.211624592098594
1758274172387353900,11.065353759765625,7.060822182840108,-5.348763997688889,4.207837474775314
1758274172397312000,11.07531201171875,7.576074136945605,-4.6745659287303685,4.113626282422245
1758274172407271000,11.08527099609375,8.061677971762418,-3.9739614988833663,3.9226720411509275
1758274172417229000,11.09522900390625,8.474365623450279,-3.289542480161786,3.678916184018552
1758274172427188000,11.10518798828125,8.797084834921359,-2.652913386619091,3.426913307544589
1758274172437145900,11.115145751953126,9.04089476032853,-2.078285991220176,3.1801471626803277
1758274172447104000,11.12510400390625,9.227934166243672,-1.571987451159954,2.923092555774748
1758274172457063000,11.13506298828125,9.369011446928978,-1.1356191372204572,2.66502847956568
1758274172467020800,11.145020751953124,9.468400041919946,-0.7642095445994287,2.436343788706511
1758274172476980000,11.15497998046875,9.53079541555643,-0.4564302742373198,2.2640666292458773
1758274172486937900,11.164937744140625,9.559793546503782,-0.2104420914756134,2.176337200127542
1758274172496895700,11.174895751953125,9.559005610996484,-0.019408928332745563,2.189845647128671
1758274172506854700,11.184854736328125,9.533153961381316,0.14355805551721715,2.295375959745049
1758274172516812800,11.194812744140625,9.4882901527822,0.30891824779678134,2.4591274290531873
1758274172526771000,11.20477099609375,9.431550612950325,0.5041796482101083,2.6385683426633477
1758274172536729900,11.214729736328126,9.37303471109569,0.7459737037502229,2.785700393342972
1758274172546687700,11.224687744140626,9.324248176094889,1.0394515501026063,2.854526384548843
1758274172556647000,11.23464697265625,9.289558555507659,1.3754134703107177,2.8253710172131656
1758274172566604800,11.244604736328125,9.269401902663708,1.7357567483857272,2.6899294043272732
1758274172576563000,11.25456298828125,9.255831642472744,2.108838219741732,2.4602362670779225
1758274172586521900,11.26452197265625,9.233864140814543,2.483070614698529,2.1772696586720643
1758274172596480000,11.27447998046875,9.19365721811056,2.8342586725458503,1.9010588081367312
1758274172606437600,11.284437744140625,9.134823336347937,3.1387671045437453,1.6951484052740036
1758274172616396500,11.294396484375,9.067075495767593,3.3902237453117965,1.5700037299968301
1758274172626354700,11.304354736328126,9.002207010015844,3.5854487957701084,1.5083805097766219
1758274172636313600,11.314313720703124,8.951326133084297,3.715698685231805,1.4959054974764585
1758274172646271700,11.324271728515624,8.921953908127545,3.7757279142588374,1.5208544991634785
1758274172656229600,11.334229736328124,8.92013779861629,3.7684883183941245,1.5491992807686328
1758274172666188800,11.344188720703125,8.949779488164186,3.7012709314286707,1.5402683708161116
1758274172676146700,11.354146728515625,9.007302287328242,3.58437415227592,1.4802527319230139
1758274172686105900,11.36410595703125,9.08190773871839,3.4311914232552048,1.3842889968141912
1758274172696063700,11.374063720703125,9.161233204367756,3.25640330388695,1.279853055305779
1758274172706022000,11.38402197265625,9.236035639634729,3.073512834344804,1.1914498916443437
1758274172715980800,11.393980712890626,9.301318551406263,2.8935800455644727,1.132721077691391
1758274172725938700,11.403938720703126,9.35486835528612,2.723128786356747,1.1141789473719894
1758274172735896800,11.413896728515626,9.396140276873112,2.578605456870794,1.110732825506106
1758274172745855700,11.423855712890624,9.418287811273336,2.5805644819840787,0.89828944067806
1758274172755814000,11.43381396484375,9.403120052757858,2.703108034852147,0.66702649682872
1758274172765772800,11.443772705078125,9.370425405380129,2.8321146462544795,0.5870583858942613
1758274172775731000,11.45373095703125,9.33433702391088,2.952259613548219,0.5698262056622654
1758274172785688800,11.463688720703125,9.305309666869043,3.0508278320670126,0.5234935300869867
1758274172795647700,11.473647705078125,9.289508871147037,3.1119469021573662,0.4372532435478642
1758274172805606000,11.48360595703125,9.289227716118097,3.1267619017124173,0.3224789364418015
1758274172815563800,11.493563720703126,9.304770153164863,3.0914108946070074,0.18658835594570264
1758274172825523000,11.50352294921875,9.33222806893289,3.0131741009771824,0.026124454657582098
1758274172835480600,11.51348046875,9.361499171602725,2.9166321275889873,-0.1611660193921998
1758274172845439700,11.523439697265625,9.376230876788496,2.8566449841380117,-0.3102582276962697
1758274172855397600,11.533397705078125,9.378653135499357,2.8443545346245167,-0.3477006541229784
1758274172865355800,11.543355712890625,9.372914299586414,2.8705770633786916,-0.28043672460205854
1758274172875314700,11.553314697265625,9.360643431556225,2.9163740611746904,-0.20856223254576325
1758274172885272800,11.56327294921875,9.34931189020276,2.9564827842012047,-0.14127680357908828
1758274172895230700,11.573230712890625,9.340366951724887,2.9861235969662663,-0.10488503698278218
1758274172905189600,11.583189697265626,9.332187152400612,3.012019670245051,-0.09166064935373142
1758274172915147800,11.593147705078126,9.322819020074606,3.041296910394728,-0.07709485705308616
1758274172925106700,11.603106689453124,9.312185982379317,3.0741105079770086,-0.05854114132716786
1758274172935064800,11.61306494140625,9.301939898175,3.1052734157428143,-0.03963985883917193
1758274172945022700,11.623022705078125,9.293951822030543,3.129308663585782,-0.01633692102585919
1758274172954982000,11.63298193359375,9.289284999263286,3.143154525847733,0.012264393765275598
1758274172964939800,11.642939697265625,9.287477657580375,3.1481936890587208,0.04489661945675034
1758274172974898000,11.65289794921875,9.286998349630831,3.148922295594215,0.07955476262690499
1758274172984856800,11.66285693359375,9.286178265419602,3.1503488212659954,0.11216628916529006
1758274172994815000,11.67281494140625,9.283861220648884,3.156095548224449,0.1391657023097854
1758274173004774000,11.68277392578125,9.280085793763398,3.166316205726564,0.15759135750951245
1758274173014731800,11.692731689453124,9.275262903651594,3.1800466249153017,0.16486909342752767
1758274173024689700,11.702689697265624,9.269760214582085,3.196252202045917,0.16092726046657188
1758274173034648800,11.71264892578125,9.264633957609533,3.2116040849566456,0.1501571432549972
1758274173044606700,11.722606689453125,9.260551072210072,3.223880505944788,0.13846572821373118
1758274173054564600,11.732564697265625,9.257641906765103,3.232508633558452,0.1316597927922383
1758274173064523800,11.742523681640625,9.255846255519986,3.237609463828802,0.13257481614477
1758274173074481700,11.752481689453125,9.255144244730472,3.239315683224797,0.13971763710412197
1758274173084440800,11.76244091796875,9.255457548463344,3.2378914956405755,0.15148644649684428
1758274173094398700,11.772398681640626,9.25612039628625,3.2353660688161847,0.16439239756017923
1758274173104356900,11.78235693359375,9.256053176268935,3.2350799453511834,0.17356546397181227
1758274173114315800,11.792315673828124,9.254313639125227,3.2398712712809443,0.17689928456963971
1758274173124273700,11.802273681640624,9.250855023103952,3.2498873461216684,0.17406393327955155
1758274173134231800,11.812231689453125,9.246091169703007,3.263801889705658,0.16667201466364784
1758274173144190700,11.822190673828125,9.240459885817765,3.2801553508743644,0.1576815930762328
1758274173154148900,11.83214892578125,9.234742092692851,3.29668679895848,0.14759061723523773
1758274173164107800,11.842107666015625,9.22978417802453,3.3109450414136052,0.1382501309679821
1758274173174066000,11.85206591796875,9.22635361905396,3.3206834683567283,0.13357215661904773
1758274173184023800,11.86202392578125,9.2248607501477,3.3248063935056327,0.13412126926863566
1758274173193982700,11.871982666015626,9.224788853955268,3.3248496481254697,0.1379351650009863
1758274173203940900,11.88194091796875,9.225148334917426,3.32366452999413,0.14240321379313245
1758274173213899000,11.89189892578125,9.225124954041839,3.323587957626581,0.14565714668831786
1758274173223858000,11.90185791015625,9.224538678586482,3.3252000689983365,0.14598228698945603
1758274173233815600,11.911815673828125,9.224660843661427,3.3249779506802555,0.14331206313320435
1758274173243773700,11.921773681640625,9.22624314441681,3.3207448431551456,0.13955987099283373
1758274173253732600,11.931732666015625,9.228358529135583,3.3150188667237757,0.13575029524257406
1758274173263690800,11.941690673828125,9.229824510034918,3.311032719697058,0.13338122802367433
1758274173273649700,11.951649658203126,9.228481278732419,3.314913945044577,0.12986901865163816
1758274173283607800,11.96160791015625,9.221398626995086,3.335020913527906,0.1175814095492009
1758274173293565700,11.971565673828126,9.204154646727442,3.3832486456021664,0.08691153686419129
1758274173303524600,11.981524658203124,9.159508864793182,3.5033830915018913,0.009687366901099448
1758274173313482800,11.991482666015624,9.115784873878955,3.6153915140911934,-0.04241917365966365
1758274173323441000,12.00144091796875,9.093013070100545,3.6719858002334833,-0.06340967894529458
1758274173333399800,12.01139990234375,9.097726070097089,3.6604067138597367,-0.05642470172904431
1758274173343357700,12.021357666015625,9.120909961807728,3.6026331548050043,-0.020604515342460945
1758274173353316900,12.03131689453125,9.143346834543348,3.545286881251633,0.02311940478981705
