time,seconds_elapsed,z,y,x
1758274161368291300,0.046291259765625,0.23525220155715942,-0.5703651905059814,0.8030418753623962
1758274161378249500,0.05624951171875,0.17784883081912994,-0.8040122985839844,1.0649511814117432
1758274161388208400,0.06620849609375,0.054120760411024094,-1.000400185585022,1.3848416805267334
1758274161398166500,0.07616650390625,-0.056165799498558044,-1.2156312465667725,1.6646418571472168
1758274161408125400,0.08612548828125,0.017840782180428505,-1.5450142621994019,1.8616644144058228
1758274161418084400,0.09608447265625,0.29714325070381165,-1.7985562086105347,1.946681261062622
1758274161428042500,0.10604248046875,0.7276403307914734,-1.924943208694458,1.8420981168746948
1758274161438001400,0.11600146484375,1.1680028438568115,-2.2171363830566406,1.5603610277175903
1758274161447959300,0.125959228515625,1.2530529499053955,-2.750260829925537,1.2460709810256958
1758274161457918500,0.13591845703125,1.2076735496520996,-3.1896772384643555,1.017888069152832
1758274161467876400,0.14587646484375,1.2520654201507568,-3.9200448989868164,0.8168471455574036
1758274161477835500,0.15583544921875,1.3164199590682983,-4.587738990783691,0.6039047837257385
1758274161487793400,0.16579345703125,1.4354885816574097,-4.963679313659668,0.3829284608364105
1758274161497752300,0.17575244140625,1.7136977910995483,-4.738630294799805,0.37692517042160034
1758274161507711500,0.18571142578125,2.1384048461914062,-3.5542373657226562,0.6972104907035828
1758274161517669400,0.19566943359375,2.60087513923645,-1.9402899742126465,1.2420746088027954
1758274161527628500,0.205628662109375,2.920811414718628,-0.35315486788749695,1.5581388473510742
1758274161537586400,0.21558642578125,3.000811815261841,-0.3085349202156067,1.1392065286636353
1758274161547545300,0.22554541015625,2.684692621231079,-0.3998773694038391,0.12322073429822922
1758274161557503500,0.23550341796875,2.960170030593872,-0.5552363395690918,-0.5229159593582153
1758274161567462400,0.24546240234375,3.502283811569214,-0.6421738862991333,-0.6845253109931946
1758274161577419300,0.255419189453125,3.9215009212493896,-0.8560515642166138,-0.6353556513786316
1758274161587378200,0.265378173828125,3.9617958068847656,-0.926260232925415,-0.5095503330230713
1758274161597337300,0.27533740234375,3.7000648975372314,-0.8860121369361877,-0.40736404061317444
1758274161607295200,0.285295166015625,3.426511287689209,-0.7575284242630005,-0.3534533977508545
1758274161617254100,0.295254150390625,3.3265974521636963,-0.5023768544197083,-0.40955209732055664
1758274161627212300,0.30521240234375,3.416013240814209,-0.13389600813388824,-0.5412009358406067
1758274161637171200,0.315171142578125,3.6768672466278076,0.31469616293907166,-0.7126834988594055
1758274161647129300,0.32512939453125,3.9802331924438477,0.7764334082603455,-0.8985212445259094
1758274161657088300,0.335088134765625,4.185412406921387,1.1473057270050049,-1.1165968179702759
1758274161667046400,0.34504638671875,4.194350719451904,1.2432546615600586,-1.3578637838363647
1758274161677005300,0.35500537109375,4.169744968414307,0.9699355363845825,-1.5366841554641724
1758274161686964200,0.364964111328125,4.111498832702637,0.33887261152267456,-1.5333634614944458
1758274161696922400,0.37492236328125,4.074981212615967,-0.35073432326316833,-1.405949592590332
1758274161706881300,0.38488134765625,4.1172990798950195,-0.7058764100074768,-1.2435837984085083
1758274161716839400,0.39483935546875,4.148159980773926,-0.7359810471534729,-1.1217538118362427
1758274161726798300,0.40479833984375,4.096780776977539,-0.4810294806957245,-1.0745772123336792
1758274161736756200,0.414756103515625,3.980766773223877,-0.18110346794128418,-1.088413953781128
1758274161746715400,0.42471533203125,3.824518918991089,-0.2540288269519806,-1.0288896560668945
1758274161756673300,0.43467333984375,3.733858108520508,-0.7248634696006775,-0.7848919034004211
1758274161766632200,0.444632080078125,3.7880449295043945,-1.2027051448822021,-0.35912778973579407
1758274161776591400,0.45459130859375,3.9386374950408936,-1.5131583213806152,0.1899840533733368
1758274161786549200,0.46454931640625,4.017712116241455,-1.617783784866333,0.7469934821128845
1758274161796508400,0.47450830078125,3.930939197540283,-1.6161954402923584,1.1883491277694702
1758274161806466300,0.48446630859375,3.7636055946350098,-1.6631768941879272,1.4707709550857544
1758274161816425200,0.49442529296875,3.621767520904541,-1.8272627592086792,1.6396739482879639
1758274161826383400,0.50438330078125,3.69736647605896,-2.2880303859710693,1.7827738523483276
1758274161836342300,0.51434228515625,3.9745841026306152,-2.9690849781036377,1.9198219776153564
1758274161846300200,0.524300048828125,3.840982437133789,-3.3327646255493164,2.024155855178833
1758274161856259300,0.53425927734375,3.3564369678497314,-3.202996253967285,2.1104533672332764
1758274161866217200,0.54421728515625,2.946524143218994,-2.6586430072784424,2.0426487922668457
1758274161876176400,0.55417626953125,2.783128023147583,-2.0813138484954834,1.749191403388977
1758274161886135300,0.56413525390625,2.6754188537597656,-1.9250763654708862,1.2756093740463257
1758274161896093200,0.57409326171875,2.4688613414764404,-2.240964651107788,0.755014955997467
1758274161906052400,0.58405224609375,2.3723814487457275,-2.731926918029785,0.44810375571250916
1758274161916010200,0.59401025390625,2.384828805923462,-3.148510456085205,0.36497530341148376
1758274161925969200,0.60396923828125,2.225771188735962,-3.373383045196533,0.42004069685935974
1758274161935927000,0.613927001953125,1.923609972000122,-3.4140939712524414,0.5471999645233154
1758274161945886200,0.62388623046875,1.7409789562225342,-3.5517616271972656,0.3806679844856262
1758274161955844000,0.633843994140625,1.6126084327697754,-3.6895012855529785,0.05048980563879013
1758274161965803300,0.64380322265625,1.6139546632766724,-3.559067726135254,-0.3396025598049164
1758274161975761200,0.65376123046875,1.7149348258972168,-3.439631700515747,-0.9136477112770081
1758274161985720000,0.663719970703125,1.7318382263183594,-3.4109294414520264,-1.5073611736297607
1758274161995679200,0.67367919921875,2.058574676513672,-3.3991904258728027,-2.0588393211364746
1758274162005637000,0.68363720703125,2.4382944107055664,-2.747968912124634,-2.0587997436523438
1758274162015596000,0.693595947265625,2.5125443935394287,-1.6839327812194824,-1.6287314891815186
1758274162025554200,0.70355419921875,2.4728167057037354,-0.6401858329772949,-1.0452790260314941
1758274162035513000,0.71351318359375,2.5254080295562744,-0.050027746707201004,-0.6102803945541382
1758274162045471200,0.72347119140625,2.5105769634246826,-0.10167469829320908,-0.3837878704071045
1758274162055430100,0.73343017578125,2.5451223850250244,-0.3127536475658417,-0.20829088985919952
1758274162065388300,0.74338818359375,2.8425822257995605,-0.38286110758781433,-0.07795977592468262
1758274162075347200,0.75334716796875,3.095163583755493,-0.4785125255584717,0.01315068919211626
1758274162085305000,0.76330517578125,3.164245843887329,-0.5588640570640564,0.11091160029172897
1758274162095264300,0.77326416015625,3.0631349086761475,-0.6379565000534058,0.11757057160139084
1758274162105223200,0.78322314453125,2.94838285446167,-0.1045256108045578,0.03706907108426094
1758274162115181300,0.793181396484375,3.135128974914551,-0.014590660110116005,-0.3159121572971344
1758274162125140200,0.80314013671875,3.3208019733428955,-0.5147730708122253,-0.5819081664085388
1758274162135098000,0.81309814453125,3.2391586303710938,-0.4742850065231323,-0.152986079454422
1758274162145057300,0.823057373046875,2.922335624694824,0.44293054938316345,0.08502514660358429
1758274162155015200,0.83301513671875,2.5380568504333496,1.2934166193008423,-0.21707692742347717
1758274162164974300,0.842974365234375,2.133711576461792,1.1576534509658813,-0.8505180478096008
1758274162174932200,0.85293212890625,1.5747321844100952,0.6238343119621277,-1.343192219734192
1758274162184891100,0.86289111328125,1.333630084991455,0.5335249304771423,-1.357753038406372
1758274162194849300,0.872849365234375,1.732843041419983,0.8131949305534363,-1.1543428897857666
1758274162204808200,0.88280810546875,2.369417667388916,0.6247469782829285,-1.1325664520263672
1758274162214766300,0.892766357421875,3.1357884407043457,-0.5673984289169312,-1.1234166622161865
1758274162224725200,0.902725341796875,3.6157236099243164,-1.1648805141448975,-1.1315369606018066
1758274162234684200,0.91268408203125,3.817592144012451,-1.7105640172958374,-0.9863690733909607
1758274162244642300,0.922642333984375,3.936870574951172,-2.623399019241333,-0.4692830741405487
1758274162254601200,0.932601318359375,3.8653810024261475,-3.663278102874756,0.06181516498327255
1758274162264559400,0.942559326171875,3.6526732444763184,-4.473413944244385,0.44546616077423096
1758274162274518300,0.952518310546875,2.2938945293426514,-3.772625207901001,1.093021273612976
1758274162284476200,0.96247607421875,0.7716615796089172,-2.7277848720550537,1.2439050674438477
1758274162294435300,0.972435302734375,0.8513523936271667,-1.8518719673156738,0.7782699465751648
1758274162304393200,0.982393310546875,1.6310921907424927,-1.0446275472640991,0.22053822875022888
1758274162314352400,0.992352294921875,2.451752185821533,-0.5107423663139343,-0.2168649286031723
1758274162324310300,1.002310302734375,3.11909818649292,-0.3937353193759918,-0.4643152058124542
1758274162334269200,1.012269287109375,3.580066680908203,-0.7932227849960327,-0.4912506937980652
1758274162344227300,1.022227294921875,3.9830164909362793,-1.8300542831420898,-0.6661204695701599
1758274162354186200,1.032186279296875,4.184500694274902,-3.265408515930176,-0.34589827060699463
1758274162364145200,1.042145263671875,5.456560134887695,-5.005321979522705,0.49263525009155273
1758274162374103300,1.052103271484375,8.078300476074219,-5.483902454376221,0.7564517259597778
1758274162384062200,1.062062255859375,7.8753132820129395,-4.600547790527344,0.4792041480541229
1758274162394020400,1.072020263671875,5.464221477508545,-2.1656992435455322,0.3700084090232849
1758274162403979300,1.081979248046875,3.2810473442077637,0.6062608957290649,0.09438934922218323
1758274162413937400,1.0919375,2.3446240425109863,2.432983160018921,-0.20253179967403412
1758274162423896300,1.101896240234375,2.1041007041931152,3.046428918838501,-0.4170217216014862
1758274162433854500,1.1118544921875,1.7283228635787964,2.588613510131836,-0.6639401912689209
1758274162443813400,1.1218134765625,0.04135223478078842,1.4914956092834473,-0.7193983793258667
1758274162453771300,1.131771240234375,-1.2001365423202515,0.521608829498291,-0.3962472081184387
1758274162463730400,1.14173046875,-0.7980002164840698,-0.25012409687042236,-0.00615270109847188
1758274162473688000,1.15168798828125,-0.2190316766500473,-0.7632931470870972,0.19510184228420258
1758274162483647200,1.161647216796875,-0.02533411793410778,-1.2060681581497192,0.24037665128707886
1758274162493605000,1.171605224609375,-0.07550487667322159,-1.265177845954895,0.1756562441587448
1758274162503564300,1.181564208984375,-0.24509204924106598,-0.879124104976654,0.031147798523306847
1758274162513523500,1.1915234375,-0.37889617681503296,-0.25734737515449524,-0.126385897397995
1758274162523481000,1.201481201171875,-0.3860584795475006,0.25459128618240356,-0.20935854315757751
1758274162533440300,1.211440185546875,-0.2273828238248825,0.34701254963874817,-0.17913992702960968
1758274162543398100,1.221398193359375,-0.001389104756526649,0.10652218014001846,-0.054551925510168076
1758274162553357000,1.231357177734375,0.07212425768375397,-0.11130921542644501,0.11348741501569748
1758274162563315200,1.241315185546875,0.08874770998954773,-0.06101515144109726,0.1949644237756729
1758274162573274000,1.251274169921875,0.09902538359165192,0.19155079126358032,0.20523357391357422
1758274162583232300,1.261232177734375,0.039086416363716125,0.2980695068836212,0.15526814758777618
1758274162593191400,1.27119140625,-0.01332778949290514,0.20675930380821228,0.057497382164001465
1758274162603149000,1.281149169921875,-0.011464109644293785,0.032760608941316605,-0.03633270785212517
1758274162613108500,1.2911083984375,0.011770373210310936,-0.05862709507346153,-0.09775132685899734
1758274162623066000,1.301066162109375,0.020175842568278313,-0.056469399482011795,-0.12470971047878265
1758274162633025300,1.311025390625,0.025133848190307617,-0.007517571095377207,-0.10886496305465698
1758274162642983200,1.320983154296875,0.0011270497925579548,0.02129783108830452,-0.047756072133779526
1758274162652942000,1.330942138671875,-0.026669161394238472,0.04111148416996002,0.026852652430534363
1758274162662900200,1.340900146484375,-0.006201703101396561,0.13239319622516632,0.06000421568751335
1758274162672859100,1.350859130859375,1.1927427053451538,0.04301830753684044,0.15672889351844788
1758274162682818000,1.360818115234375,2.2421481609344482,-0.5897442102432251,0.35320332646369934
1758274162692776200,1.370776123046875,1.6518807411193848,-1.1582697629928589,0.3158556818962097
1758274162702735000,1.380735107421875,1.8153120279312134,-1.345495581626892,0.0027475832030177116
1758274162712693200,1.390693359375,1.7635444402694702,-2.062812328338623,-0.3003571629524231
1758274162722652200,1.400652099609375,1.582959771156311,-3.796902656555176,-0.46883779764175415
1758274162732610300,1.4106103515625,1.2449313402175903,-6.110317230224609,-0.6603403687477112
1758274162742569200,1.4205693359375,0.7204934358596802,-8.142998695373535,-0.9332976341247559
1758274162752527400,1.43052734375,0.04892812669277191,-8.740931510925293,-1.1985697746276855
1758274162762486300,1.440486328125,-0.22023862600326538,-6.436377048492432,-1.3164005279541016
1758274162772444200,1.450444091796875,-0.2511608600616455,-2.485013484954834,-1.2756757736206055
1758274162782403300,1.4604033203125,-0.30465736985206604,1.249886155128479,-1.0962204933166504
1758274162792361200,1.470361328125,-1.2458659410476685,3.8770601749420166,-1.3838804960250854
1758274162802320100,1.480320068359375,-2.384751796722412,6.079349994659424,-1.2927436828613281
1758274162812278300,1.4902783203125,-2.910860776901245,7.204822063446045,-0.7991323471069336
1758274162822237200,1.5002373046875,-2.7848846912384033,6.5911078453063965,-0.2540903389453888
1758274162832196400,1.5101962890625,-2.281369924545288,4.506608963012695,0.3232124149799347
1758274162842154200,1.520154296875,-1.6634341478347778,2.0677592754364014,0.9489471316337585
1758274162852113200,1.530113037109375,-1.3499057292938232,0.5408248901367188,1.4233688116073608
1758274162862071300,1.5400712890625,-1.263482928276062,0.1330571174621582,1.627433180809021
1758274162872030200,1.5500302734375,-1.0572307109832764,0.380612313747406,1.469764232635498
1758274162881988400,1.55998828125,-0.6088585257530212,0.8315898776054382,1.0052505731582642
1758274162891947300,1.569947265625,-0.014812235720455647,1.1109980344772339,0.5546890497207642
1758274162901905400,1.579905517578125,0.5958572626113892,1.1352006196975708,0.27428027987480164
1758274162911864300,1.5898642578125,1.1007518768310547,0.9067943692207336,0.09013335406780243
1758274162921822200,1.599822265625,1.4109480381011963,0.3585602939128876,-0.010005496442317963
1758274162931781400,1.609781494140625,0.2545126974582672,-0.32948681712150574,0.431862473487854
1758274162941739300,1.6197392578125,-2.1110284328460693,-0.48958539962768555,1.0954500436782837
1758274162951698200,1.6296982421875,-1.4483524560928345,0.3175143003463745,0.7943857908248901
1758274162961656300,1.63965625,-1.0381773710250854,1.0704797506332397,0.2251950353384018
1758274162971615200,1.649615234375,-1.4339258670806885,1.1827327013015747,0.003859186777845025
1758274162981573400,1.659573486328125,-1.7003287076950073,0.8656104207038879,-0.26434242725372314
1758274162991532300,1.6695322265625,-2.059180974960327,0.7999091744422913,-0.5115618109703064
1758274163001491200,1.6794912109375,-2.105469226837158,0.9134751558303833,-0.13569791615009308
1758274163011449300,1.689449462890625,-1.769301414489746,0.8123922348022461,0.4119737148284912
1758274163021408300,1.699408203125,-1.5966359376907349,0.8994815945625305,0.440762996673584
1758274163031366400,1.709366455078125,-1.5867090225219727,1.0706778764724731,0.2291591465473175
1758274163041325300,1.7193251953125,-1.521835207939148,1.0383961200714111,0.04795128107070923
1758274163051283500,1.729283447265625,-1.417446494102478,0.7883273959159851,-0.05745210871100426
1758274163061242400,1.739242431640625,-1.3073716163635254,0.5156489610671997,-0.04986555874347687
1758274163071200300,1.7492001953125,-1.2861568927764893,0.3191540241241455,0.06973300874233246
1758274163081159400,1.759159423828125,-1.2966781854629517,0.07315277308225632,0.14236433804035187
1758274163091117300,1.769117431640625,-1.245080828666687,-0.04968979209661484,0.19856955111026764
1758274163101076500,1.779076416015625,-1.1293309926986694,-0.08387546241283417,0.07898962497711182
1758274163111034400,1.789034423828125,-1.1514999866485596,0.020498882979154587,-0.6091467142105103
1758274163120993300,1.7989931640625,-1.2215136289596558,0.12736061215400696,-0.6439552903175354
1758274163130951200,1.808951171875,-1.4167537689208984,0.04697230085730553,-0.2502841353416443
1758274163140910300,1.818910400390625,-1.6442241668701172,0.3978927731513977,-0.6119693517684937
1758274163150868200,1.8288681640625,-1.6898547410964966,0.8213212490081787,-0.9186427593231201
1758274163160827400,1.838827392578125,-1.5749210119247437,0.8226869106292725,-0.7512567043304443
1758274163170786300,1.848786376953125,-1.2152901887893677,0.6700979471206665,-0.26608148217201233
1758274163180744200,1.858744140625,-0.7995515465736389,0.7360972166061401,-0.30885183811187744
1758274163190703400,1.868703369140625,-0.49870380759239197,0.7888584136962891,-0.21522043645381927
1758274163200661200,1.8786611328125,-0.3088124394416809,0.6879027485847473,-0.01991751603782177
1758274163210620200,1.8886201171875,-0.12594488263130188,0.47286689281463623,0.00005219795639277436
1758274163220578300,1.898578369140625,-0.010370882228016853,0.28927627205848694,-0.03261280432343483
1758274163230537200,1.908537109375,0.008401740342378616,0.14330843091011047,-0.046464703977108
1758274163240495000,1.9184951171875,0.04730839282274246,0.07399353384971619,-0.002198439557105303
1758274163250454300,1.928454345703125,0.10460177809000015,0.01571051962673664,0.09746716916561127
1758274163260412200,1.938412109375,0.23016954958438873,-0.03527649864554405,0.18840692937374115
1758274163270371000,1.94837109375,0.4482494294643402,-0.20148251950740814,0.26310408115386963
1758274163280329200,1.9583291015625,0.6678552627563477,-0.36131131649017334,0.22802917659282684
1758274163290288000,1.9682880859375,0.6579179763793945,-0.20191608369350433,0.06084737181663513
1758274163300246300,1.978246337890625,0.49509337544441223,0.1231970340013504,-0.07120014727115631
1758274163310205200,1.988205078125,0.35204964876174927,0.31746184825897217,-0.12026569247245789
1758274163320163300,1.998163330078125,0.24724414944648743,0.3891677260398865,-0.1297886222600937
1758274163330122200,2.008122314453125,0.19540145993232727,0.23721787333488464,-0.09995695948600769
1758274163340081200,2.0180810546875,0.14381548762321472,-0.020612334832549095,-0.05247146263718605
1758274163350039300,2.028039306640625,0.05128822103142738,-0.13433437049388885,-0.024030767381191254
1758274163359998200,2.037998291015625,0.0004564658156596124,-0.15823277831077576,0.007385744713246822
1758274163369956400,2.047956298828125,-0.02490801364183426,0.01557949185371399,0.005285575985908508
1758274163379915300,2.057915283203125,-0.05673518404364586,0.20393341779708862,0.00628985371440649
1758274163389873200,2.067873046875,-0.11234758049249649,0.39711859822273254,-0.0014777880860492587
1758274163399832300,2.077832275390625,-0.1620674729347229,0.4498814046382904,0.015535017475485802
1758274163409790200,2.087790283203125,-0.21885432302951813,0.46663108468055725,0.030961910262703896
1758274163419749400,2.097749267578125,-0.252579003572464,0.44353777170181274,0.07726283371448517
1758274163429707300,2.107707275390625,-0.21393252909183502,0.45460906624794006,0.11316783726215363
1758274163439666200,2.117666259765625,-0.13645291328430176,0.3543042838573456,0.14280855655670166
1758274163449624300,2.127624267578125,-0.09326869249343872,0.13940396904945374,0.11387570202350616
1758274163459583200,2.137583251953125,-0.0900566577911377,-0.020779846236109734,0.09375445544719696
1758274163469541400,2.147541259765625,-0.10563268512487411,-0.01395922526717186,0.10195193439722061
1758274163479500300,2.157500244140625,-0.13652987778186798,0.08682890236377716,0.12652412056922913
1758274163489458400,2.16745849609375,-0.13486887514591217,0.15775181353092194,0.12848420441150665
1758274163499417300,2.177417236328125,-0.13409921526908875,0.19760762155056,0.09419920295476913
1758274163509376300,2.187376220703125,-0.1397770792245865,0.25986194610595703,0.053213685750961304
1758274163519334400,2.19733447265625,-0.14049692451953888,0.33166369795799255,0.0422302782535553
1758274163529293300,2.207293212890625,-0.14684537053108215,0.3263956904411316,0.05944255366921425
1758274163539251200,2.217251220703125,-0.13784627616405487,0.29181161522865295,0.07387848198413849
1758274163549210400,2.22721044921875,-0.149189755320549,0.29901599884033203,0.07545001804828644
1758274163559168300,2.237168212890625,-0.1644430011510849,0.38413727283477783,0.07215248793363571
1758274163569127400,2.24712744140625,-0.16061444580554962,0.5224610567092896,0.06007185950875282
1758274163579085800,2.2570859375,-0.1439097672700882,0.5608790516853333,0.05203603580594063
1758274163589044700,2.267044677734375,-0.13368083536624908,0.4598970115184784,0.040234506130218506
1758274163599003000,2.2770029296875,-0.12033279985189438,0.4050169885158539,0.0158828254789114
1758274163608961800,2.2869619140625,-0.12732093036174774,0.5084930658340454,0.021163076162338257
1758274163618920000,2.296919921875,-0.12132589519023895,0.6957165002822876,0.0472564622759819
1758274163628878800,2.30687890625,-0.06366206705570221,0.7887044548988342,0.0714491456747055
1758274163638836700,2.316836669921875,0.018604576587677002,0.6631888747215271,0.006071474403142929
1758274163648796000,2.3267958984375,0.06346020102500916,0.4812513291835785,-0.039438217878341675
1758274163658753800,2.33675390625,0.10327232629060745,0.37914517521858215,-0.03073793835937977
1758274163668713000,2.346712890625,0.1419941484928131,0.3722499907016754,-0.007386809680610895
1758274163678672000,2.356671875,0.17462506890296936,0.36190706491470337,0.021673336625099182
1758274163688629800,2.366629638671875,0.20042577385902405,0.3544670045375824,0.05542357638478279
1758274163698589000,2.3765888671875,0.204294815659523,0.37273070216178894,0.08916449546813965
1758274163708546800,2.386546875,0.18631528317928314,0.3819790482521057,0.124834343791008
1758274163718506000,2.396506103515625,0.1665586233139038,0.3706156015396118,0.16569043695926666
1758274163728464000,2.4064638671875,0.1565065234899521,0.3491683900356293,0.2169477641582489
1758274163738422800,2.4164228515625,0.13701990246772766,0.30403393507003784,0.27434927225112915
1758274163748381000,2.426380859375,0.13444195687770844,0.2022303342819214,0.3534446060657501
1758274163758339800,2.43633984375,0.14260375499725342,0.14303918182849884,0.4210793077945709
1758274163768297700,2.446297607421875,0.1634962558746338,0.1309172660112381,0.4331660866737366
1758274163778257000,2.4562568359375,0.1591624915599823,0.19518014788627625,0.4269617199897766
1758274163788214800,2.46621484375,0.142727330327034,0.2778627872467041,0.4211229979991913
1758274163798173700,2.476173583984375,0.14057229459285736,0.3228430449962616,0.4030393362045288
1758274163808131600,2.486131591796875,0.15182441473007202,0.31469374895095825,0.3844142556190491
1758274163818090800,2.4960908203125,0.17895936965942383,0.18761543929576874,0.36930906772613525
1758274163828050000,2.5060498046875,0.2642068862915039,-0.061587728559970856,0.335330069065094
1758274163838007800,2.5160078125,0.35824576020240784,-0.2818588614463806,0.24307523667812347
1758274163847966700,2.525966796875,0.41561371088027954,-0.34359678626060486,0.0644783228635788
1758274163857924600,2.535924560546875,0.4270738363265991,-0.24212048947811127,-0.16754531860351562
1758274163867883800,2.5458837890625,0.4204372465610504,-0.12445218116044998,-0.3555964529514313
1758274163877841700,2.555841552734375,0.3978312611579895,-0.17083512246608734,-0.40418529510498047
1758274163887800600,2.565800537109375,0.3175755739212036,-0.3748130202293396,-0.3969963490962982
1758274163897758700,2.5757587890625,0.1478120982646942,-0.7173227071762085,-0.48173442482948303
1758274163907717600,2.585717529296875,0.018735071644186974,-0.9249230027198792,-0.7373555302619934
1758274163917675800,2.59567578125,0.09038875252008438,-0.8815984725952148,-1.1348549127578735
1758274163927634700,2.605634765625,0.15777099132537842,-0.7434496283531189,-1.5651501417160034
1758274163937592800,2.6155927734375,0.1521482616662979,-0.6887648105621338,-1.8501709699630737
1758274163947551700,2.6255517578125,0.15080788731575012,-0.8437461256980896,-2.0169222354888916
1758274163957509600,2.635509521484375,0.16287946701049805,-1.1352152824401855,-2.1170711517333984
1758274163967468800,2.64546875,0.1602461338043213,-1.3993507623672485,-2.2241289615631104
1758274163977426700,2.6554267578125,0.16681455075740814,-1.5688588619232178,-2.3624556064605713
1758274163987385900,2.6653857421875,0.17207615077495575,-1.5958033800125122,-2.525019407272339
1758274163997344800,2.6753447265625,0.18706202507019043,-1.4682382345199585,-2.710658311843872
1758274164007302700,2.685302734375,0.1966312974691391,-1.2976266145706177,-2.8006696701049805
1758274164017261800,2.69526171875,0.17578700184822083,-1.0664883852005005,-2.7660129070281982
1758274164027219700,2.7052197265625,0.14623337984085083,-0.7626067996025085,-2.6415302753448486
1758274164037179000,2.715178955078125,0.12729856371879578,-0.4356292486190796,-2.5019707679748535
1758274164047136800,2.72513671875,0.19796261191368103,-0.38776132464408875,-2.397915840148926
1758274164057095700,2.735095703125,0.2794409692287445,-0.6210725903511047,-2.3642706871032715
1758274164067053800,2.7450537109375,0.36421817541122437,-0.8637073636054993,-2.2562057971954346
1758274164077012700,2.7550126953125,0.4892972707748413,-1.3725937604904175,-2.1190292835235596
1758274164086971000,2.764970947265625,0.5865082144737244,-1.8332513570785522,-2.175175189971924
1758274164096929800,2.7749296875,0.5838240385055542,-2.2148823738098145,-2.317067861557007
1758274164106888000,2.784887939453125,0.6254678964614868,-2.253988742828369,-2.4446473121643066
1758274164116846800,2.794846923828125,0.7471530437469482,-2.0808186531066895,-2.5577712059020996
1758274164126804700,2.8048046875,0.9141502976417542,-1.774989128112793,-2.587568521499634
1758274164136764000,2.814763916015625,1.0339739322662354,-1.309497356414795,-2.6031479835510254
1758274164146722800,2.824722900390625,1.0926997661590576,-0.7571526765823364,-2.562067747116089
1758274164156680700,2.8346806640625,1.087598443031311,-0.34350302815437317,-2.3961222171783447
1758274164166639900,2.844639892578125,0.9046622514724731,-0.12102948874235153,-2.14178204536438
1758274164176597800,2.85459765625,0.7017120718955994,-0.20460666716098785,-1.9129184484481812
1758274164186557000,2.864556884765625,0.4128246009349823,-0.3785393238067627,-1.8342682123184204
1758274164196514800,2.874514892578125,0.1370507925748825,-0.6031836271286011,-1.8903855085372925
1758274164206473700,2.8844736328125,-0.24354954063892365,-1.1809883117675781,-1.8739324808120728
1758274164216431900,2.894431884765625,-0.7179930210113525,-2.1796727180480957,-1.8793631792068481
1758274164226390800,2.904390869140625,-1.032431960105896,-2.949761390686035,-2.054492950439453
1758274164236349000,2.914348876953125,-1.0779157876968384,-3.5102593898773193,-2.3021762371063232
1758274164246307800,2.924307861328125,-1.0410832166671753,-3.797957420349121,-2.5362722873687744
1758274164256266000,2.934265869140625,-0.8978900909423828,-3.690114974975586,-2.62821364402771
1758274164266225000,2.944224853515625,-0.5917432308197021,-3.4070065021514893,-2.531196117401123
1758274164276182800,2.954182861328125,-0.4877435564994812,-3.0155539512634277,-2.207895278930664
1758274164286142000,2.964141845703125,-0.5196186900138855,-2.6722731590270996,-1.8478902578353882
1758274164296100900,2.974100830078125,-0.6685410737991333,-2.2640929222106934,-1.5062870979309082
1758274164306059000,2.98405908203125,-0.71893310546875,-2.0584301948547363,-1.2253614664077759
1758274164316018000,2.994017822265625,-0.7237598299980164,-1.8099987506866455,-1.0396591424942017
1758274164325975800,3.003975830078125,-0.7020508050918579,-1.490597128868103,-0.9017740488052368
1758274164335935000,3.01393505859375,-0.720870316028595,-1.1102575063705444,-0.7681952118873596
1758274164345892600,3.023892578125,-0.8016913533210754,-0.8295669555664062,-0.6163180470466614
1758274164355851800,3.033851806640625,-0.8576017618179321,-0.5426843166351318,-0.4247038960456848
1758274164365809700,3.0438095703125,-0.8929728269577026,-0.20845280587673187,-0.17046786844730377
1758274164375768800,3.053768798828125,-0.9355801939964294,-0.026803119108080864,0.09701017290353775
1758274164385726700,3.063726806640625,-0.9158512353897095,-0.026150111109018326,0.32968762516975403
1758274164395685600,3.073685546875,-0.8299698829650879,-0.03653644025325775,0.5465669631958008
1758274164405643800,3.083643798828125,-0.7450094819068909,0.08071508258581161,0.7703070640563965
1758274164415602700,3.093602783203125,-0.6685069799423218,0.36466479301452637,1.0335289239883423
1758274164425560800,3.103560791015625,-0.5767226815223694,0.631277322769165,1.3045544624328613
1758274164435519700,3.113519775390625,-0.4443114101886749,0.7248149514198303,1.508681058883667
1758274164445477600,3.1234775390625,-0.27867263555526733,0.6081472039222717,1.5872802734375
1758274164455436800,3.133436767578125,-0.08857300877571106,0.3310279846191406,1.4858124256134033
1758274164465395700,3.143395751953125,0.10994593799114227,0.16656394302845,1.1796890497207642
1758274164475353600,3.153353515625,0.22115156054496765,0.11170229315757751,0.8044397830963135
1758274164485312800,3.163312744140625,0.21824578940868378,0.2885713577270508,0.3621864318847656
1758274164495270700,3.173270751953125,0.1963098645210266,0.7611889839172363,-0.023003052920103073
1758274164505229800,3.183229736328125,0.29267820715904236,0.8827747702598572,0.3644227087497711
1758274164515187700,3.193187744140625,0.26334908604621887,0.04795394465327263,0.5909213423728943
1758274164525146600,3.203146728515625,0.21618236601352692,0.3030136823654175,1.0599393844604492
1758274164535104800,3.213104736328125,0.030652716755867004,1.384217381477356,1.4260045289993286
1758274164545063700,3.223063720703125,0.00452870549634099,1.8258781433105469,1.5629581212997437
1758274164555021800,3.233021728515625,0.0850541740655899,1.7046047449111938,1.6958357095718384
1758274164564980700,3.242980712890625,0.2515976130962372,1.6266803741455078,1.8217025995254517
1758274164574939000,3.25293896484375,0.4489125609397888,1.8697841167449951,1.8399385213851929
1758274164584897800,3.262897705078125,0.5922353267669678,2.148900032043457,1.7892935276031494
1758274164594855700,3.272855712890625,0.667665958404541,2.256610631942749,1.7566874027252197
1758274164604814800,3.28281494140625,0.671785831451416,2.2162961959838867,1.8117783069610596
1758274164614772700,3.292772705078125,0.5935874581336975,2.0855369567871094,1.9139448404312134
1758274164624732000,3.30273193359375,0.42167773842811584,1.9740060567855835,2.0154078006744385
1758274164634690800,3.31269091796875,0.23504500091075897,1.8491214513778687,2.1053950786590576
1758274164644648700,3.322648681640625,0.06952208280563354,1.591544508934021,2.1302082538604736
1758274164654608000,3.33260791015625,-0.016623185947537422,1.4023468494415283,2.089423656463623
1758274164664565800,3.342565673828125,-0.03783046826720238,1.4142268896102905,2.020437240600586
1758274164674524700,3.352524658203125,-0.04209978133440018,1.5662587881088257,1.9508192539215088
1758274164684482800,3.36248291015625,0.00833755824714899,1.6974050998687744,1.910523772239685
1758274164694441700,3.372441650390625,0.002779008587822318,1.8390873670578003,1.9027005434036255
1758274164704400000,3.38239990234375,-0.004458930809050798,1.946455717086792,1.9609183073043823
1758274164714358800,3.39235888671875,0.07786896824836731,2.0350465774536133,1.988996982574463
1758274164724317000,3.40231689453125,0.1916237622499466,2.0606682300567627,1.9754526615142822
1758274164734275800,3.41227587890625,0.29757070541381836,2.0515670776367188,1.912006139755249
1758274164744233700,3.422233642578125,0.37714114785194397,2.1371381282806396,1.796494960784912
1758274164754193000,3.43219287109375,0.39124685525894165,2.336184501647949,1.720058798789978
1758274164764150800,3.44215087890625,0.34199807047843933,2.368582248687744,1.7363216876983643
1758274164774110000,3.45210986328125,0.26138579845428467,2.151066303253174,1.7686777114868164
1758274164784068900,3.46206884765625,0.2479725182056427,1.906876564025879,1.6894971132278442
1758274164794026800,3.47202685546875,0.19624407589435577,1.5059653520584106,1.6531023979187012
1758274164803986000,3.48198583984375,0.15007604658603668,1.000069499015808,1.6217454671859741
1758274164813943800,3.49194384765625,0.20344579219818115,0.6116191744804382,1.4303520917892456
1758274164823902700,3.50190283203125,0.30258864164352417,0.46630191802978516,1.1717349290847778
1758274164833860900,3.51186083984375,0.38457056879997253,0.4571097493171692,1.0143834352493286
1758274164843819800,3.52181982421875,0.33727630972862244,0.32097989320755005,0.9547964930534363
1758274164853778000,3.53177783203125,0.23261140286922455,0.19517748057842255,0.9008826613426208
1758274164863736800,3.54173681640625,0.16351036727428436,0.187129944562912,0.8152881264686584
1758274164873695000,3.551695068359375,0.09910368174314499,0.25002527236938477,0.7479937672615051
1758274164883654000,3.56165380859375,-0.006880010478198528,0.49976828694343567,0.7527598142623901
1758274164893612000,3.571612060546875,-0.032518792897462845,0.7326624989509583,0.7569380402565002
1758274164903571000,3.581571044921875,-0.016282565891742706,0.9627082347869873,0.7594442963600159
1758274164913528800,3.59152880859375,-0.01593928597867489,1.2770624160766602,0.7462019920349121
1758274164923488000,3.601488037109375,-0.02509470097720623,1.457863688468933,0.7082538604736328
1758274164933446000,3.61144580078125,-0.030316093936562538,1.348947286605835,0.6357713937759399
1758274164943404800,3.62140478515625,0.008739429526031017,1.1037068367004395,0.5614476203918457
1758274164953364000,3.631364013671875,0.06987308710813522,0.8035612106323242,0.529220700263977
1758274164963321900,3.64132177734375,0.0709143877029419,0.3837657570838928,0.5552379488945007
1758274164973281000,3.651281005859375,0.06624054163694382,-0.04982614517211914,0.6080625057220459
1758274164983239000,3.661239013671875,0.11148391664028168,-0.40602314472198486,0.592060387134552
1758274164993197800,3.67119775390625,0.20757928490638733,-0.5849795937538147,0.5230706930160522
1758274165003156000,3.681156005859375,0.28457900881767273,-0.5719985365867615,0.49660763144493103
1758274165013115000,3.691114990234375,0.3231825828552246,-0.41127195954322815,0.516455352306366
1758274165023073000,3.701072998046875,0.34501969814300537,-0.1941327303647995,0.5570640563964844
1758274165033032000,3.711031982421875,0.3432178199291229,-0.056182313710451126,0.6015558838844299
1758274165042990000,3.720989990234375,0.2862570583820343,-0.024945029988884926,0.664993166923523
1758274165052949000,3.730948974609375,0.18187153339385986,-0.037272270768880844,0.7435833215713501
1758274165062907000,3.740906982421875,0.11188045889139175,0.012799152173101902,0.8430430889129639
1758274165072866000,3.750865966796875,0.04751824960112572,0.05061284452676773,0.9015684127807617
1758274165082823700,3.76082373046875,0.01715608313679695,0.006216616835445166,0.8773403167724609
1758274165092782800,3.770782958984375,0.0082115912809968,-0.003325489116832614,0.8466055989265442
1758274165102740700,3.78074072265625,0.07310830056667328,0.022006232291460037,0.8123307228088379
1758274165112699600,3.79069970703125,0.21048852801322937,-0.0035380094777792692,0.73223876953125
1758274165122659000,3.8006591796875,0.3578934371471405,-0.03819505497813225,0.5351750254631042
1758274165132616700,3.81061669921875,0.4508281648159027,-0.055320512503385544,0.16269463300704956
1758274165142575900,3.820575927734375,0.4205797016620636,0.04120256379246712,-0.29109787940979004
1758274165152533800,3.83053369140625,0.31896546483039856,0.0678432285785675,-0.6591283679008484
1758274165162492700,3.84049267578125,0.22976022958755493,-0.18501432240009308,-0.8081253170967102
1758274165172450800,3.850450927734375,0.1778980940580368,-0.6620972752571106,-0.808732271194458
1758274165182409700,3.86040966796875,0.14083008468151093,-1.094173789024353,-0.9490294456481934
1758274165192367900,3.870367919921875,0.22632288932800293,-1.3144252300262451,-1.3317499160766602
1758274165202326800,3.880326904296875,0.38494449853897095,-1.2551348209381104,-1.7396447658538818
1758274165212285000,3.890284912109375,0.5204868912696838,-1.127099871635437,-2.078655242919922
1758274165222243800,3.900243896484375,0.5897844433784485,-1.0992138385772705,-2.314378499984741
1758274165232201700,3.91020166015625,0.6797295212745667,-1.2284269332885742,-2.510274648666382
1758274165242161000,3.920160888671875,0.7120882868766785,-1.5629773139953613,-2.6699113845825195
1758274165252118800,3.930118896484375,0.7116727828979492,-1.8649355173110962,-2.8008193969726562
1758274165262077700,3.94007763671875,0.6670584678649902,-1.8704231977462769,-2.9487311840057373
1758274165272035800,3.950035888671875,0.5828261375427246,-1.469251275062561,-3.1780269145965576
1758274165281994800,3.959994873046875,0.4045131206512451,-0.7067645788192749,-3.295414447784424
1758274165291953000,3.969952880859375,0.1854899674654007,0.13374847173690796,-3.162069320678711
1758274165301911800,3.979911865234375,0.009506153874099255,0.4794731140136719,-2.8357183933258057
1758274165311870700,3.98987060546875,-0.05191006883978844,0.2696325480937958,-2.508863925933838
1758274165321828900,3.999828857421875,-0.08054624497890472,-0.20106253027915955,-2.3641128540039062
1758274165331787800,4.009787841796875,-0.03834845498204231,-0.5324189066886902,-2.2731966972351074
1758274165341746000,4.019745849609375,0.1294834166765213,-0.7341269850730896,-2.3121073246002197
1758274165351704800,4.029704833984375,0.30989474058151245,-0.9908519983291626,-2.4171342849731445
1758274165361663000,4.0396630859375,0.43087947368621826,-1.2715622186660767,-2.483793258666992
1758274165371622000,4.049621826171875,0.5844842195510864,-1.5707765817642212,-2.49064040184021
1758274165381579800,4.059579833984375,0.7764304876327515,-1.8895082473754883,-2.557629108428955
1758274165391539000,4.0695390625,1.0632399320602417,-2.141296625137329,-2.627976417541504
1758274165401496800,4.079496826171875,1.2716453075408936,-2.3032491207122803,-2.614924669265747
1758274165411455700,4.089455810546875,1.1068047285079956,-1.8987600803375244,-2.727421283721924
1758274165421414000,4.099413818359375,0.6492520570755005,-1.4010964632034302,-2.649907112121582
1758274165431372800,4.109372802734375,0.039742354303598404,-1.336448311805725,-2.3664841651916504
1758274165441331000,4.1193310546875,-0.45458295941352844,-1.0797022581100464,-2.381089687347412
1758274165451289900,4.129289794921875,-0.9285686016082764,-1.224905252456665,-2.4145853519439697
1758274165461248000,4.139248046875,-1.1639811992645264,-1.8469346761703491,-2.5503034591674805
1758274165471207000,4.14920703125,-1.129521131515503,-2.6122725009918213,-2.814229965209961
1758274165481165000,4.1591650390625,-0.9531794190406799,-3.2603604793548584,-3.111907482147217
1758274165491124000,4.1691240234375,-0.7974321842193604,-3.7515079975128174,-3.1943609714508057
1758274165501081900,4.179081787109375,-0.7764994502067566,-3.864973306655884,-2.989673137664795
1758274165511041000,4.189041015625,-0.7011626362800598,-3.6117045879364014,-2.5871806144714355
1758274165521000000,4.199,-0.5693710446357727,-3.1086628437042236,-2.1261649131774902
1758274165530957800,4.208957763671875,-0.5809305310249329,-2.4128963947296143,-1.6120507717132568
1758274165540917000,4.2189169921875,-0.6218680739402771,-1.8277990818023682,-1.1939440965652466
1758274165550875000,4.228875,-0.6735997200012207,-1.4159190654754639,-0.8920585513114929
1758274165560834000,4.238833984375,-0.7150446176528931,-1.1633470058441162,-0.6699341535568237
1758274165570792000,4.2487919921875,-0.7360314130783081,-1.0412882566452026,-0.5016855001449585
1758274165580750300,4.258750244140625,-0.7413539886474609,-0.9151793122291565,-0.3577405512332916
1758274165590708200,4.268708251953125,-0.7787773013114929,-0.7367445826530457,-0.20541919767856598
1758274165600667100,4.278667236328125,-0.8285077810287476,-0.5124883055686951,-0.037038445472717285
1758274165610625300,4.288625244140625,-0.8868725895881653,-0.3017619848251343,0.1769537329673767
1758274165620584200,4.298584228515625,-0.947118878364563,-0.06756572425365448,0.44135209918022156
1758274165630542300,4.308542236328125,-0.9784823656082153,0.18916405737400055,0.6905504465103149
1758274165640501200,4.318501220703125,-0.9783697724342346,0.39631006121635437,0.8638271689414978
1758274165650459400,4.32845947265625,-0.9578577876091003,0.48602956533432007,0.9703070521354675
1758274165660418300,4.338418212890625,-0.926872193813324,0.4284016788005829,1.022111415863037
1758274165670376200,4.348376220703125,-0.9064697027206421,0.2007884979248047,1.02296781539917
1758274165680335400,4.35833544921875,-0.8631680607795715,-0.0975625067949295,0.9627202153205872
1758274165690293200,4.368293212890625,-0.7473272085189819,-0.367836594581604,0.8684056997299194
1758274165700252400,4.37825244140625,-0.5606297850608826,-0.43901917338371277,0.8071916103363037
1758274165710210300,4.388210205078125,-0.34580719470977783,-0.16671335697174072,0.8946908116340637
1758274165720169200,4.398169189453125,-0.20884162187576294,0.3645036518573761,1.1409757137298584
1758274165730128400,4.40812841796875,-0.18266142904758453,1.0673896074295044,1.3345611095428467
1758274165740086300,4.418086181640625,-0.01842321641743183,1.9695264101028442,0.9690479040145874
1758274165750045200,4.428045166015625,0.15410540997982025,2.2383780479431152,0.8385881185531616
1758274165760003300,4.43800341796875,0.19055023789405823,0.91618412733078,0.8681777119636536
1758274165769962200,4.447962158203125,0.33141040802001953,-0.7574775815010071,0.6891656517982483
1758274165779920400,4.45792041015625,0.10799703747034073,0.44252175092697144,1.2478126287460327
1758274165789879300,4.46787939453125,-0.24228426814079285,1.9431536197662354,1.9522384405136108
1758274165799837400,4.47783740234375,-0.43110373616218567,2.402092933654785,2.2609267234802246
1758274165809796400,4.48779638671875,-0.39005082845687866,2.183776378631592,2.160729169845581
1758274165819754200,4.497754150390625,-0.1934504210948944,1.6927677392959595,1.8441293239593506
1758274165829713400,4.50771337890625,0.023255255073308945,1.4952077865600586,1.6050165891647339
1758274165839671300,4.51767138671875,0.1804419457912445,1.8590224981307983,1.667771816253662
1758274165849630500,4.52763037109375,0.2018047571182251,2.2990527153015137,1.8389908075332642
1758274165859588400,4.53758837890625,0.1336616575717926,2.5651817321777344,1.9993889331817627
1758274165869547300,4.54754736328125,0.009788980707526207,2.556467294692993,2.1460769176483154
1758274165879505400,4.55750537109375,-0.16524675488471985,2.152648687362671,2.2098631858825684
1758274165889464300,4.56746435546875,-0.3643856942653656,1.6513824462890625,2.232154369354248
1758274165899422200,4.577422119140625,-0.5984551906585693,1.2660022974014282,2.2369019985198975
1758274165909381400,4.58738134765625,-0.7787466645240784,1.171249508857727,2.26322340965271
1758274165919339300,4.59733935546875,-0.8402107954025269,1.2141362428665161,2.290320873260498
1758274165929298400,4.60729833984375,-0.8027446866035461,1.350521445274353,2.259110450744629
1758274165939256000,4.617256103515625,-0.6373239755630493,1.6138982772827148,2.1413567066192627
1758274165949215200,4.62721533203125,-0.4359346926212311,1.8952652215957642,1.9703940153121948
1758274165959174400,4.63717431640625,-0.21773844957351685,2.1045494079589844,1.8701311349868774
1758274165969132300,4.64713232421875,-0.03567064553499222,2.0638561248779297,1.8675649166107178
1758274165979091200,4.65709130859375,0.13558685779571533,2.0027318000793457,1.822948694229126
1758274165989049000,4.667049072265625,0.28668156266212463,1.9725732803344727,1.7296794652938843
1758274165999008300,4.67700830078125,0.37365907430648804,1.7390750646591187,1.6381442546844482
1758274166008966100,4.686966064453125,0.46136361360549927,1.4219194650650024,1.4894455671310425
1758274166018925300,4.69692529296875,0.5264264941215515,1.2515085935592651,1.3667049407958984
1758274166028883200,4.70688330078125,0.5134633183479309,1.0497374534606934,1.3404563665390015
1758274166038842000,4.716842041015625,0.445087194442749,0.7010577321052551,1.3762494325637817
1758274166048800300,4.72680029296875,0.3576015532016754,0.5872610807418823,1.396626353263855
1758274166058759200,4.73675927734375,0.3022743761539459,0.7551377415657043,1.3755605220794678
1758274166068717300,4.74671728515625,0.2309570461511612,0.964895486831665,1.3833390474319458
1758274166078676200,4.75667626953125,0.10351360589265823,1.311144232749939,1.3137099742889404
1758274166088634400,4.76663427734375,-0.13718768954277039,1.400790810585022,1.2962249517440796
1758274166098593300,4.77659326171875,-0.3494240343570709,1.2096881866455078,1.2679898738861084
1758274166108551200,4.78655126953125,-0.37234506011009216,1.058963656425476,1.0883569717407227
1758274166118510300,4.79651025390625,-0.28263941407203674,1.018863320350647,0.9219967722892761
1758274166128468200,4.80646826171875,-0.14594149589538574,0.894368052482605,0.788118839263916
1758274166138427100,4.81642724609375,-0.013325126841664314,0.7754626870155334,0.6944519877433777
1758274166148385300,4.82638525390625,-0.0002822950773406774,0.7655339241027832,0.6634852886199951
1758274166158344200,4.83634423828125,0.01942509599030018,0.5415686964988708,0.6930240392684937
1758274166168302300,4.84630224609375,0.11263307183980942,0.12648896872997284,0.6726462841033936
1758274166178261200,4.85626123046875,0.3092401325702667,-0.42686742544174194,0.5679819583892822
1758274166188220200,4.86622021484375,0.5651882886886597,-0.95212721824646,0.33768561482429504
1758274166198178300,4.87617822265625,0.7080661058425903,-1.2543251514434814,0.06820648163557053
1758274166208137200,4.88613720703125,0.7307703495025635,-1.35739004611969,-0.08084584772586823
1758274166218095400,4.896095458984375,0.685234010219574,-1.2328801155090332,-0.08422912657260895
1758274166228054300,4.90605419921875,0.5846759676933289,-0.8592979311943054,0.06920703500509262
1758274166238012400,4.916012451171875,0.49649712443351746,-0.25726643204689026,0.3016224205493927
1758274166247971300,4.925971435546875,0.39775189757347107,0.5484713912010193,0.5002934336662292
1758274166257929200,4.93592919921875,0.2222205549478531,1.240532636642456,0.5667539834976196
1758274166267888400,4.945888427734375,-0.00942199770361185,1.4864212274551392,0.5634971857070923
1758274166277846300,4.95584619140625,-0.2037360817193985,1.1389445066452026,0.6658310294151306
1758274166287805400,4.965805419921875,-0.3268929123878479,0.4288400411605835,0.8732079267501831
1758274166297763300,4.975763427734375,-0.3635063171386719,-0.2784776985645294,1.0598372220993042
1758274166307722200,4.98572216796875,-0.3195899724960327,-0.8207268714904785,1.0685185194015503
1758274166317680400,4.995680419921875,-0.17682456970214844,-1.2176872491836548,0.8412606120109558
1758274166327639300,5.005639404296875,0.08788911253213882,-1.389068603515625,0.40694379806518555
1758274166337597400,5.015597412109375,0.38312262296676636,-1.1384356021881104,-0.033003490418195724
1758274166347556400,5.025556396484375,0.5274603366851807,-0.30655860900878906,-0.30792534351348877
1758274166357514500,5.035514404296875,0.4860604405403137,0.6990398168563843,-0.41894373297691345
1758274166367473400,5.045473388671875,0.3975851833820343,1.3551963567733765,-0.5133093595504761
1758274166377431300,5.055431396484375,0.2946249842643738,1.4169033765792847,-0.5822490453720093
1758274166387390500,5.065390380859375,0.2626846134662628,0.7881007194519043,-0.7655698657035828
1758274166397348000,5.07534814453125,0.34268730878829956,-0.03723977878689766,-1.0418245792388916
1758274166407307300,5.085307373046875,0.40662872791290283,-0.6932005882263184,-1.484546422958374
1758274166417265200,5.09526513671875,0.49573543667793274,-1.1045023202896118,-1.830276370048523
1758274166427224300,5.105224365234375,0.6083400249481201,-1.329237461090088,-2.1514813899993896
1758274166437182200,5.11518212890625,0.6557594537734985,-1.4390883445739746,-2.4892804622650146
1758274166447141000,5.12514111328125,0.6055991053581238,-1.565697431564331,-2.772078275680542
1758274166457099300,5.135099365234375,0.568973183631897,-1.6779619455337524,-2.986393451690674
1758274166467058200,5.14505810546875,0.4613740146160126,-1.4503867626190186,-3.032907485961914
1758274166477016300,5.155016357421875,0.4559560716152191,-0.9540351033210754,-3.0787153244018555
1758274166486975200,5.164975341796875,0.39490097761154175,-0.12313152104616165,-3.0832343101501465
1758274166496933000,5.17493310546875,0.23922856152057648,0.5298433303833008,-2.970158338546753
1758274166506892300,5.184892333984375,0.14539368450641632,0.8049129843711853,-2.8085551261901855
1758274166516851200,5.194851318359375,0.13256603479385376,0.8604337573051453,-2.596613883972168
1758274166526809000,5.20480908203125,0.1807764321565628,0.7334939241409302,-2.432084560394287
1758274166536768300,5.214768310546875,0.3350677490234375,0.522562563419342,-2.3192715644836426
1758274166546726100,5.22472607421875,0.5103857517242432,0.19298064708709717,-2.258458137512207
1758274166556685300,5.234685302734375,0.6508347392082214,-0.13522706925868988,-2.2928848266601562
1758274166566643200,5.244643310546875,0.7876130938529968,-0.3339662551879883,-2.457698106765747
1758274166576602000,5.25460205078125,0.8320032358169556,-0.774368405342102,-2.647747039794922
1758274166586561000,5.26456103515625,0.8092241287231445,-1.3717588186264038,-2.7791249752044678
1758274166596520000,5.27452001953125,0.739930272102356,-1.876965880393982,-2.89420223236084
1758274166606478000,5.28447802734375,0.45774200558662415,-1.9642192125320435,-3.0207111835479736
1758274166616437000,5.29443701171875,0.11117871850728989,-1.497949242591858,-3.1413886547088623
1758274166626395000,5.304394775390625,-0.22703315317630768,-1.2119287252426147,-3.1341233253479004
1758274166636354000,5.31435400390625,-0.5715417861938477,-0.9882157444953918,-3.121601104736328
1758274166646312000,5.32431201171875,-0.8377359509468079,-1.434963345527649,-3.0666754245758057
1758274166656271000,5.33427099609375,-0.9228566884994507,-1.7953108549118042,-3.1464931964874268
1758274166666229000,5.34422900390625,-1.0490604639053345,-1.9240978956222534,-3.1842052936553955
1758274166676188000,5.35418798828125,-1.235588788986206,-2.295952320098877,-3.1439008712768555
1758274166686146000,5.36414599609375,-0.9930291175842285,-3.253239154815674,-3.3903164863586426
1758274166696105000,5.37410498046875,-0.750694751739502,-3.486870050430298,-3.466559886932373
1758274166706063000,5.38406298828125,-0.6023497581481934,-3.43090558052063,-3.200146198272705
1758274166716022000,5.39402197265625,-0.5419396758079529,-3.1754493713378906,-2.7002367973327637
1758274166725980200,5.403980224609375,-0.5471144914627075,-2.530120372772217,-2.053208827972412
1758274166735939000,5.41393896484375,-0.5644361972808838,-1.8567883968353271,-1.5285277366638184
1758274166745897000,5.42389697265625,-0.5820897817611694,-1.3630037307739258,-1.126792550086975
1758274166755856100,5.433856201171875,-0.6135744452476501,-0.984103262424469,-0.7908099889755249
1758274166765814000,5.44381396484375,-0.6671122312545776,-0.763468861579895,-0.5334881544113159
1758274166775773000,5.45377294921875,-0.7159088253974915,-0.5803036093711853,-0.33296650648117065
1758274166785731000,5.46373095703125,-0.7435673475265503,-0.3911248743534088,-0.12400423735380173
1758274166795690000,5.47368994140625,-0.7667618989944458,-0.2049827128648758,0.14382454752922058
1758274166805648100,5.483648193359375,-0.831899106502533,-0.08208528161048889,0.46941834688186646
1758274166815607000,5.49360693359375,-0.9153351187705994,0.11251695454120636,0.8274849057197571
1758274166825565200,5.503565185546875,-0.9580274820327759,0.3212805688381195,1.1417157649993896
1758274166835524000,5.513524169921875,-0.9588269591331482,0.4738783538341522,1.3548877239227295
1758274166845482000,5.52348193359375,-0.9088441729545593,0.5450500249862671,1.4468897581100464
1758274166855441200,5.533441162109375,-0.8129626512527466,0.47130921483039856,1.4177603721618652
1758274166865399000,5.54339892578125,-0.6877376437187195,0.296365886926651,1.2826812267303467
1758274166875358200,5.553358154296875,-0.5173627138137817,0.12062681466341019,1.0853534936904907
1758274166885316000,5.563316162109375,-0.29611289501190186,0.0657808780670166,0.7147253155708313
1758274166895275000,5.57327490234375,-0.13779035210609436,0.31499549746513367,0.23552143573760986
1758274166905233200,5.583233154296875,0.0905621200799942,1.1860030889511108,-0.09568364918231964
1758274166915192000,5.593192138671875,0.13952887058258057,1.822123408317566,0.3855367600917816
1758274166925150000,5.60314990234375,-0.03580540046095848,0.565686821937561,0.9200891256332397
1758274166935109000,5.613109130859375,0.15088751912117004,-0.2938454747200012,1.2514859437942505
1758274166945067000,5.62306689453125,-0.17170065641403198,1.041623830795288,1.3524514436721802
1758274166955026200,5.633026123046875,-0.4533102214336395,2.4855823516845703,1.966619849205017
1758274166964984000,5.642984130859375,-0.33036619424819946,2.967031955718994,2.7372567653656006
1758274166974943000,5.65294287109375,-0.10253702849149704,2.552579641342163,2.7719521522521973
1758274166984900900,5.66290087890625,0.27025413513183594,1.9369457960128784,2.3265221118927
1758274166994860000,5.672860107421875,0.6169159412384033,1.4692676067352295,1.8102803230285645
1758274167004818000,5.68281787109375,0.774366557598114,1.7198731899261475,1.7571725845336914
1758274167014776800,5.69277685546875,0.793414831161499,2.0618627071380615,1.9241328239440918
1758274167024735000,5.70273486328125,0.7274038195610046,2.0888309478759766,2.046339750289917
1758274167034694000,5.71269384765625,0.547524631023407,1.6758185625076294,2.101005792617798
1758274167044652000,5.722652099609375,0.22800546884536743,1.181665301322937,2.2259297370910645
1758274167054611000,5.73261083984375,-0.024037959054112434,1.000828742980957,2.374511957168579
1758274167064569000,5.742569091796875,-0.25865206122398376,1.0599972009658813,2.447901964187622
1758274167074528000,5.752528076171875,-0.34234189987182617,1.2291282415390015,2.3911094665527344
1758274167084486000,5.76248583984375,-0.3205873370170593,1.486299753189087,2.372406005859375
1758274167094445000,5.772445068359375,-0.2200988084077835,1.6889817714691162,2.325241804122925
1758274167104403000,5.78240283203125,-0.15422391891479492,1.6827905178070068,2.3163022994995117
1758274167114362000,5.792362060546875,-0.09129715710878372,1.6804813146591187,2.2549402713775635
1758274167124320000,5.802320068359375,-0.025908296927809715,1.7194219827651978,2.206960678100586
1758274167134279000,5.81227880859375,0.00011078749957960099,1.7036470174789429,2.201263666152954
1758274167144237000,5.822237060546875,0.006706372369080782,1.7001583576202393,2.216970205307007
1758274167154196000,5.832196044921875,0.010174606926739216,1.7863773107528687,2.2621145248413086
1758274167164154000,5.842154052734375,0.05248451232910156,1.845428466796875,2.275080442428589
1758274167174113000,5.852113037109375,0.15822425484657288,1.7988760471343994,2.202073574066162
1758274167184071200,5.8620712890625,0.26191604137420654,1.6809172630310059,2.072671890258789
1758274167194030000,5.872030029296875,0.2916659414768219,1.6192498207092285,1.933750867843628
1758274167203988000,5.881988037109375,0.20901153981685638,1.3861972093582153,1.8353440761566162
1758274167213947100,5.891947021484375,0.09409427642822266,1.2017016410827637,1.6272028684616089
1758274167223905000,5.901905029296875,0.013248959556221962,0.8892688751220703,1.4393999576568604
1758274167233864200,5.9118642578125,0.03172091022133827,0.4842364490032196,1.2252578735351562
1758274167243822000,5.921822021484375,0.01507242675870657,0.20619311928749084,1.0525758266448975
1758274167253781000,5.931781005859375,-0.023929834365844727,0.13029782474040985,0.9283161759376526
1758274167263739100,5.9417392578125,-0.008987636305391788,0.32003048062324524,0.8475102782249451
1758274167273698000,5.951697998046875,0.0118502676486969,0.3755432665348053,0.7728903293609619
1758274167283656200,5.96165625,0.06926216185092926,0.5431668758392334,0.7809104919433594
1758274167293615000,5.971614990234375,0.08184852451086044,0.7992281913757324,0.8321883082389832
1758274167303573200,5.9815732421875,0.025252358987927437,1.1381317377090454,0.8982639908790588
1758274167313532200,5.9915322265625,-0.03275395184755325,1.4352104663848877,0.9580287933349609
1758274167323490000,6.001489990234375,-0.09011498093605042,1.5365626811981201,0.9823998808860779
1758274167333449200,6.01144921875,-0.1096162423491478,1.4047455787658691,0.954887866973877
1758274167343406800,6.02140673828125,-0.0208903681486845,1.1465829610824585,0.8831851482391357
1758274167353366000,6.031365966796875,0.13436473906040192,0.8577756881713867,0.7896754741668701
1758274167363324000,6.041323974609375,0.2465013861656189,0.5342082977294922,0.7318505048751831
1758274167373283000,6.051282958984375,0.3328450620174408,0.16005252301692963,0.6977194547653198
1758274167383241000,6.061240966796875,0.42093151807785034,-0.24305365979671478,0.6584604382514954
1758274167393199900,6.071199951171875,0.5138164758682251,-0.6202398538589478,0.5987592935562134
1758274167403158000,6.081157958984375,0.6098551154136658,-0.8727522492408752,0.5457493662834167
1758274167413117000,6.091116943359375,0.5910366773605347,-0.9664997458457947,0.5487792491912842
1758274167423075000,6.101074951171875,0.4441010057926178,-0.9546151161193848,0.6881464123725891
1758274167433034000,6.111033935546875,0.26376771926879883,-0.875754714012146,0.9196337461471558
1758274167442991900,6.120991943359375,0.09474435448646545,-0.6847380995750427,1.1214978694915771
1758274167452951000,6.130950927734375,-0.029606893658638,-0.3756181001663208,1.204160213470459
1758274167462909000,6.140908935546875,-0.06420082598924637,-0.07913609594106674,1.1260076761245728
1758274167472867800,6.150867919921875,-0.02689286693930626,0.15365853905677795,0.9642611145973206
1758274167482826000,6.160825927734375,0.07491525262594223,0.2758350372314453,0.8192986249923706
1758274167492784000,6.1707841796875,0.21276499330997467,0.270698606967926,0.6850494742393494
1758274167502743000,6.180742919921875,0.36054834723472595,0.1287827491760254,0.3835732340812683
1758274167512701000,6.190700927734375,0.44141149520874023,0.12804238498210907,-0.09810712188482285
1758274167522660000,6.20066015625,0.4427715539932251,0.4259534478187561,-0.5832213759422302
1758274167532618000,6.210617919921875,0.36314597725868225,0.8477065563201904,-0.9173393845558167
1758274167542577200,6.2205771484375,0.22804728150367737,1.051424503326416,-1.085631251335144
1758274167552535000,6.23053515625,0.15831826627254486,0.7193261981010437,-1.2017340660095215
1758274167562494000,6.240493896484375,0.19979913532733917,-0.002049036091193557,-1.4475781917572021
1758274167572452000,6.2504521484375,0.2844144105911255,-0.7500013113021851,-1.8619149923324585
1758274167582411000,6.260410888671875,0.37229394912719727,-1.245006799697876,-2.2659666538238525
1758274167592369200,6.270369140625,0.4023650288581848,-1.5367558002471924,-2.613007068634033
1758274167602328000,6.280328125,0.46014735102653503,-1.697127342224121,-2.9367949962615967
1758274167612286200,6.2902861328125,0.5055598616600037,-1.6162101030349731,-3.1795895099639893
1758274167622245000,6.3002451171875,0.4542074501514435,-1.3679797649383545,-3.2940316200256348
1758274167632203000,6.310203125,0.2924742102622986,-0.8293810486793518,-3.2193939685821533
1758274167642162200,6.320162109375,0.285722017288208,-0.04374375194311142,-3.059346914291382
1758274167652120000,6.3301201171875,0.28609272837638855,0.8268311023712158,-2.957094192504883
1758274167662079000,6.340078857421875,0.18400152027606964,1.5481083393096924,-2.7505338191986084
1758274167672037000,6.350037109375,0.057495784014463425,1.6779712438583374,-2.4491755962371826
1758274167681996000,6.35999609375,0.003480218816548586,1.3497989177703857,-2.1184306144714355
1758274167691954200,6.3699541015625,0.047017309814691544,0.6411003470420837,-1.9426777362823486
1758274167701913000,6.3799130859375,0.1767750382423401,-0.12088407576084137,-2.065246343612671
1758274167711871200,6.389871337890625,0.375683069229126,-0.4806257486343384,-2.2599682807922363
1758274167721830100,6.399830078125,0.5406169295310974,-0.5882470011711121,-2.4052374362945557
1758274167731788000,6.4097880859375,0.67387855052948,-0.7775042653083801,-2.4563663005828857
1758274167741747200,6.419747314453125,0.8117179274559021,-1.2317005395889282,-2.4981279373168945
1758274167751704800,6.429704833984375,0.9673072099685669,-1.923236608505249,-2.483755350112915
1758274167761664000,6.4396640625,1.0591644048690796,-2.9500386714935303,-2.418001890182495
1758274167771622000,6.449621826171875,0.580401599407196,-3.9173314571380615,-2.8368868827819824
1758274167781580800,6.459580810546875,0.08396361023187637,-3.123136281967163,-3.9442925453186035
1758274167791539000,6.4695390625,-0.03972477465867996,-1.4535354375839233,-4.632007122039795
1758274167801497000,6.4794970703125,0.02912672609090805,-0.12569694221019745,-4.525100231170654
1758274167811456000,6.4894560546875,-0.3341827690601349,-0.9288524985313416,-4.020209789276123
1758274167821414000,6.499413818359375,-0.747463047504425,-2.3061578273773193,-3.6393136978149414
1758274167831373000,6.509373046875,-1.1201034784317017,-2.4238109588623047,-3.3955647945404053
1758274167841331000,6.5193310546875,-1.3233487606048584,-2.4062650203704834,-3.2603867053985596
1758274167851290000,6.5292900390625,-1.0921066999435425,-2.609394073486328,-3.17366099357605
1758274167861248000,6.539248046875,-0.8155214190483093,-2.829679250717163,-2.942667245864868
1758274167871207000,6.54920703125,-0.6822600364685059,-2.786442279815674,-2.534416913986206
1758274167881165000,6.5591650390625,-0.6312546730041504,-2.4157958030700684,-2.094308853149414
1758274167891124000,6.5691240234375,-0.6224110722541809,-1.8543494939804077,-1.5411169528961182
1758274167901082000,6.57908203125,-0.6299111247062683,-1.3810160160064697,-1.0505741834640503
1758274167911041000,6.589041015625,-0.5982482433319092,-1.041038155555725,-0.619187593460083
1758274167920999200,6.598999267578125,-0.6292343735694885,-0.7098909020423889,-0.23522183299064636
1758274167930958000,6.6089580078125,-0.6924008131027222,-0.4293244779109955,0.07833848148584366
1758274167940916000,6.618916015625,-0.8076919913291931,-0.15334321558475494,0.32268670201301575
1758274167950875100,6.628875244140625,-0.9009431004524231,0.028424451127648354,0.5080810785293579
1758274167960833000,6.6388330078125,-0.930915117263794,0.07542072236537933,0.682545006275177
1758274167970792000,6.6487919921875,-0.873902440071106,-0.02268214337527752,0.8468849658966064
1758274167980750000,6.65875,-0.789759635925293,-0.24248135089874268,0.9816275835037231
1758274167990709000,6.668708984375,-0.6876367330551147,-0.5093609690666199,1.027303695678711
1758274168000667100,6.678667236328125,-0.55074542760849,-0.7223568558692932,0.9733344912528992
1758274168010626000,6.6886259765625,-0.3744007647037506,-0.8184368014335632,0.877626359462738
1758274168020584200,6.698584228515625,-0.19471542537212372,-0.7594685554504395,0.7693752646446228
1758274168030543000,6.708543212890625,-0.0935392752289772,-0.4433598518371582,0.7432560324668884
1758274168040501000,6.7185009765625,-0.06506875157356262,0.2230330854654312,0.7186279296875
1758274168050459100,6.728459228515625,0.09641361981630325,1.2674663066864014,0.39584881067276
1758274168060418000,6.73841796875,0.23403219878673553,1.2878074645996094,0.6676539182662964
1758274168070376000,6.7483759765625,0.21595919132232666,-0.30729469656944275,0.9970771074295044
1758274168080335000,6.758335205078125,0.2975755035877228,-0.5243500471115112,0.9569616317749023
1758274168090293000,6.76829296875,-0.1465470939874649,1.695866346359253,1.7042702436447144
1758274168100252000,6.778251953125,-0.38180434703826904,3.1027486324310303,2.448429584503174
1758274168110210000,6.7882099609375,-0.2806689441204071,3.1227219104766846,2.7311129570007324
1758274168120169000,6.7981689453125,0.014737666584551334,2.2011420726776123,2.455190896987915
1758274168130126800,6.808126953125,0.3469789922237396,1.2026095390319824,1.9332873821258545
1758274168140086000,6.8180859375,0.5202293395996094,1.0476391315460205,1.7493971586227417
1758274168150044000,6.8280439453125,0.5407154560089111,1.5622295141220093,1.8551944494247437
1758274168160003000,6.838003173828125,0.45657578110694885,2.0949082374572754,2.015425443649292
1758274168169961000,6.8479609375,0.28881290555000305,2.2870070934295654,2.1686973571777344
1758274168179920000,6.857919921875,0.07539302110671997,2.0975828170776367,2.3816730976104736
1758274168189878000,6.8678779296875,-0.25483015179634094,1.8006601333618164,2.6231236457824707
1758274168199836000,6.8778359375,-0.5623757243156433,1.5740994215011597,2.74877667427063
1758274168209795000,6.887795166015625,-0.7723787426948547,1.5633506774902344,2.7378597259521484
1758274168219753000,6.8977529296875,-0.8043467998504639,1.6030943393707275,2.6178698539733887
1758274168229712100,6.907712158203125,-0.7371425032615662,1.5046207904815674,2.4311459064483643
1758274168239670000,6.917669921875,-0.6392664909362793,1.405128836631775,2.241537094116211
1758274168249629000,6.92762890625,-0.5172899961471558,1.3700799942016602,2.081174850463867
1758274168259587000,6.937587158203125,-0.37755927443504333,1.4062483310699463,1.9990688562393188
1758274168269546000,6.9475458984375,-0.23514913022518158,1.4147318601608276,1.9743837118148804
1758274168279504100,6.957504150390625,-0.16431091725826263,1.31137216091156,1.9704749584197998
1758274168289463000,6.967463134765625,-0.14203517138957977,1.1954463720321655,2.0144994258880615
1758274168299421200,6.977421142578125,-0.12443353980779648,1.15484619140625,2.0781686305999756
1758274168309380000,6.987380126953125,-0.2053065448999405,1.2421633005142212,2.143033027648926
1758274168319338000,6.997337890625,-0.3241434395313263,1.3157382011413574,2.186461925506592
1758274168329297200,7.007297119140625,-0.4447353780269623,1.3631856441497803,2.183476686477661
1758274168339255000,7.017255126953125,-0.5346615314483643,1.1726665496826172,2.1094915866851807
1758274168349214000,7.0272138671875,-0.5247188806533813,0.9226702451705933,1.9321955442428589
1758274168359172000,7.037172119140625,-0.4206409752368927,0.6099605560302734,1.6887599229812622
1758274168369130200,7.047130126953125,-0.2989291846752167,0.4658758342266083,1.3551106452941895
1758274168379089200,7.057089111328125,-0.17637130618095398,0.409866601228714,1.0917415618896484
1758274168389047000,7.067047119140625,-0.08972588926553726,0.3497313857078552,0.9610088467597961
1758274168399006200,7.077006103515625,0.010911503806710243,0.31248199939727783,0.9207402467727661
1758274168408963800,7.0869638671875,0.07147099077701569,0.42712122201919556,0.9623236656188965
1758274168418923300,7.09692333984375,0.004447478801012039,0.5449719429016113,1.049608826637268
1758274168428881000,7.106880859375,-0.0049460227601230145,0.6812344789505005,1.1181950569152832
1758274168438840000,7.116840087890625,0.03428260609507561,0.9397765398025513,1.0735399723052979
1758274168448798000,7.1267978515625,0.053172674030065536,1.259074330329895,0.9198254942893982
1758274168458756900,7.1367568359375,0.016986973583698273,1.520291805267334,0.8529737591743469
1758274168468715000,7.146715087890625,0.023137543350458145,1.5409300327301025,0.8184493184089661
1758274168478674000,7.156673828125,0.0302569717168808,1.2683171033859253,0.8089644908905029
1758274168488632000,7.166632080078125,0.030342459678649902,0.8170245289802551,0.8167555332183838
1758274168498591000,7.176591064453125,0.07690037041902542,0.2753985524177551,0.8073514103889465
1758274168508548900,7.186548828125,0.1294863522052765,-0.27964362502098083,0.7631977796554565
1758274168518507000,7.196507080078125,0.11941427737474442,-0.7444949150085449,0.6576114296913147
1758274168528466000,7.2064658203125,0.11824541538953781,-1.1014701128005981,0.5358205437660217
1758274168538424000,7.216424072265625,0.16033214330673218,-1.3545111417770386,0.4048321843147278
1758274168548383000,7.226383056640625,0.1757878065109253,-1.4083815813064575,0.3306671380996704
1758274168558341000,7.236341064453125,0.13591815531253815,-1.2186832427978516,0.3544904291629791
1758274168568300000,7.246300048828125,0.108714759349823,-0.91917484998703,0.36069801449775696
1758274168578258000,7.2562578125,0.06833724677562714,-0.5227915644645691,0.32967644929885864
1758274168588217000,7.266217041015625,-0.0009376989910379052,-0.007339405361562967,0.3206259608268738
1758274168598175000,7.276175048828125,-0.041377000510692596,0.43621698021888733,0.3281693458557129
1758274168608134100,7.286134033203125,-0.06070462614297867,0.6805282235145569,0.33329540491104126
1758274168618092000,7.296092041015625,-0.06401626765727997,0.7107515931129456,0.33828431367874146
1758274168628051000,7.306051025390625,-0.05938529595732689,0.531237781047821,0.3510560393333435
1758274168638009000,7.316009033203125,-0.01679149642586708,0.21042035520076752,0.3542134761810303
1758274168647967000,7.325967041015625,0.10501323640346527,-0.1805761754512787,0.3049947917461395
1758274168657926100,7.335926025390625,0.25168150663375854,-0.614096999168396,0.09027956426143646
1758274168667884000,7.345884033203125,0.38793787360191345,-0.8693202137947083,-0.18986128270626068
1758274168677843200,7.35584326171875,0.4782174527645111,-0.9248095750808716,-0.4442847669124603
1758274168687801000,7.365801025390625,0.49271249771118164,-0.8031326532363892,-0.6450082659721375
1758274168697760000,7.375760009765625,0.41334229707717896,-0.5551007986068726,-0.753682017326355
1758274168707718100,7.38571826171875,0.2988780438899994,-0.31678539514541626,-0.8242563605308533
1758274168717677000,7.395677001953125,0.3135986626148224,-0.24237242341041565,-0.9841011166572571
1758274168727635200,7.40563525390625,0.42750421166419983,-0.2510010600090027,-1.2991597652435303
1758274168737594000,7.415593994140625,0.5610100626945496,-0.23732413351535797,-1.7068438529968262
1758274168747552300,7.42555224609375,0.676410973072052,-0.23880484700202942,-2.1087374687194824
1758274168757510100,7.43551025390625,0.7635224461555481,-0.33480170369148254,-2.4454996585845947
1758274168767469000,7.445468994140625,0.8457501530647278,-0.5583644509315491,-2.7309412956237793
1758274168777427200,7.45542724609375,0.8220241069793701,-0.9750354886054993,-2.9125187397003174
1758274168787386000,7.46538623046875,0.7791264057159424,-1.621367335319519,-2.9486498832702637
1758274168797344300,7.47534423828125,0.7451657652854919,-1.6612287759780884,-3.113347053527832
1758274168807303200,7.48530322265625,0.8092116117477417,-1.2773452997207642,-3.311009407043457
1758274168817261300,7.49526123046875,0.8631142377853394,-0.6805926561355591,-3.3450236320495605
1758274168827220200,7.50522021484375,0.678058385848999,-0.10183688253164291,-3.1278531551361084
1758274168837178000,7.51517822265625,0.4869403541088104,0.10199480503797531,-2.783717632293701
1758274168847137300,7.52513720703125,0.41760122776031494,-0.010090983472764492,-2.4377195835113525
1758274168857095000,7.535094970703125,0.395629346370697,-0.15044888854026794,-2.1679067611694336
1758274168867054300,7.545054443359375,0.33694368600845337,-0.12796595692634583,-2.058757781982422
1758274168877012000,7.555011962890625,0.30212125182151794,-0.0023094932548701763,-2.1098339557647705
1758274168886970000,7.56497021484375,0.3122228682041168,0.17398858070373535,-2.2104384899139404
1758274168896929000,7.574928955078125,0.43622419238090515,0.18747375905513763,-2.238807439804077
1758274168906887200,7.58488720703125,0.5108888149261475,0.05367441475391388,-2.2681734561920166
1758274168916846000,7.59484619140625,0.5572304725646973,-0.1913830041885376,-2.382493019104004
1758274168926804000,7.604803955078125,0.6313292384147644,-0.5322508215904236,-2.5009524822235107
1758274168936763100,7.61476318359375,0.7140507698059082,-0.6273134350776672,-2.6051697731018066
1758274168946721000,7.624720947265625,0.7112331390380859,-0.49092552065849304,-2.6841447353363037
1758274168956680000,7.634679931640625,0.3162767291069031,-0.9391714930534363,-2.361964225769043
1758274168966638000,7.64463818359375,-0.09969943016767502,-1.2165714502334595,-2.2729666233062744
1758274168976596200,7.65459619140625,-0.32733047008514404,-1.3320274353027344,-2.4377248287200928
1758274168986555100,7.66455517578125,-0.6018608212471008,-1.6202176809310913,-2.6443145275115967
1758274168996513000,7.674512939453125,-0.8422086834907532,-1.8073843717575073,-2.9381113052368164
1758274169006472200,7.68447216796875,-1.0424963235855103,-2.155809164047241,-3.1949572563171387
1758274169016430000,7.69443017578125,-1.0525734424591064,-2.6336417198181152,-3.3970448970794678
1758274169026389200,7.70438916015625,-0.9554359316825867,-2.931075096130371,-3.3831629753112793
1758274169036347100,7.71434716796875,-0.7574160695075989,-3.24050235748291,-3.167407512664795
1758274169046306000,7.72430615234375,-0.49235138297080994,-3.249173879623413,-2.689035654067993
1758274169056264200,7.73426416015625,-0.45371076464653015,-2.694133996963501,-2.0745701789855957
1758274169066223000,7.74422314453125,-0.4836936891078949,-2.0266780853271484,-1.576459527015686
1758274169076181200,7.75418115234375,-0.45449480414390564,-1.6509451866149902,-1.2664034366607666
1758274169086139100,7.76413916015625,-0.3860582113265991,-1.4505442380905151,-1.0312860012054443
1758274169096098300,7.774098388671875,-0.31226813793182373,-1.2676912546157837,-0.8335446715354919
1758274169106056200,7.78405615234375,-0.2493823915719986,-0.9258759021759033,-0.5927538871765137
1758274169116015000,7.79401513671875,-0.18967512249946594,-0.440157949924469,-0.3040696084499359
1758274169125973200,7.80397314453125,-0.18949030339717865,0.01878087781369686,-0.03171452134847641
1758274169135932200,7.81393212890625,-0.22718335688114166,0.2495270073413849,0.16855865716934204
1758274169145890000,7.82389013671875,-0.31031525135040283,0.43306779861450195,0.29822397232055664
1758274169155849200,7.83384912109375,-0.3882231116294861,0.6812544465065002,0.4129132628440857
1758274169165807000,7.84380712890625,-0.4520622789859772,0.91163569688797,0.5428677797317505
1758274169175765000,7.853764892578125,-0.5032210350036621,1.0899578332901,0.6810312867164612
1758274169185724000,7.863723876953125,-0.5503257513046265,0.9979953765869141,0.8126012682914734
1758274169195682000,7.87368212890625,-0.5755146741867065,0.624405562877655,0.9055546522140503
1758274169205641000,7.883640869140625,-0.5956681966781616,0.11758708208799362,0.9505264163017273
1758274169215599000,7.89359912109375,-0.5760982036590576,-0.29793980717658997,0.9984071254730225
1758274169225558000,7.90355810546875,-0.5113964080810547,-0.3847258388996124,1.0765585899353027
1758274169235516200,7.91351611328125,-0.4131380319595337,-0.15074637532234192,1.17194664478302
1758274169245475000,7.92347509765625,-0.3951942026615143,0.18608358502388,1.281927227973938
1758274169255433000,7.933432861328125,-0.4705542027950287,0.6606658101081848,1.2745531797409058
1758274169265391000,7.94339111328125,-0.4449407160282135,1.3965712785720825,0.8427144289016724
1758274169275350000,7.95335009765625,-0.4141617715358734,1.9002655744552612,0.6827836036682129
1758274169285308200,7.96330810546875,-0.4184529185295105,1.5165396928787231,0.8457238078117371
1758274169295267000,7.97326708984375,-0.17908427119255066,0.31938305497169495,1.1810983419418335
1758274169305225200,7.98322509765625,-0.0726020336151123,0.07506731897592545,1.5089313983917236
1758274169315184000,7.99318408203125,-0.18265555799007416,0.5747597217559814,1.6167515516281128
1758274169325142300,8.003142333984375,-0.3185039460659027,1.0371233224868774,1.6862443685531616
1758274169335101200,8.01310107421875,-0.3696960210800171,1.0553641319274902,1.727455973625183
1758274169345059000,8.02305908203125,-0.3378981351852417,0.7876610159873962,1.6658788919448853
1758274169355017200,8.033017333984375,-0.24653175473213196,0.838412344455719,1.6561628580093384
1758274169364976000,8.04297607421875,-0.12472542375326157,1.2276322841644287,1.8109045028686523
1758274169374934300,8.052934326171876,-0.06295899301767349,1.6227571964263916,1.9777641296386719
1758274169384893200,8.06289306640625,-0.07227366417646408,1.8570408821105957,2.0506646633148193
1758274169394851300,8.072851318359374,-0.10701273381710052,1.9264105558395386,2.0463287830352783
1758274169404810200,8.082810302734375,-0.1303795725107193,1.6597349643707275,2.025696277618408
1758274169414768000,8.09276806640625,-0.23169368505477905,1.1695787906646729,2.064301013946533
1758274169424727300,8.102727294921875,-0.3798471987247467,0.7722234725952148,2.1029579639434814
1758274169434685200,8.112685302734375,-0.4244633913040161,0.49658048152923584,2.085360288619995
1758274169444643000,8.12264306640625,-0.3305177390575409,0.4327082931995392,2.0246167182922363
1758274169454602000,8.13260205078125,-0.20344500243663788,0.5769597291946411,1.983006477355957
1758274169464560000,8.14256005859375,-0.0721929669380188,0.8529729247093201,1.9200000762939453
1758274169474519000,8.15251904296875,-0.034035731106996536,1.0713326930999756,1.8790388107299805
1758274169484477000,8.162476806640624,-0.028236698359251022,1.2254914045333862,1.8639496564865112
1758274169494436000,8.17243603515625,0.017152089625597,1.2974238395690918,1.8386847972869873
1758274169504394000,8.18239404296875,0.11864249408245087,1.2012805938720703,1.760432243347168
1758274169514353200,8.192353271484375,0.06594519317150116,1.1529631614685059,1.7590032815933228
1758274169524311000,8.20231103515625,-0.04665591940283775,1.2696751356124878,1.8471323251724243
1758274169534269200,8.212269287109375,-0.159389927983284,1.3687324523925781,1.9369215965270996
1758274169544228000,8.22222802734375,-0.3557506501674652,1.3484820127487183,2.0513339042663574
1758274169554186000,8.23218603515625,-0.541175127029419,1.3347307443618774,2.1787638664245605
1758274169564145200,8.242145263671874,-0.618817150592804,1.4884780645370483,2.2343080043792725
1758274169574103000,8.25210302734375,-0.616409420967102,1.4815210103988647,2.2184174060821533
1758274169584062500,8.2620625,-0.5292825102806091,1.2792662382125854,2.0667989253997803
1758274169594020400,8.272020263671875,-0.39623549580574036,1.1964315176010132,1.70504891872406
1758274169603978500,8.281978515625,-0.2890341877937317,1.061505675315857,1.330494999885559
1758274169613937400,8.2919375,-0.15206728875637054,0.9969748258590698,0.9636110663414001
1758274169623895300,8.301895263671875,-0.12382394075393677,0.7574988603591919,0.8997175693511963
1758274169633854500,8.3118544921875,-0.21666626632213593,0.4706500768661499,0.996124267578125
1758274169643812000,8.32181201171875,-0.2626875638961792,0.2201123982667923,1.04006028175354
1758274169653771500,8.331771484375,-0.26566070318222046,0.14280855655670166,1.0316364765167236
1758274169663729200,8.341729248046875,-0.26271072030067444,0.24966123700141907,0.9828103184700012
1758274169673687300,8.351687255859375,-0.22907845675945282,0.31606370210647583,0.9800328612327576
1758274169683646200,8.361646240234375,-0.13313567638397217,0.31012722849845886,0.9757617115974426
1758274169693604400,8.371604248046875,-0.020796891301870346,0.41112443804740906,0.8991454839706421
1758274169703563300,8.381563232421875,0.08129751682281494,0.5205598473548889,0.7942520976066589
1758274169713521200,8.391521240234376,0.1527796983718872,0.6295214891433716,0.6786469221115112
1758274169723480300,8.401480224609376,0.1857038140296936,0.6383136510848999,0.5967171788215637
1758274169733438200,8.411438232421874,0.20807144045829773,0.5421234369277954,0.5607442855834961
1758274169743397000,8.421397216796874,0.21279002726078033,0.4778454005718231,0.582801103591919
1758274169753355300,8.431355224609375,0.20340532064437866,0.4135870635509491,0.5972617864608765
1758274169763313400,8.4413134765625,0.20174643397331238,0.3063082695007324,0.5452380180358887
1758274169773272300,8.451272216796875,0.23548762500286102,0.1093539223074913,0.4593295156955719
1758274169783230200,8.461230224609375,0.28767040371894836,-0.19687551259994507,0.38254764676094055
1758274169793189400,8.471189453125,0.3459129333496094,-0.5194269418716431,0.3548073470592499
1758274169803147300,8.481147216796876,0.35632428526878357,-0.724165141582489,0.3621041476726532
1758274169813106200,8.491106201171876,0.24245098233222961,-0.7140116095542908,0.4409816563129425
1758274169823064300,8.501064208984374,0.10254421830177307,-0.5330660343170166,0.5873468518257141
1758274169833022500,8.5110224609375,0.05576739087700844,-0.3206770718097687,0.667312502861023
1758274169842981400,8.5209814453125,0.010867827571928501,-0.15343163907527924,0.658638060092926
1758274169852939300,8.530939208984375,0.024522652849555016,-0.040224384516477585,0.6052704453468323
1758274169862898400,8.5408984375,0.13410693407058716,-0.025075791403651237,0.48170751333236694
1758274169872856300,8.550856201171875,0.26722583174705505,-0.09768608212471008,0.2104531079530716
1758274169882815500,8.5608154296875,0.45300182700157166,-0.11614098399877548,-0.1480235457420349
1758274169892773400,8.5707734375,0.530414879322052,0.03999615088105202,-0.4540734887123108
1758274169902731300,8.580731201171876,0.5273093581199646,0.2737458050251007,-0.7125612497329712
1758274169912690200,8.590690185546874,0.4428839385509491,0.29065951704978943,-0.9177215695381165
1758274169922648000,8.60064794921875,0.35709235072135925,-0.01359597034752369,-1.0434211492538452
1758274169932607200,8.610607177734375,0.432989239692688,-0.4870263934135437,-1.237313151359558
1758274169942565000,8.620565185546875,0.5806120038032532,-0.8409607410430908,-1.6164700984954834
1758274169952524300,8.630524169921875,0.6124436855316162,-0.9006922841072083,-2.0090179443359375
1758274169962482200,8.640482177734375,0.6739832162857056,-0.8942974805831909,-2.2803635597229004
1758274169972441000,8.650441162109376,0.6845722198486328,-1.0353344678878784,-2.4146835803985596
1758274169982399200,8.660399169921876,0.6310597062110901,-1.2649601697921753,-2.531773567199707
1758274169992357400,8.670357421875,0.6281768679618835,-1.4112529754638672,-2.6899659633636475
1758274170002316300,8.68031640625,0.7498582601547241,-1.4346600770950317,-2.8718008995056152
1758274170012274200,8.690274169921874,0.8169049620628357,-1.3827366828918457,-3.032320022583008
1758274170022233300,8.7002333984375,0.8004735112190247,-1.2309082746505737,-3.147266149520874
1758274170032191200,8.710191162109375,0.6863083243370056,-0.9938677549362183,-3.1334009170532227
1758274170042149400,8.7201494140625,0.512567937374115,-0.6664217114448547,-2.969852924346924
1758274170052108300,8.7301083984375,0.41366374492645264,-0.29131707549095154,-2.674440860748291
1758274170062066400,8.74006640625,0.3730960786342621,0.08678070455789566,-2.379387617111206
1758274170072025300,8.750025390625,0.36844807863235474,0.45987945795059204,-2.1679396629333496
1758274170081983200,8.759983154296876,0.4039520025253296,0.8151930570602417,-2.0087668895721436
1758274170091942400,8.7699423828125,0.46275565028190613,1.0068434476852417,-1.9101011753082275
1758274170101900300,8.779900390625,0.507851243019104,0.825480580329895,-1.8259642124176025
1758274170111858400,8.7898583984375,0.4377416670322418,0.26585644483566284,-1.8082221746444702
1758274170121817300,8.7998173828125,0.3956037759780884,-0.6089597344398499,-1.8608094453811646
1758274170131775500,8.809775390625,0.418234258890152,-1.4753347635269165,-1.980918049812317
1758274170141734400,8.819734375,0.39362478256225586,-1.8100720643997192,-2.2824087142944336
1758274170151692300,8.8296923828125,0.29262468218803406,-1.9315757751464844,-2.6304821968078613
1758274170161651500,8.8396513671875,0.2633378803730011,-1.8347212076187134,-2.991913080215454
1758274170171609000,8.849609130859376,0.07749425619840622,-1.7398202419281006,-3.1790666580200195
1758274170181567200,8.859567138671874,-0.1483234316110611,-1.3090832233428955,-3.213658094406128
1758274170191526100,8.869526123046874,-0.2442970871925354,-0.9062004685401917,-3.0910019874572754
1758274170201484300,8.879484375,-0.22392071783542633,-0.951982855796814,-2.9557394981384277
1758274170211443200,8.889443115234375,-0.2850058972835541,-1.2702279090881348,-2.8773443698883057
1758274170221401000,8.899401123046875,-0.2836194634437561,-1.8699697256088257,-2.888437032699585
1758274170231360300,8.9093603515625,-0.3696078658103943,-2.1554083824157715,-2.971215009689331
1758274170241318100,8.919318115234375,-0.39984461665153503,-2.2306346893310547,-3.0398647785186768
1758274170251276300,8.9292763671875,-0.38105201721191406,-2.1942057609558105,-2.9239699840545654
1758274170261235200,8.939235107421876,-0.3653545379638672,-2.1776113510131836,-2.4677164554595947
1758274170271193300,8.949193359375,-0.2852841913700104,-2.0006182193756104,-1.8989031314849854
1758274170281152300,8.95915234375,-0.2015720009803772,-1.5629982948303223,-1.5574328899383545
1758274170291110400,8.9691103515625,-0.20399335026741028,-1.1780115365982056,-1.2758197784423828
1758274170301069300,8.9790693359375,-0.21435517072677612,-0.9216340184211731,-1.057612657546997
1758274170311027200,8.989027099609375,-0.23363512754440308,-0.7714221477508545,-0.8560811281204224
1758274170320985300,8.9989853515625,-0.28195977210998535,-0.6234992742538452,-0.6615100502967834
1758274170330944300,9.0089443359375,-0.3604798913002014,-0.418714702129364,-0.4616778790950775
1758274170340902400,9.01890234375,-0.44063010811805725,-0.16299878060817719,-0.2730725407600403
1758274170350861300,9.028861328125,-0.5069191455841064,0.023924773558974266,-0.09518590569496155
1758274170360819500,9.0388193359375,-0.5595112442970276,0.12828366458415985,0.05252872034907341
1758274170370778400,9.0487783203125,-0.6049585938453674,0.20835240185260773,0.1660371720790863
1758274170380736300,9.058736328125,-0.6584322452545166,0.21866603195667267,0.27376043796539307
1758274170390694400,9.0686943359375,-0.7182803750038147,0.13642841577529907,0.41312313079833984
1758274170400653300,9.0786533203125,-0.8012474179267883,0.10850144177675247,0.6096303462982178
1758274170410611500,9.088611572265625,-0.8673369884490967,0.12527962028980255,0.8339992761611938
1758274170420570400,9.0985703125,-0.8918138146400452,0.13148878514766693,1.0406608581542969
1758274170430528300,9.1085283203125,-0.8681840896606445,0.1841360181570053,1.1802363395690918
1758274170440486100,9.118486083984376,-0.7582097053527832,0.24319161474704742,1.1561580896377563
1758274170450445000,9.128445068359374,-0.6645204424858093,0.24642495810985565,0.9465484023094177
1758274170460403200,9.1384033203125,-0.6074393391609192,0.5025981664657593,0.4912818372249603
1758274170470362000,9.148362060546875,-0.5028442144393921,1.0743119716644287,0.211822509765625
1758274170480320300,9.1583203125,-0.4988689124584198,1.3090994358062744,0.7505980730056763
1758274170490279200,9.168279052734375,-0.4524915814399719,0.6807495355606079,1.1131515502929688
1758274170500237300,9.1782373046875,-0.25960227847099304,0.6840859055519104,1.6604551076889038
1758274170510195200,9.1881953125,-0.28210198879241943,1.04021155834198,1.7161990404129028
1758274170520154000,9.198154052734376,-0.22575590014457703,1.1340727806091309,1.4851703643798828
1758274170530112300,9.2081123046875,-0.19880311191082,1.164546251296997,1.6866466999053955
1758274170540071200,9.2180712890625,-0.2156667709350586,1.1205008029937744,1.8669261932373047
1758274170550029300,9.228029296875,-0.18394000828266144,1.164466381072998,1.9798057079315186
1758274170559987200,9.2379873046875,-0.08639480918645859,1.4112426042556763,2.084718704223633
1758274170569946400,9.2479462890625,0.05218091234564781,1.7333461046218872,2.125349283218384
1758274170579904300,9.257904296875,0.14357315003871918,2.0096540451049805,2.154210329055786
1758274170589863200,9.26786328125,0.1258937418460846,2.18462872505188,2.218142509460449
1758274170599821000,9.277821044921875,0.05777168646454811,2.0760936737060547,2.2447621822357178
1758274170609780000,9.287780029296876,0.04989645257592201,1.6566188335418701,2.2149369716644287
1758274170619738000,9.297738037109376,-0.002304965863004327,1.1586982011795044,2.182051420211792
1758274170629696000,9.307696044921874,-0.0591336265206337,0.8210139274597168,2.1514923572540283
1758274170639655000,9.317655029296875,-0.0578816756606102,0.7331078052520752,2.1447503566741943
1758274170649612800,9.32761279296875,-0.001315335277467966,0.7918123602867126,2.1224172115325928
1758274170659572000,9.337572021484375,0.09240396320819855,0.9510449171066284,2.0478429794311523
1758274170669529900,9.34752978515625,0.11215157061815262,1.1407743692398071,1.9683828353881836
1758274170679488000,9.357488037109375,0.06012459099292755,1.335291862487793,1.8968313932418823
1758274170689447000,9.367447021484375,0.03809039294719696,1.5062098503112793,1.8329004049301147
1758274170699405000,9.377405029296876,0.024335432797670364,1.6230765581130981,1.8373459577560425
1758274170709364000,9.387364013671874,0.0020873856265097857,1.6989260911941528,1.9223383665084839
1758274170719321900,9.39732177734375,-0.043775178492069244,1.6994719505310059,2.028613328933716
1758274170729281000,9.407281005859375,-0.1880362182855606,1.738171935081482,2.0500457286834717
1758274170739239000,9.417239013671875,-0.35919705033302307,1.7369234561920166,1.9915987253189087
1758274170749197000,9.427197021484375,-0.5064110159873962,1.6845217943191528,1.941766381263733
1758274170759156000,9.437156005859375,-0.6155787706375122,1.7289420366287231,1.9439027309417725
1758274170769114000,9.447114013671875,-0.6961670517921448,1.7304437160491943,1.9358725547790527
1758274170779073000,9.457072998046876,-0.6989258527755737,1.5270781517028809,1.7991530895233154
1758274170789031000,9.467031005859376,-0.668722927570343,1.1220738887786865,1.619582176208496
1758274170798989000,9.476989013671876,-0.6491338014602661,0.6842268109321594,1.4681894779205322
1758274170808948000,9.486947998046874,-0.5501763224601746,0.36077550053596497,1.2880640029907227
1758274170818906000,9.496906005859374,-0.4159442186355591,0.10034950822591782,1.107150912284851
1758274170828865000,9.506864990234375,-0.2680812478065491,-0.12852761149406433,0.9251443147659302
1758274170838823200,9.5168232421875,-0.1679394692182541,-0.3293616473674774,0.778412401676178
1758274170848782000,9.526781982421875,-0.18105047941207886,-0.40824049711227417,0.7166763544082642
1758274170858740000,9.536739990234375,-0.16723160445690155,-0.36248525977134705,0.7387180328369141
1758274170868697900,9.54669775390625,-0.12358611822128296,-0.1728825569152832,0.7442030310630798
1758274170878657000,9.556656982421876,-0.0986192524433136,0.18024326860904694,0.7473834156990051
1758274170888615000,9.566614990234376,-0.0657276138663292,0.6696134805679321,0.7270504236221313
1758274170898573800,9.57657373046875,-0.041670214384794235,1.1497228145599365,0.6677194833755493
1758274170908532000,9.586531982421874,-0.037525005638599396,1.4792019128799438,0.6280575394630432
1758274170918489900,9.59648974609375,-0.033783797174692154,1.5844383239746094,0.6352017521858215
1758274170928449000,9.606448974609375,0.005262672435492277,1.4449307918548584,0.6095573306083679
1758274170938407000,9.616406982421875,0.04712516814470291,1.1343433856964111,0.527947723865509
1758274170948365800,9.62636572265625,0.06755374372005463,0.7488827705383301,0.4266551733016968
1758274170958324000,9.636323974609375,0.09345697611570358,0.34128010272979736,0.3357985019683838
1758274170968282000,9.6462822265625,0.14183409512043,-0.04074716195464134,0.2810540497303009
1758274170978241000,9.656240966796876,0.16200648248195648,-0.35322943329811096,0.2702732980251312
1758274170988199000,9.666198974609374,0.17229267954826355,-0.5623405575752258,0.31484395265579224
1758274170998158000,9.676157958984374,0.19002826511859894,-0.6563522815704346,0.369666188955307
1758274171008116000,9.686115966796875,0.21834565699100494,-0.5881961584091187,0.39436355233192444
1758274171018074000,9.69607421875,0.25024473667144775,-0.420844167470932,0.3795374631881714
1758274171028033000,9.706032958984375,0.2775306701660156,-0.21801675856113434,0.3457094728946686
1758274171037991200,9.7159912109375,0.29603511095046997,-0.06579339504241943,0.3381096124649048
1758274171047950000,9.7259501953125,0.3024565279483795,0.019483154639601707,0.3947843313217163
1758274171057908000,9.735907958984376,0.28548768162727356,0.13072872161865234,0.4911345839500427
1758274171067867100,9.7458671875,0.25348660349845886,0.3295440673828125,0.5612984895706177
1758274171077825000,9.755824951171874,0.2130126655101776,0.5721045136451721,0.5655169486999512
1758274171087783200,9.765783203125,0.15111255645751953,0.7404599785804749,0.5553180575370789
1758274171097742000,9.7757421875,0.10686013847589493,0.6542052626609802,0.5762185454368591
1758274171107700000,9.785699951171875,0.07929828763008118,0.369588166475296,0.6489883661270142
1758274171117659100,9.7956591796875,0.03296513855457306,0.0960325226187706,0.7457740306854248
1758274171127616800,9.80561669921875,-0.04888099059462547,-0.0964897871017456,0.682547390460968
1758274171137575000,9.815574951171875,-0.10865244269371033,-0.16546858847141266,0.5151246190071106
1758274171147533800,9.825533935546876,-0.06634040921926498,-0.12357094138860703,0.3798882067203522
1758274171157492000,9.835491943359376,0.044253747910261154,-0.23215387761592865,0.3207114338874817
1758274171167451000,9.845450927734374,0.12369983643293381,-0.5453272461891174,0.2819664478302002
1758274171177409000,9.855408935546874,0.16991792619228363,-0.7806074023246765,0.2530839145183563
1758274171187367000,9.865366943359374,0.2674300968647003,-0.766589343547821,0.14552390575408936
1758274171197325800,9.875325927734375,0.3555157482624054,-0.5846043229103088,-0.16503475606441498
1758274171207284000,9.885283935546875,0.43708571791648865,-0.2931447923183441,-0.5348082780838013
1758274171217243000,9.895242919921875,0.5030098557472229,-0.10859864950180054,-0.8315430283546448
1758274171227201000,9.905200927734375,0.5587892532348633,-0.08101735264062881,-1.0381054878234863
1758274171237159000,9.915158935546875,0.6071474552154541,-0.13943804800510406,-1.1656494140625
1758274171247118000,9.9251181640625,0.5976042747497559,-0.3225080072879791,-1.310760736465454
1758274171257076000,9.935075927734376,0.5643488764762878,-0.600718080997467,-1.5039094686508179
1758274171267035000,9.945034912109374,0.5126680731773376,-0.9484131932258606,-1.7371445894241333
1758274171276993000,9.954992919921875,0.4936573803424835,-1.2197182178497314,-1.9878766536712646
1758274171286951200,9.964951171875,0.45352381467819214,-1.343793272972107,-2.2546725273132324
1758274171296910000,9.97491015625,0.36532285809516907,-1.3624846935272217,-2.418107032775879
1758274171306868000,9.984867919921875,0.24951182305812836,-1.2185895442962646,-2.4654338359832764
1758274171316827100,9.9948271484375,0.14907629787921906,-0.8613554835319519,-2.402029514312744
1758274171326785000,10.004784912109375,0.13551734387874603,-0.4022638201713562,-2.292508602142334
1758274171336743000,10.014742919921876,0.19858179986476898,0.08583927154541016,-2.126526355743408
1758274171346702000,10.0247021484375,0.20122872292995453,0.4197794198989868,-1.9428939819335938
1758274171356660000,10.034659912109374,0.17767199873924255,0.5629123449325562,-1.7711752653121948
1758274171366619000,10.044618896484375,0.1567898839712143,0.5011616349220276,-1.644450306892395
1758274171376577000,10.054576904296875,0.1488211750984192,0.332417368888855,-1.5573300123214722
1758274171386536000,10.064535888671875,0.16339531540870667,0.10072314739227295,-1.5355967283248901
1758274171396493800,10.074493896484375,0.20426338911056519,-0.05173802748322487,-1.5502880811691284
1758274171406452000,10.084451904296875,0.268760621547699,-0.14883369207382202,-1.5604115724563599
1758274171416411000,10.094410888671876,0.34836676716804504,-0.3577168583869934,-1.5342119932174683
1758274171426369000,10.104369140625,0.3535836338996887,-0.7332625389099121,-1.4843636751174927
1758274171436328000,10.114327880859374,0.34286680817604065,-1.0894988775253296,-1.4057666063308716
1758274171446286000,10.1242861328125,0.370450496673584,-1.1924951076507568,-1.2874490022659302
1758274171456244000,10.134243896484374,0.41501370072364807,-0.9918618202209473,-1.125933051109314
1758274171466203000,10.144202880859375,0.41739511489868164,-0.5895476937294006,-0.9055594801902771
1758274171476161000,10.1541611328125,0.37188273668289185,-0.16880233585834503,-0.6390052437782288
1758274171486120000,10.164119873046875,0.22599877417087555,0.24751418828964233,-0.3917323648929596
1758274171496078000,10.174078125,0.012912869453430176,0.4801631569862366,-0.14778439700603485
1758274171506036000,10.184035888671875,-0.07853688299655914,0.4036100506782532,0.07450912147760391
1758274171515995100,10.1939951171875,-0.1205597072839737,0.16033588349819183,0.2816833555698395
1758274171525953000,10.203953125,-0.1776813119649887,-0.09935321658849716,0.4964371919631958
1758274171535912000,10.213911865234374,-0.22247540950775146,-0.24211356043815613,0.6391866207122803
1758274171545870000,10.2238701171875,-0.17503014206886292,-0.22101786732673645,0.6284306645393372
1758274171555828000,10.233827880859375,-0.0398281067609787,-0.14204928278923035,0.5229332447052002
1758274171565787100,10.243787109375,0.12836836278438568,-0.194116473197937,0.4350705146789551
1758274171575745000,10.2537451171875,0.24085868895053864,-0.38544967770576477,0.3747333884239197
1758274171585704000,10.263703857421875,0.2221587598323822,-0.5538496375083923,0.32893794775009155
1758274171595661800,10.273661865234375,0.10924553126096725,-0.6287353038787842,0.2779248356819153
1758274171605620000,10.283619873046876,-0.016805611550807953,-0.6347918510437012,0.23826129734516144
1758274171615579000,10.293578857421876,-0.15381751954555511,-0.6897312998771667,0.28185778856277466
1758274171625537000,10.303537109375,-0.2950071394443512,-0.9439124464988708,0.5078338980674744
1758274171635496000,10.313495849609374,-0.45527270436286926,-1.3392432928085327,1.041340947151184
1758274171645453800,10.323453857421875,-0.5723929405212402,-1.4850414991378784,1.655741572380066
1758274171655412000,10.333411865234375,-0.5982152223587036,-1.3178261518478394,2.0722601413726807
1758274171665371000,10.343370849609375,-0.47372281551361084,-1.0311647653579712,2.1324045658111572
1758274171675329000,10.3533291015625,-0.30172282457351685,-0.7134249210357666,1.7733763456344604
1758274171685288000,10.363287841796875,0.00461579067632556,-0.502544641494751,1.1204030513763428
1758274171695246000,10.37324609375,0.4404152035713196,-0.7852423787117004,0.3325587809085846
1758274171705203700,10.38320361328125,0.6958631873130798,-1.6442338228225708,-0.632783055305481
1758274171715163000,10.393162841796874,0.527277946472168,-2.5442755222320557,-1.637061595916748
1758274171725120800,10.403120849609374,0.06889784336090088,-2.7215490341186523,-1.5709028244018555
1758274171735079000,10.413078857421874,-0.3049148917198181,-2.37855863571167,-0.811503529548645
1758274171745037800,10.423037841796875,-0.5415626168251038,-0.5995561480522156,0.2632899582386017
1758274171754995700,10.43299560546875,-0.6576138138771057,2.0855801105499268,1.3378267288208008
1758274171764955000,10.442954833984375,-0.6306346654891968,3.6475014686584473,1.7087829113006592
1758274171774912800,10.452912841796875,-0.4274994134902954,4.279400825500488,1.6703343391418457
1758274171784871000,10.462870849609375,-0.23377761244773865,4.363254070281982,1.5653109550476074
1758274171794829800,10.472829833984376,-0.08909445255994797,3.67207407951355,1.5131268501281738
1758274171804788000,10.4827880859375,0.04428144544363022,2.41642427444458,1.5366804599761963
1758274171814747000,10.492746826171874,-0.0905432179570198,2.0696327686309814,1.8575135469436646
1758274171824704800,10.502704833984374,-0.5148489475250244,3.1509525775909424,2.637573003768921
1758274171834663000,10.512662841796875,-0.755089282989502,4.531711101531982,3.2253191471099854
1758274171844621800,10.522621826171875,-0.8003347516059875,5.616568565368652,3.525843381881714
1758274171854580000,10.532580078125,-0.4979964792728424,5.13696813583374,3.140671730041504
1758274171864539000,10.542538818359375,-0.26356640458106995,4.169965744018555,2.699965000152588
1758274171874497000,10.5524970703125,-0.17087188363075256,3.1631646156311035,2.2999162673950195
1758274171884455000,10.562454833984376,0.03874366730451584,1.6520384550094604,1.2517136335372925
1758274171894413800,10.572413818359376,0.3714342713356018,-0.39160212874412537,-0.24561002850532532
1758274171904372000,10.5823720703125,0.534235954284668,-2.132702589035034,-0.7109532356262207
1758274171914331000,10.592330810546875,0.45934122800827026,-2.246370553970337,-0.40125447511672974
1758274171924288800,10.602288818359375,0.24058598279953003,-2.180631637573242,-0.3333646357059479
1758274171934246700,10.61224658203125,0.29938751459121704,-2.5105109214782715,-0.6199676394462585
1758274171944205800,10.622205810546875,0.638157844543457,-2.5560855865478516,-0.7009037733078003
1758274171954163700,10.632163818359375,0.9116527438163757,-2.5233612060546875,-0.6007502675056458
1758274171964123000,10.642122802734375,1.1892015933990479,-3.750579357147217,-0.08439823985099792
1758274171974080800,10.652080810546876,1.4703935384750366,-9.26939868927002,0.9954009056091309
1758274171984039000,10.662038818359376,1.6196423768997192,-14.205904006958008,2.2024810314178467
1758274171993997800,10.671997802734374,1.260494589805603,-14.828239440917969,1.963956356048584
1758274172003956000,10.6819560546875,0.6482240557670593,-5.489993572235107,0.14959721267223358
1758274172013915000,10.691914794921875,-0.888540506362915,3.129307985305786,0.4172699451446533
1758274172023872800,10.701872802734375,-1.8785115480422974,4.814325332641602,0.3041923940181732
1758274172033831000,10.711830810546875,-1.909777283668518,3.2222347259521484,-0.16630588471889496
1758274172043789800,10.721789794921875,-1.663885235786438,1.1509196758270264,-0.575410008430481
1758274172053748000,10.731748046875,-1.4820868968963623,0.11195369809865952,-0.7670060992240906
1758274172063705900,10.741705810546875,-1.7084732055664062,0.2962809205055237,-0.674394428730011
1758274172073665000,10.7516650390625,-1.9916436672210693,0.6869597434997559,-0.4825671911239624
1758274172083623000,10.761622802734376,-2.184058904647827,0.4849086403846741,-0.35224005579948425
1758274172093581800,10.771581787109374,-2.372603178024292,-0.04018017649650574,-0.46109652519226074
1758274172103540000,10.7815400390625,-2.5957233905792236,-0.5114952325820923,-0.6519806981086731
1758274172113497900,10.791497802734375,-2.7988266944885254,-0.7943474650382996,-0.9712159633636475
1758274172123457000,10.80145703125,-2.6679155826568604,-1.1327617168426514,-1.250411868095398
1758274172133415000,10.811414794921875,-2.2794926166534424,-1.475887417793274,-1.613586664199829
1758274172143374000,10.8213740234375,-2.297096014022827,-1.4773038625717163,-1.149975061416626
1758274172153331700,10.831331787109375,-2.404728889465332,-0.0418744795024395,-0.6887502074241638
1758274172163289900,10.841289794921876,-2.7126576900482178,0.9909963011741638,-0.4444624185562134
1758274172173248800,10.851248779296874,-3.130519390106201,1.56644868850708,-0.25717613101005554
1758274172183207000,10.86120703125,-3.268381118774414,2.1152913570404053,-0.19416335225105286
1758274172193165800,10.871165771484375,-3.312129020690918,1.9376016855239868,-0.03261280432343483
1758274172203123700,10.881123779296875,-3.492053985595703,2.777215003967285,0.533630907535553
1758274172213081900,10.891081787109375,-3.65746808052063,2.8524529933929443,1.2626874446868896
1758274172223040800,10.901040771484375,-3.617229461669922,3.7061314582824707,2.3870558738708496
1758274172232999000,10.9109990234375,-3.3937172889709473,4.043966293334961,2.5662107467651367
1758274172242956800,10.920956787109375,-3.1025502681732178,3.637260913848877,2.4003260135650635
1758274172252916000,10.930916015625,-2.5486485958099365,4.350797176361084,2.6306135654449463
1758274172262873900,10.940873779296876,-1.9999077320098877,4.753236293792725,2.9976394176483154
1758274172272832800,10.950832763671874,-1.3901000022888184,4.616147518157959,2.701162099838257
1758274172282791000,10.960791015625,-1.0478105545043945,4.054747581481934,2.5501797199249268
1758274172292749000,10.9707490234375,-0.7650303244590759,4.986873626708984,3.1427175998687744
1758274172302708000,10.9807080078125,-0.6688854098320007,5.852573871612549,3.792574882507324
1758274172312665900,10.990665771484375,-1.2677693367004395,6.302592754364014,3.328918218612671
1758274172322625000,11.000625,-2.844733715057373,5.566450119018555,2.174999475479126
1758274172332583000,11.0105830078125,-4.8404974937438965,4.961819648742676,1.5040830373764038
1758274172342541000,11.020541015625,-6.679203510284424,5.40737247467041,1.4528968334197998
1758274172352500000,11.0305,-7.986685752868652,5.973321437835693,1.8743258714675903
1758274172362457900,11.040457763671874,-8.537704467773438,6.302674293518066,2.4640254974365234
1758274172372417000,11.0504169921875,-8.504877090454102,6.647943496704102,3.103435754776001
1758274172382374700,11.060374755859375,-8.073058128356934,6.812438488006592,4.089012145996094
1758274172392332800,11.070332763671875,-7.54217004776001,6.440293788909912,4.978137493133545
1758274172402291700,11.080291748046875,-6.802584648132324,6.25222110748291,5.520594596862793
1758274172412249900,11.090249755859375,-6.00788688659668,5.611807823181152,5.560239315032959
1758274172422207700,11.100207763671875,-5.296237945556641,4.754776477813721,5.21288537979126
1758274172432167000,11.1101669921875,-4.845218181610107,4.038206100463867,4.667198181152344
1758274172442124800,11.120124755859376,-4.588405132293701,3.747110605239868,4.026771545410156
1758274172452083700,11.130083740234374,-4.546019077301025,3.470078706741333,3.334174394607544
1758274172462041900,11.140041748046874,-4.702795028686523,2.92329740524292,2.6856696605682373
1758274172472000000,11.15,-4.975617408752441,2.1605656147003174,2.0161361694335938
1758274172481959000,11.159958984375,-5.335387706756592,1.1203670501708984,1.3485832214355469
1758274172491916800,11.169916748046875,-5.747162342071533,-0.07673951983451843,0.6764378547668457
1758274172501875000,11.179875,-6.284799098968506,-1.1724116802215576,0.22107619047164917
1758274172511833900,11.189833740234375,-6.883017539978027,-1.914330244064331,0.0041486723348498344
1758274172521792000,11.1997919921875,-7.379382610321045,-2.248041868209839,0.0697934627532959
1758274172531751000,11.2097509765625,-7.677955150604248,-2.1007943153381348,0.350196897983551
1758274172541709000,11.219708984375,-7.687938213348389,-1.4698328971862793,0.8221002221107483
1758274172551667000,11.2296669921875,-7.31603479385376,-0.6444732546806335,1.3930410146713257
1758274172561625900,11.2396259765625,-6.572196960449219,0.3737802505493164,1.9392619132995605
1758274172571583700,11.249583740234375,-5.491392135620117,1.381534218788147,2.5170843601226807
1758274172581543000,11.25954296875,-4.204560279846191,2.0626471042633057,3.0216689109802246
1758274172591500800,11.269500732421875,-2.783517360687256,2.2543556690216064,3.228381633758545
1758274172601458700,11.279458740234375,-1.4472507238388062,1.783738136291504,3.0538697242736816
1758274172611417900,11.28941796875,-0.5671539902687073,1.1650065183639526,2.672144651412964
1758274172621375700,11.299375732421876,-0.0727413147687912,0.6465513110160828,2.161947250366211
1758274172631334000,11.309333984375,0.23509027063846588,0.233736053109169,1.496374249458313
1758274172641292800,11.319292724609374,0.5282004475593567,-0.08271565288305283,0.7581143379211426
1758274172651251000,11.3292509765625,0.7643517255783081,-0.026143454015254974,0.04170377179980278
1758274172661209900,11.3392099609375,0.9079791903495789,0.47235608100891113,-0.6091200709342957
1758274172671167700,11.349167724609375,0.9755188226699829,1.0808244943618774,-1.1562734842300415
1758274172681126000,11.3591259765625,0.9351921677589417,1.448158860206604,-1.5664467811584473
1758274172691084800,11.369084716796875,0.7939679622650146,1.444120168685913,-1.820273756980896
1758274172701043000,11.37904296875,0.5671545267105103,1.1643803119659424,-1.931389331817627
1758274172711000600,11.38900048828125,0.34593290090560913,0.7551537156105042,-1.9125804901123047
1758274172720959700,11.398959716796876,0.23462368547916412,0.27138543128967285,-1.8140054941177368
1758274172730917600,11.408917724609376,0.26183241605758667,-0.12336347997188568,-1.6149187088012695
1758274172740876800,11.418876708984374,-0.7306821942329407,2.456632137298584,0.01155918464064598
1758274172750834700,11.428834716796874,-1.2779498100280762,2.181238889694214,1.2756959199905396
1758274172760792800,11.438792724609375,-1.2263989448547363,0.41297346353530884,1.2928863763809204
1758274172770751700,11.448751708984375,-1.3413676023483276,-0.2951030135154724,1.2166811227798462
1758274172780709600,11.458709716796875,-1.5071635246276855,0.015459916554391384,0.9811490178108215
1758274172790668800,11.468668701171875,-1.5765913724899292,0.4178699553012848,0.5809134840965271
1758274172800626700,11.478626708984375,-1.6755070686340332,0.683803379535675,0.09255602955818176
1758274172810584800,11.488584716796876,-1.9031460285186768,0.8274374604225159,-0.4375363290309906
1758274172820543700,11.498543701171876,-2.1513683795928955,1.0102273225784302,-0.8816781044006348
1758274172830502000,11.508501953125,-2.241955280303955,1.365161657333374,-1.0744094848632812
1758274172840459800,11.518459716796874,-1.9521028995513916,1.0269114971160889,-0.5864794850349426
1758274172850418700,11.528418701171875,-1.5702484846115112,-0.02142166905105114,-0.07122224569320679
1758274172860376800,11.538376953125,-1.2597154378890991,-1.2005378007888794,0.3383716642856598
1758274172870335700,11.548335693359375,-1.1143121719360352,-1.0971475839614868,0.5376866459846497
1758274172880294000,11.5582939453125,-1.0252461433410645,-1.074429988861084,0.4503368139266968
1758274172890251800,11.568251708984375,-0.8867173194885254,-0.6618783473968506,0.3229389190673828
1758274172900211000,11.5782109375,-0.7671259641647339,-0.366075724363327,0.27959996461868286
1758274172910168800,11.5881689453125,-0.6587938666343689,-0.37003985047340393,0.3195023536682129
1758274172920126700,11.598126708984376,-0.5280566215515137,-0.37605297565460205,0.35888198018074036
1758274172930086000,11.6080859375,-0.40856432914733887,-0.33308127522468567,0.33978527784347534
1758274172940043800,11.618043701171874,-0.3331238925457001,-0.36170414090156555,0.26066699624061584
1758274172950002700,11.628002685546875,-0.31325432658195496,-0.41368213295936584,0.14559288322925568
1758274172959960600,11.637960693359375,-0.29245343804359436,-0.45004040002822876,0.04706524685025215
1758274172969918700,11.647918701171875,-0.24453677237033844,-0.45833641290664673,-0.0008785768295638263
1758274172979877600,11.657877685546875,-0.18154476583003998,-0.4145021140575409,0.007400658447295427
1758274172989835800,11.667835693359375,-0.1180395558476448,-0.3319949805736542,0.05742973834276199
1758274172999793700,11.677793701171876,-0.05342860519886017,-0.21703830361366272,0.10762446373701096
1758274173009752800,11.6877529296875,0.004750014282763004,-0.07574403285980225,0.14631913602352142
1758274173019710700,11.697710693359374,0.02389308251440525,0.05651334300637245,0.17595770955085754
1758274173029670000,11.707669921875,0.03290388733148575,0.13389362394809723,0.1646115779876709
1758274173039627800,11.717627685546875,0.06585384905338287,0.15659120678901672,0.1308637410402298
1758274173049586000,11.7275859375,0.10399483889341354,0.11480966955423355,0.09221860766410828
1758274173059544800,11.737544921875,0.15364229679107666,0.043833233416080475,0.05422302335500717
1758274173069502700,11.747502685546875,0.22458571195602417,0.002901514060795307,0.017902035266160965
1758274173079460900,11.7574609375,0.2940673232078552,-0.026145583018660545,-0.015587215311825275
1758274173089419800,11.767419677734376,0.33518412709236145,-0.024925056844949722,-0.026678215712308884
1758274173099378000,11.7773779296875,0.3402941823005676,0.020985443145036697,-0.002210423583164811
1758274173109335800,11.787335693359376,0.3149147927761078,0.07651820778846741,0.05413860082626343
1758274173119295000,11.797294921875,0.282688170671463,0.1335412859916687,0.11154277622699738
1758274173129252600,11.807252685546874,0.248975470662117,0.1731768399477005,0.15338608622550964
1758274173139211800,11.817211669921875,0.21483640372753143,0.17604559659957886,0.18018680810928345
1758274173149169700,11.827169677734375,0.17429962754249573,0.17544984817504883,0.18151307106018066
1758274173159127800,11.8371279296875,0.1227450966835022,0.1515815407037735,0.15562447905540466
1758274173169086700,11.847086669921875,0.09356004744768143,0.08692345023155212,0.10518261045217514
1758274173179044600,11.857044677734375,0.1148003488779068,0.03687865659594536,0.04260125756263733
1758274173189002800,11.867002685546876,0.15863864123821259,0.015682822093367577,-0.002038117265328765
1758274173198961700,11.876961669921876,0.18929988145828247,0.020557472482323647,-0.015454856678843498
1758274173208919800,11.886919921875,0.19247864186763763,0.03500272333621979,-0.00236195744946599
1758274173218878700,11.896878662109375,0.17858758568763733,0.06380454450845718,0.02046612650156021
1758274173228836900,11.9068369140625,0.16813628375530243,0.09302261471748352,-0.001927862293086946
1758274173238794800,11.916794677734375,0.1701544225215912,0.10546570271253586,-0.04818696901202202
1758274173248753700,11.926753662109375,0.16589203476905823,0.10524120181798935,-0.065339595079422
1758274173258711800,11.9367119140625,0.17163647711277008,0.08720574527978897,-0.0486101470887661
1758274173268670000,11.946669921875,0.17914871871471405,0.09715823829174042,0.03501657396554947
1758274173278628900,11.95662890625,0.13228081166744232,0.18512991070747375,0.21570086479187012
1758274173288586800,11.966586669921876,0.058696337044239044,0.2618443965911865,0.4264192283153534
1758274173298546000,11.9765458984375,-0.10990439355373383,0.9393624067306519,1.4512022733688354
1758274173308503800,11.98650390625,-0.21195246279239655,0.4912424385547638,1.2483652830123901
1758274173318462000,11.9964619140625,-0.150950625538826,0.16432742774486542,0.6307877898216248
1758274173328420900,12.0064208984375,0.057024937123060226,-0.046241797506809235,-0.1470581591129303
1758274173338378800,12.016378662109375,0.2952819764614105,-0.29797789454460144,-0.6779694557189941
1758274173348336600,12.026336669921875,0.32208776473999023,-0.36660516262054443,-0.6571539044380188
1758274173358295600,12.036295654296875,0.19337265193462372,-0.23678191006183624,-0.24294686317443848
