time,seconds_elapsed,z,y,x
1758273991741784600,0.05278466796875,-0.1130693298190832,-0.7226108022108674,0.6688856417641044
1758273991751742700,0.06274267578125,-0.06572539484202862,-1.514703721448779,0.9975221144549548
1758273991761700600,0.07270068359375,-0.2331242807418108,-1.6266344026267527,0.9107011054184287
1758273991771658800,0.08265869140625,-1.5793179401785133,-2.0925676145508882,1.3522908072680233
1758273991781616600,0.09261669921875,-2.185930081120133,-2.0346216215386987,1.88059747325778
1758273991791573800,0.10257373046875,-2.8803759883373976,-2.2184332975789904,2.409418226249516
1758273991801532000,0.112531982421875,-3.3097955791175364,-1.635617627288401,2.481755732707679
1758273991811489500,0.122489501953125,-3.4535587378859516,-0.7691554035037755,1.9575372128143906
1758273991821447700,0.13244775390625,-4.414717307192087,-1.230032793343067,1.6782478316165506
1758273991831404800,0.14240478515625,-4.216110213080048,-1.0336337306693195,0.4738090598657727
1758273991841362700,0.15236279296875,-3.4849621764093635,0.046101241439580914,-0.003877864346653223
1758273991851320800,0.16232080078125,-4.00289942407608,0.4886825116097927,-0.01783814676851034
1758273991861278700,0.17227880859375,-4.175694616061449,0.4384975079879164,-0.46495764489024877
1758273991871235600,0.182235595703125,-3.3449510636508464,-1.7007649299815295,-1.0535036755263805
1758273991881193700,0.19219384765625,-4.198417320001125,-3.8119647642880676,-0.6998705626145005
1758273991891150600,0.202150634765625,-4.991982942140102,-2.6263486202985047,-0.40751375618129965
1758273991901108700,0.212108642578125,-1.7517355310231446,-0.47038025446087117,-0.9030985945254564
1758273991911067000,0.22206689453125,-1.3702455661535262,-1.615927130651474,0.03635068566724658
1758273991921024800,0.232024658203125,-0.45598377257883543,-2.299658459369838,0.7291606622457504
1758273991930981600,0.241981689453125,0.8435340604007243,-2.200183062878251,0.021757658299803733
1758273991940939800,0.251939697265625,1.4983751024603842,-2.1963032988354563,0.13075550089627502
1758273991950897700,0.261897705078125,2.1793255682885646,-1.754813915555179,0.7427483119629323
1758273991960855800,0.271855712890625,2.6704917134076354,-1.172020164835453,1.2347957699611782
1758273991970812700,0.281812744140625,2.5745471213907,-0.9245806507542729,1.492547419220209
1758273991980770600,0.2917705078125,1.9506109206825493,-0.8800202090159058,1.0825435997888446
1758273991990728700,0.301728759765625,1.0488017814457415,-1.0904361066043375,0.10713730942159891
1758273992000686600,0.3116865234375,0.22094342908263206,-1.3618746281713245,-0.8347808451026678
1758273992010644700,0.321644775390625,-0.29097791929543015,-1.4853434791907667,-1.7182137851715087
1758273992020601900,0.331601806640625,-0.42310967698097224,-1.7452268797814845,-2.2688193767309186
1758273992030559700,0.341559814453125,-0.24574352381825446,-2.329122600393742,-2.379182662461698
1758273992040517600,0.351517578125,-0.5398024579942227,-2.4206720261916517,-2.518058049188554
1758273992050475500,0.3614755859375,-1.5882798297911882,-2.164873995218426,-3.0514503478795287
1758273992060432600,0.3714326171875,-2.327576101604104,-2.183754929038137,-3.6388460394367574
1758273992070390800,0.381390869140625,-2.6258137827694417,-2.0949322978556153,-3.7237425832167266
1758273992080348700,0.3913486328125,-2.662978853559494,-1.8355618152230977,-2.8797008655548093
1758273992090306800,0.401306884765625,-1.6515005483359098,-2.0139371454283594,-2.0590166426047682
1758273992100264700,0.4112646484375,-0.3999649482369423,-2.404638006235659,-1.9933786337852477
1758273992110221600,0.4212216796875,0.9690741647362708,-2.940108572505414,-2.103262903827429
1758273992120179700,0.4311796875,2.0405261694073675,-3.0767513778746127,-2.103762670043111
1758273992130137600,0.4411376953125,2.592018480673432,-2.872888555191457,-1.947105542910099
1758273992140095700,0.451095703125,2.765306424611807,-2.215917076974362,-2.3716467139989135
1758273992150052900,0.461052978515625,2.578063020557165,-1.6468696736648678,-2.779992537090182
1758273992160010500,0.471010498046875,2.769766911152005,-1.80298977131173,-1.964207484358549
1758273992169968600,0.48096875,3.2792537258595225,-1.7846832763791083,-0.6760936734467744
1758273992179926500,0.490926513671875,3.660750704991817,-1.5615991820059716,0.35225276446938514
1758273992189884700,0.500884765625,3.340333925244212,-1.6931961021624504,1.5381401266157626
1758273992199841800,0.510841796875,3.069569941937923,-1.0012063559256494,2.672656197965145
1758273992209799700,0.520799560546875,3.2327702071040867,0.11918576687276362,3.9896518199682234
1758273992219757800,0.5307578125,3.297845613604784,0.8701311215557157,5.381310176506638
1758273992229715700,0.5407158203125,3.002195026323199,1.01066041296944,5.892405595454573
1758273992239673600,0.550673583984375,2.2760171792805193,1.2907422597192226,5.502828185719252
1758273992249630700,0.560630615234375,1.665233890134096,1.5582890345446765,4.761778348237276
1758273992259588600,0.570588623046875,1.1464525928586722,1.7870733863860369,4.135437424474954
1758273992269546800,0.580546630859375,0.8121686158001422,2.0870172869473693,4.252692515546083
1758273992279505000,0.5905048828125,0.23086042746305466,2.577944070352614,4.3823084910184145
1758273992289461500,0.60046142578125,-0.6691869627982377,2.86486306964606,4.427591401812434
1758273992299419600,0.610419677734375,-1.4495622639745473,3.1304657246664163,4.515800431141257
1758273992309377800,0.620377685546875,-1.7810744382321833,3.231296335159242,4.575890450444818
1758273992319335700,0.630335693359375,-1.8551117343455552,3.2665941507726908,4.069507446971535
1758273992329293800,0.6402939453125,-1.8609657210707664,2.966838758520782,3.4332992091894146
1758273992339250700,0.650250732421875,-1.8539903291001916,2.63022779981941,2.753322556829452
1758273992349208600,0.66020849609375,-1.7520692930221557,2.1248189020752903,1.874316201031208
1758273992359166700,0.670166748046875,-1.79202837844491,1.6332754480764269,0.997604678171873
1758273992369124600,0.68012451171875,-2.12386846948266,1.0929787768244743,0.22117548427283762
1758273992379082800,0.690082763671875,-2.071343332475424,0.7554112480506301,-0.017159224593639374
1758273992389039900,0.700039794921875,-1.8277087636351583,0.7649673041641711,0.3773673319816589
1758273992398997800,0.709997802734375,-1.8404209456920622,1.1884086973175405,1.1806003616541623
1758273992408955600,0.71995556640625,-1.9004311777576803,1.4216694639205931,1.6779080782681703
1758273992418914300,0.729914306640625,-2.1299907517552374,1.5328957962214946,1.7843366548985242
1758273992428871200,0.73987109375,-2.502349023403227,1.8991230177685616,2.0268688154548404
1758273992438829000,0.7498291015625,-4.549017056566477,2.03905755815953,2.454073652794957
1758273992448787200,0.759787109375,-6.139385383069515,1.9796362318977712,1.352037709289789
1758273992458745300,0.769745361328125,-4.840483928422629,1.1944357025220989,-0.23152678241729735
1758273992468703200,0.779703125,-2.446306525924802,0.9230655700162053,-1.0213199002802371
1758273992478660400,0.789660400390625,-0.5918303130038082,0.8395514205053448,-1.300036303895712
1758273992488618500,0.799618408203125,-0.3018295681774616,1.0546411551237105,-1.3755454261273146
1758273992498576100,0.809576171875,-0.8862944669798016,1.3546987451925874,-1.1699340062111616
1758273992508534300,0.8195341796875,-1.5969659712024031,1.614800464709103,-0.008932078996300696
1758273992518492200,0.8294921875,-1.0556590999945998,1.4210156761869788,0.6786988875091076
1758273992528449300,0.83944921875,-0.5134207931555808,1.0120143117964266,0.6012661037385464
1758273992538407400,0.849407470703125,0.5952741698473691,-1.900513887605071,0.7101730531811714
1758273992548365300,0.859365234375,2.9355238750636574,-5.827755136367679,-2.873661585390568
1758273992558323500,0.869323486328125,4.860623922392725,-1.3813842152833937,-4.6078842560768125
1758273992568281000,0.879281005859375,3.219662303727865,0.4592594332486391,1.5916525210946797
1758273992578238200,0.88923828125,-1.9195324763298034,0.12980360699892043,2.3733009109467265
1758273992588196400,0.8991962890625,-1.7439144820086656,-1.2339596113979816,-0.9357914883375167
1758273992598154200,0.909154296875,0.9972715006947517,-0.665258975699544,-0.36597967652678487
1758273992608112400,0.9191123046875,-3.6611376584827897,-0.8562877435117959,0.24615385818481444
1758273992618069200,0.9290693359375,-2.751623936218023,-0.7134650804638862,1.6377917564570903
1758273992628027100,0.939027099609375,0.3694470603764057,0.4136012594014406,2.736745516037941
1758273992637985300,0.9489853515625,1.7091174555242061,0.72121642524302,3.217234199798107
1758273992647943200,0.958943115234375,-0.0057090252965688705,0.4529454277962446,3.1135704117059704
1758273992657901300,0.9689013671875,-1.1157418127745389,1.2100444828033448,0.5528489865720272
1758273992667858400,0.9788583984375,-0.9078770609736442,1.7951117314130067,-1.7734183705210684
1758273992677816000,0.988816162109375,0.4334668203443289,1.8856775530010461,-2.2931807877883315
1758273992687774200,0.998774169921875,0.12055004096329211,2.3263684793800112,-2.6237787698104977
1758273992697732000,1.008732177734375,-1.224346564400196,2.1109896986871957,-2.4354265277311202
1758273992707689200,1.018689208984375,-2.50436766974926,1.9604250432103871,-1.825973610405624
1758273992717647400,1.0286474609375,-1.5233412014126777,3.179676914820075,-1.4743009839117527
1758273992727605200,1.038605224609375,-1.0873416477203368,3.6198043620973825,-1.4116273778557777
1758273992737563400,1.0485634765625,-0.6795259859830141,3.8598376915752883,-1.3312499189354479
1758273992747521300,1.058521240234375,-2.2361995481550694,5.2553930555522435,-1.0462019742108881
1758273992757478100,1.06847802734375,1.4682996976703404,6.86057375126183,-0.5506912240162491
1758273992767436300,1.078436279296875,4.915567810979486,3.333908860632777,-0.7240291445761918
1758273992777394200,1.088394287109375,3.658516662329435,1.620718456581235,-0.7452529882602393
1758273992787352300,1.098352294921875,-0.2480857030302286,1.0322142192602157,-0.916755802347511
1758273992797310500,1.108310546875,-1.5821300749897955,1.022767176479101,-1.0675690257579087
1758273992807267000,1.11826708984375,-1.1084072321027516,1.7153776849627493,-1.345530373222381
1758273992817225200,1.12822509765625,1.3373942669093608,2.0720430051773784,-1.1367256371576338
1758273992827183400,1.138183349609375,0.12641454908251762,0.5952654020190239,0.38694625751413403
1758273992837141200,1.148141357421875,-0.5784393549025059,-7.039179090830683,1.6183264468781648
1758273992847098400,1.158098388671875,-1.8843670549243687,-26.5159797855854,-2.7907065310671926
1758273992857056300,1.16805615234375,-2.6669202846616504,-40.56478570954799,-4.624632561782002
1758273992867014100,1.17801416015625,0.5841922193408012,-12.697604080975054,11.66635666092038
1758273992876972300,1.18797216796875,5.706625249689817,1.9864426970422266,13.49470021532774
1758273992886930200,1.19793017578125,4.888270638731122,5.995959493431449,7.465455122888088
1758273992896887300,1.20788720703125,1.2720453041642903,5.696437617674469,0.22553572530895472
1758273992906845400,1.217845458984375,-1.3199451194584368,3.1401731719493866,-4.636664068098366
1758273992916803300,1.22780322265625,-1.9683727873444556,1.1497709236264229,-7.000642147165537
1758273992926761200,1.23776123046875,0.20694177347077056,1.596495284950733,-7.072644722580909
1758273992936719000,1.247718994140625,1.0787257950663567,3.7385920695632695,-6.503397558915615
1758273992946676200,1.25767626953125,-0.4944985044121742,2.7268045522600413,-6.034760640990734
1758273992956634400,1.26763427734375,-1.7368050883948802,1.208417758384347,-2.790479444313049
1758273992966592300,1.27759228515625,-1.0631763437569142,0.23679449368715286,0.024614801296591757
1758273992976550400,1.28755029296875,-0.288027837318182,-0.661827247685194,1.4039368233531713
1758273992986507300,1.29750732421875,-0.05762801310420036,-1.2767238173693418,1.9176459319308399
1758273992996465200,1.307465087890625,0.48339434207379817,-0.7231155368626118,2.1265756826147437
1758273993006423300,1.31742333984375,0.6900812822669744,1.2865794409513474,2.445369537335634
1758273993016381200,1.327381103515625,1.1514403181433677,3.5294817016154525,2.2756918928489087
1758273993026339300,1.33733935546875,0.009259411254525184,1.3834709584295748,0.9341305693879723
1758273993036296400,1.34729638671875,0.31061902383267875,-1.4028589649885892,0.3049111675798893
1758273993046254000,1.357254150390625,-1.9730583148121832,-1.5753081200152634,-1.4035399329900742
1758273993056212200,1.367212158203125,-1.9114467850297687,-1.1407926674008368,-1.4412287353932858
1758273993066170000,1.377170166015625,-0.36983689994420854,-1.1271049183100461,-0.16311521723121403
1758273993076127200,1.387127197265625,-0.5042313418647274,-0.5207014516830444,1.1111232130631803
1758273993086085400,1.39708544921875,-0.06813241945113986,-0.3417185109734535,0.9868032981723547
1758273993096043300,1.407043212890625,0.5081050414929166,0.3894108209967613,0.1887231212183833
1758273993106001400,1.41700146484375,0.4708955105066299,0.7911457015156745,-0.7401762695178389
1758273993115959000,1.426958984375,0.292041128080152,0.7483505158841609,-1.0431126298934221
1758273993125916200,1.436916259765625,0.2513133963724598,0.3681207802087068,-0.8442001230940223
1758273993135874300,1.446874267578125,0.1281096260299906,-0.03522854976952076,-0.521103018221259
1758273993145832200,1.456832275390625,0.019382709329389035,-0.2489607322990894,-0.10774842705726623
1758273993155790300,1.466790283203125,-0.011623254309035836,-0.3012462153315544,0.27293898925781246
1758273993165748500,1.47674853515625,-0.06563654751479625,-0.4145861787855625,0.29800211884379385
1758273993175705000,1.486705078125,-0.19704528815541414,-0.26122575511038304,0.2630716752380132
1758273993185663200,1.496663330078125,-0.14035601720605045,0.006209376034140586,0.3303548209160566
1758273993195621400,1.506621337890625,-0.1884416373958811,0.054657472860813135,0.24124241300672292
1758273993205579300,1.516579345703125,-0.507300081785582,-0.016761749708652494,0.21591800213605164
1758273993215536400,1.526536376953125,-0.794514885687828,-0.09923720382153987,0.35315292817950245
1758273993225494300,1.536494384765625,-0.9051327307015656,-0.382790526074171,0.5939513968110084
1758273993235452200,1.5464521484375,-0.893128989174962,-0.7831143707513809,1.2760524939790368
1758273993245410300,1.556410400390625,-0.853736305463314,-1.0043833785265683,1.2874307970836758
1758273993255368200,1.5663681640625,-0.9332119932383298,-0.8538906192421912,1.6514672305881977
1758273993265325300,1.5763251953125,-0.668313687095046,-0.9305606019467115,1.7901175763875246
1758273993275283500,1.586283447265625,-0.5138590384423732,-0.9247925399392842,1.6129051524817943
1758273993285241300,1.596241455078125,-0.588676086756587,-0.5268354243934155,1.4511901574373245
1758273993295199200,1.60619921875,-0.695389910069108,-0.2830038716763258,0.9161755182415247
1758273993305157000,1.6161572265625,-0.9202133954554795,-0.06488543688654899,0.643278760690242
1758273993315114200,1.6261142578125,-1.2027601710140705,-0.03374620225727558,0.3904457170024514
1758273993325072400,1.636072265625,-1.1857202619511633,0.04225567192733288,0.5260653168037533
1758273993335030300,1.6460302734375,-0.7043038688868284,0.1384416714847088,1.1926618247173726
1758273993344988400,1.655988525390625,-0.4571107673147693,-0.03806523450016975,1.7785118942677973
1758273993354945300,1.6659453125,-0.6002326690375804,-0.20381167701780795,2.1733571614034473
1758273993364903200,1.675903076171875,-0.48661103909797965,-0.46343467310667036,1.6940888132184744
1758273993374861300,1.685861328125,-0.23529230896327644,-0.3659399290382862,1.3634392471395431
1758273993384819200,1.695819091796875,-0.07773268003258854,-0.16997136673629282,1.0685954461961984
1758273993394777300,1.70577734375,-0.45544776600599285,-0.20430852062404153,0.9097846481606364
1758273993404734500,1.715734375,-0.8383026625532657,-0.2067068139374256,0.9356300141654909
1758273993414692000,1.725692138671875,-0.9102297615796328,-0.3125000152736902,0.6033074003078043
1758273993424649500,1.7356494140625,-0.7136380258779972,-0.4494686915963888,-0.044023558382689953
1758273993434607600,1.745607666015625,-0.7675321131508797,-0.008228899163007735,-0.256544611556828
1758273993444564500,1.755564453125,-0.686700334591791,0.2278168219834566,-0.504453350584954
1758273993454522600,1.765522705078125,-0.47618711410872633,0.4858873279333114,-0.28923794376030565
1758273993464480500,1.77548046875,-0.5408236542681232,0.6535989330440759,0.06943067910075187
1758273993474438400,1.7854384765625,-0.2784159958967939,0.4927274030864238,-0.3198648449532687
1758273993484396500,1.795396484375,-0.20685820510685443,0.307006094032526,-0.433081474288553
1758273993494353400,1.805353515625,-0.5180038831621409,0.5039882172912359,-0.12193272749334573
1758273993504311600,1.8153115234375,-0.761466529501602,0.5001771345704794,-0.15417802366837857
1758273993514269700,1.825269775390625,-0.9734650931715965,0.6652350103020668,0.1843869917102158
1758273993524227600,1.8352275390625,-0.8934650161962956,0.4948474639803171,0.06013853462040424
1758273993534185500,1.845185546875,-0.6359704104382544,0.2551373751074076,0.04489566504210234
1758273993544142600,1.855142578125,-0.5565262503126636,0.10746142680943012,0.3912253230728209
1758273993554100500,1.8651005859375,-0.3992828477242961,-0.186616212067008,0.6131358436219394
1758273993564058600,1.87505859375,-0.2938695490837097,-0.46078678894639014,0.781499044509232
1758273993574016500,1.8850166015625,-0.23821901006493715,-0.710671650353074,0.8447450436256826
1758273993583973400,1.894973388671875,-0.37583237749934195,-0.9217547796785831,0.8498777303390205
1758273993593931500,1.904931640625,-0.8753706296443938,-1.142467322614789,0.7813834553055464
1758273993603889400,1.914889404296875,-1.3915075498908758,-1.2283330036878586,0.9769738319449126
1758273993613847600,1.92484765625,-1.6616466792970894,-1.395177178314328,1.263000704704225
1758273993623805400,1.934805419921875,-1.6942565710008144,-1.6888555887401102,1.5383962933339177
1758273993633762600,1.944762451171875,-1.65250709502995,-1.8283786257207393,1.8651713560670613
1758273993643720700,1.954720703125,-1.541585883155465,-1.995187144511938,1.8835140913568436
1758273993653678300,1.96467822265625,-1.393204416936636,-3.1513071449041363,0.6915718130856752
1758273993663636500,1.974636474609375,-1.7506880677968262,-3.495832529991865,0.1411867324091494
1758273993673594400,1.984594482421875,-2.3274117048226297,-3.5512539729624986,-0.5379986234426498
1758273993683551500,1.994551513671875,-2.85511879748404,-3.7322260416626927,-1.3473730784796178
1758273993693509600,2.004509521484375,-3.4722874037533997,-3.482095096540451,-1.4792645976684986
1758273993703467500,2.014467529296875,-3.445174940422177,-3.4975001709431406,-1.5186037976272404
1758273993713425400,2.02442529296875,-3.110443804118037,-3.391035353955626,-0.7240228609658778
1758273993723382500,2.034382568359375,-2.9306898790359495,-3.3978403577953573,0.4647838957585394
1758273993733340400,2.04434033203125,-2.8815935474336145,-3.631647944626212,1.1039416309960186
1758273993743298600,2.054298583984375,-3.1892940534710883,-3.9636061090856787,1.2155134157337248
1758273993753256400,2.06425634765625,-3.705427466586232,-4.067399661037325,1.1193858683653175
1758273993763214600,2.074214599609375,-3.9809623175561426,-3.7039696689933534,0.9402407228313386
1758273993773171500,2.08417138671875,-3.7040146771788596,-3.022549832087755,0.7968783999487757
1758273993783129300,2.09412939453125,-2.664284090939164,-2.2373200766175985,0.7211126726076006
1758273993793087500,2.10408740234375,-1.4096879342257975,-1.229331367075443,0.8165170202679931
1758273993803045600,2.114045654296875,-0.28365217951722443,-0.45211599123477936,0.896944748070836
1758273993813003500,2.12400341796875,0.2733001507204026,-0.5423235009044408,0.2948734654292464
1758273993822960600,2.133960693359375,0.07819025107435881,-1.0333055216282605,-0.5959269346676767
1758273993832918500,2.14391845703125,-0.4079669798415154,-1.5997504873543977,-1.2170911864444613
1758273993842876400,2.15387646484375,-0.816517312528938,-2.123881328964233,-1.4926244299791753
1758273993852834600,2.16383447265625,-0.8070074336446821,-2.1844687763959167,-1.630434963953495
1758273993862791400,2.17379150390625,-0.7794144933201372,-1.7707722399264574,-1.3768161767154932
1758273993872749600,2.18374951171875,-0.7538882762670517,-1.5965777025371788,-1.0611698262400924
1758273993882707700,2.193707763671875,-0.774850400274992,-1.4155851755708455,-1.0259249098576604
1758273993892665600,2.20366552734375,1.769075665141642,-1.7411708823889493,-2.2532824926421045
1758273993902623500,2.21362353515625,7.760597760647535,-2.8522704223155975,-3.8898888387069106
1758273993912580600,2.22358056640625,4.153964722551406,-1.2741677031457423,-1.7909379528596996
1758273993922538500,2.23353857421875,1.3339055480107664,-0.7988643130689859,-0.8112447789534926
1758273993932496600,2.24349658203125,0.6186173437729477,-2.031168558475375,-2.0707336761444806
1758273993942454500,2.25345458984375,1.4095853506341576,-2.27420749951005,-1.5785601075485347
1758273993952412700,2.26341259765625,1.0643982867673039,-1.6804712067544458,-0.5209665323600172
1758273993962369500,2.27336962890625,1.0550140800893306,-0.9290092808514833,0.22056553568094966
1758273993972327400,2.283327392578125,1.6321844379693269,-0.5756278046131134,0.10522709188610314
1758273993982285600,2.29328564453125,1.7435931410998105,-0.3849532570660114,-0.6465867161944509
1758273993992243500,2.303243408203125,1.0691659395605324,-0.3304834157317877,-1.5253013955697416
1758273994002200600,2.31320068359375,0.9042354896008968,-0.26176117716133596,-1.6014552454456685
1758273994012158700,2.32315869140625,1.6744161444991825,-0.2900444378376007,-1.2057201898634433
1758273994022116400,2.333116455078125,2.4871429787039756,-0.42636137225329873,-0.834269388449192
1758273994032074500,2.343074462890625,2.8792519527435303,-0.6789841341912746,0.4316512953549623
1758273994042032400,2.353032470703125,2.9675457377463577,-1.2584709523200988,1.071238946442306
1758273994051989500,2.362989501953125,3.655639061066508,-1.1387456717431546,1.7243647090166807
1758273994061947600,2.37294775390625,4.1940427581787105,-0.8929378505170344,2.4953137179389593
1758273994071905500,2.382905517578125,4.000535033032298,-0.7700047138094902,2.001628575736284
1758273994081863400,2.392863525390625,3.9729567057549953,-0.7193173136234283,2.2955790811017156
1758273994091821300,2.4028212890625,3.910369608938694,-0.7791834610432385,2.613565418832004
1758273994101778400,2.4127783203125,3.925159181791544,-0.7905868985891342,2.2163123599022625
1758273994111736600,2.422736572265625,4.503899565467238,-0.6657569883495569,1.5772344119027255
1758273994121694500,2.432694580078125,4.593779158356785,-0.22011399252116678,1.5232704742640255
1758273994131652600,2.442652587890625,3.304420900341868,0.19887129800617695,1.055824811950326
1758273994141610500,2.452610595703125,3.1980531139880415,1.7663216902583836,0.24168957225233315
1758273994151567400,2.4625673828125,3.6192303616017103,3.56786842315495,0.17507658092081546
1758273994161525500,2.472525390625,3.6687288442641495,4.203659896829724,-0.1691881074041128
1758273994171483400,2.4824833984375,3.4485423710286613,4.2878152668535705,-0.08670359320193528
1758273994181441500,2.492441650390625,3.4507524482935663,4.125445607292652,0.10681903725266456
1758273994191398700,2.502398681640625,3.5624680254161354,3.6411341503739356,0.2325876896470785
1758273994201356300,2.512356201171875,3.5079373938053844,3.155950586795807,0.22034283284097908
1758273994211314400,2.522314453125,3.317207901200652,2.743895387792587,0.11556962220221757
1758273994221272600,2.5322724609375,2.9638498058378695,2.5495985580950973,0.13479367037117482
1758273994231230500,2.54223046875,2.689905438929796,2.4621096597343683,0.1906093733564019
1758273994241187600,2.5521875,2.218675581902265,2.6104870342999695,0.3919032223343849
1758273994251145700,2.562145751953125,1.9827678079217672,2.53948516035974,0.42992140282243485
1758273994261103600,2.572103515625,1.7122464011996983,2.214301020079851,0.47158436955362554
1758273994271061500,2.5820615234375,1.6939707397967576,1.814734715771675,0.26052666693031784
1758273994281019400,2.592019287109375,1.1116098275363444,2.0634663154900075,0.24666589936017988
1758273994290976500,2.6019765625,0.5068260710656642,2.3801591062784193,0.19780016164332628
1758273994300934700,2.6119345703125,-0.07040624613463878,2.466641457945108,0.17028408594727515
1758273994310892500,2.621892578125,-0.6383814901679754,2.431018355900049,0.16209727236032484
1758273994320850700,2.6318505859375,-1.2080232061088085,2.402760229665041,0.25815759971141816
1758273994330808300,2.641808349609375,-1.9036796581596136,2.329800791916251,0.28444238004684447
1758273994340765400,2.651765380859375,-2.891261539489031,2.140698608252406,0.13734510841965675
1758273994350723600,2.6617236328125,-4.605210652953386,1.7201105587035417,-0.1533510713249445
1758273994360681500,2.671681396484375,-6.946801251384615,1.0634195048630237,-0.1723427720427513
1758273994370639600,2.6816396484375,-9.05743965241611,-0.3506289626598358,-0.18637801939696072
1758273994380596500,2.691596435546875,-8.904936722353101,-2.9118232660025356,-0.05794453170746564
1758273994390554400,2.701554443359375,-3.9729467688828706,-5.156856693476438,-0.30299101317226884
1758273994400512500,2.711512451171875,3.9619916596263645,-4.819363691243529,-0.4742994737312197
1758273994410470400,2.721470458984375,5.823340827056765,-1.6101263354182243,-0.11496931822150945
1758273994420428800,2.7314287109375,5.476685444203019,1.4860451977193354,-0.594957358983159
1758273994430385700,2.7413857421875,4.626077499893308,3.309074863627553,-3.4774484397783874
1758273994440343600,2.751343505859375,-0.3301981690496206,3.200868755930662,-7.091369296795129
1758273994450301700,2.7613017578125,-4.060160357433557,0.8846680348217487,-7.6875407077431674
1758273994460259600,2.771259521484375,-1.0612187799483537,-1.3231816171616315,-4.620280796313286
1758273994470217700,2.7812177734375,2.881040005204081,-2.4099206228137016,-0.9190335380211472
1758273994480174600,2.791174560546875,4.160808597096801,-3.0492782645374534,0.805137986510992
1758273994490132500,2.801132568359375,3.6802971169829366,-3.6157886967152355,0.5610971749573945
1758273994500090600,2.811090576171875,2.2069132479161024,-4.243498570743203,-0.388193554161489
1758273994510048500,2.821048583984375,1.8320576064944267,-4.413476367220282,-0.09057371263355016
1758273994520005600,2.831005615234375,2.022104962053895,-3.8444203422129153,0.6621440585494041
1758273994529963800,2.8409638671875,1.5320757120102644,-2.803053094682097,0.8390385025471448
1758273994539921700,2.850921630859375,0.6802811882644891,-1.7588620219022035,0.34557898579388857
1758273994549879600,2.860879638671875,0.18642974958419797,-0.9598539164483547,-0.11696896760612725
1758273994559837700,2.870837646484375,0.29110885219871996,-0.21573358547985552,-0.14211597608327864
1758273994569794600,2.880794677734375,0.7752870381265878,0.35742344510555263,-0.11526596308052539
1758273994579752700,2.890752685546875,1.546848918250203,0.7917407447993755,0.4001467345446348
1758273994589710600,2.900710693359375,2.125877763478458,0.6719008979320525,0.9108750737458466
1758273994599668700,2.910668701171875,2.313347085243463,0.07901800713539123,1.0972563080132007
1758273994609626600,2.920626708984375,2.102702347335219,-0.5689987418621778,1.0303253367736935
1758273994619583500,2.93058349609375,1.762128330221772,-1.2041881579905747,1.0084367455706
1758273994629541600,2.940541748046875,1.4644234407588839,-1.4860083728402853,1.23151923250854
1758273994639499800,2.950499755859375,1.144943941861391,-1.5094704969704151,1.2305217459037898
1758273994649457700,2.960457763671875,0.5646221342131496,-1.2773790664076805,1.0653335217908024
1758273994659415800,2.970415771484375,0.020625731660425663,-0.9421715447634458,0.7734957707956432
1758273994669372700,2.98037255859375,-0.5699716785475611,-0.4894453126758337,0.3787991183504462
1758273994679330600,2.99033056640625,-0.5956155306309461,0.2761059288561344,0.4101122482419014
1758273994689288700,3.000288818359375,0.033980887795984745,0.8171382209062575,0.9942252648666501
1758273994699246600,3.01024658203125,0.2452273909896612,0.709397977155447,1.261254007167369
1758273994709203700,3.02020361328125,0.5298185318574309,0.5062070623844862,1.4333105096146463
1758273994719161900,3.030161865234375,0.5508524059273302,0.4446317729592323,1.7489258804298937
1758273994729119500,3.040119384765625,0.4408594148136675,0.5947749881535768,1.6900301854774356
1758273994739077600,3.05007763671875,0.31671514875069257,0.5530500621020794,1.951963504335284
1758273994749035500,3.060035400390625,0.0301190978012979,0.1861626230806112,2.476994509655237
1758273994758992600,3.06999267578125,-0.7141184298060834,0.051659460088610644,2.397578735373914
1758273994768950800,3.07995068359375,-0.9241676860392093,-0.16170155104100703,2.2789020870670673
1758273994778908700,3.08990869140625,-0.8477402068536728,0.00815115775167942,2.2008428419612347
1758273994788866800,3.09986669921875,-0.8025099760949611,0.5986030220091343,1.7222100152008235
1758273994798824400,3.109824462890625,-0.5401064093768596,1.3044535358160734,1.110223780005425
1758273994808781600,3.119781494140625,-0.587324087625742,1.9515297890931367,0.8491676823735237
1758273994818739700,3.12973974609375,-0.9818868845582007,1.880645988574624,0.4483332578256726
1758273994828697600,3.139697509765625,-1.2350047365367411,1.6266987000346183,-0.3329227717079222
1758273994838655700,3.14965576171875,-1.7260604070186614,1.8799013076871633,-0.5442414633549749
1758273994848613600,3.159613525390625,-1.9099685291707515,1.801448533219099,-0.5387174392364918
1758273994858570500,3.169570556640625,-1.9045792373478412,1.3766864128559826,-0.3026381080813706
1758273994868528600,3.179528564453125,-2.0523545543670654,0.8241922310709953,-0.09679054132178425
1758273994878486500,3.189486572265625,-1.630567065900564,0.5481447544038296,0.28017507799118757
1758273994888444700,3.199444580078125,-1.4611644389629364,0.39677170515358445,0.9739498079486191
1758273994898402800,3.20940283203125,-1.6770938392758368,0.3923778541088104,1.4643348856925964
1758273994908359400,3.219359375,-1.7498457717537879,0.665254884046316,1.5307313116639851
1758273994918317600,3.229317626953125,-2.004666920518875,0.6713450176149607,1.774426378519833
1758273994928275700,3.239275634765625,-2.143303822314739,0.11561316908299922,2.0327584580153224
1758273994938233600,3.249233642578125,-2.2950082954764364,-0.6978250282615422,2.3725085915252566
1758273994948191700,3.259191650390625,-2.145582288640737,-1.3595569988787173,3.107284463304281
1758273994958148600,3.269148681640625,-2.1697850020051,-1.8740607649654148,3.4315620101332662
1758273994968106800,3.279106689453125,-2.4038778355181214,-2.053234844332933,3.0277675667360424
1758273994978064600,3.289064697265625,-2.4646534989982842,-1.9892390497624872,2.3385282882511613
1758273994988022500,3.2990224609375,-2.294509698304534,-1.8888509223401546,1.4223118534773587
1758273994997979600,3.308979736328125,-2.287773083525896,-1.7009908476918936,0.29576705326810476
1758273995007937800,3.318937744140625,-2.157218950420618,-1.4842635749995707,-1.0944912272140384
1758273995017895700,3.328895751953125,-2.070897342273593,-1.6406816326797007,-2.4937027756109833
1758273995027853800,3.338853759765625,-2.1561375849246978,-2.069915345498919,-3.381821243147552
1758273995037811700,3.348811767578125,-1.9059902731895446,-3.00760126928091,-3.8001176746279
1758273995047768600,3.3587685546875,-1.2004027942329645,-4.442595494198799,-3.2968215312540528
1758273995057726700,3.368726806640625,-1.1685405060261487,-5.765056980392337,-1.5391779452309011
1758273995067684600,3.3786845703125,-0.7046615962833166,-6.395849622866511,0.11989099253267049
1758273995077642800,3.388642822265625,-0.8063578836947679,-6.2127259290903805,0.914755714571476
1758273995087600600,3.3986005859375,-1.702080981016159,-4.933363579910993,0.02909808419048786
1758273995097557500,3.4085576171875,-3.200548437935114,-3.6835569955617187,-0.962766296763718
1758273995107515600,3.418515625,-4.118796670797467,-3.0065134740442034,-1.2971430666722357
1758273995117473500,3.4284736328125,-3.733012808126211,-2.5084903026372194,-1.2996110642209648
1758273995127431700,3.438431640625,-2.9983634853363035,-2.0305425355315205,-1.1703631914086638
1758273995137389600,3.4483896484375,-2.3353683629155157,-1.7565794639229773,-1.1128444838978349
1758273995147346700,3.4583466796875,-1.190177752816677,-1.5323545289516447,-0.49915495191588993
1758273995157304600,3.4683046875,-0.8700820217169821,-1.3741782294273375,-0.390232074251771
1758273995167262500,3.478262451171875,-1.249731181025505,-1.7330764232605695,-0.7976976073771714
1758273995177220600,3.488220703125,-0.7885856417693198,-2.4086639007508754,-1.058712057824433
1758273995187178500,3.498178466796875,0.2204056689441204,-2.7113930481165647,-0.9872969269081949
1758273995197135600,3.508135498046875,0.32348610419034957,-2.824732427048683,-0.9659656773269176
1758273995207093800,3.51809375,0.6322080622300505,-3.141233494657278,-1.3466665376454592
1758273995217051600,3.5280517578125,0.8015615893289446,-3.369536054331064,-1.4677508316159247
1758273995227009500,3.538009521484375,1.1894836330726741,-3.08093363199532,-1.1206041581138968
1758273995236966700,3.547966552734375,1.9035230062931774,-2.4193740953356024,-0.9124202573612332
1758273995246924500,3.557924560546875,3.171597068738937,-1.5541303074300288,-0.9162935916632413
1758273995256882700,3.567882568359375,3.9261031846433876,-0.8731687356859446,-1.21906131747365
1758273995266840600,3.577840576171875,4.036975881201029,-0.45533787589073177,-0.8599529880210757
1758273995276798700,3.587798828125,3.8238656299620866,-0.9684013800412415,0.8488952951729297
1758273995286755600,3.597755615234375,2.1575462826788425,-1.4900637857109307,-0.2967237694710493
1758273995296713500,3.60771337890625,1.3844950407803058,-1.1645821237891911,-2.267048859927058
1758273995306671600,3.617671630859375,1.7301216651082039,-0.23726912546157836,-2.4337296606853602
1758273995316629800,3.627629638671875,1.925482324644923,0.13904022189974785,-2.5543285092264414
1758273995326587600,3.637587646484375,2.0917600975602864,0.16973521989285945,-2.5913606012865897
1758273995336544800,3.647544677734375,2.634161924397945,1.0401467658251524,-2.2929008018031714
1758273995346502700,3.657502685546875,2.937052399805188,1.5943594419658182,-0.7162269463926554
1758273995356460500,3.66746044921875,3.578662788891792,0.8392518530368804,1.2789587368145585
1758273995366418700,3.677418701171875,4.332346482497454,-0.32821313271224495,1.61360307161808
1758273995376376600,3.68737646484375,4.15247214590609,-0.24738310771882532,2.9399568890750407
1758273995386333700,3.697333740234375,4.261604720798134,-0.6905190891623496,2.207579602870345
1758273995396291800,3.707291748046875,4.3125604165315625,-0.7266998250901698,2.2938383749142286
1758273995406249500,3.71724951171875,3.5048762526690957,-1.1922843697071075,3.24049437161535
1758273995416207600,3.72720751953125,3.7280063781410453,-0.8871633587688207,3.4526103511199353
1758273995426166500,3.73716650390625,4.326801707851886,0.030125089150667188,2.7990838987901805
1758273995436123400,3.747123291015625,4.076968284371495,1.2423293803364037,2.042996358913183
1758273995446081300,3.757081298828125,3.8902953736811874,2.569963300731778,1.7612874954834579
1758273995456039400,3.767039306640625,3.708217974087596,3.6264246570199727,1.3989748170316219
1758273995465997600,3.77699755859375,3.562424770796299,4.4935394994944335,0.9320686684221029
1758273995475955500,3.78695556640625,3.653777358847856,4.9313738673985,0.5678460646957159
1758273995485912300,3.796912353515625,3.9161628053873776,5.010530990743637,0.2844353657841682
1758273995495870500,3.806870361328125,4.111763703420758,4.6184880676776165,0.06164134039878845
1758273995505828400,3.816828369140625,4.006225938150286,3.925201851889491,0.07314969962388276
1758273995515786500,3.826786376953125,3.888113937988877,3.1622417958945035,0.2108963745817542
1758273995525744400,3.836744384765625,3.627815819117427,2.526369073677063,0.6705445148870348
1758273995535701500,3.846701416015625,3.004194675707817,2.194009342679381,1.4306722700655459
1758273995545659600,3.85665966796875,2.4749422533005476,2.3970219782739877,2.010349350069463
1758273995555617300,3.8666171875,1.3438339445680378,2.841999203670025,2.1485531211450697
1758273995565575400,3.876575439453125,-0.4186100274741649,2.9529414583325386,1.660966880339384
1758273995575533300,3.886533203125,-2.553012165930867,2.895550176593661,0.6653653586834669
1758273995585490400,3.896490478515625,-4.6372997356534,3.054548313894868,-0.31953882786929605
1758273995595448600,3.906448486328125,-5.980808101528883,3.116533353164792,-1.3210726621836424
1758273995605406500,3.916406494140625,-6.2810910247862335,3.1447955710530278,-2.137845264647901
1758273995615364600,3.926364501953125,-6.304325185379386,2.9907442425042388,-2.6759824197784066
1758273995625321500,3.936321533203125,-6.740615246450901,2.3827502918154,-2.6836355648800727
1758273995635279400,3.946279296875,-4.5972664159506555,1.057441599497199,-1.3806614539667963
1758273995645237500,3.956237548828125,0.9904507147639989,-1.8318547773987053,-0.16546178035736084
1758273995655195400,3.9661953125,8.488361415576934,-4.186849631804227,-0.33431963289380073
1758273995665153500,3.976153564453125,4.215073271247745,-4.167830458557606,-2.1027613840460777
1758273995675111400,3.986111328125,1.451332780778408,-3.8609488676875827,-5.51032760156393
1758273995685068300,3.996068359375,-2.289845213624835,-2.2250141372740266,-5.127758024764061
1758273995695026400,4.0060263671875,-6.982714276286959,-2.1278531552046536,-3.3820471608579155
1758273995704984300,4.015984375,1.5591612873345613,-1.0584773722857237,-1.1490575146600603
1758273995714942500,4.0259423828125,4.067439993047714,1.4817776034027337,0.41981940326392647
1758273995724899600,4.035899658203125,2.4258827465772628,1.7269249148935077,0.4230003713876009
1758273995734857200,4.045857177734375,1.6200006637006996,0.3769324476957321,-0.5620432236358524
1758273995744815400,4.0558154296875,2.1952473600417375,-1.4491232880353926,-0.7105240585759282
1758273995754773500,4.0657734375,3.2051527168601748,-3.3183050487875936,0.046616497485339636
1758273995764731400,4.0757314453125,3.639550096052885,-4.518570480376482,0.229080558308959
1758273995774688500,4.0856884765625,2.3923218377590176,-5.031456874394417,0.19086802429258823
1758273995784646400,4.095646484375,1.319843997171521,-5.336380316933989,-0.11723346376121044
1758273995794604500,4.1056044921875,0.7785626987963914,-5.223566423180699,-0.18150865979492664
1758273995804562400,4.1155625,1.1010440098583698,-4.453815976393223,0.264331027649343
1758273995814520300,4.125520263671875,1.4889277674183248,-3.2454350428879257,1.1248732137352226
1758273995824477400,4.1354775390625,1.8452666321575641,-2.1058184335291386,2.085979468332231
1758273995834435600,4.145435546875,2.478354692092538,-1.3562503585487604,2.7793036780431866
1758273995844393500,4.1553935546875,2.8854619132995603,-0.8855401414811611,2.8415348010286685
1758273995854351600,4.1653515625,2.834363301964104,-0.5768833576321601,2.5364587982758877
1758273995864309500,4.1753095703125,2.2263754887551066,-0.36398061166405676,1.6913137955471873
1758273995874266400,4.185266357421875,1.6631512386411427,-0.1593067648589611,0.9492547810226678
1758273995884224500,4.195224609375,1.5403239003956317,0.009181085321307183,0.576792172217369
1758273995894182400,4.205182373046875,1.388845929466188,0.10044950222074985,0.19273031103312968
1758273995904140500,4.215140625,1.3732748508468269,0.47025487451553344,-0.05494447310864925
1758273995914098400,4.225098388671875,1.3075874499276279,0.9404968895494937,-0.3592842705413699
1758273995924055300,4.23505517578125,0.6765227125138044,1.4828782581210136,-0.638528643553704
1758273995934013400,4.245013427734375,0.19318156193196773,1.8285978214293717,-0.7438114111497998
1758273995943971300,4.254971435546875,0.12373510074019431,1.5068758043020962,-0.758698453027755
1758273995953929500,4.264929443359375,-0.03578896013125777,1.239402679234743,-0.5721783948116004
1758273995963887400,4.274887451171875,0.02951967060342431,1.3088362809449434,0.3423739061422646
1758273995973844500,4.284844482421875,0.24601269614845514,0.493866636249423,1.6897491765789687
1758273995983802400,4.29480224609375,-0.3612333587825298,-0.1207949556350708,1.9317308636456727
1758273995993760300,4.30476025390625,-0.8509634797491132,0.42682606715559956,2.0108811188586055
1758273996003718400,4.314718505859375,-0.4267719988808036,0.5430950697988272,2.6033117358431217
1758273996013676300,4.32467626953125,-0.24217896320447324,0.7653712087899446,3.0085721601396798
1758273996023633400,4.33463330078125,-0.973723451846838,0.7482406257688998,2.8300135823220014
1758273996033591600,4.344591552734375,-1.3358769942142068,0.5208674558997154,2.164751391752064
1758273996043549400,4.354549560546875,-0.9588824410676956,0.5067155964285135,1.5793853063263
1758273996053507300,4.36450732421875,-1.4428651044234633,1.2858026113599539,1.2113440210945903
1758273996063465500,4.374465576171875,-1.6806804655909537,2.565052732336521,0.7500618498466909
1758273996073422300,4.38442236328125,-1.2176818458139895,2.4445441924273967,0.399898312741518
1758273996083380500,4.39438037109375,-0.8617242354772985,1.70731946619153,0.5229889780983329
1758273996093338400,4.40433837890625,-1.0675940871339291,1.1177455538123846,-0.8514183839097619
1758273996103296500,4.414296630859375,-1.3133096269667148,1.2306623234182597,-1.1310532175444066
1758273996113254700,4.424254638671875,-1.9661130257189272,0.6315858386784792,-0.8615193605549633
1758273996123211300,4.434211181640625,-1.7678490459561347,0.5308014054149389,-0.4649735731117427
1758273996133169400,4.44416943359375,-1.7574013016998766,0.6121551620215178,0.006673486414551734
1758273996143127600,4.45412744140625,-2.2006243769049645,0.35438802293241023,0.37137349839434025
1758273996153085400,4.46408544921875,-2.283914070010185,0.0824006353110075,1.1454457539036869
1758273996163043600,4.474043701171875,-2.1134815155029294,-0.3152501907646656,1.8991127886354922
1758273996173000400,4.48400048828125,-1.9241314945578574,-0.8738608096033335,2.493861765564978
1758273996182958300,4.493958251953125,-1.9765666151940822,-1.5213321996778248,2.8801404260158536
1758273996192916500,4.50391650390625,-1.8659470166146754,-2.0024480754256246,2.9344185441702604
1758273996202874400,4.513874267578125,-2.1030372783780096,-1.9924463213711976,2.528429513338208
1758273996212832500,4.52383251953125,-2.5944389858186243,-1.0646288806527853,1.8589792234286664
1758273996222790400,4.533790283203125,-3.242810539603233,0.07627016973197459,1.1612132318779826
1758273996232747300,4.543747314453125,-3.37715295907557,0.6926438262313604,0.304073401581496
1758273996242705400,4.553705322265625,-3.0409546728283163,0.8344032439619302,-0.2906635926492512
1758273996252663300,4.563663330078125,-2.4757179138481615,0.5916361056059598,-0.866133868613094
1758273996262621400,4.573621337890625,-2.0986375821143386,0.17198796725571155,-1.5775469849832355
1758273996272579300,4.583579345703125,-1.9394220026701687,-0.5749515127867459,-2.1814025206930934
1758273996282536400,4.593536376953125,-1.7862866199225187,-1.6437801832169294,-2.245976991934329
1758273996292494600,4.60349462890625,-1.505956935891509,-3.023303280803561,-1.810976093890518
1758273996302452200,4.6134521484375,-0.6816010386914014,-4.76624643356204,-1.0794348201185464
1758273996312410400,4.623410400390625,-0.280543619042635,-5.815645596379041,-0.37505291755944486
1758273996322368300,4.6333681640625,-0.5959668282866477,-6.336003933712839,0.042744478357583285
1758273996332325400,4.643325439453125,-1.2700865713119507,-6.29894641495049,-0.10390490337163209
1758273996342283500,4.653283447265625,-2.451061611497402,-5.309137505221367,-0.6180754919812083
1758273996352241400,4.663241455078125,-3.908595585003495,-4.100668308910727,-0.8342204347409308
1758273996362199600,4.673199462890625,-4.577142496332526,-3.255666514045,-0.608364099175483
1758273996372157400,4.683157470703125,-4.039176021593809,-2.838835771203041,-0.32003552534505725
1758273996382114300,4.6931142578125,-2.9333436084151265,-2.849744703230262,0.004076601789146661
1758273996392072400,4.703072509765625,-1.972245829385519,-2.802663218581676,0.3999868678078055
1758273996402030600,4.713030517578125,-1.4963269377589226,-2.7075387107759714,0.12330898428261279
1758273996411988500,4.722988525390625,-0.9919277285140007,-2.2748218320161104,-0.43596798951029775
1758273996421945900,4.73294580078125,-0.6798842248361557,-1.8118524383336305,-0.9669248777478933
1758273996431903000,4.742903076171875,-1.146662290086597,-2.1783336346417665,-1.9582167195111513
1758273996441860900,4.75286083984375,-1.3759458236217499,-2.453220835357904,-2.158240986944735
1758273996451819000,4.762819091796875,-0.8208034654155373,-2.5678759730637073,-2.1664745622828603
1758273996461777000,4.77277685546875,0.10271583971753716,-2.5410885039031506,-2.091216199941933
1758273996471735000,4.782735107421875,1.2886610695309937,-2.6827280946463343,-1.94978002281636
1758273996481692000,4.79269189453125,2.338198617905378,-2.5065894374519586,-1.6704954639241099
1758273996491649800,4.80264990234375,2.888290122462809,-2.3566765238821503,-1.0575593806579708
1758273996501608000,4.81260791015625,2.9444623838007447,-2.2802023560106752,-0.3679658819079399
1758273996511565800,4.82256591796875,2.9004677592515944,-1.7233838812857865,0.13444967923909426
1758273996521524000,4.83252392578125,2.750017085543275,-1.2963099768489599,0.0032756606698036194
1758273996531480800,4.842480712890625,2.247306340841949,-1.220737726253271,-0.5243374700978398
1758273996541438700,4.852438720703125,1.7080720381245016,-1.0869763215392827,-1.067253383937478
1758273996551396900,4.86239697265625,1.3361010122284291,-1.102998066535592,-0.6685510029822588
1758273996561354800,4.872354736328125,1.3242556761339306,-1.045212817043066,-0.18095511756539343
1758273996571313000,4.88231298828125,1.8231302036732435,-1.0573854853957891,-0.3004270079031586
1758273996581270000,4.89227001953125,2.3228549183011054,-1.0396505067408084,-0.4781108487129211
1758273996591228000,4.902227783203125,2.4901661259174346,-1.252543900358677,-0.5909843636989593
1758273996601185800,4.912185791015625,2.999989040711522,-1.1337971094250678,-0.13638035504072904
1758273996611144000,4.92214404296875,3.6678561530828473,-1.0957447344064712,0.5621341167896986
1758273996621101800,4.932101806640625,3.991012586927414,-0.9397294123083353,1.238337680351734
1758273996631060000,4.94206005859375,4.036280300152302,0.21526187631487845,1.6516653835088013
1758273996641017000,4.95201708984375,4.052553974083065,0.4742763851165771,1.7729726725801824
1758273996650975000,4.96197509765625,4.1400826199322935,-0.29491759683191776,2.1003844257816673
1758273996660932900,4.971932861328125,4.484516819605231,0.19772446605861185,1.6441782426238059
1758273996670890800,4.981890869140625,4.784061491715907,0.6413976231187581,1.669786731132865
1758273996680849000,4.991848876953125,5.639086667945981,-0.18211013281941413,1.2506421583905816
1758273996690806000,5.001805908203125,5.297291000083089,0.21791151404082773,1.0659195049852133
1758273996700764000,5.011763916015625,4.3498704487502575,0.8204436921924352,1.5784236216872929
1758273996710722000,5.02172216796875,4.01022991309464,2.1925918770968913,1.6864622638627886
1758273996720680000,5.031679931640625,3.9711505331158636,2.44905144071877,1.5589131577923894
1758273996730637800,5.041637939453125,3.4265801300674674,2.969607930973172,1.4552818106651306
1758273996740595000,5.051594970703125,2.8439450770407912,3.879530818560719,0.8581704885184764
1758273996750552800,5.061552734375,2.7893501480221747,4.097513059750199,0.3045075552150607
1758273996760511000,5.071510986328125,2.8680034134984016,4.018739382764696,0.2192033074170351
1758273996770468900,5.08146875,2.930444964364171,3.8955560706883667,0.33775749838799235
1758273996780427000,5.091427001953125,3.158372260984778,3.63010305327177,0.07501286314725876
1758273996790385000,5.101385009765625,3.1494273225069045,3.1695208469867704,-0.10003010776489972
1758273996800341800,5.111341796875,2.9784441483795643,2.838289243236184,-0.103584293115139
1758273996810300000,5.1212998046875,2.663250656238198,2.513526543238759,0.10848755498677491
1758273996820257800,5.1312578125,2.353799507141113,2.222680141368508,0.5840326448649168
1758273996830216000,5.1412158203125,1.8713836547106504,2.143416635039449,1.151652207328379
1758273996840174000,5.151174072265625,1.0443126533329485,1.972943163999915,1.4210530855879187
1758273996850130700,5.161130615234375,-0.21575813539922237,1.9340251120626926,1.4405217561677097
1758273996860088800,5.1710888671875,-1.762626342871785,2.0211036760568617,0.9219035404995083
1758273996870047000,5.181046875,-3.420120578664541,2.305218139323592,0.20321546469032764
1758273996880004900,5.1910048828125,-4.76020423078835,2.608147193175554,-0.8656474002704024
1758273996889963000,5.200962890625,-4.960632695108652,2.7049516168922185,-2.08613027497977
1758273996899920000,5.210919921875,-3.9352170499473806,2.4646242729037997,-2.7026392482966184
1758273996909877800,5.220877685546875,-2.9983500413328406,2.014107533559203,-2.3805022206276654
1758273996919836000,5.2308359375,-1.6001929704248905,0.981308207887411,-1.3740870440125466
1758273996929793800,5.240793701171875,1.2364841614395379,-1.3121996198982,-1.568589333154261
1758273996939752000,5.250751953125,4.745062191236019,-2.9292817658036947,-2.6466236388251185
1758273996949709800,5.260709716796875,2.612699449652433,-2.8291128340899943,-3.798666306775808
1758273996959667000,5.2706669921875,3.149606770727038,-2.3063731545776127,-5.62280597975254
1758273996969625000,5.280625,-0.6201724642604589,-1.1012310568630694,-4.528376711858809
1758273996979582700,5.290582763671875,-1.9264964701235294,-1.556231663623452,-2.488034959107637
1758273996989540900,5.300540771484375,1.2674147217541933,-1.3782733897864818,-1.4540762342676519
1758273996999498800,5.310498779296875,0.6340566127061843,-0.5616998170256614,-1.2430427893027662
1758273997009455900,5.320455810546875,0.1639472841411829,-1.1159382121294736,-1.4199822414860128
1758273997019414000,5.3304140625,-0.2636053437232971,-2.479006433999538,-1.274270871259272
1758273997029372000,5.340371826171875,0.7227963879108429,-3.5261142710089683,-0.47129590800106524
1758273997039330000,5.350330078125,1.8527870907902717,-3.5397651952207085,0.570941692623496
1758273997049287700,5.36028759765625,1.9087895485192536,-2.7842168767869473,1.2658999332770704
1758273997059245800,5.370245849609375,1.5471727433770894,-1.9883745418876408,1.2884668621331452
1758273997069203000,5.380202880859375,1.393778417432308,-1.3358055364131927,1.1106102951049803
1758273997079160800,5.390160888671875,1.5079606769293545,-0.7682534862279892,1.1227230499640106
1758273997089119000,5.400118896484375,1.726076189109683,-0.3504541906148195,1.3662445138186217
1758273997099076900,5.410076904296875,2.100841521899402,-0.2153250046789646,1.5562369243204592
1758273997109034800,5.42003466796875,2.73544144770205,-0.15016834963560102,2.0745602486953136
1758273997118992000,5.429991943359375,2.941043515267968,-0.3665425711065531,2.4618963092446324
1758273997128949800,5.43994970703125,2.6605463657155632,-0.7696551697194576,1.994111039713025
1758273997138908000,5.449907958984375,2.349761922188103,-1.068202647486329,1.4644649418130515
1758273997148866000,5.459865966796875,1.9946789027288554,-1.2619354135602712,1.1546300540953873
1758273997158824000,5.469823974609375,1.4851412346169353,-1.3565128088772296,0.6303614114500582
1758273997168782000,5.479781982421875,1.024093164385855,-1.2504162406802177,0.050938160076737404
1758273997178739000,5.489739013671875,0.6902379341334104,-0.9135311412125825,-0.5248907200664281
1758273997188696800,5.49969677734375,0.5906660915300249,-0.3971095588058233,-0.5262016565345228
1758273997198655000,5.509655029296875,0.4969722010493278,0.06924363209605217,0.5820331416107714
1758273997208612900,5.51961279296875,-0.23290654633790253,-0.07024082643985748,-0.4599528223402798
1758273997218571000,5.529571044921875,-0.36602205436378715,0.3357669090926647,-1.23352867263481
1758273997228529000,5.53952880859375,0.01416106569096446,1.080951654422283,-0.44603564840778703
1758273997238485800,5.54948583984375,0.2518612760461867,1.4544558812350035,-0.07014788745939732
1758273997248444000,5.55944384765625,0.6638320116363465,1.6770868250131605,0.6901717370294034
1758273997258401800,5.56940185546875,0.302185980399698,1.9606348865687846,1.1932013384215534
1758273997268360000,5.57935986328125,-0.12093056471347809,1.7794927219986914,1.8747917095884679
1758273997278317800,5.58931787109375,0.5543615830920636,1.3642735060065985,3.06851312636137
1758273997288275000,5.59927490234375,0.5916938271425664,0.942708135858178,3.65537427265048
1758273997298232800,5.60923291015625,-0.017529811471700667,0.4080769430220127,3.4632366668134926
1758273997308190700,5.619190673828125,-0.2287828905366361,0.2936024225801229,2.9725632736474275
1758273997318148900,5.62914892578125,-0.5852968926470726,0.4099368916749954,2.3788743271648882
1758273997328107000,5.63910693359375,-0.7271872432809323,0.4814303485244512,1.5759006790809333
1758273997338065000,5.64906494140625,-0.7425158183813094,0.28835107792317866,1.6234322455845773
1758273997348022000,5.65902197265625,-0.8383880027491599,0.17624445565640925,1.5530146012730897
1758273997357979600,5.668979736328125,-0.4439163912314921,0.348649771541357,1.403767604266107
1758273997367937800,5.678937744140625,-0.6024877544879913,0.6700771896362304,1.0208595892921088
1758273997377896000,5.68889599609375,-1.104208611369133,0.7590799996912478,0.603426496642828
1758273997387853800,5.698853759765625,-1.1796645421087741,0.7800842092752456,-0.06595028963908553
1758273997407147800,5.718147705078125,-1.770302868849039,0.8566787886559962,-0.6962194927610457
1758273997417106000,5.72810595703125,-1.453184546124935,0.7109153959810733,-0.4888911859244108
1758273997427064300,5.738064208984375,-1.0796002398133278,0.48826107132732866,-0.3460240992128849
1758273997437021400,5.748021484375,-1.1162556075155734,0.010366495713591575,-0.5377100157596171
1758273997446979300,5.757979248046875,-1.0244856708347796,-0.206424489864707,-0.006636661535501479
1758273997456937200,5.767937255859375,-1.24569330381155,-0.20104162778258322,0.29280601150542496
1758273997466895400,5.777895263671875,-1.5807073487102985,-0.21593290744423865,0.49626609860658644
1758273997476853200,5.787853271484375,-1.9351099846899509,-0.2934650599360466,0.7895461573645473
1758273997486810400,5.797810302734375,-2.475016487580538,-0.2904956887364387,1.1049113528110086
1758273997496768500,5.8077685546875,-2.484600308483839,-0.4098264170378446,1.6208555269643663
1758273997506726400,5.817726318359375,-2.1401532493293285,-0.845918325188756,2.115535817684233
1758273997516684300,5.827684326171875,-2.098704802131653,-1.3359592656701802,2.1696721892803907
1758273997526642400,5.837642333984375,-1.7850906881362198,-1.750337939184904,1.8938392321467399
1758273997536600300,5.847600341796875,-1.7164029363572597,-1.789652296963334,1.5473942771732807
1758273997546557400,5.857557373046875,-2.0576737035632133,-1.9286276369333266,0.7242877955123782
1758273997556515300,5.867515380859375,-2.395690437409282,-2.1428981641232965,-0.32630452261194587
1758273997566473500,5.877473388671875,-2.6562802327036854,-2.429750527921319,-1.0579048330947756
1758273997576431400,5.887431396484375,-3.07168357309103,-3.052359863939881,-1.3983325736053287
1758273997586389200,5.89738916015625,-3.304783303913474,-3.7216274907588955,-1.124806432109326
1758273997596347400,5.907347412109375,-2.6173914068609476,-4.3579999791920185,-0.3114490449160337
1758273997606304500,5.917304443359375,-1.8728437903910875,-5.016088040348887,0.3871357156716287
1758273997616262400,5.927262451171875,-1.1073983473211526,-5.862911205422878,1.1059558934278786
1758273997626220500,5.937220458984375,-1.2066168464422224,-6.474654279512166,1.2842477831333874
1758273997636178400,5.947178466796875,-1.8383692738592623,-5.874519810152053,0.3647903206117451
1758273997646136300,5.95713623046875,-2.886626280903816,-4.771009117919206,-1.0444177211426198
1758273997656094200,5.96709423828125,-3.5854455808997154,-3.656010232466459,-1.7161939697816968
1758273997666051300,5.97705126953125,-3.6141017665416,-2.3672148690313097,-1.9272700848445294
1758273997676009500,5.987009521484375,-3.0572926441669463,-1.4107453343242407,-1.946791946916282
1758273997685967400,5.99696728515625,-2.354683304238319,-0.8321493275552988,-1.7522993023857474
1758273997695925500,6.006925537109375,-1.541740781456232,-0.553479685690999,-1.3032301315009593
1758273997705883400,6.01688330078125,-0.9833644828300923,-0.6383230379790067,-0.8341200431063771
1758273997715841300,6.02684130859375,-1.2743630795873702,-0.7852531363457441,-0.7805306378684937
1758273997725798400,6.03679833984375,-1.0769197685576974,-1.0735247192919253,-0.4994752699114382
1758273997735756300,6.04675634765625,-0.07021013904064893,-1.5975053387761116,-0.07858224606662988
1758273997745714400,6.05671435546875,0.7854818305350839,-1.9319401224821804,-0.4760355037435889
1758273997755672600,6.066672607421875,0.7855339991137384,-2.146198374712467,-0.9464537521272898
1758273997765630500,6.07663037109375,1.3428802971050142,-1.8181822258770466,-0.3101755178488791
1758273997775588400,6.08658837890625,2.0130998178213835,-1.964625417509675,-0.22720336626023052
1758273997785545500,6.09654541015625,2.8476676046952605,-2.3085329629600047,-0.4134472378835082
1758273997795503400,6.10650341796875,3.4120901246830817,-2.0531547648340465,0.023062018896639346
1758273997805461500,6.11646142578125,3.152652129772305,-1.326431558868289,-0.10855389822125434
1758273997815418400,6.12641845703125,2.3837974627807736,-1.0491887349367142,-0.7257227967515587
1758273997825376500,6.13637646484375,2.4351696303606034,-0.8406739947944879,-0.9230185160040855
1758273997835334400,6.14633447265625,2.153250631311536,-0.6732493899315595,-0.8080410144761204
1758273997845292300,6.156292236328125,1.6578493328407407,-0.6346884808689356,-0.8373375438481568
1758273997855250400,6.16625048828125,1.2257485401526094,-0.5101169293045997,-0.93530048995018
1758273997865208300,6.176208251953125,1.209035013499856,-0.1570101783543825,-0.8007339063331484
1758273997875166500,6.18616650390625,1.7265186721801757,0.5999713877528906,-0.7898869336262345
1758273997885123600,6.19612353515625,3.2009257468149066,0.3800046947479248,-0.11418021367043256
1758273997895081200,6.206081298828125,4.510307678943872,-0.11565116300582885,2.1689207863911983
1758273997905039400,6.216039306640625,3.9271588311761616,-0.4477122033178806,3.3122961637616157
1758273997914997200,6.225997314453125,4.172141892015934,-0.9530512506961822,4.5486566988214845
1758273997924955400,6.235955322265625,3.7555309294044967,-1.131136950305104,3.1818180185019966
1758273997934913300,6.245913330078125,2.9430712217032906,-1.2101730776190758,2.9458930011257527
1758273997944870400,6.255870361328125,3.1376182267695665,-1.7003180629968642,2.888404981014132
1758273997954828500,6.26582861328125,3.676138828259706,-1.7491829239308834,2.9067355874747034
1758273997964786200,6.2757861328125,4.554003612807393,-0.8681295724749565,2.215389692099392
1758273997974744300,6.285744384765625,4.722966094762087,-0.16960779412090776,2.1748668353140355
1758273997984702500,6.295702392578125,4.4597301688730715,0.7359703422605991,1.3623656265586614
1758273997994660400,6.305660400390625,4.287605423495173,2.6524060216188428,0.34304420661926266
1758273998004618500,6.315618408203125,3.5799633500963446,3.6852789970487354,0.326892697763443
1758273998014575400,6.325575439453125,3.443526588693261,4.113594425979256,-0.08239332878738641
1758273998024533500,6.335533447265625,3.0779788738429543,4.015322267797589,-0.40599750639945265
1758273998034491400,6.345491455078125,2.72046599688828,3.5221757625162597,-0.4347653357222676
1758273998044449300,6.35544921875,2.722440511831641,2.8463784416675564,-0.3755757723897695
1758273998054407400,6.365407470703125,2.937635752651095,2.5549475179076193,-0.48861003089547156
1758273998064365300,6.375365234375,2.860848281046748,2.2528145828694104,-0.2950111203342676
1758273998074322400,6.385322509765625,2.7636381991386414,1.9225369188427923,-0.2032739168792963
1758273998084280600,6.395280517578125,2.660201790061593,1.6045844833821057,-0.22106910128891466
1758273998094238200,6.40523828125,2.453590253192186,1.4244985498666762,-0.09493716854006051
1758273998104196400,6.4151962890625,2.2928771286666394,1.4863924037218093,0.3464028693974018
1758273998114154200,6.425154296875,2.087531081688404,1.7157547015815973,0.6772156632140278
1758273998124112400,6.4351123046875,1.8284809170514345,2.00553435100317,0.6526753884583711
1758273998134070300,6.4450703125,1.1272159774690866,2.673903567677736,0.5028937000527978
1758273998144027400,6.45502734375,0.15001812750995158,3.2619483707934616,0.10195406156480312
1758273998153985500,6.464985595703125,-1.0155828179329633,3.616580723875761,-0.3247036632865667
1758273998163943200,6.474943115234375,-2.2467004839032887,3.8358904142767187,-0.8193474213883281
1758273998173901300,6.4849013671875,-3.334914238283038,4.029489909359812,-1.1417393006011842
1758273998183859500,6.494859375,-4.02626685566008,4.036035970002413,-1.7132731138989328
1758273998193817300,6.5048173828125,-4.387978937870264,3.6642566672861574,-2.101369052904844
1758273998203775500,6.514775390625,-4.287137221461534,2.9602041428118944,-1.745382654865086
1758273998213732600,6.524732666015625,-3.77812913018167,1.2908546340525149,-1.7314438536226748
1758273998223690500,6.5346904296875,-1.8067179980546235,-1.9609259784698485,-2.4882027168899774
1758273998233648400,6.5446484375,1.8509891014575957,-4.939253806993365,-2.1108514592602847
1758273998243606300,6.554606201171875,0.3907902926564216,-5.932981935992837,-1.4792434087499975
1758273998253564400,6.564564453125,-0.7809107232272624,-5.978382335686684,-3.484683067207038
1758273998263522300,6.574522216796875,-0.5116577290058135,-4.815264439231157,-3.3399075165256855
1758273998273480400,6.58448046875,-2.338224921390414,-3.315567732778191,0.19951836373805998
1758273998283437600,6.5944375,1.1823942593336105,-2.8248247815072536,1.0872130529046058
1758273998293395200,6.604395263671875,3.8803047255426644,-0.7023579955160617,0.18216420109421014
1758273998303353300,6.614353271484375,1.8885522316545247,1.3109902441084385,-1.4084034473732112
1758273998313311200,6.624311279296875,0.9396288745433091,1.5798171218723058,-2.9761043072551487
1758273998323269400,6.634269287109375,1.7827946861535309,0.8407605040341615,-3.150508103480935
1758273998333227500,6.6442275390625,3.5211060874581337,0.31040976499617096,-2.1060960814267395
1758273998343185400,6.654185302734375,3.5664585563570257,-0.02318038457930088,-1.1248360965952275
1758273998353143600,6.6641435546875,2.6540184252515435,-0.896198898139596,-1.1193328230038284
1758273998363100400,6.674100341796875,0.894943637381494,-1.973282771217823,-1.456096049657464
1758273998373058300,6.684058349609375,0.3037634588494897,-2.9643291137874126,-1.3531523925334215
1758273998383016400,6.694016357421875,1.1038269185751677,-3.4162007748723027,-0.43511853307411075
1758273998392974300,6.703974365234375,2.2465537689089774,-3.1425130130738017,0.8398413433626294
1758273998402932500,6.713932373046875,2.830497274185717,-2.3625006999909877,2.1799418004907665
1758273998412890400,6.723890380859375,2.7833208047300575,-1.987932058817148,2.0870508969560264
1758273998422848500,6.7338486328125,2.5535648313775656,-1.5366443351000547,1.5447741578027605
1758273998432804900,6.743804931640625,2.2695374618723987,-0.8925684326827525,1.2901210590809582
1758273998442762800,6.7537626953125,1.9028119354143738,-0.48034021520018577,1.1886720244288445
1758273998452721000,6.763720947265625,1.6626178624168038,-0.22157179011404513,1.2020865095362065
1758273998462678800,6.7736787109375,1.1507333389177918,-0.10945698454082012,0.8015539905443787
1758273998472636700,6.78363671875,0.8761866222023963,-0.02138824046552181,1.1102131124809385
1758273998482594800,6.7935947265625,0.5584770555868744,0.06510872424840927,0.9762588155433535
1758273998492552700,6.803552734375,0.4849453709080815,0.20058862331807611,0.8728997094862162
1758273998502509800,6.813509765625,0.396871366135776,0.4971165779560804,1.4155407519072294
1758273998512468000,6.823468017578125,0.0051382396712899205,0.3336637993335724,1.335803198325634
1758273998522425600,6.833425537109375,0.22550299208313226,0.002799275329709053,2.0387097676351664
1758273998532383700,6.8433837890625,0.21086977883577346,-0.1475251416504383,2.4749253021657465
1758273998542341600,6.853341552734375,0.494237807649374,-0.031089550268650054,2.3196814028315247
1758273998552299800,6.8632998046875,0.5124680224753916,0.2619347801625728,2.499085929954052
1758273998562257700,6.873257568359375,0.16827113868966698,0.4271604136765003,2.25735661021322
1758273998572214800,6.88321484375,-0.28498116309866306,0.7996826437145471,2.318975300388783
1758273998582173000,6.8931728515625,-0.39733810686469073,1.4313368714541197,2.178501538554579
1758273998592130600,6.903130615234375,-0.23904366085343062,1.7449398795336484,1.9460709391653537
1758273998602088700,6.913088623046875,-0.45550519528165456,1.5357102691203355,1.448700240317732
1758273998612046600,6.923046630859375,-0.6452129436232149,1.2669634708553552,0.9129815445058047
1758273998622004700,6.933004638671875,-1.0101052633047103,1.3254898941040039,0.47161622599661346
1758273998631963000,6.942962890625,-1.0210943478960544,1.7501240041732786,0.6557768616050481
1758273998641919700,6.952919677734375,-0.6055692808251828,1.6499246773213148,0.5469342095702886
1758273998651878000,6.9628779296875,-0.8352665097277611,1.3441355578631162,-0.03170359051376581
1758273998661835800,6.972835693359375,-1.0843582479953766,1.333212597310543,0.19170286768153308
1758273998671793700,6.982793701171875,-1.2828618817329407,0.778041305270791,0.6690921241216361
1758273998681751800,6.992751708984375,-1.2338403689324855,0.5518389327466487,0.6724447955504059
1758273998691709700,7.002709716796875,-1.2027929042398928,0.4828682723730802,0.03904635449200868
1758273998701667800,7.012667724609375,-1.021077908217907,0.44702655914127826,-0.19263371879085897
1758273998711625000,7.022625,-0.8456418463349342,0.6499725592404604,0.001342062258720398
1758273998721582600,7.03258251953125,-0.6862345437109469,0.8856587994247674,0.10669541087299585
1758273998731540700,7.042540771484375,-0.7536790174305439,0.953797685149312,0.12964534769728778
1758273998741498600,7.05249853515625,-1.0162859977662562,0.8289403023809194,0.6007338965579867
1758273998751456800,7.062456787109375,-1.2672282592713833,0.45861119847297666,1.2416564495109021
1758273998761414700,7.07241455078125,-1.4047270969480274,-0.07720482023358345,1.690689233908057
1758273998771372800,7.082372802734375,-2.009184105682373,-0.8518202427089214,1.981690680209547
1758273998781331000,7.0923310546875,-2.5224504389286038,-1.5289140331089495,2.053254864207655
1758273998791287600,7.10228759765625,-2.719363004082441,-2.2087983310103416,1.8991260865084827
1758273998801245700,7.11224560546875,-3.07207520275712,-2.586356801649928,1.470311329753697
1758273998811203800,7.122203857421875,-3.003955606254935,-2.5696026507258414,1.0219818713203073
1758273998821161700,7.13216162109375,-2.7269834159582853,-2.418840426850319,0.6997789388082921
1758273998831120000,7.142119873046875,-2.912050060495734,-2.5374662217527626,-0.05937748712003231
1758273998841077800,7.152077880859375,-2.4294003993093964,-2.8423890797704456,-0.8204096437923609
1758273998851036000,7.162035888671875,-2.680631414628029,-2.4941589949458836,-0.8017145879335701
1758273998860992800,7.17199267578125,-3.328017464506626,-2.258042546650767,-0.7464575417444109
1758273998870950700,7.18195068359375,-3.3987118799328804,-2.8737101007074117,-0.9429743855789303
1758273998880908800,7.19190869140625,-3.417979474982619,-4.143071864876151,-0.9335448784545063
1758273998890866700,7.20186669921875,-3.378040263304114,-5.50048133033216,-0.44283159166947006
1758273998900824800,7.211824951171875,-3.200141610699892,-6.249181390306354,0.07222951603904366
1758273998910782700,7.22178271484375,-3.3141163649260994,-5.790736780571938,-0.01543678471520543
1758273998920740900,7.231740966796875,-3.6712609930902715,-4.688590946951508,-0.6245088860295712
1758273998930697700,7.24169775390625,-3.4242227532863616,-3.876858969002962,-0.9180614781185984
1758273998940655600,7.251655517578125,-2.736639133054018,-3.012335312065482,-0.9454488128684461
1758273998950613800,7.26161376953125,-2.225257298380136,-2.5053280392140147,-1.1740114847831427
1758273998960571600,7.271571533203125,-1.8384546140551565,-2.141646118235588,-1.089727519943565
1758273998970529800,7.28152978515625,-1.5409470007300377,-1.6415233442008494,-0.6608218700349331
1758273998980488000,7.291488037109375,-1.7220996866941451,-1.6289216367810964,-0.4684684294901788
1758273998990445800,7.30144580078125,-1.9196388593137264,-1.7455419370800256,-0.12211772867143153
1758273999000404000,7.311404052734375,-1.6277381260849535,-2.3673154067963362,-0.25164587972983715
1758273999010360800,7.32136083984375,-1.7521135705552995,-3.0609926677286623,-1.052291230996698
1758273999020318700,7.331318603515625,-0.26727409536391494,-2.5418565656661984,-0.8507637193933129
1758273999030276900,7.34127685546875,1.0110089341461659,-2.489202833843231,-0.38167657348290085
1758273999040234800,7.35123486328125,1.8838380626142024,-2.5126316402256488,-0.02336407058313489
1758273999050193000,7.36119287109375,2.596250711415708,-2.3126012353122234,0.23807605793029069
1758273999060150800,7.37115087890625,2.5058567392632365,-2.053348826101422,0.3237956085309386
1758273999070108700,7.381108642578125,2.496713355603814,-1.4675725524395704,0.3086369101047516
1758273999080065800,7.391065673828125,2.5927301360741257,-0.8216215038001536,-0.16491846726089715
1758273999090023700,7.401023681640625,2.6308269347563384,-0.9069190295964479,-0.6226943839535117
1758273999099981800,7.41098193359375,2.241867364658415,-0.8023895645856857,-0.6886147168457508
1758273999109939700,7.420939697265625,1.1034256442978978,-0.33484979424774647,-0.7114914423033595
1758273999119897900,7.43089794921875,1.7941162906348704,-0.21032266634702682,-1.0684744501650332
1758273999129855700,7.440855712890625,2.1606702599182723,-0.4605746075004339,-1.195894084636867
1758273999139813600,7.450813720703125,2.1361358303815123,-0.6334972252577543,-0.9875830503731965
1758273999149770800,7.460770751953125,3.3617633745029565,-0.732318834015727,-0.39686230604648587
1758273999159728600,7.470728759765625,3.72152636847198,-0.6944283715605736,0.7912789725065231
1758273999169686800,7.480686767578125,3.3939293218314646,-1.0585019222050904,1.847489861164987
1758273999179645000,7.49064501953125,4.125809764429927,-1.388780170753598,2.6339941666156053
1758273999189602800,7.500602783203125,4.5881391066432,-1.2260060220450162,3.0947336092889306
1758273999199561000,7.51056103515625,4.281858988797665,-0.7793798603981733,2.8747216158375144
1758273999209518600,7.5205185546875,3.1732617870807647,-1.290425594985485,1.6512994728058576
1758273999219476700,7.530476806640625,3.07321268235445,-1.3485288243860005,1.7488205203592777
1758273999229433900,7.540433837890625,3.708912970614433,-0.7285790629655122,1.0203770664721727
1758273999239391700,7.550391845703125,4.308601449772715,0.008044774767756462,1.3155562368497251
1758273999249350000,7.560349853515625,4.333316204312443,0.44975043114721774,1.377971191969514
1758273999259307800,7.570307861328125,3.971699983692169,1.0163806903123855,0.38478608380556106
1758273999269265700,7.580265625,3.837820505556464,1.6568407403200864,0.4850850716397166
1758273999279223800,7.590223876953125,3.4732764147907496,2.105623787739873,0.5686334156811237
1758273999289181700,7.600181640625,3.158195735374093,3.2163720300108194,0.37476708635538813
1758273999299138800,7.610138916015625,4.021320631429552,3.1474989847928283,0.5291781881272792
1758273999309096700,7.6200966796875,4.2558688074946405,2.6103999405384064,0.21259207258373497
1758273999319054800,7.630054931640625,4.518732392939925,2.5041946512699127,-0.16840455581098793
1758273999329013000,7.640012939453125,4.706932074806094,3.025276626703143,-0.46713820379972454
1758273999338970600,7.649970703125,4.396137109884619,3.1616298014760016,-0.02134177097529173
1758273999348928800,7.6599287109375,4.016526382890343,3.1645319526582956,0.393579631114006
1758273999358886700,7.66988671875,3.7240596863418816,3.259245541575551,0.7078960481598973
1758273999368843800,7.67984375,3.2594699979811903,3.2952748863339423,0.8590224291726947
1758273999378802000,7.689802001953125,2.449495677354932,3.0844384252458807,0.7704363832250237
1758273999388759800,7.699759765625,1.395966282865405,2.8511136534959074,0.8007397515520454
1758273999398718000,7.709718017578125,0.10065759201347828,2.667159938636422,0.462905680796504
1758273999408675600,7.719675537109375,-1.0946499249070882,2.581643217131495,-0.2655275439575314
1758273999418633700,7.7296337890625,-1.711361435058713,2.716103710025549,-0.9281345438435673
1758273999428592400,7.73959228515625,-1.817157559004426,3.119942284825444,-1.3619248970538378
1758273999438549500,7.749549560546875,-1.3821324033021927,3.7961627995222806,-1.6570640276819466
1758273999448507600,7.759507568359375,-3.297175751519203,3.702566231936216,-2.8176187956511973
1758273999458465500,7.769465576171875,-8.307923015362023,3.1546979563862085,-3.802500770372152
1758273999468423700,7.779423583984375,-11.214983012485504,-0.5468927085161209,-4.34434613237083
1758273999478381600,7.789381591796875,2.224474623569846,-3.921596520873904,-3.854877438819408
1758273999488339500,7.79933935546875,6.355283803722262,-2.656624516096711,-2.275309323272109
1758273999498297300,7.80929736328125,4.921501292681694,-2.771180869603157,-1.552518780580163
1758273999508254500,7.81925439453125,4.462482682451606,-2.5974936972141265,0.42322219744473694
1758273999518212600,7.829212646484375,-7.278449619242548,-5.4028784497141835,-4.891815179470181
1758273999528170500,7.83917041015625,-0.5967722994506359,-6.05835895872116,-1.1569336548626423
1758273999538128600,7.849128662109375,5.727476314538717,-2.903748680618405,1.7919813244327902
1758273999548086500,7.85908642578125,1.7170149307757614,-0.21065175217092036,-0.9273813873887061
1758273999558044400,7.86904443359375,-1.1031488731831312,0.5272755693763495,-3.331600583690405
1758273999568002600,7.87900244140625,-0.29588205794990063,0.7053548392444848,-3.463884901589155
1758273999577960400,7.88896044921875,1.4487433488070964,-0.2541547938108444,-2.1083701638385652
1758273999587917600,7.89891748046875,2.9622546456009147,-1.2787111917942762,-0.6046580842643976
1758273999597875700,7.908875732421875,3.488886656376719,-1.9950404295176267,0.6219789291605353
1758273999607833600,7.91883349609375,2.577520584243536,-2.7533704876244065,0.7906631786957383
1758273999617791500,7.92879150390625,0.8250713519930839,-3.5106191802352664,0.11269786615818739
1758273999627749400,7.938749267578125,0.08176701358258724,-3.914819574084878,-0.40858781515359877
1758273999637707500,7.94870751953125,0.33582594580352304,-3.697525315159559,-0.22485154243707656
1758273999647665400,7.95866552734375,0.7897258978456259,-2.7261662543565035,0.5281836241319775
1758273999657622500,7.96862255859375,1.4443950904697178,-1.576944781306386,1.599337522639334
1758273999667580700,7.97858056640625,2.185418039944768,-0.6539414628714323,2.210914007990062
1758273999677538600,7.98853857421875,2.577126324228942,0.042512277036905285,2.448670916968584
1758273999687496400,7.998496337890625,2.648459622080624,0.2817828054487705,1.947861475843936
1758273999697454300,8.008454345703125,2.206405298393965,0.3692337098866701,1.0549394074179232
1758273999707412500,8.01841259765625,1.7302376927033065,0.36370237924456594,0.8399839667037129
1758273999717370600,8.02837060546875,1.5762351717323064,0.13941139329969882,0.7333680508077144
1758273999727327500,8.038327392578125,1.46263100438416,-0.15700433313548565,0.24594489160925148
1758273999737285600,8.04828564453125,1.1984145430251956,-0.4049047427266836,0.04321574913114309
1758273999747243500,8.058243408203126,1.1276716122820973,-0.28522271676957606,0.3617287410840392
1758273999757201400,8.068201416015626,0.7984922648862004,-0.15097031366825103,0.4395701056554913
1758273999767159600,8.07815966796875,0.22641017005592584,-0.005698503902554512,0.7139866201199591
1758273999777117400,8.088117431640624,-0.04117693677991628,0.16930559630393982,1.2820483733929693
1758273999787075600,8.09807568359375,0.11644611277580261,0.14520166713893412,1.5984787138529122
1758273999797033500,8.108033447265624,0.4273486297249794,0.21346154889464378,2.2932350021935997
1758273999806990600,8.117990478515624,0.07559153981804848,0.30312311511933804,2.2177048371739683
1758273999816948500,8.127948486328124,-0.29949469548910856,0.2537345225721597,2.128925899002701
1758273999826906400,8.13790625,0.06989917339533568,0.7526718862146139,2.299752275133133
1758273999836864500,8.147864501953125,0.5844438560143113,1.1507049896061419,2.0609156080938873
1758273999846822400,8.157822509765625,0.4064776911318302,1.0958704066127538,1.5765980136953293
1758273999856780500,8.167780517578125,0.15845570098757744,1.2300146731644868,1.2783937964081764
1758273999866738400,8.177738525390625,0.17195581855177877,1.2149673261582852,1.3902313924752174
1758273999876695600,8.187695556640625,-0.32722003002166744,1.2453233014553784,1.0066714894637465
1758273999886653400,8.1976533203125,-0.8300679912365972,1.001577088934183,0.5250517558470368
1758273999896611300,8.207611328125,-1.0994752992369234,0.8074497705847025,0.21722104755863547
1758273999906569500,8.217569580078125,-1.1107026495635508,0.8927963962197303,-0.10411533125191927
1758273999916527600,8.227527587890625,-1.3577999260783196,0.9129998108148575,-0.8521858611509203
1758273999926485500,8.237485595703125,-1.6233938132703303,1.1219400828927755,-1.4057277984231709
1758273999936443600,8.247443603515626,-1.275824238181114,1.5372241808146236,-0.9447985322661697
1758273999946401500,8.257401611328126,-1.2148422384738922,1.7452181119531391,-0.415859998113662
1758273999956358400,8.2673583984375,-1.8501462208926676,1.7171575541168451,0.08061638224273919
1758273999966316500,8.277316650390626,-1.8768261380255222,1.7095032399713992,0.6681437373556196
1758273999976274400,8.2872744140625,-1.5041735596060752,1.3679419653862714,1.2314321387469769
1758273999986232600,8.297232666015624,-1.3699170648515224,0.48134150119721886,1.4847878911346197
1758273999996190500,8.3071904296875,-1.2786112385511397,-0.2159393371850252,1.8300977045983076
1758274000006148600,8.317148681640624,-1.4031401200175284,-0.5738187093645334,1.986521461366862
1758274000016106500,8.3271064453125,-2.1261001740574836,-0.6410574313789605,1.4648004573777318
1758274000026063400,8.3370634765625,-2.58467396312952,-0.3649620239168405,1.4407060266934335
1758274000036021500,8.347021484375,-2.5139935762286183,-0.1340922441035509,1.9653180759489535
1758274000045979400,8.3569794921875,-2.676410582062602,-0.312670111143589,2.0296878183983265
1758274000055937500,8.3669375,-3.1348136907428503,-0.9272685746639966,1.7812126776590942
1758274000065895700,8.376895751953125,-3.4417245077073573,-1.5221324101448057,1.608469946513325
1758274000075853600,8.386853515625,-2.6140643082648514,-2.1791285844117403,1.5563957681439815
1758274000085811700,8.396811767578125,-1.7518997816741466,-2.5137550912976265,1.5952946769893168
1758274000095768600,8.4067685546875,-1.705165503028035,-2.9475667795568703,1.1302699582122266
1758274000105726500,8.4167265625,-1.4722446359038353,-3.7473441158175467,-0.007240180386602878
1758274000115684600,8.4266845703125,-1.3095470595628023,-3.8808337178528305,-0.6618459523856639
1758274000125642500,8.436642578125,-1.439538298088312,-3.8518110369861125,-0.6996908221334218
1758274000135600600,8.4466005859375,-1.783410187703371,-4.586846144223213,-0.8763444431126117
1758274000145558500,8.45655859375,-1.9580892937391996,-5.7031865074127905,-1.2449274340055883
1758274000155516700,8.4665166015625,-2.097258694976568,-6.398129258236288,-1.445228618684411
1758274000165473500,8.4764736328125,-2.5135727204680443,-6.342919412189722,-2.1429434645697474
1758274000175431400,8.486431396484376,-3.6764199832886457,-5.556874833205342,-3.4074802928000687
1758274000185389600,8.4963896484375,-5.2088937547057865,-4.057868447104096,-3.3728082078695296
1758274000195347500,8.506347412109376,-5.089975114336609,-2.235802657791972,-2.00728733215034
1758274000205305600,8.5163056640625,-3.9327182188689704,-1.01527185228765,-0.8282752626009285
1758274000215263500,8.526263427734374,-3.0185633928000923,-0.8187883262008429,-0.3865250364273786
1758274000225221600,8.5362216796875,-2.4029753337204456,-0.8040911078065633,0.5652377818934619
1758274000235179500,8.546179443359375,-1.4912240616619585,-0.8509715169250964,1.4107438730195163
1758274000245136400,8.556136474609374,-0.8400829700987785,-1.1791864032030104,2.0959509733788666
1758274000255094500,8.566094482421875,-1.4148283658541738,-2.0766496221899984,1.8897880570597945
1758274000265052700,8.576052734375,-2.1255705972254275,-2.4238123700439926,1.452715321177989
1758274000275010600,8.586010498046875,-1.212916969499737,-2.5047441018462178,0.8644190275192261
1758274000284968700,8.59596875,-1.271423080612719,-3.1712831804841755,-0.23759090476185082
1758274000294926300,8.60592626953125,-0.6270040638461709,-2.666114228975773,0.18987989003807304
1758274000304884500,8.615884521484375,1.317458855600655,-1.928865537342429,1.4212952237807213
1758274000314841600,8.625841552734375,3.3081200471207497,-1.7467922294020652,2.166696680600941
1758274000324799500,8.635799560546875,4.382631731623411,-1.8237310921758412,2.1163252144962548
1758274000334757600,8.645757568359375,3.3940152465492486,-1.8250684782594442,0.9444599479615687
1758274000344715500,8.655715576171875,2.6552260474756357,-1.0474006824761628,-0.10762976911365985
1758274000354673700,8.665673583984375,2.9879756545737384,-0.4537199193000793,-0.5236436426147818
1758274000364631300,8.67563134765625,1.9744690583929418,-0.11035714825093745,-0.8131456441387533
1758274000374589400,8.68558935546875,1.8493202914625406,-0.3297977715551853,-1.3287822136476635
1758274000384546600,8.695546630859376,2.259626600971818,-0.6567173573255538,-1.35885294226259
1758274000394504400,8.70550439453125,2.130388811162114,-0.8197878586322068,-1.146545824100077
1758274000404462600,8.715462646484376,2.0838199522107836,-0.7472334945529698,-0.6831099819496274
1758274000414420500,8.72542041015625,2.5463492009103295,-0.9831219793111086,0.7095631045892834
1758274000424378600,8.735378662109374,3.1248636668756604,-1.0923562610119582,0.37155046239644285
1758274000434336300,8.745336181640624,3.201698777014017,-0.9730249481886625,0.31452012292444703
1758274000444294100,8.755294189453124,2.976433977600932,-1.2952636826664208,1.3132254558146
1758274000454251000,8.7652509765625,2.707052388563752,-1.3092320022642612,1.55824037309736
1758274000464209200,8.775209228515624,2.3486603906869887,-1.7168197004646062,2.210057975682616
1758274000474167000,8.7851669921875,2.8657810612738133,-2.362415944316983,2.2225901249974966
1758274000484125200,8.795125244140625,3.6810868060559034,-1.6254139209210872,2.453331602256
1758274000494083000,8.8050830078125,3.492115555295348,-0.8161895418792963,2.404622516405582
1758274000504041200,8.815041259765625,4.231861908963323,-0.3416179732084274,2.1583689972385764
1758274000513999000,8.8249990234375,4.827531800130009,-0.06654197192192077,2.294709020268917
1758274000523956000,8.8349560546875,4.2279783455282445,0.5482084672898054,1.7204855294957755
1758274000533914000,8.8449140625,4.191002659830451,2.066947143343091,1.253170215563476
1758274000543872000,8.8548720703125,4.266647975662351,3.2590316065639255,1.179185234159231
1758274000553830100,8.864830078125,3.8946716890692707,3.7685815496355293,0.6366401994585991
1758274000563788300,8.874788330078125,3.4309383252769705,3.8226293661653994,0.2529965636864304
1758274000573746200,8.88474609375,3.2505291511565444,3.7779379915237423,0.026645722602307794
1758274000583704300,8.894704345703126,3.1978122909694906,3.680895082876086,-0.06944850701838731
1758274000593661200,8.9046611328125,3.4261452457815404,3.4354724615752694,0.1461857097402215
1758274000603619000,8.914619140625,3.6425884408354756,3.2206764492064712,0.3221586549788713
1758274000613577200,8.9245771484375,3.729102941206097,2.8175030603170392,0.5829173770993947
1758274000623535000,8.93453515625,3.5812767707824706,2.38437292458117,0.9393646706491708
1758274000633493200,8.9444931640625,3.2616257147103545,2.216402960795164,1.3782090923786163
1758274000643451100,8.954451171875,2.8736726913064716,2.2040467525690794,1.6898621354341505
1758274000653409300,8.9644091796875,2.4406056839346886,2.2668729188382626,1.75403796274662
1758274000663367000,8.974366943359374,1.916910895654559,2.539657009795308,1.6509209948822856
1758274000673324000,8.984323974609374,1.288275138953328,2.671949511000514,1.316940384684503
1758274000683282200,8.9942822265625,0.2862947299152612,2.771273808583617,0.8774243473038077
1758274000693240000,9.004239990234375,-1.2530892592817544,2.7725568341314792,0.26926468465924264
1758274000703198200,9.0141982421875,-3.0224703371107577,2.7422780157238242,-0.5326984712079167
1758274000713156000,9.024156005859375,-4.075194844958186,2.6121044063687324,-1.1934645194023847
1758274000723114200,9.0341142578125,-3.97084015199244,2.050708540725708,-1.7709654244109987
1758274000733071000,9.044071044921875,-6.016723464518785,1.0446423236787319,-3.0966549327403303
1758274000743029000,9.054029052734375,-9.465147177603841,0.14762158776223658,-4.284265465417504
1758274000752987100,9.063987060546875,-10.080739328336715,-2.7772353473365303,-4.944738375884294
1758274000762945300,9.0739453125,-3.3890111546516417,-7.508599268087744,-3.345218482415378
1758274000772903200,9.083903076171875,8.249363274365663,-6.7924500631064175,0.1166708614423871
1758274000782861300,9.093861328125,3.7024534192115066,-3.2156834632247686,-0.7596838108032942
1758274000792819000,9.10381884765625,7.0462208260357375,-1.2669576256364583,-3.080090459169447
1758274000802776000,9.113776123046875,0.6271411342293024,0.35925416766405105,-2.0566583890408277
1758274000812734200,9.123734130859376,-9.920213250815868,-1.422633925038576,-5.144378320175409
1758274000822692000,9.133692138671876,-0.559820579150319,-1.2600339638531208,-3.060549307875335
1758274000832650200,9.143650146484376,3.506961242249608,0.9335422481060027,0.7266463413372636
1758274000842608000,9.153608154296874,3.26016031833291,1.444348328718543,1.382040341104567
1758274000852566300,9.163566162109374,3.18869316496849,0.45720483880639073,0.32083266707211733
1758274000862524200,9.173524169921874,2.8662708906173706,-0.8873509902954101,-1.2185241418570278
1758274000872481000,9.18348095703125,2.1567554245620966,-1.9091706567913294,-1.26352297501266
1758274000882439200,9.193439208984374,2.332438739204407,-2.3876725506484506,-0.37367841433584686
1758274000892397000,9.20339697265625,2.219383437910676,-2.4707939014494418,0.33242695101499553
1758274000902355200,9.213355224609375,1.6163561697185038,-2.338337149593234,0.5700304229974746
1758274000912313300,9.223313232421875,1.0053840800017118,-1.9455735110372303,0.4562026760265231
1758274000922271200,9.233271240234375,0.6529843082770704,-1.2677613432347774,0.3168821758806705
1758274000932229000,9.24322900390625,0.8784785325318575,-0.6606599574714899,0.48380292287468907
1758274000942186200,9.253186279296875,1.441524503469467,-0.2167068144261837,0.8232587496131658
1758274000952144100,9.26314404296875,2.080608588948846,0.15907412514686584,1.38241706546247
1758274000962102300,9.273102294921875,2.3990382865324613,0.302731485453248,1.5754489897906778
1758274000972060200,9.28306005859375,2.3335391016617417,0.28612404952347276,1.4206765073604881
1758274000982018300,9.293018310546875,2.3649632907122373,0.14433072952330112,1.4768470151327548
1758274000991976200,9.30297607421875,2.087474967586994,-0.38552491947412487,1.1858768407523632
1758274001001934000,9.31293408203125,1.5805825532868503,-0.8953034106045961,0.7749022765927016
1758274001011891200,9.32289111328125,1.13411947324723,-0.9435317272007465,0.6642566667892038
1758274001021849000,9.33284912109375,0.5264171989813446,-0.8760895915687084,0.33080387985780835
1758274001031807200,9.34280712890625,0.1793684328958392,-0.7112772150307893,0.21162600403055548
1758274001041765000,9.35276513671875,0.8168599884867668,-0.11924071193039416,2.0381306525729594
1758274001051723300,9.36272314453125,1.4435036945879458,-0.4582996483057737,2.7269787397831675
1758274001061681200,9.37268115234375,1.2810124544739723,-0.9722709149509667,2.4615537794172764
1758274001071639000,9.38263916015625,0.8466369948521256,-1.016999114471674,1.8614974898599088
1758274001081596200,9.39259619140625,0.365548591633141,-0.5466454557567835,1.4521103410221636
1758274001091554000,9.402553955078124,0.33431992515474557,0.17179156790077685,1.47076228839159
1758274001101512200,9.41251220703125,0.49341801569908855,0.5230056369721889,1.402413851569593
1758274001111470300,9.42247021484375,0.38398426590338347,0.390839977017045,1.4826548246286808
1758274001121428200,9.43242822265625,0.23408377342373132,0.7704758384525775,0.6278408069312572
1758274001131386000,9.44238623046875,0.3917163214601576,0.647643824031949,0.4410815331317484
1758274001141344000,9.452343994140625,-0.16871654436960815,0.41906829263567924,0.5651756764426827
1758274001151301000,9.462301025390625,-0.9444904892303049,0.6183703832745552,-0.008391103987395763
1758274001161259300,9.47225927734375,-0.9967639895640313,0.9462707967758178,-0.7255220134824514
1758274001171217200,9.482217041015625,-0.7713114124938845,1.5562024375289678,-0.9181121853925287
1758274001181175300,9.49217529296875,-0.231934924826771,1.9740701222032306,-0.9931238064307719
1758274001191133200,9.50213330078125,-0.3894764335788786,1.870240914416313,-1.3806198067821562
1758274001201091000,9.512091064453125,-1.2502316778935492,1.6571049442142247,-1.6624638408988712
1758274001211048200,9.522048095703125,-1.5469301667928694,1.370339089655876,-0.9066905546028167
1758274001221006000,9.532006103515625,-1.2011305239856243,1.066630283603072,0.060248936192318796
1758274001230964200,9.541964111328125,-1.050360116803646,0.6874883431643247,0.35333310705199833
1758274001240922000,9.551922119140626,-0.9528898495893925,0.5394283639848232,0.49901393601000305
1758274001250880300,9.56188037109375,-0.5788263814587146,0.6012497371256351,0.4177005114138126
1758274001260838100,9.571838134765626,-0.1800772387523204,0.9935621247828006,0.2737748555600643
1758274001270796000,9.581796142578124,-0.09279398249890655,0.9466612573981285,0.1640823817629367
1758274001280753200,9.591753173828126,-0.47645782080888743,0.25007892267405984,0.4396096339482814
1758274001290711000,9.6017109375,-1.0375929896891116,0.0487900421321392,0.007263342066481709
1758274001300669200,9.611669189453124,-1.476316415387392,0.5576625243335962,0.12750417095012961
1758274001310627300,9.62162744140625,-1.7318787379086016,0.890340819761157,0.7416947843220084
1758274001320585200,9.631585205078125,-2.026580646163225,0.7281359953731298,1.197093523554504
1758274001330543000,9.641543212890625,-2.2868214818894863,0.2622206113666296,1.574355933856964
1758274001340501000,9.6515009765625,-2.443068859177828,-0.22274726363420486,1.7589957312844693
1758274001350458000,9.6614580078125,-2.5918518919348714,-0.6275526376396418,1.915782476146519
1758274001360416300,9.671416259765625,-2.4278303735136983,-0.8843775274425745,2.074053906608373
1758274001370374100,9.6813740234375,-2.3887322888344524,-1.2759674460440873,1.923831196437031
1758274001380332300,9.691332275390625,-2.0685399654924868,-1.9194851300567388,1.40092259009853
1758274001390290200,9.701290283203125,-1.1770546518713234,-2.6884295211583376,0.5586708245933055
1758274001400248000,9.711248046875,0.003822773158550262,-3.2308646657437086,-0.11500818892717361
1758274001410205200,9.721205078125,0.7290197924703359,-3.3074867176532745,-0.2648215876452625
1758274001420163000,9.7311630859375,0.8215987074464559,-2.858921696898341,-0.022457915523648262
1758274001430121200,9.741121337890625,0.5270347463577986,-2.9414848292946814,-0.49718051003776487
1758274001440079000,9.7510791015625,0.7070821014285087,-4.213686785325407,-1.6224587243773043
1758274001450037200,9.761037353515626,0.422018922602199,-5.327701920437812,-2.2544321010686454
1758274001459995100,9.7709951171875,-0.4610960010260343,-5.525988696554303,-2.414341215734929
1758274001469953000,9.780953125,-1.4784808999449013,-5.014226338130236,-2.3032116218067706
1758274001479910100,9.79091015625,-2.0539187349438666,-4.422352916637063,-1.8854082345403729
1758274001489868300,9.800868408203126,-2.5034715976923705,-3.6352854243457315,-1.3467149068318307
1758274001499826200,9.810826171875,-3.0567928779512643,-2.845930113378167,-0.7722315960787236
1758274001509784300,9.820784423828124,-3.098009854480624,-2.348786647415161,-0.21738310625255106
1758274001519742200,9.8307421875,-2.7712586110144852,-2.071186096087098,0.022780571606755257
1758274001529700000,9.8407001953125,-2.6079987246155736,-1.6313146693974732,0.2190561540313065
1758274001539658000,9.850657958984375,-1.969852796769142,-1.289798987519741,0.785121765051037
1758274001549615000,9.860614990234374,-1.916023006904125,-1.8840192644000053,0.3314638050712645
1758274001559573200,9.8705732421875,-2.2029496049821375,-1.4852169302016496,-0.014010259043425321
1758274001569531100,9.88053125,-1.8037328447639942,-0.9135410780847072,0.1248705345109105
1758274001579489300,9.8904892578125,-1.27094581848979,-0.2690133402466774,0.5887928450040519
1758274001589447200,9.900447265625,-1.1114951881807298,0.1905249099433422,0.9315184871934353
1758274001599405000,9.910405029296875,-1.195302840745449,0.03212415401339531,0.5453245824165642
1758274001609362200,9.920362060546875,-1.2669511958956718,-0.2955664161294699,0.5355205428913236
1758274001619320000,9.930320068359375,-0.6699333972513676,-0.9997060343652963,0.5693548618234694
1758274001629278200,9.9402783203125,1.1281614416256547,-1.5079834732830524,0.44763285447135565
1758274001639236000,9.950236083984375,4.011925903357565,-1.1939981878876686,0.08218509286418557
1758274001649194200,9.9601943359375,5.164337404620647,-0.7197381693840026,-0.9781621649466454
1758274001659152100,9.970152099609376,6.09883008531928,-0.11247370201349258,-2.01246239670068
1758274001669109000,9.98010888671875,6.455542751806974,0.28460779974162576,-2.25641041540429
1758274001679067100,9.990067138671876,5.151324193790555,0.9420008643716573,-1.6742045475751162
1758274001689025300,10.000025390625,5.068458279055356,1.4681336934536695,-1.8967691481187938
1758274001698983200,10.009983154296876,4.956193251356482,1.6820885788232087,-2.0284936401776967
1758274001708941300,10.01994140625,4.659180728071928,1.6787451136142015,-2.048982885976881
1758274001718899200,10.029899169921874,4.254306965005398,1.9052783255279062,-1.6534283015280962
1758274001728857000,10.039857177734374,2.7823794322267172,2.026955909216404,-0.7323002754457294
1758274001738814200,10.049814208984374,2.20109900867939,1.6236100863695144,0.17421309595927595
1758274001748772000,10.059772216796874,3.542250582295656,1.288273385387659,0.8118018283143639
1758274001758730200,10.069730224609375,3.768379012800753,1.2173019065856934,1.7660080942645668
1758274001768688000,10.079688232421875,3.193975781546533,1.1093144100755452,2.484532503944635
1758274001778646300,10.089646240234375,2.33770089751631,1.5813450620919465,2.6933254765063523
1758274001788604200,10.099604248046875,2.4011551325559615,2.2269097417622805,2.236940429650247
1758274001798561000,10.10956103515625,2.95361921146363,3.063251260310411,1.7735843747377396
1758274001808519200,10.119519287109375,3.2865313156470655,3.621106676867604,1.4859785622239112
1758274001818477000,10.12947705078125,3.993267964638769,3.8385505733966827,0.9269827434599399
1758274001828435200,10.139435302734375,4.873260993386805,5.049333891868591,-0.283195594856143
1758274001838393000,10.14939306640625,5.14374236035943,6.3079743555366985,-1.209012509407103
1758274001848351200,10.159351318359375,4.218266222070158,4.258655223342776,-2.0198130517244337
1758274001858309000,10.16930908203125,1.0281132136821747,-0.13805413347184659,-2.254323379997164
1758274001868266000,10.179265869140625,-0.6624129386186599,-1.2581605711966752,-0.7051508411049843
1758274001878224100,10.18922412109375,0.08728504635170102,1.051969890087843,1.727630286683887
1758274001888182300,10.199182373046876,0.8944298426404594,3.420810899016261,2.9063328518927096
1758274001898140200,10.20914013671875,1.4630993525482714,3.7600118742108344,3.1975296746358275
1758274001908098300,10.219098388671876,1.4433154785394668,2.588363465297222,2.4618679599329827
1758274001918056200,10.22905615234375,1.3897652362681925,0.35518472626805303,1.0151387274272738
1758274001928013000,10.239012939453126,1.0572297103121877,-2.1755343593120573,-0.9345103624857961
1758274001937971200,10.24897119140625,-0.26010654182210563,-3.965347984316945,-3.6329584427028894
1758274001947929000,10.25892919921875,-2.014456200866401,-4.164568241891264,-5.608832399457693
1758274001957887200,10.26888720703125,-4.341750270658731,-1.8102151925206182,-5.187989498364925
1758274001967845000,10.27884521484375,-6.326303792953491,1.3704144929796456,-2.9614310542583464
1758274001977803300,10.28880322265625,-5.410405922609567,1.7463608522474765,-0.7304210375703871
1758274001987760000,10.298760009765624,-2.776074486863613,0.9152601569622755,0.8914777148365974
1758274001997718000,10.308718017578125,-1.0167265811406074,1.996796333274245,1.890325378806889
1758274002007676200,10.31867626953125,-0.614049597465992,-0.7862573449522257,3.7240105865031476
1758274002017634000,10.328634033203125,1.373638131201267,-2.7904911347508428,1.596390947793424
1758274002027592200,10.33859228515625,3.044275341683626,-2.856085012167692,-1.5533844574987887
1758274002037550300,10.34855029296875,5.708910730278491,-1.3685370086699724,-2.4454057776927947
1758274002047507000,10.3585068359375,4.746494854387641,0.6950339362382888,-3.881204012469947
1758274002057465000,10.368465087890625,-3.894048588734865,0.3372773136556148,-2.3354990035578607
1758274002067423200,10.37842333984375,-6.817227361488342,-1.3694044391542672,-0.3157657390713692
1758274002077381000,10.388381103515625,-1.1486527332514525,-2.531979314774275,-0.5386898205772042
1758274002087339300,10.39833935546875,2.28922035972476,-3.4927877554684876,-0.6283841200277209
1758274002097297200,10.408297119140625,3.625006606915593,-4.354692754340172,-0.8177654128938913
1758274002107254000,10.41825390625,3.7105496319055553,-3.832144798007607,-0.76488094105497
1758274002117212200,10.428212158203126,3.2506168294399975,-2.8639018233984705,-0.6848544875293969
1758274002127170000,10.438170166015626,1.74857385212183,-2.131709246110916,-0.34585838725715873
1758274002137128200,10.448128173828126,-0.5428951998451724,-2.2992606922239065,-0.7301790455080568
1758274002147086000,10.458086181640626,-2.2335095784187318,-3.1067338436841965,-1.4039378462664782
1758274002157044200,10.468044189453124,-1.9368840086251495,-2.719344299381971,-1.5044336718469857
1758274002167002000,10.478002197265624,-0.4780944821000099,-1.4793085829406976,-1.1918752774495631
1758274002176959000,10.487958984375,0.6820411836743354,-0.16010346819460392,-1.2800317728735506
1758274002186917000,10.497917236328124,1.7227812392175197,-0.6111445236742497,-1.002151016364619
1758274002196875000,10.507875,2.342238833206892,-1.2235229730576276,-0.8625006997425109
1758274002206833200,10.517833251953125,2.643409060692787,-1.196908522376418,-0.7441404239084571
1758274002216791000,10.527791015625,3.595397650593519,-3.4878549752414223,0.5136445189088583
1758274002226749200,10.537749267578125,2.881600561696291,-5.867397410926222,1.078800029346347
1758274002236706300,10.547706298828125,1.3468506620407104,-7.1595888465404505,1.0608562302462756
1758274002246664000,10.557663818359375,1.097360425974801,-6.677675682935118,1.529701237963885
1758274002256622000,10.5676220703125,1.246165597498417,-3.915458456510305,1.1689008637711404
1758274002266580200,10.577580322265625,-0.9887222835361957,-3.9542461600661274,1.8110975283131003
1758274002276538000,10.5875380859375,-1.1445137337505817,-4.319323334795237,1.9671043748438357
1758274002286496300,10.597496337890625,-1.2040192311644553,-2.5438392639160154,1.5529071953758598
1758274002296453000,10.607453125,1.6657774954915046,-0.6939040554255247,1.1432792235195637
1758274002306411000,10.617410888671875,2.474719550460577,-0.7874298958629369,0.07057225035130978
1758274002316369200,10.627369140625,-2.180557740432024,-1.5983850442200898,-1.4951938420757651
1758274002326327000,10.6373271484375,-2.334530743047595,-2.850103599670529,-2.175953169246018
1758274002336285200,10.64728515625,1.7271067012012005,-1.3098884203463792,-1.761652821664512
1758274002346243000,10.6572431640625,1.3289216221183537,-1.4804542458444834,-0.7015566160053014
1758274002356200200,10.6672001953125,-0.9868998904146253,-0.4084025217145681,1.0217468935206533
1758274002366158300,10.677158447265626,-12.695683342045545,0.06088613811731338,0.8254784714892506
1758274002376116000,10.687115966796876,-9.093223497980832,1.730602142101526,2.323804474110901
1758274002386074000,10.69707421875,5.496821638780832,-0.2523468676060438,2.980934211629629
1758274002396032000,10.707031982421874,0.8358730242535471,-1.7065747853040694,4.666072825673222
1758274002405990100,10.716990234375,-7.410257551801204,-1.471778771957755,7.434770061767101
1758274002415947300,10.726947265625,-2.7847698344945906,-0.7084095506399869,11.704482685697078
1758274002425905200,10.7369052734375,-1.8509546146661042,-0.510250784817338,14.44413444457054
1758274002435863300,10.74686328125,-3.932406084179878,-0.6436147146463393,15.066587128722666
1758274002445821200,10.7568212890625,-3.147594846382737,-1.1191291171252726,14.552046537756919
1758274002455779300,10.766779296875,-3.219958656325936,-1.7551660899937152,12.9522802683115
1758274002465737200,10.7767373046875,-4.2876866720378395,-2.037802297401428,10.597608654510974
1758274002475694000,10.786694091796875,-3.420091352570057,-2.2436329130262136,8.154183236980439
1758274002485652200,10.79665234375,-2.4501579406559464,-2.7298008114665744,5.586832164573669
1758274002495610000,10.806610107421875,-2.6738421928793192,-2.9024089564472435,3.1183789810314773
1758274002505568300,10.816568359375,-2.9081004460871216,-2.0582626093670724,1.1827990407422184
1758274002515526400,10.8265263671875,-2.9998797351181503,-0.4853983753725886,-0.45378363218605516
1758274002525484300,10.836484375,-3.3473452653110027,1.2201042506553232,-2.757351081693172
1758274002535441200,10.846441162109375,-2.6699451854407785,2.9718489878982304,-4.781049450418353
1758274002545399300,10.8563994140625,-0.7630962495952844,4.372594321733713,-5.444487055909633
1758274002555357200,10.866357177734375,-1.4201122976064682,3.477306985481083,-6.942531903502345
1758274002565315300,10.8763154296875,-3.9052772542357443,2.3649025004357096,-7.993258515530824
1758274002575273200,10.886273193359376,-5.862188151845336,1.8334512528099118,-8.536221483382581
1758274002585231400,10.8962314453125,-5.87415331492722,1.7467236942104993,-8.652913679873944
1758274002595188500,10.9061884765625,-4.805515198633074,1.2075126262381672,-8.277425001245737
1758274002605146000,10.91614599609375,-3.115591103878617,-0.043314825591444964,-7.69600341566205
1758274002615104300,10.926104248046874,-1.1628566151708364,-0.9650812957078218,-7.328868139359354
1758274002625062100,10.936062255859374,0.2308358775436878,-2.32548555906564,-6.854201878142357
1758274002635020300,10.946020263671874,0.91012279407382,-3.732402859534323,-6.242987211841345
1758274002644978200,10.955978271484375,0.9833376678884029,-4.419484375463425,-5.877770336380601
1758274002654935300,10.965935302734374,0.34892800396084783,-4.655564875662327,-5.631800018069148
1758274002664893200,10.97589306640625,-0.48900458317101,-4.845515785109996,-5.3904129358947275
1758274002674851000,10.98585107421875,-1.081770569589734,-4.822766777685285,-5.214025856897234
1758274002684809200,10.995809326171875,-1.1215636507958173,-4.3437376450836656,-4.977453481528163
1758274002694767400,11.005767333984375,-1.107407115149498,-3.7292785900339482,-4.478020443323254
1758274002704725200,11.015725341796875,-1.399008134779334,-3.7162849606871604,-3.857380946072936
1758274002714682400,11.025682373046875,-1.5097060592919587,-3.824431739412248,-3.0014518067404627
1758274002724640300,11.03564013671875,-1.6833219200104474,-3.8821620438471434,-2.0993219111166894
1758274002734598100,11.04559814453125,-2.225945865166187,-3.807225168545544,-1.3469067761421203
1758274002744556300,11.055556396484375,-2.8971903450161216,-3.45647199498415,-0.790042708709836
1758274002754514200,11.06551416015625,-3.3857284797191616,-2.8846333535209294,-0.2665763223581016
1758274002764472300,11.075472412109375,-4.186214841032028,-1.357530461487174,4.391090932410955
1758274002774429400,11.085429443359375,-2.297250521445274,2.952166382306814,29.433569360029697
1758274002784387300,11.09538720703125,3.2207419156581163,0.5088882642924786,34.119061756443976
1758274002794345500,11.105345458984376,1.909777390512824,-7.051518347921967,10.02177977436781
1758274002804303000,11.11530322265625,-3.237057675164938,-7.897416799366474,0.1030499853090383
1758274002814261200,11.12526123046875,-3.585402910801768,-6.245266262689232,-2.525418933345377
1758274002824219100,11.13521923828125,-2.7068483904242515,-4.590995665118098,-4.458162481164932
1758274002834176300,11.14517626953125,-1.2284499080657958,-2.8439880393996835,-8.795877212697267
1758274002844134400,11.155134521484374,2.4445927077442406,-1.8899831412404775,-12.045091774123906
1758274002854092300,11.16509228515625,3.738462305703759,-3.3010280430331824,-11.166185956090688
1758274002864050200,11.17505029296875,1.5767846223086117,-0.49847442230582234,0.7989376705661415
1758274002874008000,11.185008056640624,0.11157996804416179,0.44841509089022874,3.2953675330534575
1758274002883966200,11.19496630859375,0.028484920728206634,-1.2253303147405386,3.159320063228905
1758274002893923300,11.20492333984375,0.03880991538763046,-2.265470943085849,1.2007397711023688
1758274002903881200,11.214881103515625,-1.1073533391356467,-2.0894263939157125,1.2987427569538355
1758274002913839400,11.22483935546875,-2.006595842754841,-1.5596313890643416,1.6978360369227825
1758274002923797200,11.23479736328125,-1.6038427251040934,-1.1900247542120514,1.4694228564813732
1758274002933755100,11.244755126953125,-0.5616033709138631,-0.7595106461934745,1.3952334385462104
1758274002943713300,11.25471337890625,0.9768488903909921,-0.6826816735349596,0.3714239134073257
1758274002953670100,11.264670166015625,1.6452607771635055,-0.6649032941296696,-0.5858451011143625
1758274002963628300,11.274628173828125,1.4283797752141951,-1.239218993230909,-0.7264511110261083
1758274002973586400,11.28458642578125,1.055923596149683,-2.0050679025352,-0.5348546628611162
1758274002983544300,11.29454443359375,0.25602526385784147,-2.16930043335855,-0.03814177033510059
1758274002993502500,11.30450244140625,-0.8680337108850479,-2.0059014307498932,0.7785089227825402
1758274003003460000,11.314460205078126,-0.8717483474940061,-1.4501415251672267,1.3462204013131558
1758274003013417200,11.324417236328125,-0.5400310060530901,-0.7265007953867316,1.5178461111277342
1758274003023375400,11.334375244140626,-0.8654612300485373,-0.8673083192199468,1.4584044727303087
1758274003033333200,11.344333251953126,-0.9569728080540895,-1.1695406229794025,1.128136599445343
1758274003043291400,11.35429150390625,-0.8886626574158668,-1.1410387511163949,0.881962794451043
1758274003053249300,11.364249267578124,-1.1162006624579428,-1.047457965621352,0.597716411900334
1758274003063207200,11.374207275390624,-1.4663526552557944,-0.932336963969469,0.3367852923549712
1758274003073164300,11.384164306640624,-1.494076528483629,-0.6418856988966465,0.1178907951587811
1758274003083122200,11.3941220703125,-1.1732003145307301,-0.4579892671823501,-0.12088703609900549
1758274003093080300,11.404080322265624,-1.1088701734393835,-0.4468175925657153,-0.1941129244979471
1758274003103038200,11.4140380859375,-1.3105857549607753,-0.35829379819929597,-0.2963882539063692
1758274003112996400,11.423996337890625,-1.5373089364886283,-0.17772475734204052,-0.18861067381985486
1758274003122954500,11.43395458984375,-1.4049042070806026,0.20255349365025757,-0.2617238408256322
1758274003132911000,11.4439111328125,-1.1650550019979475,0.5821914009124041,-0.6035355830404907
1758274003142869200,11.453869140625,-1.079560492324829,0.4322349404618144,-1.0899439391732215
1758274003152827100,11.4638271484375,-1.0571867479532957,0.057281976145505904,-1.3522685954362152
1758274003162785300,11.473785400390625,-0.6717687959849834,-0.08885609506070613,-1.343723762191832
1758274003172743400,11.483743408203125,-0.2489700846493244,0.11462065091431141,-1.2841161195777355
1758274003182700000,11.493699951171875,0.0288742123067379,0.3238920546427369,-1.1875696892101317
1758274003192658200,11.503658203125,0.12600772184729575,0.2507774263322353,-1.0778482815794646
1758274003202616300,11.5136162109375,0.044506081202626224,-0.13923925160318612,-0.9732518157470971
1758274003212574200,11.52357421875,0.2418979543060064,-0.4361635120823979,-0.712043742423877
1758274003222532400,11.533532470703125,0.5252092844963073,-0.5536813457429409,-0.2804258744144812
1758274003232490200,11.543490234375,0.38551732068955896,-0.535195256459713,-0.05017633625823073
1758274003242447400,11.553447265625,0.1968295630455017,-0.5434305853635072,0.12993257627398705
1758274003252405200,11.5634052734375,1.078163485008478,-0.3389776878327131,0.5783524803366512
1758274003262363100,11.573363037109376,-0.9749965405225753,0.6361170523673295,0.5379022503960877
1758274003272321300,11.5833212890625,-1.3121499355375765,0.6867071296587586,0.18916189622813834
1758274003282279200,11.593279052734376,-0.5148410352170467,0.6465630430579186,0.2048407278046012
1758274003292237300,11.6032373046875,-0.5715875893115997,0.6736410195976495,0.022249332540575414
