time,seconds_elapsed,z,y,x
1758273991741784600,0.05278466796875,0.6360207796096802,-2.2038700580596924,1.0029983520507812
1758273991751742700,0.06274267578125,0.5087898373603821,-2.241668701171875,1.0767568349838257
1758273991761700600,0.07270068359375,0.30645751953125,-2.1636016368865967,1.0454626083374023
1758273991771658800,0.08265869140625,0.11935264617204666,-1.8003937005996704,0.8315123319625854
1758273991781616600,0.09261669921875,0.034277163445949554,-1.1969685554504395,0.5120331645011902
1758273991791573800,0.10257373046875,0.10747143626213074,-0.6765029430389404,0.2660219371318817
1758273991801532000,0.112531982421875,0.3242802023887634,-0.3638637959957123,0.23173083364963531
1758273991811489500,0.122489501953125,0.60504549741745,-0.39381957054138184,0.365928053855896
1758273991821447700,0.13244775390625,0.9109070301055908,-0.4413248896598816,0.5679537653923035
1758273991831404800,0.14240478515625,1.0869261026382446,-0.3005695939064026,0.882011353969574
1758273991841362700,0.15236279296875,1.0770394802093506,-0.08833190053701401,1.1550769805908203
1758273991851320800,0.16232080078125,0.9750286340713501,-0.07314937561750412,1.3184500932693481
1758273991861278700,0.17227880859375,0.9465327858924866,-0.09549809247255325,1.5769548416137695
1758273991871235600,0.182235595703125,0.7419624328613281,-0.6290201544761658,1.57389235496521
1758273991881193700,0.19219384765625,0.44102388620376587,-1.9267274141311646,0.855108916759491
1758273991891150600,0.202150634765625,0.48154130578041077,-1.8256422281265259,-0.07516933977603912
1758273991901108700,0.212108642578125,0.5889894962310791,-1.1364246606826782,-0.952644944190979
1758273991911067000,0.22206689453125,0.6958011388778687,-0.45980942249298096,-1.5642398595809937
1758273991921024800,0.232024658203125,0.9142143726348877,0.13696454465389252,-1.907150149345398
1758273991930981600,0.241981689453125,1.1195670366287231,0.398307204246521,-2.050950527191162
1758273991940939800,0.251939697265625,1.1951231956481934,0.30197271704673767,-1.944632887840271
1758273991950897700,0.261897705078125,1.085376501083374,0.07319840043783188,-1.6183756589889526
1758273991960855800,0.271855712890625,0.8999062180519104,-0.20550993084907532,-1.2162162065505981
1758273991970812700,0.281812744140625,0.7347935438156128,-0.37239915132522583,-0.9066790342330933
1758273991980770600,0.2917705078125,0.6822030544281006,-0.3937297463417053,-0.7998812198638916
1758273991990728700,0.301728759765625,0.7606256604194641,-0.38285204768180847,-0.8436199426651001
1758273992000686600,0.3116865234375,0.9425568580627441,-0.45688554644584656,-0.9157222509384155
1758273992010644700,0.321644775390625,1.210221529006958,-0.6222963929176331,-0.9425588846206665
1758273992020601900,0.331601806640625,1.4726663827896118,-0.8348936438560486,-0.850238561630249
1758273992030559700,0.341559814453125,1.6561514139175415,-1.0748577117919922,-0.6561219692230225
1758273992040517600,0.351517578125,1.753553032875061,-1.4719212055206299,-0.47408610582351685
1758273992050475500,0.3614755859375,1.993356466293335,-2.1294045448303223,-0.3763004243373871
1758273992060432600,0.3714326171875,2.3513336181640625,-2.824456214904785,-0.3321310877799988
1758273992070390800,0.381390869140625,2.6532180309295654,-3.5124423503875732,-0.3177811801433563
1758273992080348700,0.3913486328125,2.853363037109375,-4.077627182006836,-0.2773512005805969
1758273992090306800,0.401306884765625,2.9994826316833496,-4.472756385803223,-0.15556640923023224
1758273992100264700,0.4112646484375,3.255100965499878,-4.662816524505615,0.031661007553339005
1758273992110221600,0.4212216796875,3.571286916732788,-4.59248161315918,0.21791136264801025
1758273992120179700,0.4311796875,3.850022077560425,-4.43959903717041,0.34497159719467163
1758273992130137600,0.4411376953125,4.197482109069824,-4.187272071838379,0.3914382755756378
1758273992140095700,0.451095703125,4.597893714904785,-3.990859270095825,0.3473608195781708
1758273992150052900,0.461052978515625,4.96978759765625,-3.8945860862731934,0.37164798378944397
1758273992160010500,0.471010498046875,5.144169330596924,-3.833272695541382,0.5080247521400452
1758273992169968600,0.48096875,5.187539100646973,-3.7755143642425537,0.8441334962844849
1758273992179926500,0.490926513671875,5.121990203857422,-3.8010387420654297,1.268164873123169
1758273992189884700,0.500884765625,4.9648356437683105,-3.973170518875122,1.678674340248108
1758273992199841800,0.510841796875,4.718943119049072,-4.067127227783203,2.0321261882781982
1758273992209799700,0.520799560546875,4.331273078918457,-3.898580551147461,2.3272604942321777
1758273992219757800,0.5307578125,3.8395729064941406,-3.452596426010132,2.5586435794830322
1758273992229715700,0.5407158203125,3.3877110481262207,-2.963521718978882,2.6526119709014893
1758273992239673600,0.550673583984375,3.119781732559204,-2.597961902618408,2.5841991901397705
1758273992249630700,0.560630615234375,2.967653512954712,-2.2640624046325684,2.4524738788604736
1758273992259588600,0.570588623046875,2.823354721069336,-1.9149516820907593,2.3048856258392334
1758273992269546800,0.580546630859375,2.6214170455932617,-1.5274221897125244,2.2162535190582275
1758273992279505000,0.5905048828125,2.3763787746429443,-1.2729771137237549,2.153515577316284
1758273992289461500,0.60046142578125,2.146538257598877,-1.1629608869552612,2.046112298965454
1758273992299419600,0.610419677734375,1.9238898754119873,-1.1176637411117554,1.87516450881958
1758273992309377800,0.620377685546875,1.709895372390747,-1.0896689891815186,1.678298830986023
1758273992319335700,0.630335693359375,1.5249688625335693,-1.0347201824188232,1.5099793672561646
1758273992329293800,0.6402939453125,1.3552378416061401,-0.9673104286193848,1.3601138591766357
1758273992339250700,0.650250732421875,1.2393299341201782,-0.941214382648468,1.2228636741638184
1758273992349208600,0.66020849609375,1.1645591259002686,-0.889416515827179,1.107786774635315
1758273992359166700,0.670166748046875,1.1523418426513672,-0.9420788884162903,0.9633569121360779
1758273992369124600,0.68012451171875,1.1849379539489746,-1.1875677108764648,0.7879868149757385
1758273992379082800,0.690082763671875,1.2134982347488403,-1.399690866470337,0.6240770220756531
1758273992389039900,0.700039794921875,1.1640733480453491,-1.405171275138855,0.4728703498840332
1758273992398997800,0.709997802734375,1.0470373630523682,-1.366919994354248,0.3629299998283386
1758273992408955600,0.71995556640625,0.9430059790611267,-1.3251491785049438,0.28908270597457886
1758273992418914300,0.729914306640625,0.806851863861084,-1.298848271369934,0.228061705827713
1758273992428871200,0.73987109375,0.6018598079681396,-1.4898453950881958,0.02726491168141365
1758273992438829000,0.7498291015625,0.4048072099685669,-1.9673038721084595,-0.5703707933425903
1758273992448787200,0.759787109375,0.43606650829315186,-2.2567837238311768,-1.193070888519287
1758273992458745300,0.769745361328125,0.588473916053772,-2.053765296936035,-1.5781360864639282
1758273992468703200,0.779703125,0.7516154050827026,-1.4028347730636597,-1.6014455556869507
1758273992478660400,0.789660400390625,0.9379882216453552,-0.8046954274177551,-1.423138976097107
1758273992488618500,0.799618408203125,1.1717890501022339,-0.5482296347618103,-1.2643314599990845
1758273992498576100,0.809576171875,1.302086591720581,-0.5131158232688904,-1.3200451135635376
1758273992508534300,0.8195341796875,1.4152840375900269,-0.4574839174747467,-1.4823015928268433
1758273992518492200,0.8294921875,1.6016494035720825,-0.2908549904823303,-1.6204243898391724
1758273992528449300,0.83944921875,1.869423270225525,0.12974561750888824,-1.7714130878448486
1758273992538407400,0.849407470703125,2.276026487350464,0.5657735466957092,-1.8095911741256714
1758273992548365300,0.859365234375,3.191150426864624,0.38481321930885315,-1.6105320453643799
1758273992558323500,0.869323486328125,3.408097505569458,-0.26256075501441956,-1.0321650505065918
1758273992568281000,0.879281005859375,3.150291681289673,-0.4573146402835846,-1.1912329196929932
1758273992578238200,0.88923828125,3.3144328594207764,-0.8154515027999878,-1.6001237630844116
1758273992588196400,0.8991962890625,3.6752982139587402,-0.30155354738235474,-1.8665865659713745
1758273992598154200,0.909154296875,4.0898661613464355,-1.0123977661132812,-1.8618223667144775
1758273992608112400,0.9191123046875,4.289605140686035,-1.9314936399459839,-1.6542737483978271
1758273992618069200,0.9290693359375,4.240978240966797,-1.9854652881622314,-1.1698434352874756
1758273992628027100,0.939027099609375,4.117908477783203,-1.1123216152191162,-0.7246394753456116
1758273992637985300,0.9489853515625,3.983367919921875,-0.14282329380512238,-0.5497727394104004
1758273992647943200,0.958943115234375,3.88497257232666,0.3098486065864563,-0.5276942253112793
1758273992657901300,0.9689013671875,3.941923141479492,0.045750126242637634,-0.16406679153442383
1758273992667858400,0.9788583984375,4.089153289794922,0.12494481354951859,0.28314146399497986
1758273992677816000,0.988816162109375,4.233612060546875,-0.01996949128806591,0.7015871405601501
1758273992687774200,0.998774169921875,4.421024799346924,-0.026526272296905518,0.6564294695854187
1758273992697732000,1.008732177734375,4.54555606842041,-0.46724003553390503,0.20897448062896729
1758273992707689200,1.018689208984375,4.564525127410889,-0.8832843899726868,-0.22934705018997192
1758273992717647400,1.0286474609375,4.548873424530029,-1.4638628959655762,-0.35947975516319275
1758273992727605200,1.038605224609375,4.491202354431152,-2.0885918140411377,-0.22868387401103973
1758273992737563400,1.0485634765625,3.0509634017944336,-2.6021625995635986,-0.06311275064945221
1758273992747521300,1.058521240234375,0.11688198149204254,-2.008194923400879,0.19193965196609497
1758273992757478100,1.06847802734375,-0.2871145009994507,-1.312756896018982,0.14592023193836212
1758273992767436300,1.078436279296875,0.633323609828949,-0.18898431956768036,-0.01823296956717968
1758273992777394200,1.088394287109375,1.6134716272354126,0.3052176833152771,-0.4097916781902313
1758273992787352300,1.098352294921875,2.3657877445220947,0.007804115768522024,-0.45830053091049194
1758273992797310500,1.108310546875,2.9184319972991943,-0.9305918216705322,-0.2108241468667984
1758273992807267000,1.11826708984375,3.319485664367676,-1.717726230621338,0.1550552099943161
1758273992817225200,1.12822509765625,3.619668960571289,-2.337930202484131,0.5053392052650452
1758273992827183400,1.138183349609375,3.986170768737793,-3.070470094680786,0.8704549670219421
1758273992837141200,1.148141357421875,5.183213233947754,-3.806292772293091,1.2622201442718506
1758273992847098400,1.158098388671875,7.792142868041992,-3.5120930671691895,0.9379293322563171
1758273992857056300,1.16805615234375,7.9135918617248535,-2.6974527835845947,0.20015808939933777
1758273992867014100,1.17801416015625,5.678564071655273,-1.3787453174591064,-0.29898014664649963
1758273992876972300,1.18797216796875,3.1261868476867676,0.13576194643974304,-0.6175121068954468
1758273992886930200,1.19793017578125,1.59660804271698,1.0495541095733643,-1.0852242708206177
1758273992896887300,1.20788720703125,1.1006014347076416,0.9898337721824646,-1.4812960624694824
1758273992906845400,1.217845458984375,1.2574621438980103,0.03431321308016777,-1.5695805549621582
1758273992916803300,1.22780322265625,1.5460875034332275,-1.0647462606430054,-1.2386354207992554
1758273992926761200,1.23776123046875,0.6985552310943604,-1.1826367378234863,-0.4949135482311249
1758273992936719000,1.247718994140625,-0.6886816024780273,-0.5924709439277649,0.15766769647598267
1758273992946676200,1.25767626953125,-0.7866736054420471,-0.3675321340560913,0.5187326073646545
1758273992956634400,1.26763427734375,-0.5439725518226624,-0.42333361506462097,0.6917635202407837
1758273992966592300,1.27759228515625,-0.37973031401634216,-0.3297949731349945,0.8009961247444153
1758273992976550400,1.28755029296875,-0.29948553442955017,-0.05509471520781517,0.8054452538490295
1758273992986507300,1.29750732421875,-0.24928730726242065,0.3166532516479492,0.7262442708015442
1758273992996465200,1.307465087890625,-0.1893121302127838,0.5911226868629456,0.5982857942581177
1758273993006423300,1.31742333984375,-0.13311539590358734,0.8446314930915833,0.5396888852119446
1758273993016381200,1.327381103515625,0.11956720054149628,1.0102367401123047,0.3763122260570526
1758273993026339300,1.33733935546875,0.31297609210014343,0.9449805617332458,-0.07684795558452606
1758273993036296400,1.34729638671875,0.23134513199329376,0.543289065361023,-0.31057602167129517
1758273993046254000,1.357254150390625,0.030174296349287033,-0.17449769377708435,-0.17668558657169342
1758273993056212200,1.367212158203125,-0.03682630509138107,-0.38778573274612427,0.19507385790348053
1758273993066170000,1.377170166015625,-0.060253459960222244,-0.15825925767421722,0.4886419177055359
1758273993076127200,1.387127197265625,-0.06318134069442749,0.10252439975738525,0.5278170704841614
1758273993086085400,1.39708544921875,-0.07481162995100021,0.3199656903743744,0.427187979221344
1758273993096043300,1.407043212890625,-0.09293977171182632,0.4031553864479065,0.31161797046661377
1758273993106001400,1.41700146484375,-0.07384388893842697,0.3308391571044922,0.2070128172636032
1758273993115959000,1.426958984375,-0.05542546510696411,0.20770682394504547,0.12704607844352722
1758273993125916200,1.436916259765625,-0.06038719788193703,0.15908601880073547,0.08308208733797073
1758273993135874300,1.446874267578125,-0.06986618787050247,0.1768977791070938,0.06017730385065079
1758273993145832200,1.456832275390625,-0.0796947255730629,0.24047450721263885,0.07553821057081223
1758273993155790300,1.466790283203125,-0.09253941476345062,0.2219650000333786,0.11827635020017624
1758273993165748500,1.47674853515625,-0.09794169664382935,0.22057919204235077,0.1297048032283783
1758273993175705000,1.486705078125,-0.1083378791809082,0.28045397996902466,0.104934461414814
1758273993185663200,1.496663330078125,-0.1309240162372589,0.3363109230995178,0.10791464895009995
1758273993195621400,1.506621337890625,-0.11697011440992355,0.2992037534713745,0.15663079917430878
1758273993205579300,1.516579345703125,-0.12994226813316345,0.17357759177684784,0.21071507036685944
1758273993215536400,1.526536376953125,-0.1287214756011963,0.12363879382610321,0.21308794617652893
1758273993225494300,1.536494384765625,-0.17487983405590057,0.17889370024204254,0.16624680161476135
1758273993235452200,1.5464521484375,-0.2573922872543335,0.22046537697315216,0.18834279477596283
1758273993245410300,1.556410400390625,-0.29675382375717163,0.3001476228237152,0.22371265292167664
1758273993255368200,1.5663681640625,-0.3701670467853546,0.35873183608055115,0.25007981061935425
1758273993265325300,1.5763251953125,-0.42769655585289,0.4382631480693817,0.27468881011009216
1758273993275283500,1.586283447265625,-0.47754374146461487,0.5147861838340759,0.28489723801612854
1758273993285241300,1.596241455078125,-0.4815685749053955,0.5219937562942505,0.2896043658256531
1758273993295199200,1.60619921875,-0.45785632729530334,0.45205408334732056,0.287555068731308
1758273993305157000,1.6161572265625,-0.42174890637397766,0.36502745747566223,0.24446123838424683
1758273993315114200,1.6261142578125,-0.3477495014667511,0.28872308135032654,0.15097284317016602
1758273993325072400,1.636072265625,-0.26992321014404297,0.3356288969516754,0.05209912732243538
1758273993335030300,1.6460302734375,-0.27860406041145325,0.44507870078086853,0.008831283077597618
1758273993344988400,1.655988525390625,-0.31070172786712646,0.450378954410553,0.018567334860563278
1758273993354945300,1.6659453125,-0.3321250081062317,0.40289077162742615,0.02322360686957836
1758273993364903200,1.675903076171875,-0.278778076171875,0.39979395270347595,0.021782170981168747
1758273993374861300,1.685861328125,-0.23872493207454681,0.3888968229293823,0.021055128425359726
1758273993384819200,1.695819091796875,-0.2061273604631424,0.32353055477142334,0.01594235748052597
1758273993394777300,1.70577734375,-0.17449833452701569,0.1820264309644699,-0.024362454190850258
1758273993404734500,1.715734375,-0.22229759395122528,0.026327749714255333,-0.05844423174858093
1758273993414692000,1.725692138671875,-0.21040818095207214,0.019121237099170685,-0.05127207189798355
1758273993424649500,1.7356494140625,-0.17720529437065125,0.096010722219944,0.001863500801846385
1758273993434607600,1.745607666015625,-0.14851585030555725,0.16791661083698273,0.04438885673880577
1758273993444564500,1.755564453125,-0.15067273378372192,0.2648378014564514,0.07667211443185806
1758273993454522600,1.765522705078125,-0.16830499470233917,0.2965320944786072,0.10862179100513458
1758273993464480500,1.77548046875,-0.21950697898864746,0.3025776445865631,0.13620534539222717
1758273993474438400,1.7854384765625,-0.15928198397159576,0.34660103917121887,0.16399969160556793
1758273993484396500,1.795396484375,-0.09483812004327774,0.3131982982158661,0.15955038368701935
1758273993494353400,1.805353515625,-0.03638892248272896,0.23179398477077484,0.1242203563451767
1758273993504311600,1.8153115234375,0.014101372100412846,0.15277297794818878,0.06514032930135727
1758273993514269700,1.825269775390625,0.010737532749772072,0.030566371977329254,0.012812945991754532
1758273993524227600,1.8352275390625,0.07795831561088562,-0.015412745997309685,-0.007530645467340946
1758273993534185500,1.845185546875,0.1042112186551094,-0.016150176525115967,-0.0026157821994274855
1758273993544142600,1.855142578125,0.11956647783517838,0.01109215896576643,0.01304584089666605
1758273993554100500,1.8651005859375,0.13871486485004425,0.03802178055047989,0.05470700189471245
1758273993564058600,1.87505859375,0.1622537076473236,0.06004880368709564,0.10836230963468552
1758273993574016500,1.8850166015625,0.18640485405921936,0.05071496218442917,0.17198683321475983
1758273993583973400,1.894973388671875,0.2068793773651123,-0.047323524951934814,0.2296706736087799
1758273993593931500,1.904931640625,0.23334774374961853,-0.18814723193645477,0.2643008232116699
1758273993603889400,1.914889404296875,0.2214948832988739,-0.29520294070243835,0.2873609960079193
1758273993613847600,1.92484765625,0.19235457479953766,-0.30543532967567444,0.31840333342552185
1758273993623805400,1.934805419921875,0.1513819396495819,-0.2429143637418747,0.382521390914917
1758273993633762600,1.944762451171875,0.032163675874471664,-0.14446420967578888,0.4743623733520508
1758273993643720700,1.954720703125,0.010722005739808083,0.023484060540795326,0.5524523854255676
1758273993653678300,1.96467822265625,0.06546807289123535,0.179219588637352,0.5810544490814209
1758273993663636500,1.974636474609375,0.10059258341789246,0.17837639153003693,0.5581799745559692
1758273993673594400,1.984594482421875,0.14224602282047272,0.0683247298002243,0.46788284182548523
1758273993683551500,1.994551513671875,0.15029066801071167,-0.07378695905208588,0.2839122712612152
1758273993693509600,2.004509521484375,0.0466468408703804,-0.19768786430358887,0.01865185797214508
1758273993703467500,2.014467529296875,-0.08050891757011414,-0.1419873684644699,-0.26656779646873474
1758273993713425400,2.02442529296875,-0.13502809405326843,0.02701498381793499,-0.5594377517700195
1758273993723382500,2.034382568359375,-0.13920751214027405,0.18796406686306,-0.8417884707450867
1758273993733340400,2.04434033203125,-0.10857903957366943,0.2539106011390686,-1.0558030605316162
1758273993743298600,2.054298583984375,-0.037248559296131134,0.16058316826820374,-1.190002679824829
1758273993753256400,2.06425634765625,0.05809526890516281,-0.07415076345205307,-1.2669438123703003
1758273993763214600,2.074214599609375,0.12576691806316376,-0.3274146616458893,-1.3760607242584229
1758273993773171500,2.08417138671875,0.16533856093883514,-0.3645838797092438,-1.581753134727478
1758273993783129300,2.09412939453125,0.2025829255580902,-0.10697788745164871,-1.8671917915344238
1758273993793087500,2.10408740234375,0.19606271386146545,0.2326475828886032,-2.1318726539611816
1758273993803045600,2.114045654296875,0.16512711346149445,0.46104803681373596,-2.3108768463134766
1758273993813003500,2.12400341796875,0.1966664046049118,0.5799410939216614,-2.453392744064331
1758273993822960600,2.133960693359375,0.24812592566013336,0.5384665131568909,-2.5894460678100586
1758273993832918500,2.14391845703125,0.2436446249485016,0.3653775453567505,-2.735042095184326
1758273993842876400,2.15387646484375,0.16317753493785858,0.07585973292589188,-2.811997175216675
1758273993852834600,2.16383447265625,0.013209349475800991,-0.1913759559392929,-2.8343570232391357
1758273993862791400,2.17379150390625,-0.18671748042106628,-0.538831889629364,-2.838416576385498
1758273993872749600,2.18374951171875,-0.33137986063957214,-0.9690650105476379,-2.876013994216919
1758273993882707700,2.193707763671875,-0.36727529764175415,-1.6221923828125,-3.004354238510132
1758273993892665600,2.20366552734375,-0.008009010925889015,-1.1846755743026733,-2.6795663833618164
1758273993902623500,2.21362353515625,0.3586136996746063,-0.42732444405555725,-2.2344307899475098
1758273993912580600,2.22358056640625,0.320377379655838,-0.38923245668411255,-2.0586180686950684
1758273993922538500,2.23353857421875,0.38965854048728943,-0.6486327052116394,-2.0894112586975098
1758273993932496600,2.24349658203125,0.5412080883979797,-0.8304725289344788,-2.1740448474884033
1758273993942454500,2.25345458984375,0.607634425163269,-0.9249975681304932,-2.248378276824951
1758273993952412700,2.26341259765625,0.5466139316558838,-0.7268927693367004,-2.443463087081909
1758273993962369500,2.27336962890625,0.45329269766807556,-0.2108415812253952,-2.628002405166626
1758273993972327400,2.283327392578125,0.38000088930130005,0.4388730525970459,-2.7291464805603027
1758273993982285600,2.29328564453125,0.37195661664009094,0.81133633852005,-2.6977078914642334
1758273993992243500,2.303243408203125,0.38192668557167053,0.7247628569602966,-2.5433497428894043
1758273994002200600,2.31320068359375,0.32950103282928467,0.4563058018684387,-2.2900168895721436
1758273994012158700,2.32315869140625,0.24947065114974976,0.26396751403808594,-2.005467176437378
1758273994022116400,2.333116455078125,0.2038099765777588,0.29146304726600647,-1.846572995185852
1758273994032074500,2.343074462890625,0.15055367350578308,0.1541467308998108,-1.7079663276672363
1758273994042032400,2.353032470703125,0.12322019040584564,-0.2624277174472809,-1.7000341415405273
1758273994051989500,2.362989501953125,-0.0719040259718895,-0.4322234094142914,-1.7733869552612305
1758273994061947600,2.37294775390625,-0.2839418351650238,-0.7976297736167908,-1.9088486433029175
1758273994071905500,2.382905517578125,-0.3803565204143524,-1.276106595993042,-2.151843309402466
1758273994081863400,2.392863525390625,-0.4426752030849457,-1.9038203954696655,-2.4227030277252197
1758273994091821300,2.4028212890625,-0.45172062516212463,-2.586210012435913,-2.7852044105529785
1758273994101778400,2.4127783203125,-0.44181153178215027,-2.9702095985412598,-3.252246141433716
1758273994111736600,2.422736572265625,-0.5476487278938293,-2.8355798721313477,-3.513810873031616
1758273994121694500,2.432694580078125,-0.7607373595237732,-2.8600826263427734,-3.4779155254364014
1758273994131652600,2.442652587890625,-0.5467473268508911,-3.0463309288024902,-3.279557704925537
1758273994141610500,2.452610595703125,-0.34586676955223083,-2.859903335571289,-2.809420347213745
1758273994151567400,2.4625673828125,-0.26950544118881226,-2.336916923522949,-2.1319072246551514
1758273994161525500,2.472525390625,-0.20831941068172455,-1.722599983215332,-1.555098056793213
1758273994171483400,2.4824833984375,-0.15411849319934845,-1.2854660749435425,-1.1900238990783691
1758273994181441500,2.492441650390625,-0.1259699910879135,-1.0460766553878784,-0.9436876177787781
1758273994191398700,2.502398681640625,-0.11773443967103958,-0.9165902733802795,-0.7640259861946106
1758273994201356300,2.512356201171875,-0.11514239013195038,-0.8039361834526062,-0.625429630279541
1758273994211314400,2.522314453125,-0.12470287084579468,-0.6551663875579834,-0.5062524080276489
1758273994221272600,2.5322724609375,-0.1454368531703949,-0.43119749426841736,-0.3581363260746002
1758273994231230500,2.54223046875,-0.17383652925491333,-0.2734174430370331,-0.1940658986568451
1758273994241187600,2.5521875,-0.21392399072647095,-0.16170431673526764,-0.04762272536754608
1758273994251145700,2.562145751953125,-0.25220775604248047,-0.09142908453941345,0.0749865397810936
1758273994261103600,2.572103515625,-0.24764341115951538,0.06238294020295143,0.23083262145519257
1758273994271061500,2.5820615234375,-0.24393682181835175,0.15702608227729797,0.3925056755542755
1758273994281019400,2.592019287109375,-0.2436804175376892,0.17799904942512512,0.5309277772903442
1758273994290976500,2.6019765625,-0.2772785723209381,0.16545769572257996,0.6319798231124878
1758273994300934700,2.6119345703125,-0.3013705015182495,0.15799294412136078,0.6988920569419861
1758273994310892500,2.621892578125,-0.3084087073802948,0.13054747879505157,0.7571702599525452
1758273994320850700,2.6318505859375,-0.33890625834465027,0.10693152248859406,0.8428553342819214
1758273994330808300,2.641808349609375,-0.386557936668396,0.10162490606307983,0.9547171592712402
1758273994340765400,2.651765380859375,-0.4111788868904114,0.11578149348497391,1.0203030109405518
1758273994350723600,2.6617236328125,-0.4212155342102051,0.10339619219303131,0.9319164752960205
1758273994360681500,2.671681396484375,-0.408523291349411,0.06260813772678375,0.612662136554718
1758273994370639600,2.6816396484375,-0.39097943902015686,0.236642524600029,0.14858314394950867
1758273994380596500,2.691596435546875,-0.37782955169677734,0.5603913068771362,-0.1637185662984848
1758273994390554400,2.701554443359375,-0.4956553876399994,0.4325471818447113,0.2853497266769409
1758273994400512500,2.711512451171875,-0.6407092213630676,0.1078985184431076,1.080632209777832
1758273994410470400,2.721470458984375,-0.7698601484298706,0.2857585847377777,1.4051768779754639
1758273994420428800,2.7314287109375,-0.7659023404121399,0.7651584148406982,1.8220630884170532
1758273994430385700,2.7413857421875,-0.6127415895462036,0.6308419108390808,2.0128471851348877
1758273994440343600,2.751343505859375,-0.2511547803878784,0.04665158689022064,1.5557188987731934
1758273994450301700,2.7613017578125,0.04470217227935791,-0.44272369146347046,1.0055540800094604
1758273994460259600,2.771259521484375,0.03038836643099785,0.014520461671054363,1.000306248664856
1758273994470217700,2.7812177734375,-0.1793118566274643,0.8509072065353394,1.371409296989441
1758273994480174600,2.791174560546875,-0.3621270954608917,1.602109432220459,1.8780791759490967
1758273994490132500,2.801132568359375,-0.3722239136695862,2.074876546859741,2.253875255584717
1758273994500090600,2.811090576171875,-0.2898169457912445,2.2196781635284424,2.435605525970459
1758273994510048500,2.821048583984375,-0.22853335738182068,2.216575860977173,2.493135452270508
1758273994520005600,2.831005615234375,-0.2320690155029297,2.098872661590576,2.457937240600586
1758273994529963800,2.8409638671875,-0.2504693269729614,1.819603443145752,2.295339345932007
1758273994539921700,2.850921630859375,-0.24044260382652283,1.3314759731292725,2.0678746700286865
1758273994549879600,2.860879638671875,-0.20008666813373566,0.7344668507575989,1.888551115989685
1758273994559837700,2.870837646484375,-0.14056460559368134,0.1688816100358963,1.7940300703048706
1758273994569794600,2.880794677734375,-0.056836940348148346,-0.14883005619049072,1.7618287801742554
1758273994579752700,2.890752685546875,-0.01275176927447319,-0.1669568568468094,1.7877655029296875
1758273994589710600,2.900710693359375,0.05548696964979172,-0.03921595215797424,1.874558448791504
1758273994599668700,2.910668701171875,0.16831770539283752,0.18652208149433136,1.9568878412246704
1758273994609626600,2.920626708984375,0.22188319265842438,0.4757847785949707,2.0377063751220703
1758273994619583500,2.93058349609375,0.1757766455411911,0.7269659042358398,2.0965051651000977
1758273994629541600,2.940541748046875,0.07375706732273102,0.9142734408378601,2.1468398571014404
1758273994639499800,2.950499755859375,-0.009731356985867023,1.1104702949523926,2.164548635482788
1758273994649457700,2.960457763671875,-0.06404652446508408,1.2914108037948608,2.149406671524048
1758273994659415800,2.970415771484375,-0.07765897363424301,1.4265776872634888,2.11995005607605
1758273994669372700,2.98037255859375,-0.08649773895740509,1.4199244976043701,2.0862343311309814
1758273994679330600,2.99033056640625,-0.185169979929924,1.35963773727417,2.13103985786438
1758273994689288700,3.000288818359375,-0.2899206280708313,1.227442979812622,2.206526279449463
1758273994699246600,3.01024658203125,-0.34149491786956787,0.9909582734107971,2.3061654567718506
1758273994709203700,3.02020361328125,-0.35067829489707947,0.7625954151153564,2.370321273803711
1758273994719161900,3.030161865234375,-0.3282306492328644,0.5499387383460999,2.3438544273376465
1758273994729119500,3.040119384765625,-0.24394427239894867,0.49097397923469543,2.1786789894104004
1758273994739077600,3.05007763671875,-0.23780721426010132,0.5351913571357727,1.965277910232544
1758273994749035500,3.060035400390625,-0.35269784927368164,0.6080166101455688,1.6596932411193848
1758273994758992600,3.06999267578125,-0.414397656917572,0.6096644997596741,1.2591584920883179
1758273994768950800,3.07995068359375,-0.34053274989128113,0.520979106426239,0.8748654723167419
1758273994778908700,3.08990869140625,-0.2008671909570694,0.25029057264328003,0.6386361122131348
1758273994788866800,3.09986669921875,-0.10437101870775223,0.01320292055606842,0.5157243013381958
1758273994798824400,3.109824462890625,-0.09389068186283112,-0.12626154720783234,0.5221326351165771
1758273994808781600,3.119781494140625,-0.16494567692279816,-0.36074674129486084,0.6678730845451355
1758273994818739700,3.12973974609375,-0.1778194159269333,-0.5864535570144653,0.8653383851051331
1758273994828697600,3.139697509765625,-0.11464843153953552,-0.6293315291404724,0.9604425430297852
1758273994838655700,3.14965576171875,-0.02102321945130825,-0.46849703788757324,0.9059231877326965
1758273994848613600,3.159613525390625,0.08793734759092331,-0.12225812673568726,0.7545744180679321
1758273994858570500,3.169570556640625,0.20355163514614105,0.192979097366333,0.5701483488082886
1758273994868528600,3.179528564453125,0.3008805513381958,0.4001064598560333,0.43384137749671936
1758273994878486500,3.189486572265625,0.3148064613342285,0.43988585472106934,0.40060168504714966
1758273994888444700,3.199444580078125,0.2853974401950836,0.29350921511650085,0.3803139925003052
1758273994898402800,3.20940283203125,0.2449452131986618,0.011123981326818466,0.36093810200691223
1758273994908359400,3.219359375,0.23765507340431213,-0.35023555159568787,0.3740962743759155
1758273994918317600,3.229317626953125,0.24938485026359558,-0.6269159913063049,0.41951456665992737
1758273994928275700,3.239275634765625,0.277637779712677,-0.7670770883560181,0.4745410680770874
1758273994938233600,3.249233642578125,0.25916460156440735,-0.7278099656105042,0.5107927322387695
1758273994948191700,3.259191650390625,0.13555586338043213,-0.559697151184082,0.5631949305534363
1758273994958148600,3.269148681640625,-0.0207354836165905,-0.40053918957710266,0.6397885084152222
1758273994968106800,3.279106689453125,-0.1605527698993683,-0.28531405329704285,0.7408994436264038
1758273994978064600,3.289064697265625,-0.27312135696411133,-0.1269231140613556,0.8492853045463562
1758273994988022500,3.2990224609375,-0.3219080865383148,0.04594480246305466,0.9195248484611511
1758273994997979600,3.308979736328125,-0.3273337483406067,0.1950216293334961,0.9323021769523621
1758273995007937800,3.318937744140625,-0.2908303141593933,0.3098968267440796,0.8873884677886963
1758273995017895700,3.328895751953125,-0.19842475652694702,0.3349059820175171,0.757402777671814
1758273995027853800,3.338853759765625,-0.055659081786870956,0.2879083752632141,0.547439694404602
1758273995037811700,3.348811767578125,0.1359522044658661,0.33652254939079285,0.279183954000473
1758273995047768600,3.3587685546875,0.2864418625831604,0.4668232798576355,-0.08101976662874222
1758273995057726700,3.368726806640625,0.3020581901073456,0.5600847005844116,-0.5065500140190125
1758273995067684600,3.3786845703125,0.23060424625873566,0.5120583176612854,-0.8030527830123901
1758273995077642800,3.388642822265625,0.12484405189752579,0.18236978352069855,-0.8555304408073425
1758273995087600600,3.3986005859375,0.10747731477022171,-0.3747613728046417,-0.7590938806533813
1758273995097557500,3.4085576171875,0.16050270199775696,-0.927780032157898,-0.8385701179504395
1758273995107515600,3.418515625,0.27816301584243774,-1.120623230934143,-1.194865345954895
1758273995117473500,3.4284736328125,0.41640976071357727,-0.8453782796859741,-1.7111093997955322
1758273995127431700,3.438431640625,0.5769670009613037,-0.37324512004852295,-2.2287344932556152
1758273995137389600,3.4483896484375,0.6563760638237,0.00011060666292905807,-2.596555233001709
1758273995147346700,3.4583466796875,0.6170280575752258,0.13075651228427887,-2.7522618770599365
1758273995157304600,3.4683046875,0.5701853036880493,-0.06863845139741898,-2.83976674079895
1758273995167262500,3.478262451171875,0.5790799856185913,-0.3848603069782257,-2.918470859527588
1758273995177220600,3.488220703125,0.5747970938682556,-0.4330406188964844,-2.9535443782806396
1758273995187178500,3.498178466796875,0.48116403818130493,-0.3034956455230713,-2.930695056915283
1758273995197135600,3.508135498046875,0.3686346113681793,-0.12594489753246307,-2.884972333908081
1758273995207093800,3.51809375,0.334887832403183,-0.037000641226768494,-2.800384521484375
1758273995217051600,3.5280517578125,0.3202875852584839,-0.09012112021446228,-2.6651995182037354
1758273995227009500,3.538009521484375,0.3072788417339325,-0.23219729959964752,-2.5087597370147705
1758273995236966700,3.547966552734375,0.3104844093322754,-0.2159753441810608,-2.308722734451294
1758273995246924500,3.557924560546875,0.3601265251636505,-0.018263863399624825,-2.0849127769470215
1758273995256882700,3.567882568359375,0.4444694221019745,0.19946371018886566,-1.9099926948547363
1758273995266840600,3.577840576171875,0.2826535999774933,0.24735480546951294,-1.758575201034546
1758273995276798700,3.587798828125,-0.04215073585510254,0.4922832250595093,-1.821197748184204
1758273995286755600,3.597755615234375,-0.08225341886281967,0.670149028301239,-2.083949089050293
1758273995296713500,3.60771337890625,0.060734596103429794,0.7312951683998108,-2.3540217876434326
1758273995306671600,3.617671630859375,0.15485922992229462,0.6134308576583862,-2.54711651802063
1758273995316629800,3.627629638671875,0.248440682888031,0.45939114689826965,-2.6945765018463135
1758273995326587600,3.637587646484375,0.3481079041957855,0.3269428312778473,-2.803490400314331
1758273995336544800,3.647544677734375,0.36311355233192444,0.031196877360343933,-2.8004372119903564
1758273995346502700,3.657502685546875,0.2691202163696289,-0.6104544997215271,-2.7487359046936035
1758273995356460500,3.66746044921875,0.186661496758461,-1.0945073366165161,-2.6619021892547607
1758273995366418700,3.677418701171875,0.09240102767944336,-1.7795743942260742,-2.5611515045166016
1758273995376376600,3.68737646484375,-0.011442998424172401,-2.2057600021362305,-2.802311897277832
1758273995386333700,3.697333740234375,-0.07726568728685379,-2.0640037059783936,-3.156477928161621
1758273995396291800,3.707291748046875,-0.23781418800354004,-2.286531448364258,-3.3383617401123047
1758273995406249500,3.71724951171875,-0.3260748088359833,-2.6671836376190186,-3.444127321243286
1758273995416207600,3.72720751953125,-0.2914949059486389,-2.808743476867676,-3.416086435317993
1758273995426166500,3.73716650390625,-0.20544549822807312,-2.729769706726074,-3.151108741760254
1758273995436123400,3.747123291015625,-0.1409393697977066,-2.561821937561035,-2.664669990539551
1758273995446081300,3.757081298828125,-0.03700445219874382,-2.0994060039520264,-2.1684629917144775
1758273995456039400,3.767039306640625,-0.04803837463259697,-1.5423965454101562,-1.7031090259552002
1758273995465997600,3.77699755859375,-0.10217537730932236,-1.0975120067596436,-1.298454999923706
1758273995475955500,3.78695556640625,-0.13180910050868988,-0.8227041959762573,-1.0251458883285522
1758273995485912300,3.796912353515625,-0.12566331028938293,-0.635787844657898,-0.7956548929214478
1758273995495870500,3.806870361328125,-0.10321228206157684,-0.5299115180969238,-0.5733898282051086
1758273995505828400,3.816828369140625,-0.100380539894104,-0.4368809461593628,-0.3695858120918274
1758273995515786500,3.826786376953125,-0.11156988888978958,-0.2772485613822937,-0.11640425771474838
1758273995525744400,3.836744384765625,-0.1837620735168457,-0.1335049867630005,0.1517086774110794
1758273995535701500,3.846701416015625,-0.307928204536438,0.03256627544760704,0.44038885831832886
1758273995545659600,3.85665966796875,-0.4759955108165741,0.26515263319015503,0.7292805910110474
1758273995555617300,3.8666171875,-0.6482181549072266,0.5019207000732422,0.9894566535949707
1758273995565575400,3.876575439453125,-0.7699168920516968,0.6491820812225342,1.1872941255569458
1758273995575533300,3.886533203125,-0.8097654581069946,0.7327088117599487,1.2958040237426758
1758273995585490400,3.896490478515625,-0.7580263614654541,0.6772003173828125,1.3068971633911133
1758273995595448600,3.906448486328125,-0.6027328968048096,0.41687873005867004,1.2448530197143555
1758273995605406500,3.916406494140625,-0.4022459387779236,0.01622001640498638,1.1114542484283447
1758273995615364600,3.926364501953125,-0.15409204363822937,-0.4163716435432434,0.7155479192733765
1758273995625321500,3.936321533203125,-0.02740759588778019,-0.825405478477478,0.11939508467912674
1758273995635279400,3.946279296875,0.012052839621901512,-0.5588929653167725,-0.3741771876811981
1758273995645237500,3.956237548828125,0.03706977516412735,0.2252090722322464,-0.01576310209929943
1758273995655195400,3.9661953125,-0.03162582218647003,0.49050936102867126,0.8213143944740295
1758273995665153500,3.976153564453125,0.09115974605083466,0.34971922636032104,1.0962517261505127
1758273995675111400,3.986111328125,0.18419772386550903,0.48622238636016846,1.4296433925628662
1758273995685068300,3.996068359375,0.2309681624174118,0.4445495009422302,0.8604850769042969
1758273995695026400,4.0060263671875,0.29231521487236023,0.06249815598130226,0.6770361661911011
1758273995704984300,4.015984375,0.13344675302505493,-0.06920873373746872,1.1017423868179321
1758273995714942500,4.0259423828125,-0.038825396448373795,-0.025318311527371407,1.338775634765625
1758273995724899600,4.035899658203125,-0.041054196655750275,0.2800639867782593,1.4074106216430664
1758273995734857200,4.045857177734375,0.06798940896987915,0.7885666489601135,1.4937423467636108
1758273995744815400,4.0558154296875,0.14241304993629456,1.2351717948913574,1.696641206741333
1758273995754773500,4.0657734375,0.13124702870845795,1.5168559551239014,2.0067403316497803
1758273995764731400,4.0757314453125,0.03864438831806183,1.6350123882293701,2.190410614013672
1758273995774688500,4.0856884765625,-0.09772583842277527,1.5862886905670166,2.2048776149749756
1758273995784646400,4.095646484375,-0.25376632809638977,1.4099756479263306,2.1511456966400146
1758273995794604500,4.1056044921875,-0.41821664571762085,1.2578589916229248,2.1445302963256836
1758273995804562400,4.1155625,-0.5977893471717834,1.1397008895874023,2.235219955444336
1758273995814520300,4.125520263671875,-0.7738226652145386,0.979824423789978,2.349893569946289
1758273995824477400,4.1354775390625,-0.9470155239105225,0.7711167335510254,2.4784610271453857
1758273995834435600,4.145435546875,-1.0575218200683594,0.6830277442932129,2.614687919616699
1758273995844393500,4.1553935546875,-1.073838710784912,0.7140660285949707,2.6966018676757812
1758273995854351600,4.1653515625,-0.9965978264808655,0.7850175499916077,2.7164361476898193
1758273995864309500,4.1753095703125,-0.8049583435058594,0.9248771667480469,2.633199453353882
1758273995874266400,4.185266357421875,-0.5459066033363342,1.071507453918457,2.549190044403076
1758273995884224500,4.195224609375,-0.2721911668777466,1.1988770961761475,2.493844509124756
1758273995894182400,4.205182373046875,-0.0882887914776802,1.3370987176895142,2.4314467906951904
1758273995904140500,4.215140625,-0.02591090090572834,1.5123618841171265,2.3509297370910645
1758273995914098400,4.225098388671875,-0.06578923016786575,1.6203705072402954,2.2317869663238525
1758273995924055300,4.23505517578125,-0.16757124662399292,1.5704247951507568,2.0729198455810547
1758273995934013400,4.245013427734375,-0.2799553871154785,1.3425533771514893,1.9537744522094727
1758273995943971300,4.254971435546875,-0.22152936458587646,0.8899890184402466,1.9174476861953735
1758273995953929500,4.264929443359375,-0.12298566102981567,0.5782755613327026,1.8305763006210327
1758273995963887400,4.274887451171875,-0.10991726070642471,0.44472548365592957,1.750504970550537
1758273995973844500,4.284844482421875,-0.1863856166601181,0.389125794172287,1.7285418510437012
1758273995983802400,4.29480224609375,-0.25765472650527954,0.24283647537231445,1.6718080043792725
1758273995993760300,4.30476025390625,-0.27559715509414673,0.22444164752960205,1.5481303930282593
1758273996003718400,4.314718505859375,-0.30698248744010925,0.33104610443115234,1.4421701431274414
1758273996013676300,4.32467626953125,-0.3678895831108093,0.28669896721839905,1.3219977617263794
1758273996023633400,4.33463330078125,-0.4172571301460266,0.10745306313037872,1.1011625528335571
1758273996033591600,4.344591552734375,-0.4115046560764313,-0.023573221638798714,0.9339666366577148
1758273996043549400,4.354549560546875,-0.3339853584766388,-0.11537851393222809,0.8690552711486816
1758273996053507300,4.36450732421875,-0.24328374862670898,-0.3389154076576233,0.9009442329406738
1758273996063465500,4.374465576171875,-0.18311068415641785,-0.5012670159339905,0.9738184809684753
1758273996073422300,4.38442236328125,-0.20759060978889465,-0.43334347009658813,1.0461561679840088
1758273996083380500,4.39438037109375,-0.15595723688602448,-0.25121811032295227,1.046517014503479
1758273996093338400,4.40433837890625,-0.015522905625402927,-0.006301852874457836,0.9730127453804016
1758273996103296500,4.414296630859375,0.10598567873239517,0.19107353687286377,0.7705157995223999
1758273996113254700,4.424254638671875,0.213094562292099,0.242012619972229,0.5370974540710449
1758273996123211300,4.434211181640625,0.26752060651779175,0.17467400431632996,0.4370972514152527
1758273996133169400,4.44416943359375,0.31988856196403503,-0.04066590219736099,0.43262359499931335
1758273996143127600,4.45412744140625,0.3360390365123749,-0.30436015129089355,0.4582090973854065
1758273996153085400,4.46408544921875,0.30338433384895325,-0.47547611594200134,0.4948275685310364
1758273996163043600,4.474043701171875,0.2386610060930252,-0.4521060883998871,0.5353792309761047
1758273996173000400,4.48400048828125,0.16975927352905273,-0.32078173756599426,0.5668638348579407
1758273996182958300,4.493958251953125,0.05732781067490578,-0.14863978326320648,0.6237497925758362
1758273996192916500,4.50391650390625,-0.07703354209661484,0.03790169954299927,0.7131538391113281
1758273996202874400,4.513874267578125,-0.13973315060138702,0.06588353216648102,0.8073391914367676
1758273996212832500,4.52383251953125,-0.18067879974842072,-0.1056828424334526,0.840304970741272
1758273996222790400,4.533790283203125,-0.159530371427536,-0.3230966627597809,0.7884466052055359
1758273996232747300,4.543747314453125,-0.09271808713674545,-0.3809146583080292,0.6830677390098572
1758273996242705400,4.553705322265625,-0.017345568165183067,-0.20037256181240082,0.5442326068878174
1758273996252663300,4.563663330078125,0.05450999364256859,0.16569356620311737,0.4193339943885803
1758273996262621400,4.573621337890625,0.1468375325202942,0.5208724141120911,0.32023295760154724
1758273996272579300,4.583579345703125,0.2522183060646057,0.7280112504959106,0.2330455332994461
1758273996282536400,4.593536376953125,0.35900813341140747,0.7782754898071289,0.10045447200536728
1758273996292494600,4.60349462890625,0.37889885902404785,0.7718663811683655,-0.10204733908176422
1758273996302452200,4.6134521484375,0.3371777832508087,0.7534974813461304,-0.31233131885528564
1758273996312410400,4.623410400390625,0.28854694962501526,0.5522796511650085,-0.4785429835319519
1758273996322368300,4.6333681640625,0.22774672508239746,0.10222221165895462,-0.5204177498817444
1758273996332325400,4.643325439453125,0.19110333919525146,-0.5118786096572876,-0.4177453815937042
1758273996342283500,4.653283447265625,0.23468303680419922,-1.1652628183364868,-0.3633734881877899
1758273996352241400,4.663241455078125,0.3394221365451813,-1.6298754215240479,-0.576216995716095
1758273996362199600,4.673199462890625,0.4696480333805084,-1.6492009162902832,-1.0408076047897339
1758273996372157400,4.683157470703125,0.5946043729782104,-1.2170803546905518,-1.5390236377716064
1758273996382114300,4.6931142578125,0.632675290107727,-0.6212260723114014,-1.8460272550582886
1758273996392072400,4.703072509765625,0.6126151084899902,-0.180976003408432,-1.9502002000808716
1758273996402030600,4.713030517578125,0.5780222415924072,-0.03149012103676796,-1.977579951286316
1758273996411988500,4.722988525390625,0.5200747847557068,-0.25141796469688416,-1.9690804481506348
1758273996421945900,4.73294580078125,0.5069641470909119,-0.6502317786216736,-2.028730630874634
1758273996431903000,4.742903076171875,0.5632831454277039,-0.831658661365509,-2.2987866401672363
1758273996441860900,4.75286083984375,0.5648847818374634,-0.7226666808128357,-2.616717576980591
1758273996451819000,4.762819091796875,0.5228362679481506,-0.4509981870651245,-2.8198633193969727
1758273996461777000,4.77277685546875,0.43527042865753174,-0.20674556493759155,-2.820930004119873
1758273996471735000,4.782735107421875,0.40732595324516296,-0.028391089290380478,-2.635378360748291
1758273996481692000,4.79269189453125,0.4043078124523163,-0.02364054135978222,-2.3196563720703125
1758273996491649800,4.80264990234375,0.40722769498825073,-0.10387466102838516,-2.0242063999176025
1758273996501608000,4.81260791015625,0.32021769881248474,-0.025144429877400398,-1.9058148860931396
1758273996511565800,4.82256591796875,0.2285013049840927,0.18782438337802887,-1.910923719406128
1758273996521524000,4.83252392578125,0.20461061596870422,0.37529119849205017,-1.9797775745391846
1758273996531480800,4.842480712890625,0.3004071116447449,0.30811434984207153,-2.072202205657959
1758273996541438700,4.852438720703125,0.44184812903404236,0.09203451126813889,-2.1655189990997314
1758273996551396900,4.86239697265625,0.49057161808013916,-0.18667875230312347,-2.2198145389556885
1758273996561354800,4.872354736328125,0.45282796025276184,-0.4300203025341034,-2.2524943351745605
1758273996571313000,4.88231298828125,0.36792394518852234,-0.5267931222915649,-2.2505030632019043
1758273996581270000,4.89227001953125,0.28344422578811646,-0.43367788195610046,-2.2597382068634033
1758273996591228000,4.902227783203125,0.196134552359581,-0.1762489378452301,-2.2506721019744873
1758273996601185800,4.912185791015625,0.058427564799785614,0.09473222494125366,-2.149087905883789
1758273996611144000,4.92214404296875,-0.0803176611661911,0.32788410782814026,-2.040201187133789
1758273996621101800,4.932101806640625,-0.19147294759750366,0.27802759408950806,-1.9151575565338135
1758273996631060000,4.94206005859375,-0.35437875986099243,-0.05950458347797394,-1.8260188102722168
1758273996641017000,4.95201708984375,-0.45306965708732605,-0.8128070831298828,-1.8216127157211304
1758273996650975000,4.96197509765625,-0.4543152153491974,-1.4777745008468628,-2.049640417098999
1758273996660932900,4.971932861328125,-0.4437430202960968,-1.8043888807296753,-2.5766615867614746
1758273996670890800,4.981890869140625,-0.4322607219219208,-2.3710153102874756,-2.9561116695404053
1758273996680849000,4.991848876953125,-0.3949224054813385,-2.4944567680358887,-3.3373661041259766
1758273996690806000,5.001805908203125,-0.43284210562705994,-2.6826770305633545,-3.4964427947998047
1758273996700764000,5.011763916015625,-0.4379458725452423,-3.3664591312408447,-3.322572708129883
1758273996710722000,5.02172216796875,-0.2066633105278015,-3.2633614540100098,-3.1556036472320557
1758273996720680000,5.031679931640625,-0.0002539470442570746,-2.606132984161377,-2.6970179080963135
1758273996730637800,5.041637939453125,-0.005684256553649902,-2.0173709392547607,-1.9986374378204346
1758273996740595000,5.051594970703125,-0.08941910415887833,-1.4484039545059204,-1.4512944221496582
1758273996750552800,5.061552734375,-0.09725751727819443,-1.0917572975158691,-1.1145235300064087
1758273996760511000,5.071510986328125,-0.10577883571386337,-0.8831441402435303,-0.8713843822479248
1758273996770468900,5.08146875,-0.1517443209886551,-0.7096704840660095,-0.6749322414398193
1758273996780427000,5.091427001953125,-0.2143336683511734,-0.5339381098747253,-0.48746752738952637
1758273996790385000,5.101385009765625,-0.24709868431091309,-0.2890230119228363,-0.30591484904289246
1758273996800341800,5.111341796875,-0.25225910544395447,-0.10909665375947952,-0.12198177725076675
1758273996810300000,5.1212998046875,-0.2598553001880646,-0.010923383757472038,0.06171044707298279
1758273996820257800,5.1312578125,-0.30291807651519775,0.04581392928957939,0.2477990984916687
1758273996830216000,5.1412158203125,-0.38613030314445496,0.16315852105617523,0.42850908637046814
1758273996840174000,5.151174072265625,-0.4961811900138855,0.28794175386428833,0.6017833948135376
1758273996850130700,5.161130615234375,-0.6183305382728577,0.5013142228126526,0.761956512928009
1758273996860088800,5.1710888671875,-0.7066963911056519,0.674170970916748,0.903323233127594
1758273996870047000,5.181046875,-0.6860219240188599,0.7572149634361267,0.9660308957099915
1758273996880004900,5.1910048828125,-0.591790497303009,0.6496301293373108,0.9354133605957031
1758273996889963000,5.200962890625,-0.42886945605278015,0.4025647044181824,0.8454607129096985
1758273996899920000,5.210919921875,-0.2624027132987976,0.15205176174640656,0.7169727683067322
1758273996909877800,5.220877685546875,-0.19710785150527954,0.08608285337686539,0.5696568489074707
1758273996919836000,5.2308359375,-0.08157593011856079,0.5803799629211426,0.36779430508613586
1758273996929793800,5.240793701171875,0.012613888829946518,1.0339258909225464,0.5720741748809814
1758273996939752000,5.250751953125,-0.05063831806182861,0.6342275142669678,1.0165398120880127
1758273996949709800,5.260709716796875,0.027032004669308662,-0.1033826470375061,1.4259393215179443
1758273996959667000,5.2706669921875,0.058528680354356766,-0.027318507432937622,1.6752862930297852
1758273996969625000,5.280625,-0.05048864334821701,0.7129122018814087,1.3738521337509155
1758273996979582700,5.290582763671875,-0.09535518288612366,1.2496522665023804,1.455335259437561
1758273996989540900,5.300540771484375,-0.15091003477573395,1.3875603675842285,1.5745327472686768
1758273996999498800,5.310498779296875,-0.18890003859996796,1.4385980367660522,1.6460272073745728
1758273997009455900,5.320455810546875,-0.17242994904518127,1.3590706586837769,1.7548871040344238
1758273997019414000,5.3304140625,-0.12406215816736221,1.2769144773483276,1.8911455869674683
1758273997029372000,5.340371826171875,-0.09815123677253723,1.298978328704834,2.0372562408447266
1758273997039330000,5.350330078125,-0.14233334362506866,1.215820550918579,2.1146111488342285
1758273997049287700,5.36028759765625,-0.2371341735124588,0.9110524654388428,2.0430870056152344
1758273997059245800,5.370245849609375,-0.31290721893310547,0.5967547297477722,1.888444423675537
1758273997069203000,5.380202880859375,-0.37214627861976624,0.43465712666511536,1.7714506387710571
1758273997079160800,5.390160888671875,-0.4349289834499359,0.40424060821533203,1.7767665386199951
1758273997089119000,5.400118896484375,-0.4992683529853821,0.4212319254875183,1.8966271877288818
1758273997099076900,5.410076904296875,-0.5361393094062805,0.5465829372406006,2.0986328125
1758273997109034800,5.42003466796875,-0.5806092619895935,0.7617655396461487,2.344440460205078
1758273997118992000,5.429991943359375,-0.5778617262840271,1.0193960666656494,2.528367042541504
1758273997128949800,5.43994970703125,-0.5188886523246765,1.332337498664856,2.618513584136963
1758273997138908000,5.449907958984375,-0.4684227406978607,1.5770230293273926,2.6498568058013916
1758273997148866000,5.459865966796875,-0.41882768273353577,1.6877281665802002,2.628519058227539
1758273997158824000,5.469823974609375,-0.3515962064266205,1.7191153764724731,2.532031536102295
1758273997168782000,5.479781982421875,-0.26912054419517517,1.8979713916778564,2.348386764526367
1758273997178739000,5.489739013671875,-0.21546529233455658,2.1541943550109863,2.1257951259613037
1758273997188696800,5.49969677734375,-0.3207256495952606,2.1112444400787354,2.0406980514526367
1758273997198655000,5.509655029296875,-0.511637806892395,1.709500789642334,2.08103609085083
1758273997208612900,5.51961279296875,-0.448912113904953,1.445576786994934,2.0201783180236816
1758273997218571000,5.529571044921875,-0.34038296341896057,1.3136448860168457,1.9417365789413452
1758273997228529000,5.53952880859375,-0.23075616359710693,1.3263908624649048,1.8332104682922363
1758273997238485800,5.54948583984375,-0.10983027517795563,1.444210171699524,1.7247319221496582
1758273997248444000,5.55944384765625,-0.07278162240982056,1.4694488048553467,1.6726771593093872
1758273997258401800,5.56940185546875,-0.0023314282298088074,1.3949944972991943,1.5601059198379517
1758273997268360000,5.57935986328125,-0.06222367286682129,1.3569996356964111,1.4971950054168701
1758273997278317800,5.58931787109375,-0.165486678481102,1.2159690856933594,1.536793828010559
1758273997288275000,5.59927490234375,-0.2814403474330902,0.9966826438903809,1.5363041162490845
1758273997298232800,5.60923291015625,-0.329756498336792,0.8476417660713196,1.3982197046279907
1758273997308190700,5.619190673828125,-0.3180455267429352,0.7741454243659973,1.1440422534942627
1758273997318148900,5.62914892578125,-0.24851571023464203,0.734488844871521,0.8667325973510742
1758273997328107000,5.63910693359375,-0.1853269636631012,0.6112567782402039,0.6855742335319519
1758273997338065000,5.64906494140625,-0.21836188435554504,0.38860559463500977,0.6016780138015747
1758273997348022000,5.65902197265625,-0.26377442479133606,0.12508077919483185,0.6425701379776001
1758273997357979600,5.668979736328125,-0.2530701160430908,-0.03264707699418068,0.7780702114105225
1758273997367937800,5.678937744140625,-0.20995087921619415,-0.029170040041208267,0.8167558908462524
1758273997377896000,5.68889599609375,-0.18277385830879211,0.12454735487699509,0.7647028565406799
1758273997387853800,5.698853759765625,-0.1140395924448967,0.267854779958725,0.7017955780029297
1758273997407147800,5.718147705078125,0.09642123430967331,0.31228163838386536,0.5160539746284485
1758273997417106000,5.72810595703125,0.1678418666124344,0.3462478816509247,0.40818020701408386
1758273997427064300,5.738064208984375,0.2012867033481598,0.313106894493103,0.3552996814250946
1758273997437021400,5.748021484375,0.24090388417243958,0.18961666524410248,0.33727434277534485
1758273997446979300,5.757979248046875,0.24277733266353607,0.05337769165635109,0.3351758122444153
1758273997456937200,5.767937255859375,0.24685995280742645,-0.07972310483455658,0.3138130009174347
1758273997466895400,5.777895263671875,0.2625960111618042,-0.1573382467031479,0.2586889863014221
1758273997476853200,5.787853271484375,0.28646859526634216,-0.22930219769477844,0.17667853832244873
1758273997486810400,5.797810302734375,0.3084936738014221,-0.3689926564693451,0.11841879040002823
1758273997496768500,5.8077685546875,0.2712469696998596,-0.47805413603782654,0.17409563064575195
1758273997506726400,5.817726318359375,0.15925970673561096,-0.4861464202404022,0.3234404921531677
1758273997516684300,5.827684326171875,0.023509597405791283,-0.34199991822242737,0.5300894975662231
1758273997526642400,5.837642333984375,-0.10635529458522797,0.019832978025078773,0.7263525128364563
1758273997536600300,5.847600341796875,-0.21208518743515015,0.42861008644104004,0.8291292786598206
1758273997546557400,5.857557373046875,-0.22972439229488373,0.6884792447090149,0.7948817014694214
1758273997556515300,5.867515380859375,-0.167705237865448,0.7208496928215027,0.6610408425331116
1758273997566473500,5.877473388671875,-0.05603642761707306,0.4914843738079071,0.5126608610153198
1758273997576431400,5.887431396484375,0.08675455302000046,0.04487597942352295,0.3352234661579132
1758273997586389200,5.89738916015625,0.20709362626075745,-0.395060271024704,0.09600753337144852
1758273997596347400,5.907347412109375,0.277437299489975,-0.6023402214050293,-0.15127763152122498
1758273997606304500,5.917304443359375,0.2636823356151581,-0.6312467455863953,-0.3866646885871887
1758273997616262400,5.927262451171875,0.1704418808221817,-0.5090627670288086,-0.5649723410606384
1758273997626220500,5.937220458984375,0.05188548192381859,-0.44283589720726013,-0.6489295363426208
1758273997636178400,5.947178466796875,-0.049520768225193024,-0.48420730233192444,-0.6421357989311218
1758273997646136300,5.95713623046875,-0.053019072860479355,-0.606529712677002,-0.7042601108551025
1758273997656094200,5.96709423828125,0.03437575325369835,-0.6459453105926514,-0.9385114908218384
1758273997666051300,5.97705126953125,0.18164031207561493,-0.5015527009963989,-1.3442388772964478
1758273997676009500,5.987009521484375,0.3534059226512909,-0.2580322325229645,-1.8016623258590698
1758273997685967400,5.99696728515625,0.5303298830986023,-0.06826574355363846,-2.2028183937072754
1758273997695925500,6.006925537109375,0.6483457088470459,0.005376786924898624,-2.4897563457489014
1758273997705883400,6.01688330078125,0.720371425151825,-0.13968481123447418,-2.671661853790283
1758273997715841300,6.02684130859375,0.7714596390724182,-0.5504651665687561,-2.7995831966400146
1758273997725798400,6.03679833984375,0.76668381690979,-0.9811251759529114,-2.840118408203125
1758273997735756300,6.04675634765625,0.6822477579116821,-1.1289207935333252,-2.82450795173645
1758273997745714400,6.05671435546875,0.6908803582191467,-0.92219477891922,-2.8792951107025146
1758273997755672600,6.066672607421875,0.6537809371948242,-0.47248220443725586,-2.9890997409820557
1758273997765630500,6.07663037109375,0.6023491024971008,-0.0866885781288147,-2.9746031761169434
1758273997775588400,6.08658837890625,0.5882593393325806,0.09700961410999298,-2.7901968955993652
1758273997785545500,6.09654541015625,0.593010663986206,0.028322190046310425,-2.5076003074645996
1758273997795503400,6.10650341796875,0.49784234166145325,-0.12152349203824997,-2.208265542984009
1758273997805461500,6.11646142578125,0.43100491166114807,-0.2539602518081665,-2.0314624309539795
1758273997815418400,6.12641845703125,0.4539799988269806,-0.3254256546497345,-2.0230894088745117
1758273997825376500,6.13637646484375,0.5029358267784119,-0.3363148272037506,-2.093628406524658
1758273997835334400,6.14633447265625,0.5704647898674011,-0.3378213942050934,-2.28747820854187
1758273997845292300,6.156292236328125,0.6801047921180725,-0.2799314558506012,-2.5133585929870605
1758273997855250400,6.16625048828125,0.7843453884124756,-0.29073747992515564,-2.6950836181640625
1758273997865208300,6.176208251953125,0.8317083120346069,-0.32349586486816406,-2.8142900466918945
1758273997875166500,6.18616650390625,0.8586962819099426,-0.5402109026908875,-2.745133638381958
1758273997885123600,6.19612353515625,0.7119767665863037,-1.018527865409851,-2.340376615524292
1758273997895081200,6.206081298828125,0.42709416151046753,-1.1122246980667114,-2.085949420928955
1758273997905039400,6.216039306640625,0.17781725525856018,-0.9536487460136414,-2.001948118209839
1758273997914997200,6.225997314453125,-0.0578346773982048,-1.221259355545044,-1.8599058389663696
1758273997924955400,6.235955322265625,-0.22005027532577515,-1.1470234394073486,-2.00595760345459
1758273997934913300,6.245913330078125,-0.3841550648212433,-1.4952757358551025,-2.2624099254608154
1758273997944870400,6.255870361328125,-0.5532025098800659,-2.0769262313842773,-2.5481176376342773
1758273997954828500,6.26582861328125,-0.6748163104057312,-2.496164083480835,-2.9404184818267822
1758273997964786200,6.2757861328125,-0.7791085839271545,-2.630533218383789,-3.2273976802825928
1758273997974744300,6.285744384765625,-0.9255853891372681,-2.849709987640381,-3.242553472518921
1758273997984702500,6.295702392578125,-0.7483078837394714,-3.063957691192627,-3.2824482917785645
1758273997994660400,6.305660400390625,-0.573715329170227,-3.203213691711426,-3.0842602252960205
1758273998004618500,6.315618408203125,-0.45829612016677856,-3.056023597717285,-2.6113057136535645
1758273998014575400,6.325575439453125,-0.37788090109825134,-2.4177396297454834,-2.121551513671875
1758273998024533500,6.335533447265625,-0.3326970040798187,-1.6333194971084595,-1.6973283290863037
1758273998034491400,6.345491455078125,-0.31702110171318054,-1.0734449625015259,-1.347624659538269
1758273998044449300,6.35544921875,-0.39625200629234314,-0.7005821466445923,-1.0504003763198853
1758273998054407400,6.365407470703125,-0.4516920745372772,-0.4412406086921692,-0.7679844498634338
1758273998064365300,6.375365234375,-0.4743737578392029,-0.2441064864397049,-0.5600093007087708
1758273998074322400,6.385322509765625,-0.50731360912323,-0.02390648052096367,-0.38195091485977173
1758273998084280600,6.395280517578125,-0.5325498580932617,0.16815976798534393,-0.21637867391109467
1758273998094238200,6.40523828125,-0.5914251804351807,0.2543487250804901,-0.06637585908174515
1758273998104196400,6.4151962890625,-0.6781266927719116,0.29232585430145264,0.07800324261188507
1758273998114154200,6.425154296875,-0.7642642259597778,0.31930527091026306,0.22189517319202423
1758273998124112400,6.4351123046875,-0.830225944519043,0.4090772271156311,0.3990781903266907
1758273998134070300,6.4450703125,-0.8729190826416016,0.5138139724731445,0.6047647595405579
1758273998144027400,6.45502734375,-0.8840422034263611,0.5728961825370789,0.8141047358512878
1758273998153985500,6.464985595703125,-0.8878116607666016,0.5545430183410645,1.009717345237732
1758273998163943200,6.474943115234375,-0.8444647192955017,0.46845635771751404,1.197013020515442
1758273998173901300,6.4849013671875,-0.7388709187507629,0.3896896243095398,1.3646546602249146
1758273998183859500,6.494859375,-0.5474286675453186,0.4183432459831238,1.4625296592712402
1758273998193817300,6.5048173828125,-0.3833182752132416,0.42090708017349243,1.4663827419281006
1758273998203775500,6.514775390625,-0.32984158396720886,0.23529015481472015,1.3060824871063232
1758273998213732600,6.524732666015625,-0.34991276264190674,0.1055140569806099,0.9409253001213074
1758273998223690500,6.5346904296875,-0.3344670534133911,0.33104899525642395,0.7524451613426208
1758273998233648400,6.5446484375,-0.4039531946182251,0.45704981684684753,0.9113112688064575
1758273998243606300,6.554606201171875,-0.36315181851387024,0.11309316754341125,0.9963817596435547
1758273998253564400,6.564564453125,-0.21295779943466187,-0.24142737686634064,1.1974607706069946
1758273998263522300,6.574522216796875,-0.31886935234069824,0.026183532550930977,1.1815791130065918
1758273998273480400,6.58448046875,-0.4850495159626007,0.6208743453025818,0.9215837121009827
1758273998283437600,6.5944375,-0.47181427478790283,1.2601768970489502,1.2215811014175415
1758273998293395200,6.604395263671875,-0.4896257519721985,1.6185579299926758,1.555246353149414
1758273998303353300,6.614353271484375,-0.38455015420913696,1.5915489196777344,1.664023756980896
1758273998313311200,6.624311279296875,-0.18027129769325256,1.4986485242843628,1.6329004764556885
1758273998323269400,6.634269287109375,0.011262146756052971,1.7002900838851929,1.70793616771698
1758273998333227500,6.6442275390625,0.08070912957191467,2.0950162410736084,1.8776490688323975
1758273998343185400,6.654185302734375,0.06887940317392349,2.4373440742492676,2.0138397216796875
1758273998353143600,6.6641435546875,0.09800773113965988,2.40767240524292,2.0963287353515625
1758273998363100400,6.674100341796875,0.20159706473350525,1.9427777528762817,2.095555543899536
1758273998373058300,6.684058349609375,0.2953121066093445,1.4443479776382446,2.1279783248901367
1758273998383016400,6.694016357421875,0.3073182702064514,1.1595700979232788,2.2143898010253906
1758273998392974300,6.703974365234375,0.2110806703567505,1.108667254447937,2.3170950412750244
1758273998402932500,6.713932373046875,0.10374969244003296,1.065521478652954,2.3609232902526855
1758273998412890400,6.723890380859375,0.10571616888046265,0.9896554946899414,2.3086581230163574
1758273998422848500,6.7338486328125,0.19202768802642822,0.9598287343978882,2.1399872303009033
1758273998432804900,6.743804931640625,0.21272072196006775,1.032702922821045,1.9313932657241821
1758273998442762800,6.7537626953125,0.1791735142469406,1.0906529426574707,1.7798316478729248
1758273998452721000,6.763720947265625,0.13552270829677582,1.0595768690109253,1.7180806398391724
1758273998462678800,6.7736787109375,0.12093663960695267,1.022985816001892,1.7174558639526367
1758273998472636700,6.78363671875,0.07638248801231384,0.8885491490364075,1.810249924659729
1758273998482594800,6.7935947265625,0.06381731480360031,0.9642091393470764,1.863327980041504
1758273998492552700,6.803552734375,-0.0014287979574874043,1.1843584775924683,1.93342924118042
1758273998502509800,6.813509765625,-0.060070667415857315,1.4404112100601196,1.9880213737487793
1758273998512468000,6.823468017578125,-0.10396861284971237,1.4518382549285889,2.0967283248901367
1758273998522425600,6.833425537109375,-0.2592826187610626,1.3086857795715332,2.2331221103668213
1758273998532383700,6.8433837890625,-0.4335865080356598,1.2970390319824219,2.2242748737335205
1758273998542341600,6.853341552734375,-0.5668978691101074,1.3039124011993408,2.1614158153533936
1758273998552299800,6.8632998046875,-0.5601179599761963,1.450276494026184,2.0013086795806885
1758273998562257700,6.873257568359375,-0.5111790895462036,1.4498814344406128,1.8411610126495361
1758273998572214800,6.88321484375,-0.4775969088077545,1.211887001991272,1.6581542491912842
1758273998582173000,6.8931728515625,-0.461380273103714,0.9434778690338135,1.469262719154358
1758273998592130600,6.903130615234375,-0.43406105041503906,0.6794310212135315,1.2635796070098877
1758273998602088700,6.913088623046875,-0.4238673448562622,0.368397057056427,1.0648475885391235
1758273998612046600,6.923046630859375,-0.3228062391281128,0.17694240808486938,0.8399380445480347
1758273998622004700,6.933004638671875,-0.2081170678138733,-0.007479516323655844,0.6846503019332886
1758273998631963000,6.942962890625,-0.22126536071300507,-0.1386074423789978,0.7167669534683228
1758273998641919700,6.952919677734375,-0.2020164579153061,-0.22320976853370667,0.9012705087661743
1758273998651878000,6.9628779296875,-0.11526798456907272,-0.19767378270626068,1.0669704675674438
1758273998661835800,6.972835693359375,-0.09527294337749481,0.10950740426778793,1.0731569528579712
1758273998671793700,6.982793701171875,-0.07415594160556793,0.49834147095680237,0.97747802734375
1758273998681751800,6.992751708984375,-0.053456179797649384,0.863186240196228,0.8743032217025757
1758273998691709700,7.002709716796875,0.036367714405059814,1.0982074737548828,0.7850406765937805
1758273998701667800,7.012667724609375,0.12744560837745667,1.1361973285675049,0.7290977835655212
1758273998711625000,7.022625,0.16332077980041504,0.9712597131729126,0.7055184245109558
1758273998721582600,7.03258251953125,0.17965558171272278,0.602653443813324,0.6858654022216797
1758273998731540700,7.042540771484375,0.2184346616268158,0.10363990068435669,0.6471222639083862
1758273998741498600,7.05249853515625,0.24946796894073486,-0.34081828594207764,0.5671889185905457
1758273998751456800,7.062456787109375,0.27055487036705017,-0.6008748412132263,0.5190796852111816
1758273998761414700,7.07241455078125,0.2760401666164398,-0.7395783066749573,0.5393659472465515
1758273998771372800,7.082372802734375,0.2701798677444458,-0.8344347476959229,0.5842481851577759
1758273998781331000,7.0923310546875,0.22859294712543488,-0.7834818363189697,0.6134681105613708
1758273998791287600,7.10228759765625,0.1652539223432541,-0.5674706697463989,0.622580885887146
1758273998801245700,7.11224560546875,0.1076340526342392,-0.29053792357444763,0.5923959016799927
1758273998811203800,7.122203857421875,0.023877372965216637,0.060077887028455734,0.5664133429527283
1758273998821161700,7.13216162109375,-0.06578712165355682,0.3304993510246277,0.5373812317848206
1758273998831120000,7.142119873046875,-0.10556036978960037,0.4420035183429718,0.44632112979888916
1758273998841077800,7.152077880859375,-0.08809354901313782,0.599791407585144,0.2751219570636749
1758273998851036000,7.162035888671875,-0.02197312004864216,0.5242100954055786,0.02133093774318695
1758273998860992800,7.17199267578125,0.1066957637667656,0.1400422304868698,-0.21870243549346924
1758273998870950700,7.18195068359375,0.2777915894985199,-0.4059808850288391,-0.41047826409339905
1758273998880908800,7.19190869140625,0.40707600116729736,-0.9436708092689514,-0.5672546029090881
1758273998890866700,7.20186669921875,0.4270358383655548,-1.2559477090835571,-0.7020438313484192
1758273998900824800,7.211824951171875,0.3648148775100708,-1.2333816289901733,-0.834071159362793
1758273998910782700,7.22178271484375,0.2964797914028168,-0.9417510628700256,-1.006933569908142
1758273998920740900,7.231740966796875,0.3069525957107544,-0.5805269479751587,-1.2352608442306519
1758273998930697700,7.24169775390625,0.33416903018951416,-0.2603952884674072,-1.4621437788009644
1758273998940655600,7.251655517578125,0.36390620470046997,-0.07002036273479462,-1.6488291025161743
1758273998950613800,7.26161376953125,0.4499918222427368,-0.057312559336423874,-1.8263975381851196
1758273998960571600,7.271571533203125,0.5351026058197021,-0.13315100967884064,-2.026010036468506
1758273998970529800,7.28152978515625,0.5976634621620178,-0.23930087685585022,-2.253657579421997
1758273998980488000,7.291488037109375,0.6615609526634216,-0.4477163553237915,-2.5137784481048584
1758273998990445800,7.30144580078125,0.6548274159431458,-0.7623619437217712,-2.7360167503356934
1758273999000404000,7.311404052734375,0.7147501111030579,-1.0393998622894287,-2.9093031883239746
1758273999010360800,7.32136083984375,0.7585878372192383,-1.101291537284851,-3.0889575481414795
1758273999020318700,7.331318603515625,0.7102738618850708,-0.8825483322143555,-3.0806844234466553
1758273999030276900,7.34127685546875,0.6151601672172546,-0.5838055610656738,-2.8991200923919678
1758273999040234800,7.35123486328125,0.5036051273345947,-0.31101733446121216,-2.6169254779815674
1758273999050193000,7.36119287109375,0.40864819288253784,-0.11171461641788483,-2.363164186477661
1758273999060150800,7.37115087890625,0.3398228585720062,-0.07245995849370956,-2.2111001014709473
1758273999070108700,7.381108642578125,0.30876025557518005,-0.15267729759216309,-2.1339406967163086
1758273999080065800,7.391065673828125,0.3545666038990021,-0.34941399097442627,-2.141373634338379
1758273999090023700,7.401023681640625,0.4304262399673462,-0.4820884168148041,-2.205963134765625
1758273999099981800,7.41098193359375,0.47290757298469543,-0.6044947504997253,-2.341198682785034
1758273999109939700,7.420939697265625,0.4985458254814148,-0.7764784693717957,-2.5487985610961914
1758273999119897900,7.43089794921875,0.5448617935180664,-0.7824366092681885,-2.647791862487793
1758273999129855700,7.440855712890625,0.5996078252792358,-0.8046447038650513,-2.7018001079559326
1758273999139813600,7.450813720703125,0.6373510360717773,-0.7927332520484924,-2.6971724033355713
1758273999149770800,7.460770751953125,0.5664613842964172,-0.633760392665863,-2.592007875442505
1758273999159728600,7.470728759765625,0.4500481188297272,-0.5597717761993408,-2.5050101280212402
1758273999169686800,7.480686767578125,0.2644321918487549,-0.5233098864555359,-2.439180850982666
1758273999179645000,7.49064501953125,0.08130470663309097,-0.4999331831932068,-2.3350470066070557
1758273999189602800,7.500602783203125,-0.17333930730819702,-0.4692429304122925,-2.2339413166046143
1758273999199561000,7.51056103515625,-0.3570108711719513,-0.6680268049240112,-2.2887885570526123
1758273999209518600,7.5205185546875,-0.5016247630119324,-1.197756290435791,-2.540172576904297
1758273999219476700,7.530476806640625,-0.5838847756385803,-1.9616186618804932,-2.8420140743255615
1758273999229433900,7.540433837890625,-0.5877798795700073,-2.4825992584228516,-3.129333257675171
1758273999239391700,7.550391845703125,-0.723503589630127,-2.7124829292297363,-3.2843880653381348
1758273999249350000,7.560349853515625,-0.7265949845314026,-2.747788429260254,-3.2395248413085938
1758273999259307800,7.570307861328125,-0.6291841864585876,-2.6560239791870117,-2.9428389072418213
1758273999269265700,7.580265625,-0.6391355991363525,-2.3388073444366455,-2.3847475051879883
1758273999279223800,7.590223876953125,-0.45049962401390076,-2.064851999282837,-2.110184669494629
1758273999289181700,7.600181640625,-0.23646056652069092,-1.9052451848983765,-1.9157639741897583
1758273999299138800,7.610138916015625,-0.21310143172740936,-1.521087408065796,-1.6382306814193726
1758273999309096700,7.6200966796875,-0.18314619362354279,-1.363034963607788,-1.3783377408981323
1758273999319054800,7.630054931640625,-0.1803322583436966,-1.1370614767074585,-1.1537094116210938
1758273999329013000,7.640012939453125,-0.2086043655872345,-0.7647640109062195,-0.8739704489707947
1758273999338970600,7.649970703125,-0.23475562036037445,-0.38909849524497986,-0.6218807101249695
1758273999348928800,7.6599287109375,-0.2642946243286133,-0.0946120098233223,-0.3626946806907654
1758273999358886700,7.66988671875,-0.3230585753917694,0.14198079705238342,-0.11796662956476212
1758273999368843800,7.67984375,-0.4117812514305115,0.3509446382522583,0.12266648560762405
1758273999378802000,7.689802001953125,-0.4683585464954376,0.48571932315826416,0.348926305770874
1758273999388759800,7.699759765625,-0.5499703288078308,0.5318034291267395,0.5025659203529358
1758273999398718000,7.709718017578125,-0.6055301427841187,0.5010440945625305,0.5545313954353333
1758273999408675600,7.719675537109375,-0.5975968241691589,0.3962809145450592,0.550896406173706
1758273999418633700,7.7296337890625,-0.5231766104698181,0.24354887008666992,0.5768077373504639
1758273999428592400,7.73959228515625,-0.4243088662624359,0.14245128631591797,0.6678423285484314
1758273999438549500,7.749549560546875,-0.2926064431667328,0.16701701283454895,0.7722418308258057
1758273999448507600,7.759507568359375,-0.028071464970707893,0.28251752257347107,0.5469213128089905
1758273999458465500,7.769465576171875,0.20321358740329742,0.6172915697097778,-0.2042209953069687
1758273999468423700,7.779423583984375,0.4357008635997772,0.8121217489242554,-0.7605518698692322
1758273999478381600,7.789381591796875,0.35922524333000183,-0.19410882890224457,0.5081552863121033
1758273999488339500,7.79933935546875,0.2356354147195816,-1.52787184715271,1.094335913658142
1758273999498297300,7.80929736328125,-0.13526476919651031,0.11105335503816605,1.729188084602356
1758273999508254500,7.81925439453125,-0.3455183804035187,1.4944193363189697,1.7886247634887695
1758273999518212600,7.829212646484375,-0.09703226387500763,0.6122443675994873,1.202469825744629
1758273999528170500,7.83917041015625,-0.2658862769603729,0.829020619392395,1.4262877702713013
1758273999538128600,7.849128662109375,-0.37919458746910095,1.5260895490646362,1.7220497131347656
1758273999548086500,7.85908642578125,-0.2738407552242279,1.7916144132614136,1.6446365118026733
1758273999558044400,7.86904443359375,-0.13661548495292664,1.6053178310394287,1.5169366598129272
1758273999568002600,7.87900244140625,-0.05409744009375572,1.5537636280059814,1.5177550315856934
1758273999577960400,7.88896044921875,-0.025718705728650093,1.6485973596572876,1.767385721206665
1758273999587917600,7.89891748046875,-0.06695429235696793,1.9081205129623413,2.0931284427642822
1758273999597875700,7.908875732421875,-0.146332249045372,2.2235586643218994,2.328869104385376
1758273999607833600,7.91883349609375,-0.17031027376651764,2.2824974060058594,2.3455002307891846
1758273999617791500,7.92879150390625,-0.08411940932273865,2.030121088027954,2.1971373558044434
1758273999627749400,7.938749267578125,0.028431637212634087,1.6555836200714111,2.060462474822998
1758273999637707500,7.94870751953125,0.10616645216941833,1.314859390258789,1.993698239326477
1758273999647665400,7.95866552734375,0.10549666732549667,1.0315948724746704,1.9859706163406372
1758273999657622500,7.96862255859375,0.03300962597131729,0.7863559722900391,2.026731252670288
1758273999667580700,7.97858056640625,-0.06653667241334915,0.6971608400344849,2.070756673812866
1758273999677538600,7.98853857421875,-0.16514477133750916,0.7543054223060608,2.1341540813446045
1758273999687496400,7.998496337890625,-0.14540915191173553,0.9453243613243103,2.1628634929656982
1758273999697454300,8.008454345703125,-0.054205041378736496,1.0580440759658813,2.1674134731292725
1758273999707412500,8.01841259765625,0.012956684455275536,1.0456398725509644,2.1624672412872314
1758273999717370600,8.02837060546875,0.0974244773387909,1.0490329265594482,2.1648712158203125
1758273999727327500,8.038327392578125,0.20981866121292114,1.1431562900543213,2.13818359375
1758273999737285600,8.04828564453125,0.24171744287014008,1.2591166496276855,2.098144054412842
1758273999747243500,8.058243408203126,0.17716427147388458,1.387731671333313,2.0479493141174316
1758273999757201400,8.068201416015626,0.1488937884569168,1.4005200862884521,2.0119526386260986
1758273999767159600,8.07815966796875,0.05745069682598114,1.2918813228607178,1.9989829063415527
1758273999777117400,8.088117431640624,-0.00993544515222311,1.145971655845642,1.9990402460098267
1758273999787075600,8.09807568359375,-0.15656137466430664,0.8868666291236877,2.093254327774048
1758273999797033500,8.108033447265624,-0.38396313786506653,0.6938489675521851,2.168308734893799
1758273999806990600,8.117990478515624,-0.5561577677726746,0.5700585842132568,2.156628131866455
1758273999816948500,8.127948486328124,-0.6656803488731384,0.5496894717216492,2.0922772884368896
1758273999826906400,8.13790625,-0.7419676780700684,0.6630623936653137,2.0638837814331055
1758273999836864500,8.147864501953125,-0.762912929058075,0.9470107555389404,2.0431344509124756
1758273999846822400,8.157822509765625,-0.6728173494338989,1.2171550989151,1.9911810159683228
1758273999856780500,8.167780517578125,-0.5635185241699219,1.3878488540649414,1.9419764280319214
1758273999866738400,8.177738525390625,-0.48188596963882446,1.3995158672332764,1.892781376838684
1758273999876695600,8.187695556640625,-0.38713476061820984,1.2923721075057983,1.7466069459915161
1758273999886653400,8.1976533203125,-0.2827140688896179,1.0455266237258911,1.5479711294174194
1758273999896611300,8.207611328125,-0.25614628195762634,0.6779011487960815,1.3558454513549805
1758273999906569500,8.217569580078125,-0.23674754798412323,0.3080620765686035,1.2177128791809082
1758273999916527600,8.227527587890625,-0.12621267139911652,-0.05136434733867645,1.1211788654327393
1758273999926485500,8.237485595703125,0.001468599191866815,-0.24168714880943298,1.0191667079925537
1758273999936443600,8.247443603515626,0.06448600441217422,-0.131722092628479,0.9449854493141174
1758273999946401500,8.257401611328126,0.11519552022218704,0.08948272466659546,0.8780460953712463
1758273999956358400,8.2673583984375,0.17868642508983612,0.29541122913360596,0.8026226758956909
1758273999966316500,8.277316650390626,0.24457010626792908,0.5598064064979553,0.7687627077102661
1758273999976274400,8.2872744140625,0.28516414761543274,0.9059454202651978,0.7274019122123718
1758273999986232600,8.297232666015624,0.30990439653396606,1.137123942375183,0.6750801205635071
1758273999996190500,8.3071904296875,0.2718241512775421,1.1318154335021973,0.6376493573188782
1758274000006148600,8.317148681640624,0.2350938320159912,0.8433786630630493,0.5913798809051514
1758274000016106500,8.3271064453125,0.2445629984140396,0.35261964797973633,0.46473923325538635
1758274000026063400,8.3370634765625,0.22284890711307526,-0.17252828180789948,0.3491540551185608
1758274000036021500,8.347021484375,0.165340393781662,-0.6463068723678589,0.335321843624115
1758274000045979400,8.3569794921875,0.11265481263399124,-1.0285929441452026,0.4013320207595825
1758274000055937500,8.3669375,0.10563699156045914,-1.3182108402252197,0.4640459716320038
1758274000065895700,8.376895751953125,0.0847407653927803,-1.3632243871688843,0.47695884108543396
1758274000075853600,8.386853515625,0.0058502694591879845,-0.9477523565292358,0.46912023425102234
1758274000085811700,8.396811767578125,-0.11747992038726807,-0.2865890860557556,0.425738126039505
1758274000095768600,8.4067685546875,-0.18878556787967682,0.32956889271736145,0.3589954078197479
1758274000105726500,8.4167265625,-0.18634450435638428,0.8490543961524963,0.3085482120513916
1758274000115684600,8.4266845703125,-0.17338615655899048,1.1821097135543823,0.24027985334396362
1758274000125642500,8.436642578125,-0.16782522201538086,1.2175796031951904,0.1316002458333969
1758274000135600600,8.4466005859375,-0.13197536766529083,0.9215942025184631,-0.013912570662796497
1758274000145558500,8.45655859375,-0.027421532198786736,0.4548501968383789,-0.12307261675596237
1758274000155516700,8.4665166015625,0.0801987424492836,-0.12453730404376984,-0.1659354418516159
1758274000165473500,8.4764736328125,0.14182668924331665,-0.6379939913749695,-0.21508514881134033
1758274000175431400,8.486431396484376,0.2809649705886841,-1.0633243322372437,-0.4233638644218445
1758274000185389600,8.4963896484375,0.4187111258506775,-1.227679967880249,-0.8808081150054932
1758274000195347500,8.506347412109376,0.5136271119117737,-0.9837968349456787,-1.4043033123016357
1758274000205305600,8.5163056640625,0.6153753399848938,-0.5439842939376831,-1.7912811040878296
1758274000215263500,8.526263427734374,0.7647029757499695,-0.14031648635864258,-2.039365291595459
1758274000225221600,8.5362216796875,0.7998644709587097,0.11452564597129822,-2.2204506397247314
1758274000235179500,8.546179443359375,0.764578640460968,0.19995884597301483,-2.3432581424713135
1758274000245136400,8.556136474609374,0.6863189935684204,0.05595614016056061,-2.4526944160461426
1758274000255094500,8.566094482421875,0.6907697916030884,-0.3941134810447693,-2.703235387802124
1758274000265052700,8.576052734375,0.6339230537414551,-0.8633939027786255,-2.9480676651000977
1758274000275010600,8.586010498046875,0.649628758430481,-1.0670775175094604,-3.0933589935302734
1758274000284968700,8.59596875,0.7151252031326294,-1.1327944993972778,-3.2287628650665283
1758274000294926300,8.60592626953125,0.6726609468460083,-0.9237475991249084,-3.2474594116210938
1758274000304884500,8.615884521484375,0.5168873071670532,-0.5126663446426392,-3.0933027267456055
1758274000314841600,8.625841552734375,0.3511229157447815,-0.14069737493991852,-2.7260632514953613
1758274000324799500,8.635799560546875,0.29969117045402527,-0.06336291134357452,-2.322718620300293
1758274000334757600,8.645757568359375,0.36067306995391846,-0.36377307772636414,-2.1143014430999756
1758274000344715500,8.655715576171875,0.4654884338378906,-0.8433471322059631,-1.9985898733139038
1758274000354673700,8.665673583984375,0.5164871215820312,-1.256015419960022,-1.9702552556991577
1758274000364631300,8.67563134765625,0.575692355632782,-1.573938250541687,-2.200815200805664
1758274000374589400,8.68558935546875,0.6852176189422607,-1.5443211793899536,-2.5300145149230957
1758274000384546600,8.695546630859376,0.8349159955978394,-1.4074764251708984,-2.8118369579315186
1758274000394504400,8.70550439453125,0.9759126305580139,-1.3726468086242676,-2.9433536529541016
1758274000404462600,8.715462646484376,1.002333641052246,-1.4525786638259888,-2.9078547954559326
1758274000414420500,8.72542041015625,0.792417049407959,-1.6585087776184082,-2.700314521789551
1758274000424378600,8.735378662109374,0.6447697877883911,-1.7300384044647217,-2.476095676422119
1758274000434336300,8.745336181640624,0.42713621258735657,-1.6090621948242188,-2.3613357543945312
1758274000444294100,8.755294189453124,0.12207961827516556,-1.1575993299484253,-2.3726963996887207
1758274000454251000,8.7652509765625,-0.1049395352602005,-0.8424277305603027,-2.397069215774536
1758274000464209200,8.775209228515624,-0.3040582239627838,-0.9891141057014465,-2.409287929534912
1758274000474167000,8.7851669921875,-0.43592870235443115,-1.1622123718261719,-2.4603662490844727
1758274000484125200,8.795125244140625,-0.5818432569503784,-1.3908334970474243,-2.6107370853424072
1758274000494083000,8.8050830078125,-0.6698160171508789,-1.9954700469970703,-2.8576292991638184
1758274000504041200,8.815041259765625,-0.7427738904953003,-2.3080849647521973,-2.991058111190796
1758274000513999000,8.8249990234375,-0.8000888824462891,-2.3457846641540527,-2.9875526428222656
1758274000523956000,8.8349560546875,-0.6183057427406311,-2.544965982437134,-2.971727132797241
1758274000533914000,8.8449140625,-0.4292629659175873,-2.525421619415283,-2.790897846221924
1758274000543872000,8.8548720703125,-0.369879812002182,-2.314399480819702,-2.3416476249694824
1758274000553830100,8.864830078125,-0.3285919725894928,-1.9028668403625488,-1.9051932096481323
1758274000563788300,8.874788330078125,-0.2571505308151245,-1.4730453491210938,-1.6002790927886963
1758274000573746200,8.88474609375,-0.3309260606765747,-1.076202630996704,-1.3180217742919922
1758274000583704300,8.894704345703126,-0.33114922046661377,-0.8636027574539185,-1.0801708698272705
1758274000593661200,8.9046611328125,-0.30734750628471375,-0.7413541078567505,-0.8710724711418152
1758274000603619000,8.914619140625,-0.31574469804763794,-0.5603832602500916,-0.6539843678474426
1758274000613577200,8.9245771484375,-0.3628599941730499,-0.3250107169151306,-0.4127083122730255
1758274000623535000,8.93453515625,-0.44247519969940186,-0.11751023679971695,-0.19025474786758423
1758274000633493200,8.9444931640625,-0.5397506952285767,0.040680862963199615,0.004737321753054857
1758274000643451100,8.954451171875,-0.6722573637962341,0.15712970495224,0.19017109274864197
1758274000653409300,8.9644091796875,-0.7903525233268738,0.27430233359336853,0.37725216150283813
1758274000663367000,8.974366943359374,-0.8884907960891724,0.4251443147659302,0.5765426754951477
1758274000673324000,8.984323974609374,-0.965914785861969,0.6234084367752075,0.7828111052513123
1758274000683282200,8.9942822265625,-1.0214494466781616,0.785804271697998,0.9776860475540161
1758274000693240000,9.004239990234375,-1.0409871339797974,0.8545925617218018,1.1495897769927979
1758274000703198200,9.0141982421875,-0.9757822751998901,0.8162518739700317,1.254608392715454
1758274000713156000,9.024156005859375,-0.8680398464202881,0.6403365731239319,1.2701719999313354
1758274000723114200,9.0341142578125,-0.6506657600402832,0.4839264154434204,1.070956826210022
1758274000733071000,9.044071044921875,-0.35054489970207214,0.28778550028800964,0.47433575987815857
1758274000743029000,9.054029052734375,-0.1052832081913948,-0.042533569037914276,-0.2685175836086273
1758274000752987100,9.063987060546875,0.12778067588806152,-0.049890827387571335,-1.1003872156143188
1758274000762945300,9.0739453125,0.052275534719228745,0.2171427309513092,-0.42792069911956787
1758274000772903200,9.083903076171875,-0.32395169138908386,-0.4998627007007599,0.6903156638145447
1758274000782861300,9.093861328125,-0.3113131523132324,-0.37344589829444885,1.0469979047775269
1758274000792819000,9.10381884765625,-0.5231900811195374,1.510886549949646,1.7042852640151978
1758274000802776000,9.113776123046875,-0.4227505326271057,1.9040719270706177,1.3004862070083618
1758274000812734200,9.123734130859376,-0.07686562091112137,0.6750347018241882,0.8092422485351562
1758274000822692000,9.133692138671876,-0.11818056553602219,0.4755721688270569,1.2102078199386597
1758274000832650200,9.143650146484376,-0.2592771649360657,0.8943077921867371,1.6402246952056885
1758274000842608000,9.153608154296874,-0.3309611976146698,1.6012791395187378,1.9763635396957397
1758274000852566300,9.163566162109374,-0.3067191243171692,2.0443038940429688,2.216728925704956
1758274000862524200,9.173524169921874,-0.20717041194438934,2.1196579933166504,2.291898250579834
1758274000872481000,9.18348095703125,-0.15084192156791687,1.9554177522659302,2.1812639236450195
1758274000882439200,9.193439208984374,-0.16996288299560547,1.7414079904556274,2.0289716720581055
1758274000892397000,9.20339697265625,-0.1934468150138855,1.4428188800811768,1.8235081434249878
1758274000902355200,9.213355224609375,-0.21154752373695374,1.0603370666503906,1.6744272708892822
1758274000912313300,9.223313232421875,-0.2272770255804062,0.6999714374542236,1.5932408571243286
1758274000922271200,9.233271240234375,-0.21942096948623657,0.4239119291305542,1.5904823541641235
1758274000932229000,9.24322900390625,-0.18398262560367584,0.3154541850090027,1.6555107831954956
1758274000942186200,9.253186279296875,-0.15187235176563263,0.4241039752960205,1.7498151063919067
1758274000952144100,9.26314404296875,-0.1636837124824524,0.7457783818244934,1.8482692241668701
1758274000962102300,9.273102294921875,-0.1602940410375595,1.1704421043395996,1.91815984249115
1758274000972060200,9.28306005859375,-0.16082686185836792,1.5716354846954346,1.9775198698043823
1758274000982018300,9.293018310546875,-0.20429018139839172,1.84902024269104,2.070110321044922
1758274000991976200,9.30297607421875,-0.19365978240966797,2.0026767253875732,2.1362245082855225
1758274001001934000,9.31293408203125,-0.12597261369228363,1.9862557649612427,2.14890193939209
1758274001011891200,9.32289111328125,-0.025710562244057655,1.9415620565414429,2.1131162643432617
1758274001021849000,9.33284912109375,0.09967692196369171,1.9414312839508057,1.9961618185043335
1758274001031807200,9.34280712890625,0.14063328504562378,1.8899352550506592,1.910001516342163
1758274001041765000,9.35276513671875,-0.07900719344615936,1.7064032554626465,1.9701933860778809
1758274001051723300,9.36272314453125,-0.26066723465919495,1.5738193988800049,2.0809342861175537
1758274001061681200,9.37268115234375,-0.3099450469017029,1.3430380821228027,2.149980068206787
1758274001071639000,9.38263916015625,-0.2851535975933075,1.073643445968628,2.126634120941162
1758274001081596200,9.39259619140625,-0.2795686721801758,0.8202854990959167,1.990436315536499
1758274001091554000,9.402553955078124,-0.29898178577423096,0.6892892122268677,1.7899585962295532
1758274001101512200,9.41251220703125,-0.40776631236076355,0.5893668532371521,1.6371581554412842
1758274001111470300,9.42247021484375,-0.5108447074890137,0.3817131817340851,1.527840495109558
1758274001121428200,9.43242822265625,-0.5209096074104309,0.1246827244758606,1.4876139163970947
1758274001131386000,9.44238623046875,-0.46592721343040466,-0.006895910017192364,1.4129557609558105
1758274001141344000,9.452343994140625,-0.4180627465248108,-0.02351270243525505,1.25162672996521
1758274001151301000,9.462301025390625,-0.4165777862071991,0.030575884506106377,1.0568044185638428
1758274001161259300,9.47225927734375,-0.4136269986629486,0.14195381104946136,0.9361909031867981
1758274001171217200,9.482217041015625,-0.42490047216415405,0.2901376783847809,0.9680983424186707
1758274001181175300,9.49217529296875,-0.4132411479949951,0.4713503420352936,1.1466948986053467
1758274001191133200,9.50213330078125,-0.3178218901157379,0.5964759588241577,1.3088234663009644
1758274001201091000,9.512091064453125,-0.16462033987045288,0.7053936123847961,1.2999337911605835
1758274001211048200,9.522048095703125,-0.0799584910273552,0.9075367450714111,1.1682316064834595
1758274001221006000,9.532006103515625,-0.0482168085873127,1.2404634952545166,0.9657547473907471
1758274001230964200,9.541964111328125,0.00620448449626565,1.5328118801116943,0.7486134171485901
1758274001240922000,9.551922119140626,0.06195802614092827,1.6900179386138916,0.5910871624946594
1758274001250880300,9.56188037109375,0.12312018126249313,1.6779581308364868,0.543677031993866
1758274001260838100,9.571838134765626,0.17280438542366028,1.4758409261703491,0.6064546704292297
1758274001270796000,9.581796142578124,0.23758526146411896,1.1351430416107178,0.6234256029129028
1758274001280753200,9.591753173828126,0.2821096181869507,0.6166133284568787,0.5530036687850952
1758274001290711000,9.6017109375,0.337423712015152,0.01846681721508503,0.4235962927341461
1758274001300669200,9.611669189453124,0.3510875999927521,-0.5397914052009583,0.31079891324043274
1758274001310627300,9.62162744140625,0.3446192741394043,-0.9576138257980347,0.30771443247795105
1758274001320585200,9.631585205078125,0.31173908710479736,-1.1537280082702637,0.3883509337902069
1758274001330543000,9.641543212890625,0.2632576525211334,-1.07373046875,0.5085558891296387
1758274001340501000,9.6515009765625,0.20464813709259033,-0.7632356882095337,0.6042971014976501
1758274001350458000,9.6614580078125,0.12431281059980392,-0.30404096841812134,0.6580727100372314
1758274001360416300,9.671416259765625,0.050489190965890884,0.16467644274234772,0.6938765048980713
1758274001370374100,9.6813740234375,-0.0015830461634323,0.5124991536140442,0.7134259939193726
1758274001380332300,9.691332275390625,-0.027804262936115265,0.7537319660186768,0.7110850811004639
1758274001390290200,9.701290283203125,-0.06853380799293518,1.0306423902511597,0.6845988035202026
1758274001400248000,9.711248046875,-0.13799729943275452,1.3510873317718506,0.6279565691947937
1758274001410205200,9.721205078125,-0.21177434921264648,1.5093027353286743,0.570080041885376
1758274001420163000,9.7311630859375,-0.24207714200019836,1.3178232908248901,0.5216488838195801
1758274001430121200,9.741121337890625,-0.15855474770069122,0.9395595788955688,0.4625784754753113
1758274001440079000,9.7510791015625,0.029230596497654915,0.554092288017273,0.379332572221756
1758274001450037200,9.761037353515626,0.21161511540412903,0.09920837730169296,0.25536227226257324
1758274001459995100,9.7709951171875,0.34786456823349,-0.475879967212677,0.12689992785453796
1758274001469953000,9.780953125,0.3737923800945282,-1.0381460189819336,-0.0004818486049771309
1758274001479910100,9.79091015625,0.4007105529308319,-1.4197040796279907,-0.12844060361385345
1758274001489868300,9.800868408203126,0.4262945353984833,-1.525642991065979,-0.29539501667022705
1758274001499826200,9.810826171875,0.4630733132362366,-1.3299542665481567,-0.5344443321228027
1758274001509784300,9.820784423828124,0.5237957835197449,-0.8465369939804077,-0.7906984686851501
1758274001519742200,9.8307421875,0.6090531349182129,-0.2609379291534424,-1.0105624198913574
1758274001529700000,9.8407001953125,0.5950058698654175,0.23217712342739105,-1.208314061164856
1758274001539658000,9.850657958984375,0.5419464111328125,0.43736034631729126,-1.309082269668579
1758274001549615000,9.860614990234374,0.5337992906570435,0.40848761796951294,-1.5832452774047852
1758274001559573200,9.8705732421875,0.5221841335296631,0.055784162133932114,-1.8879921436309814
1758274001569531100,9.88053125,0.45545434951782227,-0.419748455286026,-2.1291728019714355
1758274001579489300,9.8904892578125,0.34585967659950256,-0.7954821586608887,-2.3382232189178467
1758274001589447200,9.900447265625,0.272369384765625,-1.0604956150054932,-2.5377960205078125
1758274001599405000,9.910405029296875,0.28164756298065186,-1.246106743812561,-2.743379592895508
1758274001609362200,9.920362060546875,0.32311660051345825,-1.2561366558074951,-2.9624948501586914
1758274001619320000,9.930320068359375,0.36951419711112976,-1.0053099393844604,-3.0653746128082275
1758274001629278200,9.9402783203125,0.38930901885032654,-0.4299956262111664,-2.864072322845459
1758274001639236000,9.950236083984375,0.35977351665496826,0.32249942421913147,-2.3687243461608887
1758274001649194200,9.9601943359375,0.301677942276001,0.8805928230285645,-1.8190699815750122
1758274001659152100,9.970152099609376,0.2019055187702179,1.2715086936950684,-1.2215160131454468
1758274001669109000,9.98010888671875,0.05364783853292465,1.1965547800064087,-0.7561780214309692
1758274001679067100,9.990067138671876,-0.049298517405986786,0.7676892280578613,-0.4871329665184021
1758274001689025300,10.000025390625,-0.017427818849682808,0.35229724645614624,-0.3893399238586426
1758274001698983200,10.009983154296876,0.09798000007867813,-0.02040044404566288,-0.444064736366272
1758274001708941300,10.01994140625,0.2187301367521286,-0.3799684941768646,-0.5711326003074646
1758274001718899200,10.029899169921874,0.2634100019931793,-0.7352022528648376,-0.7330208420753479
1758274001728857000,10.039857177734374,0.31140005588531494,-1.1647495031356812,-0.9564723372459412
1758274001738814200,10.049814208984374,0.38805142045021057,-1.3071972131729126,-1.0832912921905518
1758274001748772000,10.059772216796874,0.49953410029411316,-1.0727530717849731,-1.034410834312439
1758274001758730200,10.069730224609375,0.5148128867149353,-0.8194656372070312,-0.8878445625305176
1758274001768688000,10.079688232421875,0.46424221992492676,-0.7727198004722595,-0.7465348839759827
1758274001778646300,10.089646240234375,0.40490061044692993,-0.9494473934173584,-0.6124305725097656
1758274001788604200,10.099604248046875,0.405309796333313,-1.0918928384780884,-0.4071060121059418
1758274001798561000,10.10956103515625,0.3993794918060303,-1.1803250312805176,-0.1388378143310547
1758274001808519200,10.119519287109375,0.2903763949871063,-1.134467363357544,0.1688297539949417
1758274001818477000,10.12947705078125,-0.05008796602487564,-0.6212738156318665,0.6083669066429138
1758274001828435200,10.139435302734375,-0.6719381809234619,0.4825233221054077,1.3408430814743042
1758274001838393000,10.14939306640625,-1.2565478086471558,1.894217848777771,2.266592502593994
1758274001848351200,10.159351318359375,-1.4547483921051025,2.969085693359375,3.029066324234009
1758274001858309000,10.16930908203125,-1.1331770420074463,2.942790985107422,3.199359893798828
1758274001868266000,10.179265869140625,-0.7407399415969849,2.5198793411254883,2.9241695404052734
1758274001878224100,10.18922412109375,-0.49659016728401184,2.2502238750457764,2.552351474761963
1758274001888182300,10.199182373046876,-0.39506834745407104,2.118570327758789,2.2206175327301025
1758274001898140200,10.20914013671875,-0.29186365008354187,2.0461535453796387,1.907629370689392
1758274001908098300,10.219098388671876,-0.10258123278617859,1.8520190715789795,1.6324318647384644
1758274001918056200,10.22905615234375,0.17627756297588348,1.4362157583236694,1.4544129371643066
1758274001928013000,10.239012939453126,0.343413770198822,0.7145646214485168,1.316602110862732
1758274001937971200,10.24897119140625,0.29051512479782104,-0.27652496099472046,1.0325523614883423
1758274001947929000,10.25892919921875,-0.030813870951533318,-1.4107773303985596,0.4501514434814453
1758274001957887200,10.26888720703125,-0.20969520509243011,-3.0395002365112305,-0.5176159739494324
1758274001967845000,10.27884521484375,0.04113501310348511,-4.417232036590576,-1.595913290977478
1758274001977803300,10.28880322265625,0.5463425517082214,-5.170525074005127,-2.524235725402832
1758274001987760000,10.298760009765624,1.1018308401107788,-5.584496974945068,-2.5944457054138184
1758274001997718000,10.308718017578125,1.9911165237426758,-8.093575477600098,0.8115788698196411
1758274002007676200,10.31867626953125,2.0917675495147705,-6.881385326385498,1.416827917098999
1758274002017634000,10.328634033203125,1.8323795795440674,-5.303945064544678,1.6887441873550415
1758274002027592200,10.33859228515625,0.5935847759246826,-5.941549777984619,1.5822937488555908
1758274002037550300,10.34855029296875,-0.37891247868537903,-5.727193355560303,1.966192364692688
1758274002047507000,10.3585068359375,-0.5899239182472229,-2.4506940841674805,1.4995726346969604
1758274002057465000,10.368465087890625,-0.7700337767601013,0.6412692666053772,0.5671682357788086
1758274002067423200,10.37842333984375,-1.1424028873443604,1.8402811288833618,0.07853134721517563
1758274002077381000,10.388381103515625,-1.46737802028656,1.8404395580291748,0.16697464883327484
1758274002087339300,10.39833935546875,-1.7559235095977783,1.1814597845077515,0.4903263449668884
1758274002097297200,10.408297119140625,-1.9168697595596313,0.42287424206733704,0.6571771502494812
1758274002107254000,10.41825390625,-2.016470432281494,-0.09978334605693817,0.6651674509048462
1758274002117212200,10.428212158203126,-2.1422929763793945,-0.2012346088886261,0.5564625263214111
1758274002127170000,10.438170166015626,-2.357593059539795,-0.10084222257137299,0.31287193298339844
1758274002137128200,10.448128173828126,-2.558706045150757,-0.13427235186100006,0.022563839331269264
1758274002147086000,10.458086181640626,-2.684598207473755,-0.31728124618530273,-0.23462249338626862
1758274002157044200,10.468044189453124,-2.908740758895874,-0.24293777346611023,-0.41658830642700195
1758274002167002000,10.478002197265624,-3.169677972793579,-0.10860779136419296,-0.7794651389122009
1758274002176959000,10.487958984375,-3.3676507472991943,-0.16545696556568146,-1.1402156352996826
1758274002186917000,10.497917236328124,-3.518852710723877,-0.2931578755378723,-1.303684115409851
1758274002196875000,10.507875,-3.6453940868377686,-0.14929711818695068,-1.4322378635406494
1758274002206833200,10.517833251953125,-3.8468198776245117,0.7210370898246765,-1.400100827217102
1758274002216791000,10.527791015625,-4.081929683685303,2.1034932136535645,-1.086076259613037
1758274002226749200,10.537749267578125,-4.067131519317627,2.7506508827209473,-0.9457124471664429
1758274002236706300,10.547706298828125,-3.8260130882263184,2.7107110023498535,-0.9784490466117859
1758274002246664000,10.557663818359375,-3.6854617595672607,2.9125912189483643,-0.7628899216651917
1758274002256622000,10.5676220703125,-3.637056827545166,3.1161415576934814,-0.7891841530799866
1758274002266580200,10.577580322265625,-3.431786060333252,2.7837271690368652,-0.5773200988769531
1758274002276538000,10.5875380859375,-3.2134883403778076,1.85439133644104,-0.42338642477989197
1758274002286496300,10.597496337890625,-2.9965803623199463,1.4105054140090942,-0.24278904497623444
1758274002296453000,10.607453125,-2.8432257175445557,1.542482614517212,0.2827889919281006
1758274002306411000,10.617410888671875,-2.5171689987182617,2.3484010696411133,0.5665683150291443
1758274002316369200,10.627369140625,-2.027902126312256,2.4272449016571045,0.843946635723114
1758274002326327000,10.6373271484375,-1.4259220361709595,3.2393252849578857,0.9964144825935364
1758274002336285200,10.64728515625,-0.94199138879776,3.7689597606658936,1.5970677137374878
1758274002346243000,10.6572431640625,-0.5071116089820862,5.59623908996582,2.0382678508758545
1758274002356200200,10.6672001953125,-0.2806001901626587,5.1374287605285645,2.111330032348633
1758274002366158300,10.677158447265626,-0.23428848385810852,3.7276923656463623,1.6329166889190674
1758274002376116000,10.687115966796876,-0.3886207938194275,4.130280017852783,1.7218250036239624
1758274002386074000,10.69707421875,-0.5045639872550964,5.518973350524902,2.697908401489258
1758274002396032000,10.707031982421874,-0.7158525586128235,5.7180891036987305,3.0888192653656006
1758274002405990100,10.716990234375,-1.2322129011154175,5.3734636306762695,3.0880417823791504
1758274002415947300,10.726947265625,-2.2192933559417725,6.243305683135986,3.492786169052124
1758274002425905200,10.7369052734375,-3.3875715732574463,6.337599277496338,3.934460163116455
1758274002435863300,10.74686328125,-4.556291580200195,6.215632438659668,4.2329535484313965
1758274002445821200,10.7568212890625,-5.584293842315674,6.263967514038086,4.502701282501221
1758274002455779300,10.766779296875,-6.341986656188965,5.892674922943115,4.652340888977051
1758274002465737200,10.7767373046875,-6.937445640563965,5.216892242431641,4.7479071617126465
1758274002475694000,10.786694091796875,-7.3496317863464355,5.029775619506836,4.885390281677246
1758274002485652200,10.79665234375,-7.563848972320557,5.145061492919922,5.073189735412598
1758274002495610000,10.806610107421875,-7.601978302001953,5.126707077026367,5.215421199798584
1758274002505568300,10.816568359375,-7.57747745513916,4.887965202331543,5.28682804107666
1758274002515526400,10.8265263671875,-7.4478373527526855,4.452734470367432,5.206233501434326
1758274002525484300,10.836484375,-7.165647506713867,3.80672287940979,4.932988166809082
1758274002535441200,10.846441162109375,-7.099009990692139,3.3758318424224854,4.745005130767822
1758274002545399300,10.8563994140625,-6.908763885498047,3.3675801753997803,4.520192623138428
1758274002555357200,10.866357177734375,-6.60523796081543,3.2573981285095215,3.972752094268799
1758274002565315300,10.8763154296875,-6.1396050453186035,2.524582624435425,3.1301727294921875
1758274002575273200,10.886273193359376,-5.603285789489746,1.4201098680496216,2.1883461475372314
1758274002585231400,10.8962314453125,-5.239132404327393,0.4012654423713684,1.3928794860839844
1758274002595188500,10.9061884765625,-4.9621901512146,-0.293986052274704,0.8307748436927795
1758274002605146000,10.91614599609375,-4.689486026763916,-0.47723567485809326,0.47072094678878784
1758274002615104300,10.926104248046874,-4.423625469207764,-0.11928258836269379,0.2488545924425125
1758274002625062100,10.936062255859374,-4.069859027862549,0.47389113903045654,0.13795073330402374
1758274002635020300,10.946020263671874,-3.5543694496154785,1.041948676109314,0.1793825924396515
1758274002644978200,10.955978271484375,-2.9462292194366455,1.3228015899658203,0.31386062502861023
1758274002654935300,10.965935302734374,-2.271846055984497,1.1573487520217896,0.4490453600883484
1758274002664893200,10.97589306640625,-1.5481475591659546,0.6124556064605713,0.5704782009124756
1758274002674851000,10.98585107421875,-0.8654899597167969,-0.0226148571819067,0.6769228577613831
1758274002684809200,10.995809326171875,-0.3100576400756836,-0.4469996392726898,0.8035957217216492
1758274002694767400,11.005767333984375,0.09707310795783997,-0.6077163815498352,0.7998457551002502
1758274002704725200,11.015725341796875,0.39399296045303345,-0.5697296261787415,0.6884499192237854
1758274002714682400,11.025682373046875,0.599855899810791,-0.3139612078666687,0.5782827138900757
1758274002724640300,11.03564013671875,0.7185070514678955,-0.004456008784472942,0.4959072172641754
1758274002734598100,11.04559814453125,0.7802172899246216,0.2597399652004242,0.383154034614563
1758274002744556300,11.055556396484375,0.823233962059021,0.47935518622398376,0.21376101672649384
1758274002754514200,11.06551416015625,0.8473408818244934,0.6068564057350159,0.0027936575934290886
1758274002764472300,11.075472412109375,0.10258959233760834,0.5896576642990112,-0.1981215476989746
1758274002774429400,11.085429443359375,-3.3494129180908203,1.0292335748672485,-0.22824136912822723
1758274002784387300,11.09538720703125,-5.866037368774414,2.363980770111084,-0.008719131350517273
1758274002794345500,11.105345458984376,-6.598095893859863,2.2482194900512695,-0.0769578367471695
1758274002804303000,11.11530322265625,-6.590353965759277,0.551415741443634,-0.346221387386322
1758274002814261200,11.12526123046875,-6.383522033691406,-0.26732969284057617,-0.512484073638916
1758274002824219100,11.13521923828125,-5.690334320068359,-0.8448982834815979,-0.700019359588623
1758274002834176300,11.14517626953125,-4.4574103355407715,-0.7082545757293701,-0.7606963515281677
1758274002844134400,11.155134521484374,-2.2925732135772705,-0.4841485917568207,-0.5015565752983093
1758274002854092300,11.16509228515625,-0.47096049785614014,-0.4237702190876007,-0.2240954041481018
1758274002864050200,11.17505029296875,0.401277631521225,-0.8094267249107361,-0.14146539568901062
1758274002874008000,11.185008056640624,0.4684617221355438,-1.4140236377716064,-0.12590853869915009
1758274002883966200,11.19496630859375,0.18710723519325256,-1.592503547668457,-0.14182862639427185
1758274002893923300,11.20492333984375,-0.018917838111519814,-1.542273998260498,-0.2479233741760254
1758274002903881200,11.214881103515625,-0.25195425748825073,-1.2408713102340698,-0.5161371231079102
1758274002913839400,11.22483935546875,-0.48574623465538025,-1.1066254377365112,-0.6909944415092468
1758274002923797200,11.23479736328125,-0.6924528479576111,-0.8611449599266052,-0.6912781596183777
1758274002933755100,11.244755126953125,-0.8208175301551819,-0.42780575156211853,-0.43520882725715637
1758274002943713300,11.25471337890625,-0.8056041598320007,0.03506915643811226,0.07726049423217773
1758274002953670100,11.264670166015625,-0.699346125125885,0.22160468995571136,0.6676393747329712
1758274002963628300,11.274628173828125,-0.629418134689331,0.22408698499202728,1.1363418102264404
1758274002973586400,11.28458642578125,-0.6017156839370728,0.18643762171268463,1.3697584867477417
1758274002983544300,11.29454443359375,-0.6186410188674927,0.057369768619537354,1.3069285154342651
1758274002993502500,11.30450244140625,-0.7122884392738342,-0.1359701305627823,0.9954795837402344
1758274003003460000,11.314460205078126,-0.8829427361488342,-0.24500255286693573,0.6661996245384216
1758274003013417200,11.324417236328125,-1.0986135005950928,-0.2880522906780243,0.4060128331184387
1758274003023375400,11.334375244140626,-1.2533087730407715,-0.25398460030555725,0.24237734079360962
1758274003033333200,11.344333251953126,-1.329728126525879,-0.15802772343158722,0.19245052337646484
1758274003043291400,11.35429150390625,-1.3342777490615845,-0.07428429275751114,0.23070278763771057
1758274003053249300,11.364249267578124,-1.2603806257247925,-0.026951394975185394,0.30082035064697266
1758274003063207200,11.374207275390624,-1.1239049434661865,-0.01873275451362133,0.36476004123687744
1758274003073164300,11.384164306640624,-0.9484745264053345,-0.026654593646526337,0.44771137833595276
1758274003083122200,11.3941220703125,-0.7753811478614807,-0.0000015909317880868912,0.546619176864624
1758274003093080300,11.404080322265624,-0.6377644538879395,0.0464460663497448,0.5860318541526794
1758274003103038200,11.4140380859375,-0.5448188185691833,0.12286493927240372,0.5482154488563538
1758274003112996400,11.423996337890625,-0.4727241098880768,0.23731349408626556,0.442941278219223
1758274003122954500,11.43395458984375,-0.41547784209251404,0.36830320954322815,0.3091137111186981
1758274003132911000,11.4439111328125,-0.34848448634147644,0.4610302746295929,0.17553405463695526
1758274003142869200,11.453869140625,-0.21916376054286957,0.4728533625602722,0.06087544932961464
1758274003152827100,11.4638271484375,-0.07642205059528351,0.412015825510025,-0.017000440508127213
1758274003162785300,11.473785400390625,0.07237053662538528,0.3512071371078491,-0.05417875573039055
1758274003172743400,11.483743408203125,0.18928438425064087,0.33233651518821716,-0.11831832677125931
1758274003182700000,11.493699951171875,0.2866149842739105,0.38659998774528503,-0.17614158987998962
1758274003192658200,11.503658203125,0.3737589418888092,0.3027671277523041,-0.20022135972976685
1758274003202616300,11.5136162109375,0.4429169297218323,0.13592968881130219,-0.2030523270368576
1758274003212574200,11.52357421875,0.4918211102485657,0.08352535218000412,-0.18288607895374298
1758274003222532400,11.533532470703125,0.5025151371955872,0.15565986931324005,-0.09321153908967972
1758274003232490200,11.543490234375,0.4828903079032898,0.20511184632778168,0.038115594536066055
1758274003242447400,11.553447265625,0.453029990196228,0.3705936372280121,0.28314170241355896
1758274003252405200,11.5634052734375,0.27070730924606323,0.6521151065826416,0.9614629149436951
1758274003262363100,11.573363037109376,0.09270994365215302,0.3610354959964752,0.7543181777000427
1758274003272321300,11.5833212890625,0.12135596573352814,0.2970232367515564,0.18856368958950043
1758274003282279200,11.593279052734376,0.2331879734992981,0.2968817949295044,-0.40144097805023193
1758274003292237300,11.6032373046875,0.2811475098133087,0.19458791613578796,-0.6135231256484985
