time,seconds_elapsed,z,y,x
1758972451474504000,0.04850390625,-0.007434480357915163,-0.7967261672019958,0.37469184398651123
1758972451484462000,0.058462158203125,-0.05107303708791733,-1.005472183227539,0.5633187294006348
1758972451494419000,0.0684189453125,-0.057383663952350616,-0.9871227741241455,0.6267083883285522
1758972451504376800,0.078376953125,0.08782439678907394,-0.7358913421630859,0.4858418107032776
1758972451514334000,0.088333984375,0.410012811422348,-0.652130126953125,0.7553262710571289
1758972451524292000,0.0982919921875,0.6275004148483276,-0.821972668170929,1.3608678579330444
1758972451534250000,0.10825,0.6092178225517273,-0.8603826761245728,1.6761804819107056
1758972451544206800,0.118206787109375,0.5825244188308716,-1.0726280212402344,1.7972089052200317
1758972451554165000,0.1281650390625,0.531462550163269,-1.2998607158660889,1.658134937286377
1758972451564121900,0.138121826171875,0.42998412251472473,-0.8572816848754883,1.4056051969528198
1758972451574080000,0.148080078125,0.3168999254703522,-0.4421688914299011,1.0492700338363647
1758972451584036900,0.158036865234375,0.33188605308532715,-0.39039331674575806,0.5053409337997437
1758972451593994800,0.167994873046875,0.4979482591152191,-0.5249700546264648,0.02185150235891342
1758972451603953000,0.177952880859375,0.6898719072341919,-0.6662640571594238,-0.24202968180179596
1758972451613910000,0.187909912109375,0.8172442317008972,-0.7309242486953735,-0.1903747320175171
1758972451623868000,0.197867919921875,0.8620175719261169,-0.8182847499847412,0.06728476285934448
1758972451633824800,0.20782470703125,0.8983649015426636,-1.0587841272354126,0.3183976709842682
1758972451643783000,0.217782958984375,1.0455000400543213,-1.4927995204925537,0.3832395374774933
1758972451653740000,0.227739990234375,1.1822360754013062,-1.8811770677566528,0.27595993876457214
1758972451663698000,0.237697998046875,1.3674179315567017,-2.05242919921875,0.09182712435722351
1758972451673656000,0.247656005859375,1.595130443572998,-2.047290802001953,-0.0773504450917244
1758972451683613000,0.257613037109375,1.8005613088607788,-1.813916563987732,-0.1744421124458313
1758972451693570800,0.26757080078125,1.9342964887619019,-1.454141616821289,-0.23206305503845215
1758972451703528000,0.27752783203125,1.9361910820007324,-1.1087231636047363,-0.2773756682872772
1758972451713486000,0.287486083984375,1.7560514211654663,-0.8288079500198364,-0.3819385766983032
1758972451723444000,0.29744384765625,1.4258623123168945,-0.7699965834617615,-0.5376482605934143
1758972451733400800,0.30740087890625,1.0874006748199463,-0.9400691986083984,-0.6193215847015381
1758972451743359000,0.31735888671875,0.9077914357185364,-1.1236563920974731,-0.5685175061225891
1758972451753315800,0.32731591796875,0.9441614151000977,-1.2635934352874756,-0.44247862696647644
1758972451763274000,0.33727392578125,1.094404697418213,-1.3638324737548828,-0.29483431577682495
1758972451773231000,0.347231201171875,1.2665634155273438,-1.4991226196289062,-0.16798794269561768
1758972451783188700,0.357188720703125,1.4755140542984009,-1.649322509765625,-0.05848434939980507
1758972451793147000,0.36714697265625,1.6696821451187134,-1.8710997104644775,0.0749456137418747
1758972451803104000,0.37710400390625,1.7567558288574219,-2.0974111557006836,0.22769947350025177
1758972451813062000,0.387061767578125,1.723276138305664,-2.3514347076416016,0.40288832783699036
1758972451823019000,0.39701904296875,1.5970289707183838,-2.679062843322754,0.5857500433921814
1758972451832977000,0.406976806640625,1.517447590827942,-2.9730587005615234,0.74283367395401
1758972451842934000,0.41693408203125,1.6582098007202148,-3.2916769981384277,0.8717551231384277
1758972451852892000,0.426891845703125,2.0210633277893066,-3.8231277465820312,1.0158159732818604
1758972451862850000,0.43685009765625,2.490788221359253,-4.422537803649902,1.2375930547714233
1758972451872807000,0.446806884765625,2.8722262382507324,-4.907815456390381,1.5483578443527222
1758972451882764800,0.456764892578125,3.1520867347717285,-5.2144341468811035,1.8838697671890259
1758972451892722000,0.466721923828125,3.5234007835388184,-5.276660442352295,2.2769925594329834
1758972451902679800,0.4766796875,4.005882263183594,-5.098560810089111,2.7104039192199707
1758972451912638000,0.486637939453125,4.343184471130371,-4.865246772766113,3.1133995056152344
1758972451922595000,0.496594970703125,4.399725437164307,-4.526279926300049,3.426546096801758
1758972451932552700,0.506552734375,4.268160343170166,-4.219439506530762,3.6057615280151367
1758972451942509800,0.516509765625,3.9823219776153564,-3.8245880603790283,3.626892328262329
1758972451952468000,0.526468017578125,3.6580076217651367,-3.2437591552734375,3.5125560760498047
1758972451962425000,0.536425048828125,3.3866095542907715,-2.5524046421051025,3.30539870262146
1758972451972383000,0.546383056640625,3.1000969409942627,-1.868399977684021,3.0905086994171143
1758972451982340900,0.5563408203125,2.87862491607666,-1.3378455638885498,2.925854444503784
1758972451992298000,0.566298095703125,2.831422805786133,-1.0872688293457031,2.782866954803467
1758972452002256000,0.576255859375,2.87365460395813,-1.1416054964065552,2.6454672813415527
1758972452012213000,0.586212890625,2.9056851863861084,-1.3796833753585815,2.4729835987091064
1758972452022171100,0.596171142578125,2.824389696121216,-1.5163570642471313,2.3159303665161133
1758972452032127700,0.606127685546875,2.6484997272491455,-1.5517784357070923,2.1766457557678223
1758972452042086000,0.6160859375,2.505012273788452,-1.5960981845855713,2.034755229949951
1758972452052044000,0.6260439453125,2.397181749343872,-1.6606417894363403,1.9047343730926514
1758972452062001000,0.6360009765625,2.3007404804229736,-1.8815288543701172,1.819083333015442
1758972452071959000,0.645958984375,2.259528875350952,-2.0901944637298584,1.7709826231002808
1758972452081916000,0.655916015625,2.205927848815918,-1.9240741729736328,1.818774700164795
1758972452091873800,0.665873779296875,2.1333014965057373,-1.6171060800552368,1.8793346881866455
1758972452101831000,0.675830810546875,2.081498384475708,-1.376645803451538,1.9047406911849976
1758972452111789000,0.6857890625,1.8938266038894653,-2.6741673946380615,-0.18510620296001434
1758972452121747000,0.695746826171875,1.845359206199646,-3.3250739574432373,-2.2593166828155518
1758972452131703800,0.705703857421875,1.994889497756958,-3.527909755706787,-2.5318081378936768
1758972452141662000,0.715661865234375,1.8981624841690063,-3.236889600753784,-2.3720128536224365
1758972452151619000,0.725619140625,1.7759628295898438,-2.9193432331085205,-1.969237208366394
1758972452161577000,0.735576904296875,1.6847710609436035,-2.311000347137451,-1.3118236064910889
1758972452171533800,0.745533935546875,1.5120091438293457,-1.592832326889038,-0.7126041054725647
1758972452181492000,0.755491943359375,1.4268766641616821,-1.1826006174087524,-0.121321901679039
1758972452191449900,0.765449951171875,1.3436896800994873,-1.2436025142669678,0.4721355736255646
1758972452201407000,0.775406982421875,1.1783816814422607,-1.840517282485962,1.27495539188385
1758972452211364900,0.78536474609375,0.4911574721336365,-2.4280731678009033,1.8701307773590088
1758972452221321700,0.79532177734375,0.27236494421958923,-3.2019944190979004,2.3905677795410156
1758972452231279900,0.80527978515625,0.14930160343647003,-3.223533868789673,2.6850767135620117
1758972452241237000,0.815237060546875,-0.019232550635933876,-2.4119198322296143,3.1762471199035645
1758972452251195100,0.825195068359375,0.05638391524553299,-2.146599531173706,3.100905179977417
1758972452261153000,0.835153076171875,-0.04366279020905495,-2.2695889472961426,2.039231777191162
1758972452271110100,0.845110107421875,-0.14002421498298645,-2.6307899951934814,0.3327372074127197
1758972452281068000,0.855068115234375,-0.12684182822704315,-2.5355911254882812,-1.116562008857727
1758972452291025200,0.865025146484375,0.06388896703720093,-2.044757843017578,-1.9209375381469727
1758972452300983300,0.8749833984375,0.3798293471336365,-1.4982794523239136,-2.0055418014526367
1758972452310940000,0.88493994140625,0.6754410266876221,-1.2018779516220093,-1.6874412298202515
1758972452320898000,0.89489794921875,0.8775312900543213,-1.1104981899261475,-1.3913700580596924
1758972452330856200,0.904856201171875,1.0504494905471802,-1.3175952434539795,-1.2129065990447998
1758972452340813000,0.91481298828125,1.1695692539215088,-1.8410024642944336,-1.0085813999176025
1758972452350771200,0.924771240234375,1.3232725858688354,-2.568408250808716,-0.7662058472633362
1758972452360728000,0.93472802734375,1.400673270225525,-2.9180188179016113,-0.6865628957748413
1758972452370686000,0.94468603515625,1.7310810089111328,-2.1603331565856934,-0.6263552308082581
1758972452380643000,0.95464306640625,2.249115228652954,-0.8756495118141174,-0.5613003373146057
1758972452390601200,0.964601318359375,2.5912065505981445,0.672908365726471,-0.2322729229927063
1758972452400558000,0.97455810546875,2.6353118419647217,2.4486730098724365,0.13823270797729492
1758972452410516000,0.984515869140625,2.3497626781463623,3.6568732261657715,0.29595947265625
1758972452420474000,0.99447412109375,2.5021910667419434,3.4090614318847656,0.24144405126571655
1758972452430431200,1.00443115234375,2.7678515911102295,2.1996943950653076,0.11369087547063828
1758972452440389000,1.01438916015625,2.9961652755737305,0.6838598251342773,0.019687417894601822
1758972452450346000,1.024345947265625,3.0379297733306885,-0.2508428692817688,-0.20153310894966125
1758972452460304100,1.03430419921875,2.953930377960205,-0.7199863791465759,-0.3099871575832367
1758972452470261000,1.044260986328125,2.182312488555908,-0.9823367595672607,-0.2633485496044159
1758972452480219100,1.05421923828125,0.9009165167808533,-0.7791000604629517,-0.5044205784797668
1758972452490177300,1.06417724609375,0.19260592758655548,0.39487993717193604,-1.0155746936798096
1758972452500134000,1.0741337890625,-0.12766848504543304,0.5852925181388855,-1.5151708126068115
1758972452510092000,1.084092041015625,-0.39640378952026367,0.14966166019439697,-2.0103302001953125
1758972452520049200,1.094049072265625,-0.4919481575489044,0.3563882112503052,-2.1503965854644775
1758972452530007000,1.104007080078125,-0.3859192132949829,1.128522515296936,-1.913574457168579
1758972452539964000,1.1139638671875,-0.4454863965511322,2.214958429336548,-1.4043793678283691
1758972452549922000,1.123922119140625,-0.583545982837677,2.3146727085113525,-0.9148464202880859
1758972452559879200,1.133879150390625,-0.6675362586975098,0.9212958216667175,-0.46334129571914673
1758972452569837000,1.143837158203125,-0.6274676322937012,-0.3310977518558502,-0.0813923254609108
1758972452579795200,1.153795166015625,-0.5395745635032654,-0.6800488233566284,0.05058541148900986
1758972452589752000,1.163751953125,-0.4496750235557556,-0.5589913725852966,-0.1360372006893158
1758972452599710000,1.1737099609375,-0.48276346921920776,-0.8908295035362244,-0.7166739702224731
1758972452609667000,1.1836669921875,-0.15611903369426727,-0.5357187986373901,-0.6990922689437866
1758972452619625200,1.193625244140625,0.12371421605348587,-0.15250138938426971,-0.23837529122829437
1758972452629582000,1.20358203125,0.1767635941505432,-0.5214948654174805,0.06883791834115982
1758972452639540200,1.213540283203125,0.24839569628238678,-1.2290656566619873,0.18888816237449646
1758972452649497000,1.2234970703125,0.4263305366039276,-1.4640450477600098,0.2930838167667389
1758972452659455000,1.233455078125,0.6699538826942444,-0.9695184826850891,0.4807237386703491
1758972452669413000,1.2434130859375,0.8501771688461304,-0.7039024829864502,0.5374019145965576
1758972452679370200,1.253370361328125,0.9743691682815552,-0.5457234978675842,0.5924065709114075
1758972452689328000,1.263328125,0.8943954706192017,-0.07387475669384003,0.4954187870025635
1758972452699285000,1.273284912109375,0.6898322105407715,0.3546012341976166,0.03512656316161156
1758972452709243100,1.2832431640625,0.151340514421463,0.6854901909828186,-0.5628281831741333
1758972452719200300,1.2932001953125,-0.23368573188781738,0.9905771613121033,-1.0182124376296997
1758972452729158100,1.303158203125,-0.30008313059806824,1.044545292854309,-1.3387428522109985
1758972452739115000,1.313114990234375,-0.31435874104499817,0.7637812495231628,-1.452196717262268
1758972452749073200,1.3230732421875,-0.21402494609355927,0.6251733303070068,-1.3299500942230225
1758972452759031000,1.333031005859375,-0.03748106211423874,0.7700820565223694,-0.9750165343284607
1758972452768988200,1.34298828125,0.07369206100702286,0.8306053280830383,-0.6263890862464905
1758972452778946000,1.352946044921875,0.06237788870930672,0.7227230668067932,-0.41830164194107056
1758972452788903000,1.36290283203125,0.04336291924118996,0.4724927246570587,-0.30205172300338745
1758972452798861000,1.372861083984375,-0.011896340176463127,0.09751404076814651,-0.20396111905574799
1758972452808818200,1.382818115234375,-0.032113462686538696,-0.3015579879283905,-0.08896981924772263
1758972452818776000,1.392776123046875,-0.0384637676179409,-0.5578174591064453,0.08743024617433548
1758972452828733000,1.40273291015625,-0.06318403035402298,-0.6896737813949585,0.28435128927230835
1758972452838691000,1.412691162109375,-0.27755916118621826,-0.5357731580734253,0.35029304027557373
1758972452848649000,1.42264892578125,-0.5172383189201355,-0.24907080829143524,0.3957281708717346
1758972452858606000,1.432606201171875,-0.7196788191795349,-0.11904916167259216,0.38138675689697266
1758972452868564200,1.442564208984375,-0.9193413257598877,0.057923220098018646,0.28915297985076904
1758972452878521000,1.45252099609375,-1.0897082090377808,0.2433822900056839,0.24129225313663483
1758972452888479000,1.46247900390625,-1.179490566253662,0.49146026372909546,0.10179613530635834
1758972452898436000,1.47243603515625,-1.2252758741378784,0.6482115387916565,-0.11675484478473663
1758972452908394000,1.48239404296875,-1.077033519744873,1.1226270198822021,-0.3733171224594116
1758972452918351000,1.49235107421875,-0.7471186518669128,1.4985167980194092,-0.6552558541297913
1758972452928309000,1.50230908203125,-0.5327478051185608,1.6708608865737915,-0.7209590077400208
1758972452938267000,1.512266845703125,-0.42380186915397644,1.6312159299850464,-0.6816589832305908
1758972452948224000,1.52222412109375,-0.962212085723877,1.5493794679641724,-0.5841001868247986
1758972452958182100,1.53218212890625,-0.7044889330863953,1.1103445291519165,-0.1915832757949829
1758972452968139300,1.54213916015625,0.1635444611310959,0.7727689146995544,-0.1681988686323166
1758972452978097000,1.552096923828125,0.9135627746582031,0.8702230453491211,-0.4340460002422333
1758972452988054000,1.562053955078125,1.3918495178222656,1.0188002586364746,-0.7555542588233948
1758972452998012200,1.57201220703125,1.8859742879867554,1.3961912393569946,-0.9333617687225342
1758972453007969000,1.581968994140625,2.503422498703003,1.747130274772644,-1.3396600484848022
1758972453017927200,1.59192724609375,2.870795488357544,2.2558586597442627,-1.9025079011917114
1758972453027885000,1.601885009765625,2.5921647548675537,2.499837875366211,-2.185441017150879
1758972453037842000,1.611842041015625,1.6882758140563965,2.6522879600524902,-2.287449598312378
1758972453047800000,1.621800048828125,0.6130157113075256,2.1823818683624268,-2.0531325340270996
1758972453057757200,1.631757080078125,-0.11076007038354874,1.3399442434310913,-1.4753214120864868
1758972453067715000,1.641715087890625,-0.49706488847732544,0.8533068895339966,-1.0007133483886719
1758972453077672000,1.651671875,-0.9203495979309082,0.7152898907661438,-0.6235674619674683
1758972453087630000,1.661630126953125,-0.8372962474822998,0.5519822239875793,-0.7258376479148865
1758972453097587200,1.671587158203125,-0.1425534188747406,0.4929945170879364,-1.0613309144973755
1758972453107545000,1.681545166015625,0.3010658323764801,0.8271344304084778,-1.0865169763565063
1758972453117502000,1.691501953125,0.5473019480705261,1.4059094190597534,-0.8931286334991455
1758972453127460000,1.701460205078125,0.4708458185195923,1.8172050714492798,-0.5689172744750977
1758972453137418000,1.71141796875,0.5730552673339844,0.6392244100570679,-0.07401777058839798
1758972453147375000,1.721375,1.238892912864685,-0.31205615401268005,0.2050897628068924
1758972453157333200,1.731333251953125,1.8445783853530884,-0.7234269380569458,0.2942555844783783
1758972453167289900,1.741289794921875,2.184343099594116,-0.995309591293335,0.4191165566444397
1758972453177248000,1.751248046875,2.3206443786621094,-1.483224868774414,0.5702536106109619
1758972453187205000,1.761205078125,2.258903980255127,-1.8588731288909912,0.7501448392868042
1758972453197163000,1.7711630859375,2.138258934020996,-1.8664926290512085,0.9495250582695007
1758972453207120100,1.7811201171875,2.347719192504883,-2.374608039855957,1.0950138568878174
1758972453217078000,1.791078125,2.4006025791168213,-1.8187576532363892,1.1597344875335693
1758972453227035100,1.80103515625,2.7347710132598877,-1.6234054565429688,1.1767281293869019
1758972453236993000,1.810992919921875,3.2342536449432373,-1.9379847049713135,1.4071261882781982
1758972453246951400,1.820951416015625,3.4915289878845215,-2.206859588623047,1.4389344453811646
1758972453256908500,1.830908447265625,3.016702175140381,-2.7068004608154297,1.2562702894210815
1758972453266866400,1.840866455078125,0.9166064858436584,-2.866751194000244,0.8579946160316467
1758972453276823300,1.8508232421875,-1.6072640419006348,-1.8500266075134277,0.6793750524520874
1758972453286781200,1.86078125,-2.490044116973877,-0.9587446451187134,0.5698464512825012
1758972453296738300,1.87073828125,-2.828118085861206,-0.2614414691925049,0.4624920189380646
1758972453306696400,1.880696533203125,-3.3706822395324707,0.37635311484336853,0.42054322361946106
1758972453316653300,1.8906533203125,-3.980978012084961,0.6679050922393799,0.28699982166290283
1758972453326611200,1.900611083984375,-4.566708564758301,-0.12443167716264725,0.39076828956604004
1758972453336569300,1.9105693359375,-4.7402472496032715,-1.6022852659225464,0.8181955218315125
1758972453346526500,1.9205263671875,-4.303596496582031,-2.9648146629333496,1.481801152229309
1758972453356484400,1.930484375,-3.359651565551758,-3.5332040786743164,2.007049560546875
1758972453366441200,1.940441162109375,-0.5701950192451477,2.0747711658477783,-2.257802963256836
1758972453376399400,1.9503994140625,0.5089913606643677,1.7436573505401611,-2.6908228397369385
1758972453386356500,1.9603564453125,-0.2896310091018677,2.1779918670654297,-1.3517004251480103
1758972453396314400,1.970314453125,-1.0074719190597534,1.6642847061157227,-0.286468505859375
1758972453406271200,1.980271240234375,-0.9465053081512451,0.5564818978309631,0.09425299614667892
1758972453416229400,1.9902294921875,-1.0052354335784912,0.09751111268997192,0.24312210083007812
1758972453426186200,2.000186279296875,-1.0553207397460938,-0.20244231820106506,0.38549575209617615
1758972453436144400,2.010144287109375,-1.1033796072006226,-0.7239267826080322,0.6085190176963806
1758972453446102300,2.020102294921875,-1.2510130405426025,-1.2427295446395874,0.8459001183509827
1758972453456059100,2.03005908203125,-1.4262250661849976,-1.7331717014312744,1.1067663431167603
1758972453466017300,2.040017333984375,-1.7642227411270142,-2.314032554626465,1.4357432126998901
1758972453475974400,2.049974365234375,-1.9871280193328857,-2.6021320819854736,1.4719065427780151
1758972453485932300,2.059932373046875,-1.877655267715454,-1.8407950401306152,1.3143802881240845
1758972453495889400,2.069889404296875,-1.9122577905654907,-0.7673384547233582,1.0805472135543823
1758972453505847300,2.079847412109375,-1.9377919435501099,0.15987221896648407,0.8889634609222412
1758972453515804400,2.089804443359375,-1.846043348312378,0.1272255927324295,0.758755624294281
1758972453525762300,2.09976220703125,-1.6799595355987549,-0.0639353096485138,0.4939410090446472
1758972453535719400,2.109719482421875,-1.308963418006897,0.2747463285923004,0.13080808520317078
1758972453545677300,2.11967724609375,-0.9209375977516174,1.2349828481674194,-0.36487704515457153
1758972453555635200,2.12963525390625,-0.5583482384681702,2.4785711765289307,-0.9214252233505249
1758972453565592300,2.13959228515625,-0.04794115945696831,2.588468074798584,-1.4775034189224243
1758972453575550200,2.14955029296875,0.4996364414691925,1.6950948238372803,-2.1481740474700928
1758972453585507300,2.15950732421875,0.9164376854896545,0.9428309202194214,-2.987065553665161
1758972453595465500,2.169465576171875,1.2117886543273926,1.1468772888183594,-3.313840627670288
1758972453605422300,2.17942236328125,1.3551300764083862,1.2909084558486938,-2.698438882827759
1758972453615380200,2.189380126953125,1.3260000944137573,0.9772424101829529,-1.777453899383545
1758972453625337300,2.19933740234375,1.3584710359573364,0.436987966299057,-1.009415864944458
1758972453635295500,2.20929541015625,1.4803920984268188,0.2567542791366577,-0.7065949440002441
1758972453645253400,2.21925341796875,1.6879963874816895,0.17843924462795258,-0.8309366106987
1758972453655210200,2.229210205078125,1.9294003248214722,0.2832069396972656,-1.1409075260162354
1758972453665168400,2.23916845703125,2.038073778152466,0.6467345356941223,-1.1856129169464111
1758972453675125200,2.249125244140625,1.8537228107452393,0.9653831124305725,-0.9747518301010132
1758972453685083400,2.25908349609375,1.3032429218292236,0.9412687420845032,-0.6349215507507324
1758972453695040300,2.269040283203125,0.6050060391426086,0.3281342089176178,-0.08553168177604675
1758972453704998100,2.278998046875,-0.04042705148458481,0.01715874671936035,0.4205203354358673
1758972453714955300,2.288955322265625,-0.8461765646934509,-0.1466754674911499,0.8422542214393616
1758972453724913400,2.298913330078125,-1.8496791124343872,-0.6459896564483643,1.418502926826477
1758972453734870500,2.30887060546875,-2.9097394943237305,-1.535812258720398,2.49237060546875
1758972453744828200,2.318828125,-3.9725542068481445,-1.9864952564239502,3.5999069213867188
1758972453754786300,2.328786376953125,-4.810260772705078,-2.622119426727295,4.706140041351318
1758972453764743400,2.338743408203125,-5.636155128479004,-3.322388172149658,5.544375419616699
1758972453774701300,2.348701416015625,-5.740786552429199,-3.485319137573242,5.437839031219482
1758972453784658400,2.358658447265625,-3.0559074878692627,-3.619377374649048,-1.6379053592681885
1758972453794616300,2.3686162109375,-1.0162031650543213,-0.12124945968389511,-3.0010833740234375
1758972453804573200,2.3785732421875,-0.3365790843963623,1.7248852252960205,-1.9722905158996582
1758972453814531300,2.38853125,-0.8218365907669067,1.1829832792282104,-1.6199913024902344
1758972453824488400,2.398488525390625,-1.226841926574707,0.40505480766296387,-1.4323707818984985
1758972453834446300,2.4084462890625,-1.2366840839385986,0.7096884846687317,-1.5128313302993774
1758972453844403200,2.4184033203125,-1.3061548471450806,1.7835320234298706,-0.9408218264579773
1758972453854361300,2.428361328125,-1.4906628131866455,1.192421555519104,-0.40571609139442444
1758972453864319200,2.4383193359375,-1.537590742111206,0.7472867369651794,-0.6353700160980225
1758972453874276400,2.4482763671875,-1.7393763065338135,1.085408329963684,-0.7270674705505371
1758972453884234500,2.458234375,-1.3874030113220215,0.4456579089164734,-0.4577036499977112
1758972453894191400,2.46819140625,-0.8426238894462585,-0.8156324625015259,0.10131410509347916
1758972453904149200,2.478149169921875,-0.5129671692848206,-0.9852705001831055,0.2968921363353729
1758972453914106400,2.4881064453125,-0.08368930220603943,-0.8926900029182434,0.6366249322891235
1758972453924064500,2.498064453125,0.043113648891448975,-0.8075961470603943,0.7586480379104614
1758972453934021000,2.508021240234375,0.08206743746995926,-1.0221952199935913,0.9852649569511414
1758972453943979300,2.517979248046875,0.10670993477106094,-1.4152370691299438,1.092461109161377
1758972453953937400,2.5279375,0.06686718016862869,-1.465815544128418,1.1296604871749878
1758972453963894300,2.537894287109375,-0.07046377658843994,-1.5347222089767456,1.1346848011016846
1758972453973852400,2.547852294921875,-0.19795356690883636,-1.4625563621520996,1.008299708366394
1758972453983809300,2.557809326171875,-0.2698032557964325,-1.237982988357544,0.8830493688583374
1758972453993767200,2.56776708984375,-0.09640083461999893,-1.3831150531768799,0.8358014225959778
1758972454003724300,2.577724365234375,0.2130928337574005,-1.066596269607544,1.0294872522354126
1758972454013682400,2.587682373046875,0.42422211170196533,-0.5357087254524231,1.1979966163635254
1758972454023639600,2.5976396484375,0.5631283521652222,-0.3554222881793976,1.1925965547561646
1758972454033597200,2.60759716796875,0.7278701663017273,-0.3502477705478668,1.2834612131118774
1758972454043554300,2.61755419921875,0.758535623550415,-0.4408982992172241,1.382344365119934
1758972454053512400,2.627512451171875,0.7755236625671387,-0.3263847827911377,1.37479567527771
1758972454063470300,2.63747021484375,0.8081905841827393,-0.11805899441242218,1.262802243232727
1758972454073427500,2.647427490234375,0.8795209527015686,0.10869132727384567,1.0781348943710327
1758972454083385300,2.65738525390625,1.0031547546386719,0.2044503390789032,0.8471429944038391
1758972454093342200,2.66734228515625,1.145638108253479,0.13786253333091736,0.5276270508766174
1758972454103300400,2.67730029296875,1.311896800994873,0.07839547097682953,0.39760541915893555
1758972454113257500,2.687257568359375,1.2768120765686035,0.010451309382915497,0.44971975684165955
1758972454123215400,2.69721533203125,1.094455599784851,0.04775926470756531,0.4255475699901581
1758972454133172200,2.707172119140625,1.0010697841644287,0.17001380026340485,0.3516014516353607
1758972454143130400,2.71713037109375,0.9933319091796875,-0.005687979515641928,0.09079834818840027
1758972454153088300,2.727088134765625,1.035743236541748,-0.24274712800979614,-0.2860485315322876
1758972454163045400,2.73704541015625,1.1484339237213135,-0.35442492365837097,-0.5748640894889832
1758972454173003500,2.74700341796875,1.2398357391357422,-0.25488102436065674,-0.43724524974823
1758972454182960400,2.75696044921875,1.3852823972702026,-0.2562488317489624,-0.04451527073979378
1758972454192918300,2.766918212890625,1.4700318574905396,-0.13779808580875397,0.11467065662145615
1758972454202875400,2.77687548828125,1.5099859237670898,-0.04602501541376114,0.06291478127241135
1758972454212833300,2.786833251953125,1.449751615524292,-0.0015257250051945448,-0.006163619924336672
1758972454222790100,2.7967900390625,1.3735673427581787,0.06358136981725693,0.0790410190820694
1758972454232748300,2.806748291015625,1.490899920463562,0.1307809203863144,0.33996742963790894
1758972454242705400,2.816705322265625,1.9133096933364868,-0.09502984583377838,0.6644871830940247
1758972454252663300,2.826663330078125,2.4950387477874756,-0.1344054788351059,0.6472421288490295
1758972454262621400,2.836621337890625,2.822329044342041,-0.08673089742660522,0.014505439437925816
1758972454272578300,2.846578369140625,2.8328068256378174,-0.2574048936367035,-0.329466849565506
1758972454282536200,2.8565361328125,2.9095206260681152,-0.2766276001930237,-0.42950448393821716
1758972454292493300,2.866493408203125,3.1806886196136475,-0.4433097839355469,-0.34826982021331787
1758972454302451500,2.876451416015625,3.340569019317627,-0.5238757133483887,-0.37901681661605835
1758972454312408300,2.886408203125,4.022943019866943,-0.4224947988986969,-0.17279361188411713
1758972454322366200,2.8963662109375,4.289499282836914,-0.3359420597553253,-0.051654405891895294
1758972454332323300,2.9063232421875,3.9674878120422363,-0.58757084608078,0.3462975025177002
1758972454342281200,2.91628125,3.3018054962158203,-0.6348163485527039,0.7888948917388916
1758972454352239400,2.9262392578125,2.677797317504883,-0.9601777195930481,1.0312755107879639
1758972454362196200,2.9361962890625,2.558159112930298,-0.04008163884282112,2.297147035598755
1758972454372154000,2.946154052734375,3.5437397956848145,0.27010923624038696,2.629875898361206
1758972454382111200,2.956111328125,3.9612629413604736,0.1829996407032013,1.7278681993484497
1758972454392069400,2.9660693359375,2.1278553009033203,-1.1862273216247559,1.061120867729187
1758972454402026200,2.976026123046875,0.8536691069602966,-2.6832737922668457,0.6120476722717285
1758972454411984100,2.985984130859375,0.8082795143127441,-2.1505658626556396,0.6924256086349487
1758972454421941200,2.995941162109375,1.3253761529922485,-0.48694729804992676,1.3625986576080322
1758972454431899400,3.0058994140625,0.7669935822486877,-0.41554421186447144,1.3410216569900513
1758972454441856500,3.0158564453125,0.037517014890909195,-0.4891936480998993,1.1476807594299316
1758972454451814100,3.025814208984375,-0.10324037075042725,-0.4755396246910095,0.8639917969703674
1758972454461772300,3.035772216796875,-0.03996552526950836,-0.03250760957598686,0.5893644690513611
1758972454471729200,3.045729248046875,0.19149352610111237,1.5259531736373901,0.22313427925109863
1758972454481687300,3.055687255859375,0.4043482840061188,2.8278398513793945,-0.14345037937164307
1758972454491644400,3.06564453125,0.08302085101604462,2.1498196125030518,-0.06586263328790665
1758972454501602000,3.07560205078125,-0.49301421642303467,0.3547503650188446,0.09843948483467102
1758972454511559200,3.08555908203125,-0.35932406783103943,-1.243148684501648,-0.027812723070383072
1758972454521517300,3.095517333984375,-0.6227096319198608,-1.6871542930603027,0.005696235224604607
1758972454531474400,3.105474365234375,-1.20854651927948,-0.6898151636123657,-0.3019803464412689
1758972454541432300,3.115432373046875,-1.7437838315963745,1.1233218908309937,-0.9639124870300293
1758972454551390200,3.12539013671875,-1.705179214477539,2.1776349544525146,-1.190152883529663
1758972454561347300,3.135347412109375,-1.233513593673706,2.1639227867126465,-1.3380757570266724
1758972454571305200,3.14530517578125,-0.8016306757926941,2.348931074142456,-1.8486173152923584
1758972454581262300,3.155262451171875,-0.5781205892562866,2.710979700088501,-2.21199107170105
1758972454591220500,3.165220458984375,-0.5361102819442749,3.0344767570495605,-2.106205463409424
1758972454601177000,3.175177001953125,-0.5911266803741455,3.285231113433838,-1.5796643495559692
1758972454611135200,3.18513525390625,-0.5468926429748535,2.811009645462036,-0.9942352771759033
1758972454621092400,3.19509228515625,-0.3445075750350952,1.6962131261825562,-0.5496652722358704
1758972454631050200,3.20505029296875,-0.2573721408843994,1.1816986799240112,-0.41979116201400757
1758972454641007000,3.215007080078125,-0.7991169095039368,1.316282033920288,-0.5066147446632385
1758972454650965200,3.22496533203125,-1.671939730644226,1.3665225505828857,-0.7735375165939331
1758972454660923100,3.234923095703125,-2.2853341102600098,1.5302150249481201,-0.9328176975250244
1758972454670880300,3.24488037109375,-2.5843710899353027,1.1804336309432983,-1.1436455249786377
1758972454680838400,3.25483837890625,-2.407318353652954,1.1725943088531494,-1.2183655500411987
1758972454690795300,3.264795166015625,-1.9574015140533447,2.1558947563171387,-0.9753281474113464
1758972454700753200,3.274753173828125,-1.3381245136260986,2.608912229537964,-0.6826307773590088
1758972454710710300,3.284710205078125,-0.6351516842842102,1.8334641456604004,-0.6258835792541504
1758972454720668400,3.29466845703125,-0.2388879507780075,0.29176634550094604,-0.6110969185829163
1758972454730625300,3.304625244140625,-0.1804398149251938,-0.7605196833610535,-0.49085521697998047
1758972454740583200,3.314583251953125,-0.46361106634140015,-1.0082099437713623,-0.367085337638855
1758972454750541300,3.324541259765625,-0.9582977890968323,-0.788197934627533,-0.20955109596252441
1758972454760498200,3.334498291015625,-1.2144848108291626,-0.4363650679588318,0.09492304921150208
1758972454770456300,3.344456298828125,-0.9331141114234924,-0.05916452035307884,0.42113789916038513
1758972454780413400,3.354413330078125,-0.2558986246585846,0.07890280336141586,0.5355255007743835
1758972454790371000,3.36437109375,0.2348492592573166,-0.14228710532188416,0.5475339293479919
1758972454800328200,3.374328125,0.496873140335083,-0.5230451226234436,0.5332644581794739
1758972454810286300,3.384286376953125,0.6390041708946228,-0.7329035401344299,0.4915737211704254
1758972454820243500,3.394243408203125,0.7081127166748047,-0.6199745535850525,0.49572426080703735
1758972454830201300,3.404201416015625,0.7797288298606873,-0.39546263217926025,0.660057008266449
1758972454840158200,3.414158203125,0.9001401662826538,-0.30505499243736267,0.9057445526123047
1758972454850116400,3.424116455078125,1.1745549440383911,-0.3641148507595062,1.1429458856582642
1758972454860074200,3.43407421875,1.6379321813583374,-0.6154658198356628,1.3363372087478638
1758972454870031400,3.44403125,1.8260674476623535,-1.0194602012634277,1.3689918518066406
1758972454879989500,3.453989501953125,1.7756365537643433,-1.440613031387329,1.220669150352478
1758972454889946000,3.463946044921875,1.6700150966644287,-1.5200777053833008,1.0151174068450928
1758972454899904300,3.473904296875,1.5565465688705444,-1.0277551412582397,0.5831038951873779
1758972454909861400,3.483861328125,1.4409842491149902,-0.18412722647190094,-0.1060662493109703
1758972454919819300,3.4938193359375,1.7798550128936768,0.6844332218170166,-0.720584511756897
1758972454929776000,3.503776123046875,1.9538259506225586,0.599237859249115,-0.8578739762306213
1758972454939734300,3.513734375,1.872813105583191,-0.02653919905424118,-0.5255436897277832
1758972454949692200,3.523692138671875,1.888782024383545,-0.4559885561466217,-0.1692659854888916
1758972454959649300,3.533649169921875,2.364351987838745,-0.9993650317192078,0.1115741953253746
1758972454969607400,3.543607421875,3.172837018966675,-1.4341617822647095,0.42927733063697815
1758972454979564300,3.553564208984375,3.9387855529785156,-1.5908554792404175,0.8283576369285583
1758972454989522200,3.563522216796875,4.455872535705566,-1.7067298889160156,1.2376303672790527
1758972454999479300,3.573479248046875,4.792459487915039,-2.0264394283294678,1.623450756072998
1758972455009437400,3.5834375,5.032389163970947,-2.438093662261963,1.9280916452407837
1758972455019394300,3.593394287109375,5.252626419067383,-2.536961317062378,2.0631229877471924
1758972455029352200,3.603352294921875,5.493196964263916,-2.2500762939453125,1.9684933423995972
1758972455039309300,3.613309326171875,5.701278209686279,-1.6636133193969727,1.649469256401062
1758972455049267200,3.62326708984375,5.866170406341553,-0.8904297947883606,1.2369732856750488
1758972455059225300,3.633225341796875,5.983664512634277,-0.05658391863107681,0.8807047009468079
1758972455069182500,3.643182373046875,5.5938873291015625,0.6270825266838074,-0.13776825368404388
1758972455079140000,3.65314013671875,5.262974262237549,1.2459716796875,-1.0872224569320679
1758972455089097200,3.66309716796875,4.848836421966553,0.642570972442627,-1.776116967201233
1758972455099055400,3.673055419921875,4.445000648498535,-0.5426568984985352,-2.259000062942505
1758972455109012500,3.683012451171875,4.113876819610596,-2.2691385746002197,-2.3599348068237305
1758972455118970400,3.692970458984375,3.893665313720703,-4.97427225112915,-1.6215050220489502
1758972455128927200,3.70292724609375,3.867473840713501,-6.468449115753174,-0.9464637637138367
1758972455138885400,3.712885498046875,3.9862165451049805,-6.980430603027344,-0.6236739754676819
1758972455148842200,3.72284228515625,3.9076855182647705,-6.813292980194092,-0.3885253667831421
1758972455158800400,3.73280029296875,2.7678542137145996,-6.391870021820068,-0.009514142759144306
1758972455168758300,3.74275830078125,-0.10352586209774017,-5.2405009269714355,0.23589853942394257
1758972455178715100,3.752715087890625,-1.0713545083999634,-2.697049617767334,-0.03616279736161232
1758972455188673300,3.76267333984375,-1.2486978769302368,-0.4850705564022064,-0.04968126863241196
1758972455198630400,3.77263037109375,-1.2007732391357422,1.3371790647506714,-0.4842660129070282
1758972455208588300,3.78258837890625,-1.5895122289657593,2.2573482990264893,-1.1135063171386719
1758972455218545200,3.792545166015625,-1.6003217697143555,2.5198795795440674,-1.7440378665924072
1758972455228503300,3.80250341796875,-1.0099897384643555,1.4687570333480835,-2.136042833328247
1758972455238460400,3.81246044921875,-0.31953164935112,-1.1217106580734253,-2.06540584564209
1758972455248418600,3.82241845703125,-0.21927376091480255,-3.9923791885375977,-1.1790632009506226
1758972455258375700,3.832375732421875,-0.33331698179244995,-3.5878705978393555,-0.25365757942199707
1758972455268333300,3.842333251953125,-0.08118592947721481,-1.921522617340088,0.22700811922550201
1758972455278291500,3.85229150390625,-0.11964117735624313,-0.8816652894020081,0.1707001030445099
1758972455288248600,3.86224853515625,-0.25113317370414734,-0.29376450181007385,-0.005483448505401611
1758972455298206500,3.87220654296875,-0.21603402495384216,0.1323907971382141,-0.18452537059783936
1758972455308163600,3.88216357421875,-0.1352318525314331,1.032309889793396,-0.10453173518180847
1758972455318121500,3.89212158203125,0.1203429251909256,1.2506473064422607,0.028259335085749626
1758972455328078600,3.90207861328125,0.19734662771224976,0.6284884214401245,-0.32682234048843384
1758972455338036500,3.912036376953125,0.21949639916419983,0.7876173853874207,-0.8415668606758118
1758972455347993600,3.92199365234375,0.28653615713119507,1.3027094602584839,-1.1662919521331787
1758972455357951700,3.93195166015625,0.33149483799934387,2.001821517944336,-1.1241298913955688
1758972455367908400,3.941908447265625,0.3202049136161804,2.453216552734375,-0.8714762926101685
1758972455377866500,3.951866455078125,0.23440930247306824,2.399925470352173,-0.5783477425575256
1758972455387824600,3.96182470703125,0.07548809796571732,1.6466529369354248,-0.44918686151504517
1758972455397781500,3.971781494140625,-0.01569560542702675,0.7040162086486816,-0.6081823706626892
1758972455407739600,3.98173974609375,-0.2220200151205063,-0.14777109026908875,-0.9068702459335327
1758972455417697500,3.991697509765625,-0.5001605749130249,-0.6386300325393677,-1.2704015970230103
1758972455427655400,4.001655517578125,-0.6385373473167419,-0.800369143486023,-1.6828882694244385
1758972455437612500,4.011612548828125,-0.5655449032783508,-0.6356819272041321,-1.8682208061218262
1758972455447570700,4.02157080078125,-0.33495667576789856,-0.409111887216568,-1.8630238771438599
1758972455457527600,4.031527587890625,-0.1517927199602127,-0.4892410635948181,-1.8476390838623047
1758972455467485400,4.0414853515625,-0.17779023945331573,-0.38483530282974243,-1.8197994232177734
1758972455477442600,4.051442626953125,-0.31454703211784363,-0.037395041435956955,-1.7454652786254883
1758972455487400400,4.061400390625,-0.4165990948677063,-0.21491017937660217,-1.6902720928192139
1758972455497357600,4.071357666015625,-0.39321067929267883,-1.1454747915267944,-1.6338207721710205
1758972455507315700,4.081315673828125,-0.24452346563339233,-2.1215527057647705,-1.5194628238677979
1758972455517273300,4.0912734375,-0.035469844937324524,-2.738741159439087,-1.4555304050445557
1758972455527230500,4.10123046875,0.18562684953212738,-3.106433153152466,-1.3110816478729248
1758972455537188600,4.111188720703125,0.2844253480434418,-3.026580572128296,-1.2576559782028198
1758972455547145700,4.121145751953125,0.3621867001056671,-2.2512552738189697,-1.361952781677246
1758972455557103600,4.131103515625,0.46015506982803345,-1.4852747917175293,-1.5195754766464233
1758972455567060500,4.141060546875,0.37750256061553955,-0.9859828948974609,-1.4920072555541992
1758972455577018600,4.1510185546875,0.1475718766450882,-0.5055150985717773,-1.3717389106750488
1758972455586975500,4.1609755859375,-0.08108153939247131,-0.2231004536151886,-1.323982834815979
1758972455596933600,4.17093359375,-0.1955556571483612,-0.2725710868835449,-1.309804916381836
1758972455606890500,4.180890380859375,-0.2945844829082489,-0.4201493561267853,-1.2744871377944946
1758972455616848400,4.190848388671875,-0.3448242247104645,-0.4719502329826355,-1.238447904586792
1758972455626806500,4.200806640625,-0.3649710416793823,-0.491790235042572,-1.18599271774292
1758972455636763600,4.210763671875,-0.39627543091773987,-0.3215426206588745,-1.074748158454895
1758972455646721500,4.220721435546875,-0.41467201709747314,-0.21842394769191742,-0.9629950523376465
1758972455656678400,4.230678466796875,-0.40056154131889343,-0.23434299230575562,-0.851326048374176
1758972455666636500,4.240636474609375,-0.371499240398407,-0.2202940136194229,-0.741271436214447
1758972455676593700,4.25059375,-0.3659193813800812,-0.17204846441745758,-0.6391879320144653
1758972455686551600,4.260551513671875,-0.3890627920627594,-0.14388899505138397,-0.5953856110572815
1758972455696508700,4.2705087890625,-0.3807007372379303,-0.10683776438236237,-0.553052544593811
1758972455706466600,4.280466552734375,-0.3620074689388275,-0.07843302190303802,-0.4945679306983948
1758972455716423400,4.29042333984375,-0.3250657021999359,-0.0603373758494854,-0.4276384115219116
1758972455726381600,4.300381591796875,-0.28085562586784363,-0.057922422885894775,-0.3693772554397583
1758972455736339500,4.31033935546875,-0.2307591736316681,-0.07217273116111755,-0.3342038094997406
1758972455746296600,4.320296630859375,-0.16889235377311707,-0.11129296571016312,-0.3137510120868683
1758972455756254500,4.33025439453125,-0.1001574918627739,-0.1787409782409668,-0.2982623279094696
1758972455766211600,4.340211669921875,-0.02381851337850094,-0.2909540832042694,-0.2806822657585144
1758972455776169500,4.35016943359375,0.04591449350118637,-0.37121161818504333,-0.3005465269088745
1758972455786126600,4.360126708984375,0.06848026067018509,-0.39890503883361816,-0.377246618270874
1758972455796084700,4.370084716796875,0.0869828388094902,-0.3463134765625,-0.46881356835365295
1758972455806041600,4.38004150390625,0.07482044398784637,-0.29414162039756775,-0.5306177735328674
1758972455815999500,4.38999951171875,0.08228155970573425,-0.2510993480682373,-0.5321477651596069
1758972455825956600,4.39995654296875,0.07106618583202362,-0.2524447739124298,-0.4742666482925415
1758972455835914500,4.40991455078125,0.050747066736221313,-0.2592632472515106,-0.36825764179229736
1758972455845872600,4.41987255859375,0.021982796490192413,-0.1879829466342926,-0.2257191389799118
1758972455855829500,4.42982958984375,-0.03157363831996918,-0.0636330395936966,-0.05832509323954582
1758972455865787400,4.439787353515625,-0.07331815361976624,0.10445930063724518,0.13945403695106506
1758972455875744500,4.44974462890625,-0.10766920447349548,0.24730859696865082,0.35949477553367615
1758972455885702700,4.45970263671875,-0.1645151823759079,0.2713175117969513,0.5755019187927246
1758972455895659500,4.469659423828125,-0.24341851472854614,0.1446237564086914,0.7578861117362976
1758972455905617400,4.479617431640625,-0.33604246377944946,-0.11330152302980423,0.8638255596160889
1758972455915574500,4.489574462890625,-0.40308594703674316,-0.4462565779685974,0.8167643547058105
1758972455925532700,4.49953271484375,-0.44472527503967285,-0.6444253325462341,0.7405747771263123
1758972455935489500,4.509489501953125,-0.4334625005722046,-0.6796850562095642,0.7710312008857727
1758972455945447400,4.519447509765625,-0.37650439143180847,-0.4409204125404358,0.9096418023109436
1758972455955405600,4.529405517578125,-0.2746584713459015,0.25379765033721924,1.0516633987426758
1758972455965362400,4.539362548828125,-0.2904603183269501,1.1697369813919067,1.1887826919555664
1758972455975320600,4.549320556640625,-0.5749874114990234,1.7394566535949707,1.2209757566452026
1758972455985277700,4.559277587890625,-0.8571906089782715,1.9686659574508667,1.1460298299789429
1758972455995235300,4.5692353515625,-0.8872789740562439,2.2957324981689453,1.167161226272583
1758972456005192400,4.5791923828125,-0.6830142736434937,2.640127658843994,1.312045693397522
1758972456015150600,4.589150634765625,-0.3170788884162903,2.4625043869018555,1.4191100597381592
1758972456025107700,4.599107666015625,0.1351037621498108,1.5530894994735718,1.309511423110962
1758972456035065600,4.609065673828125,0.4196161925792694,0.4124016761779785,0.9427465200424194
1758972456045023500,4.6190234375,0.4871523380279541,0.17961609363555908,0.709295392036438
1758972456054980600,4.628980712890625,0.40577971935272217,0.4807533025741577,0.7102027535438538
1758972456064938500,4.6389384765625,0.2329152673482895,0.8446670770645142,0.9036275744438171
1758972456074895600,4.6488955078125,0.008462460711598396,1.2102456092834473,1.243006706237793
1758972456084853800,4.658853759765625,-0.13458630442619324,1.3383643627166748,1.4972361326217651
1758972456094810400,4.668810302734375,-0.12723225355148315,1.3511217832565308,1.5278760194778442
1758972456104768500,4.6787685546875,0.0529303252696991,1.3394818305969238,1.4130951166152954
1758972456114725600,4.6887255859375,0.2833595275878906,1.2839467525482178,1.35596764087677
1758972456124683500,4.69868359375,0.4556213319301605,1.4026211500167847,1.4413565397262573
1758972456134641700,4.7086416015625,0.5588915348052979,1.641165018081665,1.6016674041748047
1758972456144598500,4.7185986328125,0.5767565369606018,1.776393175125122,1.7953665256500244
1758972456154556400,4.728556396484375,0.5918558835983276,1.679809331893921,2.0239367485046387
1758972456164513500,4.738513427734375,0.5679603815078735,1.370985984802246,2.303234100341797
1758972456174471700,4.7484716796875,0.5230578780174255,1.0768576860427856,2.582160472869873
1758972456184428500,4.758428466796875,0.45878756046295166,0.8621102571487427,2.817465305328369
1758972456194386400,4.768386474609375,0.39496490359306335,0.5006337761878967,2.9680278301239014
1758972456204343600,4.778343505859375,0.2474721074104309,0.14884327352046967,3.0140256881713867
1758972456214301700,4.7883017578125,0.2092656046152115,0.00138084904756397,3.0215158462524414
1758972456224259600,4.798259521484375,0.2535198926925659,-0.08625179529190063,3.0029525756835938
1758972456234216400,4.808216552734375,0.20232300460338593,-0.07687001675367355,3.0303776264190674
1758972456244174600,4.818174560546875,0.09116479754447937,-0.3933965563774109,2.9665303230285645
1758972456254131200,4.828131103515625,-0.05029140040278435,-0.5776476263999939,2.86194109916687
1758972456264089000,4.838089111328125,-0.24913258850574493,-0.8506980538368225,2.7865352630615234
1758972456274046200,4.848046142578125,-0.44282883405685425,-1.3330618143081665,2.6511452198028564
1758972456284004000,4.858004150390625,-0.5464710593223572,-1.8622955083847046,2.500563383102417
1758972456293961000,4.8679609375,-0.53983473777771,-1.9463480710983276,2.26534366607666
1758972456303919000,4.877919189453125,-0.47118934988975525,-1.7224383354187012,1.9175537824630737
1758972456313877000,4.887876953125,-0.38158437609672546,-1.3684993982315063,1.4295579195022583
1758972456323834000,4.897834228515625,-0.26544445753097534,-1.1526485681533813,0.9700987935066223
1758972456333792300,4.907792236328125,-0.22904624044895172,-1.3092906475067139,0.7496180534362793
1758972456343749000,4.9177490234375,-0.2960188686847687,-1.4494781494140625,0.6413608193397522
1758972456353707000,4.92770703125,-0.32733845710754395,-0.9757753014564514,0.2707662582397461
1758972456363664100,4.9376640625,-0.08543234318494797,0.16818980872631073,-0.21183554828166962
1758972456373622300,4.947622314453125,0.10515038669109344,1.2064340114593506,-0.5861231088638306
1758972456383579100,4.9575791015625,-0.027669178321957588,1.4971226453781128,-0.9348859190940857
1758972456393537000,4.967537109375,-0.19140005111694336,1.5815246105194092,-1.2276272773742676
1758972456403495200,4.9774951171875,-0.26303428411483765,1.768504023551941,-1.5008819103240967
1758972456413452000,4.9874521484375,-0.31750473380088806,1.8964780569076538,-1.867560625076294
1758972456423410200,4.99741015625,-0.4136916995048523,1.8102885484695435,-2.234276056289673
1758972456433367300,5.0073671875,-0.6246178150177002,1.5097366571426392,-2.4903478622436523
1758972456443325000,5.017324951171875,-0.7845970988273621,0.5491653680801392,-2.897318124771118
1758972456453282000,5.027281982421875,-0.653473436832428,-0.7776217460632324,-3.3799521923065186
1758972456463240200,5.037240234375,-0.2773248255252838,-1.9477015733718872,-3.603407859802246
1758972456473197300,5.047197265625,0.14660967886447906,-2.433589458465576,-3.6398918628692627
1758972456483155200,5.0571552734375,0.503894031047821,-2.2535622119903564,-3.794510841369629
1758972456493113300,5.06711328125,0.7173954248428345,-1.672922134399414,-4.093204498291016
1758972456503070200,5.0770703125,0.7705709934234619,-1.0321509838104248,-4.449381351470947
1758972456513028000,5.087028076171875,0.8862928152084351,-0.6946261525154114,-4.672000408172607
1758972456522985200,5.096985107421875,1.0550516843795776,-0.9155665636062622,-4.576087951660156
1758972456532943400,5.106943359375,1.0465154647827148,-1.598259687423706,-4.070491790771484
1758972456542900000,5.11689990234375,0.8393189311027527,-1.8282403945922852,-3.449833631515503
1758972456552858000,5.126858154296875,0.6587446331977844,-1.0317946672439575,-3.0976035594940186
1758972456562815200,5.136815185546875,0.48813530802726746,0.6228345632553101,-3.0774085521698
1758972456572773000,5.146773193359375,0.2716725170612335,1.6062285900115967,-3.1448428630828857
1758972456582730000,5.15672998046875,0.00526613462716341,0.9426447749137878,-3.2312870025634766
1758972456592688000,5.166688232421875,-0.2948119342327118,-0.6952416300773621,-3.404106378555298
1758972456602646000,5.17664599609375,-0.6069088578224182,-1.9690576791763306,-3.7817788124084473
1758972456612603100,5.18660302734375,-0.6682462096214294,-2.4350335597991943,-4.16735315322876
1758972456622561300,5.196561279296875,-0.5692320466041565,-2.732819080352783,-4.335337162017822
1758972456632518100,5.20651806640625,-0.4909452199935913,-2.901294231414795,-3.999359607696533
1758972456642476000,5.21647607421875,-0.5328415632247925,-2.8436148166656494,-3.272444486618042
1758972456652433200,5.22643310546875,-0.65384441614151,-2.503540277481079,-2.3762733936309814
1758972456662391300,5.236391357421875,-0.7275564074516296,-2.2137224674224854,-1.4738855361938477
1758972456672348200,5.24634814453125,-0.9127723574638367,-2.0622363090515137,-0.6406300663948059
1758972456682306000,5.25630615234375,-1.1821383237838745,-1.5750526189804077,0.1638890653848648
1758972456692264200,5.26626416015625,-1.3424209356307983,-0.9617966413497925,0.9089810848236084
1758972456702221000,5.276220947265625,-1.4372142553329468,-0.331220805644989,1.5325759649276733
1758972456712179200,5.28617919921875,-1.4395277500152588,0.45129314064979553,2.098283052444458
1758972456722136300,5.29613623046875,-1.3645325899124146,1.1218798160552979,2.628993511199951
1758972456732094000,5.306093994140625,-1.1246094703674316,1.526862382888794,3.0500645637512207
1758972456742051000,5.316051025390625,-0.9214971661567688,1.9098318815231323,3.3377814292907715
1758972456752009200,5.32600927734375,-0.717591404914856,2.287273406982422,3.3506009578704834
1758972456761966300,5.33596630859375,-0.40314507484436035,2.233994483947754,3.197300672531128
1758972456771924200,5.34592431640625,-0.28301626443862915,2.2238736152648926,3.0700418949127197
1758972456781882000,5.355882080078125,-0.2735242247581482,2.4910292625427246,3.034792900085449
1758972456791839200,5.365839111328125,-0.0823792964220047,2.440772771835327,2.9853734970092773
1758972456801797000,5.375797119140625,0.15078870952129364,2.2105872631073,2.8384289741516113
1758972456811754200,5.385754150390625,0.35969212651252747,1.952588677406311,2.434859037399292
1758972456821712100,5.395712158203125,0.4654494524002075,1.592082142829895,1.630274772644043
1758972456831669000,5.4056689453125,0.4993693232536316,0.9040579795837402,0.4532492458820343
1758972456841627100,5.415627197265625,0.70137619972229,-0.26506441831588745,-1.1861306428909302
1758972456851584300,5.425584228515625,0.9148051738739014,-1.6547671556472778,-4.902318000793457
1758972456861542100,5.435542236328125,0.512860119342804,-0.5992836952209473,-7.129299163818359
1758972456871499000,5.4454990234375,-0.06671325117349625,3.1872427463531494,-3.471611738204956
1758972456881457200,5.45545703125,0.0010317085543647408,6.965803623199463,1.575330138206482
1758972456891415000,5.4654150390625,0.9084790945053101,6.195188999176025,4.707606792449951
1758972456901372200,5.4753720703125,0.4624142348766327,3.955937385559082,5.817222595214844
1758972456911330300,5.485330322265625,-0.5389710664749146,2.821873664855957,5.128174304962158
1758972456921287200,5.495287109375,-1.2172009944915771,1.7744996547698975,3.5399765968322754
1758972456931245000,5.5052451171875,-0.8434135317802429,0.3278132975101471,1.8612380027770996
1758972456941202200,5.5152021484375,0.3502211272716522,-0.6527591347694397,-0.7956129908561707
1758972456951160300,5.525160400390625,1.5771229267120361,-1.0149307250976562,-1.7663521766662598
1758972456961117200,5.5351171875,2.1045780181884766,-0.37970152497291565,-0.8878054618835449
1758972456971075000,5.545074951171875,2.0240273475646973,0.14520539343357086,0.8987452387809753
1758972456981033000,5.555032958984375,1.6905741691589355,0.7362886667251587,2.787971019744873
1758972456990990000,5.564989990234375,1.0359091758728027,2.08044171333313,4.396833896636963
1758972457000948200,5.5749482421875,0.23191365599632263,3.1987392902374268,5.320374965667725
1758972457010905300,5.5849052734375,-0.41775810718536377,3.2385098934173584,5.55615234375
1758972457020863000,5.594863037109375,-0.7436786890029907,2.5175130367279053,4.922000885009766
1758972457030820000,5.604820068359375,-0.6794474720954895,0.8800868391990662,3.5662403106689453
1758972457040778200,5.6147783203125,-0.6125627160072327,-0.6967518925666809,2.395857095718384
1758972457050735400,5.6247353515625,-0.41774851083755493,-1.6373287439346313,2.0421762466430664
1758972457060693200,5.634693359375,-0.02635437622666359,-1.997649073600769,2.4541232585906982
1758972457070650000,5.644650146484375,0.08132494986057281,-2.0108280181884766,2.8829054832458496
1758972457080608300,5.654608154296875,-0.07619543373584747,-1.6252834796905518,2.9164090156555176
1758972457090565000,5.664565185546875,-0.24198120832443237,-1.3029403686523438,2.683095932006836
1758972457100523300,5.674523193359375,-0.21461056172847748,-1.1541157960891724,2.230773448944092
1758972457110481200,5.684481201171875,0.017943046987056732,-0.7155296206474304,1.4180339574813843
1758972457120438000,5.69443798828125,0.29421377182006836,0.33176887035369873,0.8384376764297485
1758972457130396200,5.704396240234375,0.49071004986763,1.6064739227294922,0.9095938801765442
1758972457140353300,5.714353271484375,0.38077476620674133,2.564375877380371,1.1297733783721924
1758972457150311200,5.724311279296875,0.27373993396759033,2.530465602874756,1.1007025241851807
1758972457160268000,5.73426806640625,0.25988802313804626,1.6086581945419312,0.5156590938568115
1758972457170226200,5.74422607421875,0.1725025326013565,0.8735546469688416,-0.4876559376716614
1758972457180183300,5.754183349609375,-0.06385914236307144,0.6595368981361389,-1.2816777229309082
1758972457190141200,5.76414111328125,-0.4290626645088196,0.7631346583366394,-1.6461536884307861
1758972457200098300,5.774098388671875,-0.8947986960411072,0.8860251903533936,-1.8307136297225952
1758972457210056200,5.78405615234375,-1.2840838432312012,0.5016306042671204,-2.1861321926116943
1758972457220014000,5.79401416015625,-1.305225133895874,-0.4443526864051819,-2.7331960201263428
1758972457229971200,5.80397119140625,-0.8233228921890259,-1.674854040145874,-3.268634796142578
1758972457239929000,5.81392919921875,-0.19553327560424805,-2.5811901092529297,-3.456002950668335
1758972457249886200,5.82388623046875,0.38309651613235474,-2.8124125003814697,-3.445307493209839
1758972457259844900,5.833844970703125,1.0123388767242432,-2.5981698036193848,-3.5653653144836426
1758972457269801700,5.8438017578125,1.468714952468872,-2.1509807109832764,-3.9442691802978516
1758972457279759600,5.853759521484375,1.1683695316314697,-1.8047579526901245,-4.40830135345459
1758972457289716700,5.863716796875,0.5187994837760925,-1.6672288179397583,-4.69215202331543
1758972457299674600,5.873674560546875,0.5251311659812927,-1.5372729301452637,-4.660834789276123
1758972457309631500,5.883631591796875,0.7423492074012756,-1.0902209281921387,-4.381856918334961
1758972457319589600,5.893589599609375,0.6586111783981323,-0.24567954242229462,-3.8826003074645996
1758972457329546800,5.903546630859375,0.4301218092441559,0.5750774145126343,-3.399829387664795
1758972457339504600,5.913504638671875,0.4082346260547638,1.0789484977722168,-3.0397586822509766
1758972457349462800,5.923462890625,0.503365695476532,0.9824720621109009,-2.744532823562622
1758972457359419600,5.933419677734375,0.48486122488975525,-0.5976855158805847,-2.5335094928741455
1758972457369377500,5.94337744140625,0.18419700860977173,-2.56130313873291,-2.4486169815063477
1758972457379334700,5.953334716796875,-0.06155550479888916,-2.468658685684204,-2.7932331562042236
1758972457389292800,5.963292724609375,-0.21543587744235992,-2.071230411529541,-2.9600162506103516
1758972457399249700,5.973249755859375,-0.2571750581264496,-2.312999963760376,-2.82677960395813
1758972457409207600,5.98320751953125,-0.2778952717781067,-2.884516477584839,-2.460491895675659
1758972457419164700,5.99316455078125,-0.31411612033843994,-3.07956862449646,-1.9396039247512817
1758972457429122600,6.00312255859375,-0.3289150297641754,-2.7995381355285645,-1.3681718111038208
1758972457439079700,6.01307958984375,-0.40474534034729004,-2.128962278366089,-0.7733572125434875
1758972457449037600,6.02303759765625,-0.6273571252822876,-1.0662412643432617,-0.1542055457830429
1758972457458995500,6.032995361328125,-0.9917777180671692,-0.17216643691062927,0.46672430634498596
1758972457468952600,6.04295263671875,-1.3371061086654663,0.2721841037273407,1.1632136106491089
1758972457478910700,6.05291064453125,-1.4321321249008179,0.3673420548439026,1.8403468132019043
1758972457488867800,6.062867919921875,-1.5346524715423584,0.7218276858329773,2.4502882957458496
1758972457498825500,6.072825439453125,-1.5890501737594604,1.119191288948059,2.745466709136963
1758972457508782600,6.082782470703125,-1.6325994729995728,1.6462393999099731,2.938265800476074
1758972457518740700,6.09274072265625,-1.5908056497573853,2.0250184535980225,3.2087697982788086
1758972457528697900,6.10269775390625,-1.39743173122406,2.2284724712371826,3.488621473312378
1758972457538655700,6.11265576171875,-1.1567679643630981,2.2079250812530518,3.6626250743865967
1758972457548612600,6.122612548828125,-0.8617741465568542,2.1852619647979736,3.7029976844787598
1758972457558570500,6.132570556640625,-0.4687483012676239,2.305867910385132,3.4660913944244385
1758972457568527600,6.142527587890625,-0.16016224026679993,2.4024767875671387,2.795849084854126
1758972457578485800,6.15248583984375,0.010734403505921364,2.6589813232421875,1.712890863418579
1758972457588443600,6.162443603515625,0.16425791382789612,2.547985553741455,0.251687616109848
1758972457598400500,6.172400390625,0.40169310569763184,0.8586167097091675,-2.4689884185791016
1758972457608358700,6.182358642578125,0.14439871907234192,-1.9851369857788086,-6.035347938537598
1758972457618315800,6.192315673828125,-0.2634361684322357,-1.187387466430664,-6.794590473175049
1758972457628273700,6.202273681640625,-0.6065335869789124,1.859871745109558,-4.010918140411377
1758972457638230500,6.21223046875,-1.133970022201538,7.080100059509277,1.0480878353118896
1758972457648188700,6.222188720703125,-0.11199764162302017,8.333564758300781,3.6692540645599365
1758972457658145800,6.232145751953125,0.7004110813140869,4.827291965484619,4.711466312408447
1758972457668103700,6.242103759765625,0.15747271478176117,0.8342370986938477,4.986602306365967
1758972457678060800,6.252060791015625,-1.108878493309021,-1.2650315761566162,4.768298625946045
1758972457688018700,6.262018798828125,-1.162595510482788,-0.40779948234558105,4.40421199798584
1758972457697975600,6.2719755859375,0.02671949565410614,0.1559448540210724,3.2009875774383545
1758972457707933700,6.28193359375,1.260563850402832,0.6484962105751038,1.0568530559539795
1758972457717890800,6.291890869140625,2.2854905128479004,1.7817836999893188,-1.253755807876587
1758972457727848700,6.3018486328125,2.831507444381714,3.7547051906585693,-1.145039439201355
1758972457737806600,6.311806640625,2.7542061805725098,4.849081516265869,0.03829172998666763
1758972457747763700,6.321763671875,1.907828450202942,3.795650005340576,0.8760263323783875
1758972457757721600,6.3317216796875,0.799919068813324,-0.7418834567070007,2.254047155380249
1758972457767678700,6.3416787109375,0.10401641577482224,-3.479836940765381,4.148553848266602
1758972457777636900,6.351636962890625,-0.45712652802467346,-2.948901653289795,4.385317325592041
1758972457787593700,6.36159375,-0.6331156492233276,-1.2171117067337036,3.5732643604278564
1758972457797551600,6.371551513671875,-0.37416455149650574,0.7346305847167969,2.7186391353607178
1758972457807508700,6.3815087890625,0.13243527710437775,1.4064757823944092,2.364582061767578
1758972457817466600,6.391466552734375,0.5387210249900818,0.6685431599617004,2.681238889694214
1758972457827423500,6.401423583984375,0.4608597457408905,-0.5589748620986938,2.9954745769500732
1758972457837381600,6.411381591796875,0.42089876532554626,-1.0932995080947876,2.7805018424987793
1758972457847338800,6.4213388671875,0.49353674054145813,-0.6513985395431519,2.0335421562194824
1758972457857296600,6.431296630859375,0.5697383284568787,-0.0459003783762455,1.2502264976501465
1758972457867253500,6.44125341796875,0.6529034972190857,0.48905491828918457,0.7219512462615967
1758972457877211600,6.451211669921875,0.8671433329582214,1.2272884845733643,0.3860539495944977
1758972457887169500,6.46116943359375,0.9883584380149841,1.9277560710906982,0.16960394382476807
1758972457897126700,6.471126708984375,0.7238833904266357,2.0671722888946533,0.05524594336748123
1758972457907084800,6.481084716796875,0.4118916690349579,1.3654428720474243,-0.2522764503955841
1758972457917041700,6.491041748046875,0.2924611568450928,0.4661288261413574,-0.9249427318572998
1758972457926999600,6.50099951171875,0.04543459415435791,0.28205832839012146,-1.4115211963653564
1758972457936956700,6.510956787109375,-0.4117036759853363,0.5348799228668213,-1.5532655715942383
1758972457946914600,6.52091455078125,-0.9474272727966309,0.6941180229187012,-1.7197296619415283
1758972457956871700,6.53087158203125,-1.3408310413360596,0.4839184582233429,-2.1530940532684326
1758972457966829800,6.540829833984375,-1.433241367340088,-0.47903716564178467,-2.9075446128845215
1758972457976786700,6.55078662109375,-0.9270322322845459,-1.8551007509231567,-3.4925265312194824
1758972457986744600,6.56074462890625,-0.2806455194950104,-3.0238804817199707,-3.552056312561035
1758972457996701700,6.57070166015625,0.24480575323104858,-3.647770643234253,-3.440737009048462
1758972458006659800,6.580659912109375,0.823683500289917,-3.6821069717407227,-3.5100042819976807
1758972458016616700,6.59061669921875,1.3829289674758911,-3.162241220474243,-3.848736524581909
1758972458026574600,6.60057470703125,1.654768943786621,-2.4086952209472656,-4.338968276977539
1758972458036531700,6.61053173828125,1.4576857089996338,-1.7382079362869263,-4.807737350463867
1758972458046489600,6.620489501953125,0.8759757280349731,-1.514153242111206,-5.05433988571167
1758972458056447700,6.63044775390625,0.4606006443500519,-1.6736239194869995,-4.844918727874756
1758972458066404600,6.640404541015625,0.39435210824012756,-1.368983268737793,-4.145223140716553
1758972458076362500,6.650362548828125,0.37071096897125244,-0.5720009207725525,-3.492971658706665
1758972458086319600,6.660319580078125,0.28481629490852356,0.25473400950431824,-3.069601535797119
1758972458096277800,6.67027783203125,0.1317303329706192,0.6032992005348206,-2.670048475265503
1758972458106234600,6.680234619140625,0.19423605501651764,-0.44913625717163086,-2.5001399517059326
1758972458116192500,6.690192626953125,0.011662514880299568,-2.2862439155578613,-2.6013622283935547
1758972458126149600,6.700149658203125,-0.15814995765686035,-2.6707494258880615,-3.117704153060913
1758972458136107800,6.710107666015625,-0.14431563019752502,-2.3164141178131104,-3.4493296146392822
1758972458146064600,6.720064697265625,-0.060496632009744644,-2.680696487426758,-3.3529202938079834
1758972458156022500,6.7300224609375,-0.09625569730997086,-3.6217386722564697,-2.898271083831787
1758972458165979600,6.739979736328125,-0.15266278386116028,-3.811650037765503,-2.2111358642578125
1758972458175937500,6.7499375,-0.22663633525371552,-3.431187152862549,-1.4562844038009644
1758972458185894700,6.759894775390625,-0.24897094070911407,-2.5894458293914795,-0.7088618278503418
1758972458195852800,6.769852783203125,-0.45789647102355957,-1.5778512954711914,-0.023795876652002335
1758972458205809700,6.7798095703125,-0.9709911942481995,-0.8068405985832214,0.6300386786460876
1758972458215767600,6.789767578125,-1.3354461193084717,-0.25018641352653503,1.33428156375885
1758972458225724700,6.799724609375,-1.552396297454834,0.10080011188983917,2.070866823196411
1758972458235682800,6.809682861328125,-1.753071904182434,0.6525082588195801,2.6779768466949463
1758972458245640700,6.819640625,-1.8939591646194458,1.2490196228027344,2.998713254928589
1758972458255597300,6.829597412109375,-1.8544813394546509,1.5715510845184326,3.140875816345215
1758972458265555500,6.839555419921875,-1.7176305055618286,1.6988991498947144,3.237421751022339
1758972458275512600,6.8495126953125,-1.5083720684051514,1.8558310270309448,3.3516316413879395
1758972458285470500,6.859470458984375,-1.1387096643447876,1.8501578569412231,3.5735368728637695
1758972458295427300,6.86942724609375,-0.6575629711151123,1.698624849319458,3.8496594429016113
1758972458305385500,6.879385498046875,-0.1611015349626541,1.5295655727386475,3.9063565731048584
1758972458315342300,6.88934228515625,0.1668315976858139,1.5487972497940063,3.4565141201019287
1758972458325300500,6.899300537109375,0.21430030465126038,1.9312069416046143,2.45599627494812
1758972458335257600,6.909257568359375,0.18603751063346863,2.4085612297058105,1.1532316207885742
1758972458345215200,6.91921533203125,0.24032045900821686,1.9070981740951538,-0.9454570412635803
1758972458355172400,6.92917236328125,0.48398610949516296,-0.6436034440994263,-4.194778919219971
1758972458365130500,6.939130615234375,0.07002728432416916,-2.4781007766723633,-6.7773637771606445
1758972458375087600,6.949087646484375,-0.2165948897600174,-1.244120717048645,-6.572223663330078
1758972458385045500,6.95904541015625,-0.34013333916664124,1.8123149871826172,-2.8525662422180176
1758972458395002400,6.96900244140625,-0.8124383091926575,7.332212924957275,1.9742915630340576
1758972458404960500,6.97896044921875,0.034940142184495926,7.750043869018555,4.117589950561523
1758972458414917400,6.98891748046875,0.27085334062576294,4.621436595916748,4.349030017852783
1758972458424875500,6.99887548828125,-0.05301208421587944,-0.2901766896247864,4.043055534362793
1758972458434832400,7.008832275390625,-0.7558967471122742,-2.061931610107422,4.793262958526611
1758972458444790300,7.018790283203125,-0.6873940825462341,-1.0500586032867432,5.2452616691589355
1758972458454748400,7.02874853515625,-0.09279545396566391,0.024596955627202988,4.041128158569336
1758972458464705500,7.03870556640625,0.8878960609436035,0.26707884669303894,0.8160862922668457
1758972458474663400,7.048663330078125,1.9110740423202515,0.9630597829818726,-0.5234200954437256
1758972458484620300,7.058620361328125,2.169700860977173,2.0574207305908203,-0.25194621086120605
1758972458494578400,7.068578369140625,1.862687349319458,2.738067865371704,0.37320181727409363
1758972458504535600,7.07853564453125,1.1227540969848633,2.5454983711242676,0.9711861610412598
1758972458514493400,7.088493408203125,0.033664751797914505,0.2898389995098114,2.2294702529907227
1758972458524450300,7.0984501953125,-0.5732318162918091,-2.847409725189209,4.52028226852417
1758972458534408400,7.108408447265625,-0.5631235241889954,-3.228367805480957,5.148802757263184
1758972458544365300,7.118365234375,-0.5299258828163147,-1.4992321729660034,4.182982444763184
1758972458554323500,7.128323486328125,-0.5207265615463257,0.37551581859588623,2.917661428451538
1758972458564280600,7.138280517578125,-0.22705446183681488,1.4080166816711426,2.3874423503875732
1758972458574238200,7.14823828125,0.15855449438095093,1.2804709672927856,2.654384136199951
1758972458584195300,7.1581953125,0.1631050407886505,0.24658900499343872,2.982680320739746
1758972458594153500,7.168153564453125,0.21795549988746643,-0.40820613503456116,2.6147232055664062
1758972458604110600,7.178110595703125,0.6062273383140564,-0.16192978620529175,1.7083193063735962
1758972458614068500,7.188068359375,1.0226889848709106,0.43778398633003235,0.6327124834060669
1758972458624025300,7.198025390625,1.3403493165969849,0.7528090476989746,0.051592886447906494
1758972458633983500,7.2079833984375,1.5445075035095215,1.2964763641357422,-0.22069428861141205
1758972458643940400,7.2179404296875,1.3178274631500244,1.9176852703094482,-0.2772236168384552
1758972458653898500,7.2278984375,0.8748028874397278,2.119069814682007,-0.4613686800003052
1758972458663855400,7.23785546875,0.6079325675964355,1.6549162864685059,-0.8649366497993469
1758972458673813200,7.247813232421875,0.31945762038230896,0.9350728988647461,-1.0547568798065186
1758972458683771400,7.257771484375,-0.18005232512950897,0.6939111351966858,-1.0449596643447876
1758972458693728500,7.267728515625,-0.8322966694831848,0.9789801239967346,-1.221342921257019
1758972458703686400,7.277686279296875,-1.4822914600372314,1.3589948415756226,-1.6066004037857056
1758972458713643300,7.287643310546875,-2.038398504257202,0.9781167507171631,-2.470787525177002
1758972458723601400,7.297601318359375,-2.1675171852111816,-0.6964754462242126,-3.4513919353485107
1758972458733558500,7.30755859375,-1.5583665370941162,-3.1434788703918457,-3.723820447921753
1758972458743516400,7.317516357421875,-0.6343961358070374,-4.755209445953369,-3.283984899520874
1758972458753473500,7.3274736328125,0.09945414960384369,-5.096691608428955,-2.978834390640259
1758972458763431400,7.337431396484375,0.8661337494850159,-4.520646572113037,-3.1267876625061035
1758972458773388300,7.34738818359375,1.8046716451644897,-3.3409371376037598,-3.575159788131714
1758972458783346400,7.357346435546875,2.4010956287384033,-2.0376365184783936,-4.104006767272949
1758972458793303600,7.367303466796875,2.22023868560791,-1.1722489595413208,-4.563665390014648
1758972458803261400,7.377261474609375,1.0105026960372925,-0.6125443577766418,-4.9246087074279785
1758972458813218300,7.38721826171875,0.05122164264321327,-0.4070098400115967,-4.723465442657471
1758972458823176400,7.397176513671875,-0.0836150050163269,-0.1776251196861267,-4.029433727264404
1758972458833133600,7.407133544921875,-0.043780237436294556,0.21442468464374542,-3.4192872047424316
1758972458843091500,7.417091552734375,0.05800338089466095,0.4548031985759735,-2.9413084983825684
1758972458853048300,7.42704833984375,0.26340553164482117,0.258672297000885,-2.6272902488708496
1758972458863006500,7.43700634765625,0.14289003610610962,-1.4750213623046875,-2.4370596408843994
1758972458872963300,7.44696337890625,-0.10897468775510788,-3.0557632446289062,-2.4487266540527344
1758972458882921500,7.45692138671875,-0.38306936621665955,-3.1033880710601807,-2.91168212890625
1758972458892878300,7.46687841796875,-0.5959200859069824,-2.9695706367492676,-3.1806771755218506
1758972458902836200,7.476836181640625,-0.5760523676872253,-3.2463762760162354,-3.181577444076538
1758972458912793300,7.48679345703125,-0.47730690240859985,-3.5464932918548584,-2.895256996154785
1758972458922751500,7.49675146484375,-0.4583872854709625,-3.3177947998046875,-2.3746886253356934
1758972458932708600,7.50670849609375,-0.5547148585319519,-2.649444103240967,-1.68038010597229
1758972458942666200,7.516666259765625,-0.5396043658256531,-1.8383116722106934,-1.0421926975250244
1758972458952623400,7.526623291015625,-0.6754769682884216,-0.9313707947731018,-0.42915934324264526
1758972458962581500,7.53658154296875,-1.0787562131881714,-0.10155618190765381,0.39924538135528564
1758972458972538400,7.546538330078125,-1.5781055688858032,0.3497081995010376,1.4201629161834717
1758972458982496500,7.55649658203125,-1.9125853776931763,0.5324034690856934,2.1872568130493164
1758972458992453400,7.566453369140625,-1.9442332983016968,0.6108617782592773,2.5542988777160645
1758972459002411300,7.576411376953125,-1.8276385068893433,0.6999682188034058,2.65807843208313
1758972459012369400,7.586369384765625,-1.645736575126648,0.9650999903678894,2.792929172515869
1758972459022326500,7.596326416015625,-1.4814709424972534,1.429471731185913,3.0264039039611816
1758972459032284400,7.606284423828125,-1.1817758083343506,1.8359211683273315,3.31999135017395
1758972459042241300,7.6162412109375,-0.7501914501190186,1.906710147857666,3.652472734451294
1758972459052199400,7.626199462890625,-0.33971789479255676,1.8650362491607666,3.838535785675049
1758972459062156500,7.636156494140625,-0.018878083676099777,2.03041672706604,3.5850186347961426
1758972459072114400,7.646114501953125,0.27983084321022034,2.5226497650146484,2.7960424423217773
1758972459082071300,7.6560712890625,0.4477601945400238,2.7838006019592285,1.638645887374878
1758972459092029400,7.666029541015625,0.5978415608406067,2.635049343109131,0.1694665253162384
1758972459101986300,7.675986328125,0.7075542211532593,1.5525137186050415,-2.3238110542297363
1758972459111944400,7.6859443359375,0.4583047330379486,-1.1898835897445679,-5.992147445678711
1758972459121901600,7.695901611328125,0.14069800078868866,-2.547808885574341,-7.572065830230713
1758972459131859200,7.705859130859375,0.027908330783247948,-1.9763139486312866,-4.862183570861816
1758972459141816300,7.71581640625,-0.48706766963005066,1.8146814107894897,0.20711590349674225
1758972459151774500,7.7257744140625,-0.4209110140800476,6.1722612380981445,3.995676279067993
1758972459161731600,7.735731689453125,-0.144035205245018,6.070266246795654,4.634164333343506
1758972459171689500,7.745689453125,-0.30947503447532654,3.2637460231781006,3.9589438438415527
1758972459181646300,7.755646240234375,-0.07208164781332016,-1.4037511348724365,3.8469276428222656
1758972459191604500,7.7656044921875,-0.03963582590222359,-1.0546075105667114,5.2848639488220215
1758972459201561300,7.775561279296875,0.08400542289018631,0.2967584431171417,5.275736331939697
1758972459211519500,7.78551953125,0.4168659448623657,1.491443395614624,3.144737720489502
1758972459221476400,7.795476318359375,1.0964785814285278,1.4132423400878906,-0.12004411220550537
1758972459231434200,7.805434326171875,1.4655522108078003,1.688995122909546,-1.1810128688812256
1758972459241391400,7.815391357421875,1.298939824104309,2.3588662147521973,-0.8954306244850159
1758972459251349500,7.825349609375,0.9052020311355591,2.707247257232666,-0.16783002018928528
1758972459261306000,7.83530615234375,0.405902236700058,0.22168126702308655,2.4903767108917236
1758972459271264000,7.845263916015625,-0.34450891613960266,-2.1515464782714844,5.4456892013549805
1758972459281221000,7.85522119140625,-0.702117919921875,-2.2259931564331055,5.8901262283325195
1758972459291179300,7.86517919921875,-0.5375313758850098,-1.1807782649993896,4.594970703125
1758972459301136100,7.87513623046875,-0.2380991131067276,0.20175309479236603,2.9617223739624023
1758972459311094000,7.885093994140625,0.052017662674188614,0.7471562027931213,2.3656933307647705
1758972459321051100,7.895051025390625,0.18152984976768494,0.4353346824645996,2.9079010486602783
1758972459331009000,7.905009033203125,0.188996821641922,-0.0005960154230706394,3.31622052192688
1758972459340966100,7.914966064453125,0.2296273410320282,-0.1283062994480133,2.9211132526397705
1758972459350924300,7.92492431640625,0.3100886344909668,0.44496628642082214,1.912307858467102
1758972459360881200,7.934881103515625,0.48405721783638,1.1935076713562012,1.0866978168487549
1758972459370839000,7.944839111328125,0.7574349641799927,1.4739911556243896,0.8013984560966492
1758972459380796200,7.954796142578125,0.9450700879096985,1.6493552923202515,0.5851966142654419
1758972459390754300,7.96475439453125,0.807243287563324,1.596262812614441,0.44256383180618286
1758972459400711200,7.974711181640625,0.46426674723625183,1.2554631233215332,0.33808162808418274
1758972459410669000,7.9846689453125,0.3526528477668762,0.3620721995830536,-0.1838952600955963
1758972459420626200,7.994626220703125,0.3465414345264435,-0.5793595314025879,-0.9902836680412292
1758972459430584300,8.004584228515625,0.0945797711610794,-0.5789358019828796,-1.56891667842865
1758972459440541200,8.014541259765625,-0.29934224486351013,0.23514246940612793,-1.75796377658844
1758972459450499000,8.0244990234375,-0.614467978477478,1.2771122455596924,-1.8451781272888184
1758972459460456200,8.034456298828125,-0.7725659608840942,1.6166397333145142,-2.1952693462371826
1758972459470414000,8.0444140625,-0.6394047141075134,0.6743912100791931,-2.804598331451416
1758972459480371200,8.05437109375,-0.27689656615257263,-0.9906194806098938,-3.197192668914795
1758972459490329300,8.064329345703126,0.06223860755562782,-2.623034715652466,-3.1865034103393555
1758972459500286200,8.0742861328125,0.3718867301940918,-3.7851767539978027,-3.1244916915893555
1758972459510244000,8.084244140625,0.7230804562568665,-3.9736123085021973,-3.278071641921997
1758972459520201200,8.094201171875,1.0627602338790894,-3.207231283187866,-3.6435484886169434
1758972459530159400,8.104159423828126,1.1195164918899536,-2.233022689819336,-4.102075099945068
1758972459540116000,8.114115966796875,0.8714787364006042,-1.561448097229004,-4.434261798858643
1758972459550074000,8.12407421875,0.5173786878585815,-1.4542694091796875,-4.593764305114746
1758972459560031200,8.13403125,0.3198797404766083,-1.4180597066879272,-4.546420574188232
1758972459569989000,8.143989013671876,0.18895846605300903,-0.9936954379081726,-4.027637004852295
1758972459579946200,8.1539462890625,-0.03630394488573074,-0.20887091755867004,-3.395383358001709
1758972459589904100,8.163904052734376,-0.08733490854501724,0.5732076168060303,-3.048619270324707
1758972459599861200,8.173861328125,-0.051834434270858765,0.5986970067024231,-2.7252233028411865
1758972459609819100,8.183819091796876,0.0760931670665741,-1.0480087995529175,-2.4523041248321533
1758972459619776300,8.1937763671875,-0.13745799660682678,-3.731597900390625,-2.3689723014831543
1758972459629734400,8.203734375,-0.4280661344528198,-4.982892990112305,-2.4874911308288574
1758972459639691000,8.21369091796875,-0.5800108909606934,-4.400150775909424,-2.7252800464630127
1758972459649649200,8.223649169921876,-0.7932262420654297,-3.9667680263519287,-2.4750638008117676
1758972459659606300,8.233606201171876,-0.9993107318878174,-3.904306173324585,-1.936822772026062
1758972459669564200,8.243564208984376,-1.1349422931671143,-3.83208966255188,-1.3940987586975098
1758972459679521000,8.25352099609375,-1.1315302848815918,-3.5997750759124756,-0.8932692408561707
1758972459689479200,8.263479248046876,-1.0282502174377441,-3.037351369857788,-0.5167331695556641
1758972459699436300,8.273436279296876,-1.0762689113616943,-2.1456239223480225,-0.28349241614341736
1758972459709394200,8.283394287109376,-1.5017807483673096,-1.0141592025756836,-0.14573989808559418
1758972459719351000,8.29335107421875,-2.0224053859710693,-0.030794396996498108,0.10352931916713715
1758972459729309200,8.30330908203125,-2.419989585876465,0.14083407819271088,0.7029344439506531
1758972459739266000,8.31326611328125,-2.45969820022583,0.25485917925834656,1.454382300376892
1758972459749224200,8.32322412109375,-2.3554482460021973,0.5832469463348389,1.8218027353286743
1758972459759181300,8.333181396484376,-2.1509695053100586,0.8216555118560791,1.9505292177200317
1758972459769139000,8.343138916015626,-1.859196424484253,1.1743677854537964,2.1588478088378906
1758972459779096000,8.353095947265626,-1.4261044263839722,1.5656572580337524,2.4964118003845215
1758972459789054200,8.36305419921875,-0.7991192936897278,1.5535811185836792,2.8907647132873535
1758972459799011300,8.37301123046875,-0.2975504696369171,1.6103509664535522,3.2389297485351562
1758972459808969200,8.38296923828125,-0.07556986063718796,1.9184736013412476,3.29801082611084
1758972459818926000,8.392926025390626,0.03991998732089996,2.2967593669891357,2.843931198120117
1758972459828884200,8.40288427734375,0.0901637151837349,2.5828657150268555,1.9129786491394043
1758972459838841000,8.412841064453126,0.23417574167251587,2.612670660018921,0.7840191721916199
1758972459848799200,8.42279931640625,0.4995461702346802,2.1724941730499268,-0.9702178239822388
1758972459858756000,8.432756103515626,0.5426941514015198,0.3851197361946106,-3.8474862575531006
1758972459868714000,8.4427138671875,0.23912283778190613,-1.4863653182983398,-6.385137557983398
1758972459878671000,8.452671142578126,0.3035641312599182,-1.7783875465393066,-6.321424961090088
1758972459888628200,8.462628173828126,0.3897211253643036,-0.3476996421813965,-3.0149307250976562
1758972459898586400,8.47258642578125,0.20069928467273712,4.695840358734131,0.8691926598548889
1758972459908544000,8.4825439453125,0.5860546827316284,6.020777225494385,2.9391837120056152
1758972459918501000,8.492501220703126,0.5651078820228577,3.920431137084961,3.224620819091797
1758972459928458200,8.502458251953126,0.23765037953853607,-0.7610267996788025,3.1488561630249023
1758972459938416000,8.512416015625,-0.14964967966079712,-1.8949421644210815,4.6524248123168945
1758972459948373000,8.522373046875,-0.5815076231956482,0.7111958265304565,5.272738456726074
1758972459958331100,8.5323310546875,-1.0455759763717651,3.4700815677642822,4.227084159851074
1758972459968288300,8.542288330078126,-0.7655330896377563,4.200545787811279,1.2650734186172485
1758972459978246100,8.55224609375,-0.4617505967617035,3.383718729019165,-0.40194371342658997
1758972459988203000,8.562203125,0.031985629349946976,2.3639063835144043,-0.39414891600608826
1758972459998161200,8.5721611328125,0.3539609909057617,1.1314692497253418,0.17978601157665253
1758972460008118300,8.5821181640625,0.37445881962776184,-1.1713380813598633,1.680629849433899
1758972460018076200,8.592076171875,0.07379060238599777,-3.9058585166931152,4.237784385681152
1758972460028033300,8.602033203125,-0.13111060857772827,-4.028600692749023,5.1302995681762695
1758972460037991200,8.6119912109375,-0.22528451681137085,-2.1724700927734375,4.686304569244385
1758972460047948000,8.621947998046876,-0.2848157584667206,0.2750486135482788,3.580963134765625
1758972460057906200,8.63190625,-0.20833376049995422,1.891043782234192,2.917980909347534
1758972460067863300,8.64186328125,-0.004423776641488075,2.009821891784668,2.9647977352142334
1758972460077821200,8.6518212890625,0.25713884830474854,0.989107072353363,3.167262554168701
1758972460087778000,8.661778076171874,0.4796513020992279,0.14325755834579468,2.825989246368408
1758972460097736200,8.671736083984374,0.7176942229270935,0.2274147868156433,2.002276659011841
1758972460107693300,8.681693359375,0.9542292356491089,0.874039888381958,1.1447489261627197
1758972460117651200,8.691651123046874,1.0759466886520386,1.2684537172317505,0.7954896688461304
1758972460127608000,8.701608154296874,1.1900638341903687,1.2946970462799072,0.6734351515769958
1758972460137566200,8.711566162109374,1.001818060874939,1.5333999395370483,0.4765135645866394
1758972460147523000,8.721523193359374,0.5836421251296997,1.9045428037643433,0.4895627796649933
1758972460157481200,8.731481201171874,0.17889517545700073,1.851413607597351,0.38594770431518555
1758972460167438300,8.741438232421874,-0.07395092397928238,0.8169699311256409,-0.10295408219099045
1758972460177396000,8.75139599609375,-0.3096878230571747,-0.42663174867630005,-0.9101843237876892
1758972460187353000,8.76135302734375,-0.5877745747566223,-0.9289222955703735,-1.482543706893921
1758972460197311200,8.771311279296874,-0.8515036702156067,-0.7971903681755066,-1.685628890991211
1758972460207268400,8.781268310546874,-0.9966099858283997,-0.7247031331062317,-2.011931896209717
1758972460217226200,8.791226318359374,-0.8728350400924683,-1.2592415809631348,-2.687566041946411
1758972460227183000,8.80118310546875,-0.45576727390289307,-2.5531423091888428,-3.308241367340088
1758972460237141200,8.811141357421874,0.05079260841012001,-3.765316963195801,-3.4754743576049805
1758972460247098000,8.82109814453125,0.7190406918525696,-4.465210914611816,-3.3672730922698975
1758972460257055700,8.8310556640625,1.4970248937606812,-4.3990797996521,-3.2068426609039307
1758972460267013600,8.841013671875,2.3049004077911377,-3.4536514282226562,-3.2836272716522217
1758972460276970800,8.850970703125,2.159162998199463,-2.1256837844848633,-3.801297903060913
1758972460286928600,8.8609287109375,1.195867657661438,-0.8613044023513794,-4.528345108032227
1758972460296885800,8.8708857421875,0.783187985420227,-0.3133073151111603,-4.867039680480957
1758972460306843600,8.88084375,0.7695544958114624,-0.12101457267999649,-4.764482498168945
1758972460316800500,8.890800537109374,0.7306848168373108,-0.17623335123062134,-4.347485065460205
1758972460326758700,8.900758544921874,0.5720190405845642,0.06944991648197174,-3.853050708770752
1758972460336715800,8.9107158203125,0.3592838644981384,1.0115498304367065,-3.59572172164917
1758972460346673700,8.920673583984374,0.1554660201072693,1.7095947265625,-3.232806444168091
1758972460356630500,8.930630615234374,0.0008402272942475975,1.2216700315475464,-2.7460708618164062
1758972460366588700,8.940588623046875,-0.01612517423927784,-1.2072484493255615,-2.436345338821411
1758972460376545800,8.9505458984375,-0.024036094546318054,-3.7349538803100586,-2.5650081634521484
1758972460386503700,8.960503662109375,0.004619252867996693,-4.233057498931885,-2.997086524963379
1758972460396460800,8.970460693359374,-0.02635996788740158,-3.9273576736450195,-3.183002233505249
1758972460406418700,8.980418701171875,-0.13858583569526672,-3.666559934616089,-2.9829814434051514
1758972460416375600,8.99037548828125,-0.10351654142141342,-3.6622962951660156,-2.5506672859191895
1758972460426333700,9.000333740234375,-0.005648564547300339,-3.4523050785064697,-2.0549213886260986
1758972460436290800,9.010290771484375,-0.0983542650938034,-2.9322617053985596,-1.4801896810531616
1758972460446248700,9.020248779296875,-0.32364943623542786,-2.176135778427124,-0.7728959321975708
1758972460456205600,9.03020556640625,-0.4870319664478302,-1.2724785804748535,0.0014381069922819734
1758972460466163700,9.040163818359375,-0.7200308442115784,-0.6311089992523193,0.7170792818069458
1758972460476120800,9.050120849609375,-1.2323362827301025,-0.060207415372133255,1.4374659061431885
1758972460486078700,9.06007861328125,-1.8980391025543213,0.3680264949798584,2.226905345916748
1758972460496035600,9.07003564453125,-2.251640558242798,0.47045111656188965,2.7827892303466797
1758972460505992700,9.07999267578125,-2.370122194290161,0.7183014154434204,2.9637720584869385
1758972460515950600,9.08995068359375,-2.3340182304382324,0.9832489490509033,2.893056631088257
1758972460525907700,9.09990771484375,-2.1429929733276367,0.9343700408935547,2.67341685295105
1758972460535865600,9.109865478515625,-1.8208407163619995,0.9018363356590271,2.524205207824707
1758972460545822700,9.11982275390625,-1.4468469619750977,1.0429705381393433,2.6153013706207275
1758972460555780600,9.129780517578125,-1.0572205781936646,1.354623794555664,3.0311410427093506
1758972460565737700,9.13973779296875,-0.6233953833580017,1.685838222503662,3.2956430912017822
1758972460575696000,9.14969580078125,-0.27890700101852417,1.916589617729187,3.1391968727111816
1758972460585652500,9.159652587890625,-0.10355302691459656,1.9378576278686523,2.4519975185394287
1758972460595610600,9.169610595703125,-0.0024810009635984898,1.9814331531524658,1.3715358972549438
1758972460605567700,9.179567626953125,0.1329450011253357,1.8946537971496582,-0.39473187923431396
1758972460615525600,9.189525634765625,0.2792705297470093,-0.09324871748685837,-3.018404006958008
1758972460625482500,9.199482421875,0.1567390114068985,-2.505333423614502,-5.408586025238037
1758972460635440600,9.209440673828125,0.05188503488898277,-3.2540509700775146,-6.213090896606445
1758972460645397800,9.219397705078125,0.29932039976119995,-1.8315688371658325,-4.3226423263549805
1758972460655355600,9.229355712890625,-0.14530207216739655,3.4472460746765137,-0.9445763826370239
1758972460665312800,9.239312744140625,-0.339481920003891,7.502291679382324,1.3428035974502563
1758972460675270700,9.249270751953125,0.2423713654279709,5.683403968811035,2.1889491081237793
1758972460685227500,9.2592275390625,0.3533253073692322,1.7026678323745728,2.3635919094085693
1758972460695185700,9.269185546875,0.23400184512138367,-3.616102457046509,3.1252689361572266
1758972460705142800,9.279142822265625,-0.35056599974632263,-1.7724543809890747,5.378220558166504
1758972460715099600,9.289099609375,-0.7108352184295654,1.4861600399017334,5.108587265014648
1758972460725057500,9.2990576171875,-0.1429201364517212,2.7643933296203613,3.3860995769500732
1758972460735014700,9.3090146484375,0.6266833543777466,2.5381174087524414,0.5890102982521057
1758972460744972800,9.318972900390625,0.8970202803611755,1.9547066688537598,-0.15023744106292725
1758972460754929700,9.3289296875,0.8630425930023193,1.8272103071212769,0.1806504726409912
1758972460764887600,9.338887451171875,0.7807187438011169,1.701006531715393,0.8128880858421326
1758972460774844700,9.3488447265625,0.31651002168655396,0.6556955575942993,1.9263397455215454
1758972460784802600,9.358802490234375,-0.7513371109962463,-1.3771575689315796,4.1439385414123535
1758972460794759700,9.368759765625,-1.0879452228546143,-1.470966100692749,5.363203525543213
1758972460804717800,9.3787177734375,-0.856035590171814,-0.09407403320074081,4.953548431396484
1758972460814674700,9.3886748046875,-0.580262303352356,1.1554741859436035,3.7567453384399414
1758972460824632600,9.398632568359375,-0.3143099844455719,1.3801259994506836,2.813593864440918
1758972460834589700,9.408589599609375,-0.037091441452503204,0.783484697341919,2.715820789337158
1758972460844547800,9.4185478515625,0.16363632678985596,0.1985224187374115,3.2041494846343994
1758972460854504700,9.428504638671875,0.20982833206653595,-0.08590053021907806,3.0220279693603516
1758972460864462600,9.438462646484375,0.3239929974079132,0.19295507669448853,2.242950677871704
1758972460874419700,9.448419677734375,0.5152193903923035,0.5621626973152161,1.5525389909744263
1758972460884376800,9.458376953125,0.6166030168533325,1.1711103916168213,1.1491612195968628
1758972460894334500,9.46833447265625,0.6336589455604553,1.2451428174972534,1.0443551540374756
1758972460904291600,9.47829150390625,0.6165137887001038,1.2683686017990112,0.82578045129776
1758972460914249700,9.488249755859375,0.5610201954841614,1.6752833127975464,0.3670368492603302
1758972460924206800,9.498206787109375,0.3202224671840668,2.2067387104034424,-0.04971535876393318
1758972460934164700,9.508164794921875,0.07031677663326263,1.567033052444458,-0.4021780788898468
1758972460944121600,9.51812158203125,-0.025982864201068878,-0.017422933131456375,-0.8420012593269348
1758972460954079700,9.528079833984375,-0.1280338615179062,-0.858648419380188,-1.321524977684021
1758972460964036600,9.53803662109375,-0.4143764078617096,-0.5978847146034241,-1.6777440309524536
1758972460973994800,9.547994873046875,-0.818668782711029,0.12101271003484726,-2.0572869777679443
1758972460983951600,9.55795166015625,-1.0386016368865967,0.4843589663505554,-2.623450517654419
1758972460993909500,9.567909423828125,-0.8010311722755432,-0.2849068343639374,-3.223365306854248
1758972461003866600,9.57786669921875,-0.2957126200199127,-1.591789722442627,-3.3860867023468018
1758972461013824800,9.58782470703125,0.22758015990257263,-2.5902676582336426,-3.1205949783325195
1758972461023782000,9.597781982421875,0.8162024021148682,-3.1133782863616943,-2.9751925468444824
1758972461033739500,9.607739501953125,1.33138906955719,-3.13344144821167,-3.187312364578247
1758972461043696600,9.617696533203125,1.3839776515960693,-2.6190638542175293,-3.6122357845306396
1758972461053653800,9.62765380859375,1.2390170097351074,-1.935021996498108,-4.1380462646484375
1758972461063611600,9.637611572265625,1.0697987079620361,-1.4544332027435303,-4.478516578674316
1758972461073568500,9.647568603515625,0.9547251462936401,-1.1357554197311401,-4.4906487464904785
1758972461083526700,9.657526611328125,0.8600183129310608,-0.8472746014595032,-4.34739351272583
1758972461093483800,9.66748388671875,0.6435728669166565,-0.2073822170495987,-4.0343852043151855
1758972461103441700,9.677441650390625,0.2983534038066864,0.5980935096740723,-3.6424920558929443
1758972461113398500,9.6873984375,0.09482184797525406,1.0735048055648804,-3.3631880283355713
1758972461123356700,9.697356689453125,-0.027127224951982498,0.7112352252006531,-3.032754898071289
1758972461133313500,9.7073134765625,0.03766854852437973,-1.08640456199646,-2.7575340270996094
1758972461143271700,9.717271728515625,0.0412912480533123,-3.5156090259552,-2.8120009899139404
1758972461153228800,9.727228759765625,-0.016528910025954247,-5.053305625915527,-3.0925655364990234
1758972461163186400,9.7371865234375,-0.1321425884962082,-4.949074745178223,-3.385566473007202
1758972461173143600,9.7471435546875,-0.2543276250362396,-4.082714557647705,-3.390998363494873
1758972461183101700,9.757101806640625,-0.2783557176589966,-3.6866343021392822,-2.981144428253174
1758972461193058800,9.767058837890625,-0.2093452364206314,-3.4606568813323975,-2.500256299972534
1758972461203015700,9.777015625,-0.17538459599018097,-3.0384836196899414,-1.9950759410858154
1758972461212973600,9.7869736328125,-0.21781834959983826,-2.4726622104644775,-1.4517284631729126
1758972461222930700,9.7969306640625,-0.5441453456878662,-1.7757757902145386,-0.9135550856590271
1758972461232888600,9.806888671875,-1.070532202720642,-1.154010534286499,-0.35548219084739685
1758972461242845700,9.816845703125,-1.4586207866668701,-0.5141445398330688,0.2695385217666626
1758972461252803600,9.826803466796875,-1.6733360290527344,0.1092790886759758,1.0156677961349487
1758972461262760400,9.836760498046875,-1.7870229482650757,0.8018567562103271,1.7516134977340698
1758972461272718300,9.84671826171875,-1.87318754196167,1.1962929964065552,2.2290806770324707
1758972461282675500,9.856675537109375,-1.8393449783325195,1.2646228075027466,2.424870014190674
1758972461292633600,9.866633544921875,-1.7406625747680664,1.2896226644515991,2.4236490726470947
1758972461302590500,9.876590576171875,-1.4759819507598877,1.2857393026351929,2.3413751125335693
1758972461312548400,9.88654833984375,-1.1367660760879517,1.4877512454986572,2.236574411392212
1758972461322505500,9.89650537109375,-0.8226834535598755,1.9197572469711304,2.3880021572113037
1758972461332463600,9.906463623046875,-0.47146207094192505,2.056236505508423,2.8324124813079834
1758972461342420200,9.916420166015625,-0.21646173298358917,1.9788322448730469,3.275475025177002
1758972461352377300,9.92637744140625,-0.13116733729839325,2.036827325820923,3.2658448219299316
1758972461362335500,9.93633544921875,-0.056014534085989,1.974198579788208,2.8567159175872803
1758972461372292600,9.946292724609375,-0.024212662130594254,1.6248347759246826,1.9317007064819336
1758972461382250500,9.95625048828125,0.05369358882308006,1.1094419956207275,0.5502775311470032
1758972461392207400,9.966207275390625,0.3662051558494568,0.27242299914360046,-1.4924123287200928
1758972461402165500,9.97616552734375,0.7427865266799927,-1.5966905355453491,-4.847470283508301
1758972461412122400,9.986122314453125,0.8483366370201111,-2.2106809616088867,-6.7879719734191895
1758972461422080500,9.99608056640625,1.0410608053207397,-1.4179176092147827,-4.933081150054932
1758972461432037400,10.006037353515625,0.9072814583778381,1.7060505151748657,-1.4742274284362793
1758972461441995300,10.015995361328125,0.5443589091300964,7.18292760848999,1.727691888809204
1758972461451952400,10.025952392578125,0.46873313188552856,7.905100345611572,3.2185330390930176
1758972461461910500,10.03591064453125,0.27358147501945496,4.892021179199219,3.772185802459717
1758972461471867600,10.04586767578125,-0.14424239099025726,-0.16893096268177032,4.3575334548950195
1758972461481824500,10.055824462890625,-0.9292259216308594,-2.1362006664276123,5.322002410888672
1758972461491782400,10.065782470703125,-1.4122306108474731,0.158943310379982,4.21126127243042
1758972461501739500,10.075739501953125,-0.49346110224723816,1.2783609628677368,2.9123799800872803
1758972461511697400,10.085697509765625,0.39318910241127014,0.8169044256210327,0.5553337931632996
1758972461521654300,10.095654296875,1.0941706895828247,0.7298259735107422,-0.31851059198379517
1758972461531612400,10.1056123046875,1.2531923055648804,1.0137405395507812,-0.04585111141204834
1758972461541569500,10.115569580078125,0.8915104866027832,1.7135412693023682,1.032752275466919
1758972461551527400,10.12552734375,0.046834349632263184,1.7215173244476318,2.6734108924865723
1758972461561484300,10.135484375,-0.8283876776695251,0.7074716687202454,4.767011642456055
1758972461571442400,10.1454423828125,-1.1380246877670288,-0.12806449830532074,5.836910724639893
1758972461581399600,10.155399658203125,-0.9685181975364685,-0.39681845903396606,5.567597389221191
1758972461591357400,10.165357421875,-0.721021294593811,-0.09211075305938721,4.166540145874023
1758972461601314600,10.175314453125,-0.6070406436920166,0.21776828169822693,2.6428728103637695
1758972461611271400,10.185271484375,-0.3911592364311218,0.3263413608074188,1.9819273948669434
1758972461621229300,10.195229248046875,-0.08164826035499573,0.3190019428730011,2.4730968475341797
1758972461631186400,10.2051865234375,-0.08735088258981705,0.18175941705703735,3.142468214035034
1758972461641144600,10.21514453125,-0.18082863092422485,0.3630639612674713,2.9129586219787598
1758972461651101400,10.225101318359375,-0.08520038425922394,0.6891711950302124,2.0518879890441895
1758972461661059300,10.235059326171875,0.10704789310693741,1.5112589597702026,1.2305444478988647
1758972461671016400,10.245016357421875,0.47087404131889343,2.357459783554077,0.8127642869949341
1758972461680974600,10.254974609375,0.7095987200737,2.5690183639526367,0.6976520419120789
1758972461690931500,10.264931396484375,0.7935133576393127,2.410200357437134,0.47844406962394714
1758972461700889300,10.274889404296875,0.7262887358665466,2.2704334259033203,-0.07538557052612305
1758972461710846500,10.284846435546875,0.5747863054275513,1.5712482929229736,-0.4645490348339081
1758972461720804400,10.294804443359375,0.39808186888694763,0.24877838790416718,-0.5186207890510559
1758972461730761500,10.304761474609375,0.14857056736946106,-0.4738176465034485,-0.6341657638549805
1758972461740718300,10.31471826171875,-0.1550561636686325,-0.22725152969360352,-1.0843310356140137
1758972461750676500,10.324676513671875,-0.6099347472190857,0.5966404676437378,-1.656416416168213
1758972461760633300,10.33463330078125,-1.0066956281661987,1.225519061088562,-2.218567132949829
1758972461770591500,10.344591552734375,-1.0053752660751343,1.1791435480117798,-2.6257243156433105
1758972461780548400,10.35454833984375,-0.6961122155189514,0.3112771809101105,-2.611522674560547
1758972461790506200,10.36450634765625,-0.29326409101486206,-1.2177809476852417,-2.305532932281494
1758972461800463400,10.37446337890625,-0.08204693347215652,-2.659114360809326,-2.2675700187683105
1758972461810421500,10.38442138671875,0.1461723893880844,-3.2398691177368164,-2.6259710788726807
1758972461820378600,10.394378662109375,0.5446915626525879,-3.026097297668457,-3.262889862060547
1758972461830336500,10.40433642578125,0.7449458241462708,-2.4999566078186035,-3.787637948989868
1758972461840293400,10.41429345703125,0.47082850337028503,-2.096155881881714,-3.9756357669830322
1758972461850250500,10.42425048828125,0.11663873493671417,-1.8390493392944336,-4.103675365447998
1758972461860208400,10.43420849609375,0.16809579730033875,-1.3416749238967896,-4.202059268951416
1758972461870165200,10.444165283203125,0.2390677034854889,-0.4679379165172577,-4.070112705230713
1758972461880123400,10.454123291015625,0.17557288706302643,0.1410122513771057,-3.73396372795105
1758972461890080500,10.46408056640625,0.265023410320282,0.16204163432121277,-3.356309413909912
1758972461900038400,10.474038330078125,0.20749540627002716,0.21999575197696686,-3.0883595943450928
1758972461909995500,10.48399560546875,0.32195407152175903,0.5438023209571838,-2.946951389312744
1758972461919953400,10.493953369140625,0.604243278503418,0.4277084469795227,-2.704148292541504
1758972461929910500,10.50391064453125,0.47784459590911865,-1.199747085571289,-2.4688196182250977
1758972461939868400,10.513868408203125,0.24503132700920105,-2.683865547180176,-2.538252115249634
1758972461949825500,10.523825439453125,0.08102934062480927,-3.2266387939453125,-2.5982422828674316
1758972461959782400,10.533782470703125,-0.013852698728442192,-2.756989002227783,-2.4368443489074707
1758972461969740300,10.543740234375,-0.2697254717350006,-2.4408035278320312,-1.931084156036377
1758972461979697400,10.553697509765625,-0.5969060063362122,-2.4628210067749023,-1.2869280576705933
1758972461989655600,10.563655517578125,-0.8759781122207642,-2.24573016166687,-0.627178430557251
1758972461999612700,10.57361279296875,-1.1006975173950195,-1.7432138919830322,-0.1089528501033783
1758972462009570300,10.5835703125,-1.285800814628601,-1.217673659324646,0.18450459837913513
1758972462019527400,10.59352734375,-1.3842426538467407,-0.6838049292564392,0.40630704164505005
1758972462029485600,10.603485595703125,-1.4213721752166748,-0.1474810689687729,0.6622549295425415
1758972462039442400,10.6134423828125,-1.3647300004959106,0.4481697976589203,0.9015237092971802
1758972462049400600,10.623400634765625,-1.2754604816436768,0.9722191691398621,1.137701392173767
1758972462059357400,10.633357421875,-1.2928035259246826,1.4673631191253662,1.5702378749847412
1758972462069314600,10.643314453125,-1.3192155361175537,1.7046207189559937,2.239856243133545
1758972462079272400,10.6532724609375,-1.190712571144104,1.7380766868591309,2.8987109661102295
1758972462089229300,10.663229248046875,-0.8836131691932678,1.644924283027649,3.262556791305542
1758972462099187500,10.6731875,-0.4659282863140106,1.5731310844421387,3.2030580043792725
1758972462109144600,10.68314453125,-0.054184142500162125,1.7557003498077393,2.6515860557556152
1758972462119102500,10.6931025390625,0.265247642993927,1.971422791481018,1.6763768196105957
1758972462129059600,10.7030595703125,0.47624829411506653,1.5654702186584473,0.10010742396116257
1758972462139017200,10.713017333984375,0.46949106454849243,-0.24022512137889862,-1.9472436904907227
1758972462148974300,10.722974365234375,0.6492419242858887,-3.4069650173187256,-4.814482688903809
1758972462158932500,10.732932373046875,0.582427442073822,-5.528562068939209,-7.5672807693481445
1758972462168889600,10.7428896484375,0.3285302221775055,-4.42083740234375,-7.1454548835754395
1758972462178846500,10.752846435546875,0.0613858625292778,-0.4116051197052002,-2.679861545562744
1758972462188804400,10.762804443359375,-0.5642333030700684,4.908377170562744,1.837957739830017
1758972462198761500,10.772761474609375,-0.6268929243087769,6.64849853515625,3.853297472000122
1758972462208719600,10.7827197265625,-0.06971702724695206,5.420022487640381,3.404186487197876
1758972462218676500,10.792676513671875,0.7420099377632141,3.1897037029266357,2.5288150310516357
1758972462228634400,10.80263427734375,1.895858883857727,0.7718620896339417,2.2119767665863037
1758972462238591500,10.812591552734375,3.329310417175293,-0.3398718237876892,2.4320473670959473
1758972462248549400,10.82254931640625,3.1337990760803223,-1.1071228981018066,1.2837074995040894
1758972462258506500,10.832506591796875,1.1812999248504639,-2.40834379196167,-1.0536328554153442
1758972462268463600,10.842463623046875,0.7081499695777893,-3.479499578475952,-2.4873452186584473
1758972462278421800,10.852421875,0.9738482236862183,-4.3289008140563965,-1.632644772529602
1758972462288378400,10.86237841796875,0.5521444082260132,-4.518646240234375,-0.10507022589445114
1758972462298336500,10.87233642578125,-0.12470252066850662,-3.3233368396759033,1.1783167123794556
1758972462308293600,10.882293701171875,-0.5746685862541199,-1.630646824836731,2.0206298828125
1758972462318251500,10.89225146484375,-0.8550893664360046,-0.4263153672218323,2.377943992614746
1758972462328208400,10.90220849609375,-0.7621074914932251,-0.22690638899803162,2.514068365097046
1758972462338166500,10.91216650390625,-0.49946147203445435,-0.6209418177604675,2.695011615753174
1758972462348123600,10.92212353515625,-0.2160326987504959,-1.1212024688720703,2.7311155796051025
1758972462358081500,10.93208154296875,-0.09856145828962326,-1.353065848350525,2.653965711593628
1758972462368038700,10.94203857421875,-0.31811806559562683,-1.2319780588150024,2.546079158782959
1758972462377995500,10.95199560546875,-0.7941554188728333,-0.9063032865524292,2.4669134616851807
1758972462387953400,10.961953369140625,-1.2390048503875732,-0.4606461822986603,2.450878620147705
1758972462397910500,10.97191064453125,-1.4301984310150146,-0.0232363473623991,2.45849347114563
1758972462407868700,10.98186865234375,-1.3595123291015625,0.2891652286052704,2.432490348815918
1758972462417825500,10.991825439453125,-1.154465913772583,0.3724566698074341,2.305997371673584
1758972462427783400,11.001783447265625,-0.8515649437904358,0.24097320437431335,2.0016820430755615
1758972462437740500,11.011740478515625,-0.5925991535186768,0.3371807038784027,1.7026219367980957
1758972462447698700,11.02169873046875,-0.3365553915500641,1.0375856161117554,1.4061673879623413
1758972462457655600,11.031655517578125,-0.028971463441848755,1.8731540441513062,1.0002816915512085
1758972462467612400,11.0416123046875,0.17281624674797058,2.6487174034118652,0.4603377878665924
1758972462477570600,11.051570556640625,0.21883061528205872,3.1482529640197754,0.08797486126422882
1758972462487527700,11.061527587890625,0.0967976525425911,3.477391242980957,-0.05572664365172386
1758972462497485600,11.071485595703125,0.04626709595322609,3.5900967121124268,-0.15396933257579803
1758972462507442400,11.0814423828125,0.1747816652059555,3.311199426651001,-0.38050979375839233
1758972462517400600,11.091400634765625,0.3416992723941803,2.593397378921509,-0.7910808324813843
1758972462527357700,11.101357666015625,0.17702990770339966,1.4999631643295288,-1.2888280153274536
1758972462537315600,11.111315673828125,0.008139685727655888,0.760247528553009,-1.4530938863754272
1758972462547272400,11.1212724609375,0.0914849117398262,0.361486554145813,-1.3123847246170044
1758972462557230600,11.131230712890625,0.3279789388179779,-0.03130492568016052,-1.129642128944397
1758972462567187500,11.1411875,0.6749800443649292,-0.7031059265136719,-1.0975345373153687
1758972462577144600,11.15114453125,0.7592530846595764,-1.4704375267028809,-1.1525095701217651
1758972462587102700,11.161102783203125,-0.6517506241798401,-1.1302088499069214,-1.0496159791946411
1758972462597059600,11.1710595703125,0.2715851664543152,0.5502564907073975,-2.050494432449341
1758972462607017500,11.181017578125,2.144305944442749,3.007207155227661,-4.101888656616211
1758972462616974600,11.190974609375,1.2858548164367676,3.23429274559021,-4.381149768829346
1758972462626932700,11.2009326171875,0.07846471667289734,1.7135558128356934,-2.7350168228149414
1758972462636889300,11.210889404296875,0.4420325458049774,0.24738822877407074,-1.0946100950241089
1758972462646847500,11.220847412109375,0.46796587109565735,-0.09991088509559631,-0.7038010358810425
1758972462656804600,11.2308046875,0.03150679171085358,-0.3095743656158447,-1.100225567817688
1758972462666761700,11.24076171875,-0.15637601912021637,-0.48516562581062317,-1.6035162210464478
1758972462676719400,11.25071923828125,-0.1264282464981079,-0.8415471911430359,-1.6633573770523071
1758972462686676500,11.260676513671875,-0.22167247533798218,-1.0016793012619019,-1.3265283107757568
1758972462696634600,11.270634521484375,-0.26307690143585205,-0.8068195581436157,-1.0031741857528687
1758972462706591500,11.280591552734375,-0.2895908057689667,-0.6249046325683594,-0.847811222076416
1758972462716549600,11.290549560546875,-0.309626042842865,-0.43562498688697815,-0.7175232172012329
1758972462726506500,11.300506591796875,-0.26900431513786316,0.05006769299507141,-0.6344661712646484
1758972462736464400,11.31046435546875,-0.3515676259994507,0.2932262718677521,-0.5442715883255005
1758972462746421500,11.32042138671875,-0.4563691318035126,-0.5701971650123596,-0.3867431879043579
1758972462756378600,11.330378662109375,-0.4255307912826538,0.25927045941352844,-0.8816946148872375
1758972462766336500,11.34033642578125,-0.6164866089820862,0.9041436910629272,-1.3676437139511108
1758972462776293600,11.350293701171875,-1.0457048416137695,0.5463264584541321,-1.1258268356323242
1758972462786251500,11.36025146484375,-0.8150234222412109,0.48701173067092896,-1.0880650281906128
1758972462796208600,11.370208740234375,-0.4302019774913788,1.118384599685669,-1.106265902519226
1758972462806166500,11.38016650390625,-0.47885793447494507,1.7677658796310425,-0.9573115706443787
1758972462816123400,11.390123291015625,-0.5342511534690857,0.9148848056793213,-0.42026039958000183
1758972462826081500,11.40008154296875,0.7523661851882935,0.11435187608003616,-0.25323331356048584
1758972462836038700,11.41003857421875,1.2710386514663696,-0.6438791155815125,-0.16300836205482483
1758972462845995500,11.41999560546875,1.0442118644714355,-0.7404754161834717,2.1319990158081055
1758972462855953400,11.429953369140625,0.7508441805839539,-0.038973499089479446,2.950881242752075
1758972462865910500,11.43991064453125,-0.06241703778505325,1.4413528442382812,3.1188855171203613
1758972462875868700,11.44986865234375,-0.4680926501750946,1.5876232385635376,3.3839244842529297
1758972462885825500,11.459825439453125,-0.5041592717170715,0.6587432622909546,3.5063974857330322
1758972462895783400,11.469783447265625,-0.7473442554473877,-0.1934693306684494,3.294919967651367
1758972462905740500,11.479740478515625,-0.7773852348327637,-0.6551676988601685,3.244434118270874
1758972462915698400,11.489698486328125,-0.7628369331359863,-1.4693360328674316,3.1010913848876953
1758972462925655600,11.499655517578125,-0.6581589579582214,-1.547637701034546,2.6219568252563477
1758972462935612400,11.5096123046875,-0.8466734886169434,-0.6615622043609619,1.6700201034545898
1758972462945570600,11.519570556640625,-1.213200569152832,0.57787024974823,0.49019262194633484
1758972462955527400,11.52952734375,-1.6608755588531494,1.2760599851608276,-0.5263988375663757
1758972462965485600,11.539485595703125,-2.068399667739868,1.3449383974075317,-1.1712111234664917
1758972462975442700,11.549442626953125,-2.3143222332000732,1.7384010553359985,-1.44660222530365
1758972462985400300,11.559400390625,-2.439951181411743,1.8900206089019775,-1.3485206365585327
1758972462995357400,11.569357421875,-2.51347279548645,1.9356226921081543,-1.1117792129516602
1758972463005315600,11.579315673828125,-2.4163990020751953,2.0208637714385986,-0.5839334726333618
1758972463015272700,11.589272705078125,-2.3230278491973877,2.1310031414031982,-0.15107978880405426
1758972463025229600,11.5992294921875,-2.302278518676758,2.34730863571167,0.4295039772987366
1758972463035187500,11.6091875,-2.4550204277038574,2.754772901535034,0.6391568183898926
1758972463045144600,11.61914453125,-2.5718233585357666,2.380631685256958,0.3609544634819031
1758972463055102500,11.6291025390625,-2.7078962326049805,2.208732843399048,0.22859269380569458
1758972463065059300,11.639059326171875,-2.951662063598633,2.7651920318603516,0.6260021328926086
1758972463075017500,11.649017578125,-2.968682289123535,2.7559802532196045,0.39215072989463806
1758972463084974600,11.658974609375,-2.645066261291504,2.8997013568878174,0.6421030759811401
1758972463094931700,11.668931640625,-2.125471830368042,2.6148123741149902,1.6347672939300537
1758972463104889600,11.6788896484375,-1.7264738082885742,2.490203380584717,2.209716796875
1758972463114846500,11.688846435546875,-1.694376826286316,3.632539987564087,2.0741186141967773
1758972463124804600,11.6988046875,-1.8285460472106934,5.878108024597168,2.437940835952759
1758972463134761500,11.708761474609375,-1.4920018911361694,7.894967079162598,3.7455241680145264
1758972463144719600,11.7187197265625,-1.4220139980316162,10.236393928527832,5.4599103927612305
1758972463154676500,11.728676513671875,-1.1257373094558716,10.81665325164795,6.492707252502441
1758972463164634400,11.73863427734375,-1.105456829071045,10.345890045166016,6.198451995849609
1758972463174591500,11.748591552734375,-1.0860732793807983,9.302273750305176,5.952646255493164
1758972463184548600,11.758548583984375,-1.2183884382247925,9.308058738708496,6.261464595794678
1758972463194506800,11.7685068359375,-1.4607163667678833,8.772717475891113,6.424797058105469
1758972463204463400,11.77846337890625,-1.766997218132019,7.301513195037842,6.387767791748047
1758972463214421500,11.78842138671875,-1.9857906103134155,6.165342807769775,6.010319709777832
1758972463224378600,11.798378662109375,-2.6040210723876953,5.162475109100342,5.733258247375488
1758972463234336500,11.80833642578125,-3.528055191040039,4.315310001373291,5.614254474639893
1758972463244293400,11.81829345703125,-4.293183326721191,4.027795314788818,5.401715278625488
1758972463254251300,11.828251220703125,-4.664052486419678,3.3781356811523438,4.992214679718018
1758972463264208100,11.8382080078125,-4.727757453918457,2.1058363914489746,4.389244556427002
1758972463274165200,11.848165283203125,-4.539278030395508,0.9770317673683167,3.677227735519409
1758972463284123100,11.858123046875,-4.104831695556641,0.08171989768743515,3.07500958442688
1758972463294080300,11.868080322265625,-3.4699172973632812,-0.45304152369499207,2.6970019340515137
1758972463304038100,11.8780380859375,-2.793069362640381,-0.5270976424217224,2.4887824058532715
1758972463313995000,11.8879951171875,-2.174229383468628,-0.40811824798583984,2.3889927864074707
1758972463323953200,11.897953125,-1.6543769836425781,-0.36357635259628296,2.295656442642212
1758972463333910300,11.90791015625,-1.3066520690917969,-0.47642141580581665,2.217266321182251
1758972463343868200,11.9178681640625,-1.1666767597198486,-0.6823782920837402,2.224289655685425
1758972463353825000,11.927824951171875,-1.2073973417282104,-0.5283639430999756,2.314432382583618
1758972463363782100,11.9377822265625,-1.38593590259552,-0.08927954733371735,2.337357997894287
1758972463373740300,11.947740234375,-1.6000897884368896,0.2592025399208069,2.2329320907592773
1758972463383697200,11.957697265625,-1.7422908544540405,0.3093908727169037,2.0159809589385986
1758972463393655000,11.967655029296875,-1.831021785736084,0.11922919005155563,1.7518113851547241
1758972463403612200,11.977612060546875,-2.1842195987701416,-0.14160826802253723,1.6174384355545044
1758972463413570000,11.987570068359375,-2.252678632736206,-0.40951961278915405,1.4444292783737183
1758972463423527200,11.997527099609375,-2.209974765777588,-0.7903122305870056,1.2865105867385864
1758972463433485300,12.0074853515625,-2.0858943462371826,-1.0659440755844116,1.1881974935531616
1758972463443442200,12.017442138671875,-1.8824529647827148,-1.2140225172042847,1.1253924369812012
1758972463453399300,12.0273994140625,-1.656691551208496,-1.202558159828186,1.0315501689910889
1758972463463357200,12.037357177734375,-1.4285023212432861,-1.1216955184936523,0.8215303421020508
1758972463473314000,12.04731396484375,-1.2254189252853394,-1.041792869567871,0.4888248145580292
1758972463483272200,12.057272216796875,-1.110530138015747,-1.135541558265686,0.046180546283721924
1758972463493229000,12.06722900390625,-1.0658985376358032,-1.3311877250671387,-0.4200412333011627
1758972463503187200,12.077187255859375,-1.0156086683273315,-1.3956586122512817,-0.8410249352455139
1758972463513144300,12.087144287109375,-1.0277146100997925,-1.1723575592041016,-1.1041390895843506
1758972463523101200,12.09710107421875,-0.9968526363372803,-0.8049966096878052,-1.3017799854278564
1758972463533058000,12.10705810546875,-0.8638596534729004,-0.39366820454597473,-1.4577176570892334
1758972463543016200,12.11701611328125,-0.6611856818199158,0.03760942816734314,-1.5744719505310059
1758972463552973300,12.126973388671875,-0.6169803738594055,0.2838732600212097,-1.403659462928772
1758972463562930200,12.13693017578125,-1.8531862497329712,0.2606254518032074,0.23879340291023254
1758972463572888000,12.14688818359375,-2.1114068031311035,-0.25134727358818054,0.9471146464347839
1758972463582845200,12.15684521484375,-1.5426136255264282,-0.8278436064720154,1.1515185832977295
1758972463592803300,12.16680322265625,-1.0940263271331787,-1.2742924690246582,1.3142462968826294
1758972463602760200,12.17676025390625,-1.0949288606643677,-1.267212986946106,1.5026025772094727
1758972463612718000,12.186718017578125,-1.2864913940429688,-0.7945737838745117,1.4017492532730103
1758972463622675200,12.19667529296875,-1.3619391918182373,0.0820527896285057,0.8923792243003845
1758972463632633000,12.206633056640625,-1.3583570718765259,1.0522048473358154,0.3811071515083313
1758972463642590000,12.21658984375,-1.2895185947418213,1.5448209047317505,0.04226196929812431
1758972463652548000,12.226548095703125,-1.121038794517517,1.4642448425292969,-0.1074279248714447
1758972463662505200,12.236505126953125,-0.9053125977516174,1.034530758857727,-0.1857999563217163
1758972463672462300,12.24646240234375,-0.6854153871536255,0.6375011205673218,-0.2160729169845581
1758972463682420200,12.256420166015625,-0.5493922829627991,0.36082395911216736,-0.2129543423652649
1758972463692377000,12.266377197265625,-0.5151709318161011,0.24506407976150513,-0.19411487877368927
1758972463702335200,12.276335205078125,-0.5554043650627136,0.2227819412946701,-0.16370850801467896
1758972463712292000,12.2862919921875,-0.6246473789215088,0.15731878578662872,-0.14876151084899902
1758972463722250200,12.296250244140625,-0.6634415984153748,0.1283971220254898,-0.1720103770494461
1758972463732207000,12.30620703125,-0.6743451356887817,0.3460215926170349,-0.17476142942905426
1758972463742165000,12.3161650390625,-0.7087526321411133,0.6283211708068848,-0.12450996786355972
1758972463752122000,12.3261220703125,-0.7950188517570496,0.7454342246055603,-0.007860586047172546
1758972463762080300,12.336080322265625,-0.8684179186820984,0.7518401741981506,0.17136269807815552
1758972463772037400,12.346037353515625,-0.8537290096282959,0.6148085594177246,0.38941246271133423
1758972463781995000,12.3559951171875,-0.74747234582901,0.27546167373657227,0.6146405339241028
1758972463791952100,12.3659521484375,-0.5760478377342224,-0.14149507880210876,0.7594022154808044
1758972463801910300,12.37591015625,-0.38879328966140747,-0.4172379672527313,0.7929471731185913
1758972463811867100,12.3858671875,-0.20849408209323883,-0.44393190741539,0.720491349697113
1758972463821824000,12.395823974609375,-0.054117828607559204,-0.3219255805015564,0.5825672745704651
1758972463831782100,12.4057822265625,0.02010074071586132,-0.1599654257297516,0.3869229555130005
1758972463841739300,12.4157392578125,0.054127682000398636,0.08181790262460709,0.1657910943031311
1758972463851697200,12.425697265625,0.06812606006860733,0.4018859267234802,-0.03313931077718735
1758972463861654000,12.435654052734375,0.06664880365133286,0.6539112329483032,-0.12679176032543182
1758972463871612200,12.445612060546875,0.0379769429564476,0.7388269305229187,-0.09326229989528656
1758972463881569000,12.455569091796875,-0.0151592455804348,0.6539344191551208,0.011300591751933098
1758972463891527200,12.465527099609375,-0.05411809682846069,0.5169488787651062,0.10877228528261185
1758972463901484300,12.475484375,-0.028958147391676903,0.40146780014038086,0.17143620550632477
1758972463911442200,12.485442138671875,0.02118011936545372,0.24359987676143646,0.21407420933246613
1758972463921399000,12.49539892578125,0.04592674598097801,0.06315819919109344,0.21941730380058289
1758972463931357200,12.505357177734375,0.04272136464715004,-0.004898618441075087,0.17431826889514923
1758972463941314300,12.515314208984375,0.03590447083115578,0.1077384501695633,0.11115315556526184
1758972463951272200,12.525272216796875,0.028444956988096237,0.2817794978618622,0.05711654946208
1758972463961229000,12.53522900390625,0.014848188497126102,0.4201243221759796,0.02339879982173443
1758972463971186200,12.545186279296875,0.004883704707026482,0.5124624967575073,0.06011367216706276
