time,seconds_elapsed,z,y,x
1759304786220217900,0.1212177734375,-0.28272056579589844,-1.7614831924438477,0.024287819862365723
1759304786230257700,0.131257568359375,-0.27603864669799805,-2.0569493770599365,0.1862344741821289
1759304786240298800,0.141298828125,-0.21944141387939453,-2.1778900623321533,0.4585360288619995
1759304786250365700,0.15136572265625,0.09159469604492188,-2.2292518615722656,0.6969581842422485
1759304786260403500,0.161403564453125,0.5327730178833008,-2.2755939960479736,0.9656935930252075
1759304786270444000,0.171444091796875,0.4060335159301758,-2.564934730529785,1.0231528282165527
1759304786280484600,0.181484619140625,-0.14550018310546875,-3.1409189701080322,0.7358813285827637
1759304786300565200,0.201565185546875,-1.4460158348083496,-4.377745151519775,-0.611449122428894
1759304786310604800,0.211604736328125,-1.4783892631530762,-3.3601200580596924,-0.6772142648696899
1759304786320645600,0.221645751953125,-2.569028854370117,-1.2156615257263184,-0.582998514175415
1759304786330687000,0.23168701171875,-0.8319368362426758,2.862403154373169,-0.009206414222717285
1759304786340727000,0.24172705078125,1.0972042083740234,7.555904865264893,0.820785403251648
1759304786350766800,0.251766845703125,-1.0778250694274902,8.497403144836426,1.2291300296783447
1759304786360808400,0.261808349609375,-2.847507953643799,5.828014373779297,0.889409065246582
1759304786370822400,0.271822509765625,-4.237514019012451,0.3914961814880371,-0.03733086585998535
1759304786380887300,0.28188720703125,0.6116762161254883,-4.139463901519775,0.8662389516830444
1759304786390911000,0.291910888671875,0.7030000686645508,-4.361697673797607,2.0245230197906494
1759304786400968000,0.301968017578125,3.7454710006713867,-2.4185543060302734,2.528679609298706
1759304786411010000,0.312010009765625,3.9037351608276367,-1.8770251274108887,1.3025506734848022
1759304786421047300,0.32204736328125,2.724386215209961,-2.2945518493652344,-0.5371056199073792
1759304786431094300,0.33209423828125,2.3667402267456055,-2.822361469268799,-1.3459830284118652
1759304786441130800,0.342130859375,2.5027713775634766,-3.1349375247955322,-1.0505021810531616
1759304786451168500,0.35216845703125,2.4398069381713867,-3.2462430000305176,-0.49144500494003296
1759304786461208600,0.36220849609375,1.8646907806396484,-3.119051694869995,-0.2445542812347412
1759304786471250200,0.372250244140625,0.8030252456665039,-2.5317564010620117,-0.16137810051441193
1759304786481292000,0.3822919921875,-0.1403055191040039,-2.2160303592681885,-0.5468723177909851
1759304786491334100,0.392334228515625,-1.654167652130127,-1.6394879817962646,-0.5790104866027832
1759304786501369300,0.402369384765625,-1.3433079719543457,-1.3279962539672852,-2.1942214965820312
1759304786511374600,0.41237451171875,-0.3953075408935547,-2.656815528869629,-3.249962568283081
1759304786521426200,0.42242626953125,-0.18738651275634766,-3.4268798828125,-2.8486080169677734
1759304786531489800,0.43248974609375,-1.1363110542297363,-3.5097413063049316,-2.0779049396514893
1759304786541532400,0.442532470703125,-2.233208179473877,-3.001760959625244,-1.0548372268676758
1759304786551572700,0.45257275390625,-2.971668243408203,-0.8530282974243164,3.252171754837036
1759304786561618400,0.462618408203125,-1.1698222160339355,0.7333102226257324,5.223757266998291
1759304786571626800,0.472626708984375,-1.8700065612792969,-2.0932412147521973,1.5089317560195923
1759304786581691600,0.482691650390625,-3.152188301086426,-4.06120491027832,-1.4581712484359741
1759304786591732200,0.492732177734375,-2.1919631958007812,-3.40598201751709,-1.3668224811553955
1759304786601772500,0.5027724609375,-1.1609444618225098,-3.2619152069091797,-0.7873024940490723
1759304786611787800,0.512787841796875,-1.3216228485107422,-3.762758731842041,-0.46003031730651855
1759304786621852700,0.522852783203125,-2.225862979888916,-3.7503662109375,-0.33936405181884766
1759304786631892200,0.532892333984375,-3.089850425720215,-3.2415199279785156,-0.781787633895874
1759304786641933300,0.542933349609375,-3.4761881828308105,-2.4549832344055176,-1.53141450881958
1759304786651972000,0.55297216796875,-2.4781346321105957,-2.884979486465454,-0.8685352802276611
1759304786662013000,0.563012939453125,-1.3512449264526367,-3.317129611968994,-1.335726261138916
1759304786672053200,0.57305322265625,-0.08238410949707031,-3.4399945735931396,-0.8474149703979492
1759304786682094600,0.583094482421875,0.45955848693847656,-2.5520076751708984,-1.4585232734680176
1759304786692135700,0.5931357421875,1.5288033485412598,-1.1903939247131348,-0.8597354888916016
1759304786702175200,0.60317529296875,2.6577539443969727,-0.5207533836364746,-0.7212142944335938
1759304786712215000,0.613215087890625,2.1268672943115234,-1.3658320903778076,-0.6048665046691895
1759304786722256000,0.623255859375,1.197218894958496,-2.6327881813049316,-0.050499916076660156
1759304786732294700,0.633294677734375,1.0464730262756348,-2.537046432495117,0.4361443519592285
1759304786742334200,0.643334228515625,0.16379547119140625,-2.457021951675415,0.6013383865356445
1759304786752375300,0.653375244140625,-0.21150493621826172,-2.446183204650879,0.9645533561706543
1759304786762417200,0.663417236328125,-0.1905355453491211,-2.637558937072754,0.9279036521911621
1759304786772456700,0.673456787109375,0.5064120292663574,-2.439391613006592,0.33846521377563477
1759304786782496000,0.68349609375,1.503211498260498,-2.0702147483825684,-0.13651323318481445
1759304786792536000,0.6935361328125,1.9979891777038574,-2.122920036315918,-0.11846399307250977
1759304786802578200,0.703578125,2.02067232131958,-2.3973937034606934,0.061611175537109375
1759304786812616400,0.713616455078125,1.09844970703125,-2.6167960166931152,-0.0934286117553711
1759304786822658600,0.723658447265625,0.3356480598449707,-3.2053189277648926,1.2335925102233887
1759304786832697600,0.733697509765625,-0.7713427543640137,-3.6962831020355225,1.6149272918701172
1759304786842748400,0.74374853515625,-1.795732021331787,-3.8662023544311523,2.6111247539520264
1759304786852777200,0.753777099609375,-2.763516426086426,-3.862328052520752,2.8922698497772217
1759304786862793000,0.76379296875,-3.304546594619751,-4.107305526733398,2.3531060218811035
1759304786872858000,0.773858154296875,-2.714524030685425,-3.7410783767700195,1.8324732780456543
1759304786882900000,0.78389990234375,-1.7457561492919922,-3.7022793292999268,1.4699125289916992
1759304786892939800,0.793939697265625,-0.7391314506530762,-4.0523271560668945,0.22818374633789062
1759304786902979800,0.803979736328125,0.7949461936950684,-3.784186363220215,-1.2214584350585938
1759304786912994300,0.813994384765625,1.9411630630493164,-3.2290093898773193,-2.212195873260498
1759304786923060000,0.82406005859375,2.2783374786376953,-2.4673125743865967,-2.685858726501465
1759304786933100000,0.83410009765625,2.009979724884033,-1.7230470180511475,-2.3640260696411133
1759304786943140400,0.844140380859375,1.8298678398132324,-1.675297498703003,-2.1296920776367188
1759304786953179600,0.8541796875,2.687476634979248,-1.5562900304794312,-2.34238338470459
1759304786963196400,0.864196533203125,3.5881786346435547,-1.0970640182495117,-2.517483711242676
1759304786973260800,0.8742607421875,3.729780673980713,-0.9620795249938965,-2.729341506958008
1759304786983301400,0.88430126953125,4.054348945617676,-1.1920666694641113,-3.2346229553222656
1759304786993342000,0.894342041015625,4.621399879455566,-1.0604019165039062,-4.633234024047852
1759304787003381000,0.904381103515625,5.724150657653809,0.18885087966918945,-6.486624717712402
1759304787013421600,0.914421630859375,6.805403709411621,1.7037720680236816,-7.991815567016602
1759304787023461600,0.924461669921875,7.138973236083984,2.8012216091156006,-8.897394180297852
1759304787033503200,0.934503173828125,6.450626373291016,4.049893379211426,-10.20252799987793
1759304787043544600,0.944544677734375,5.245560646057129,5.7323317527771,-11.034523963928223
1759304787053561600,0.9545615234375,4.309967994689941,7.354330062866211,-10.623682975769043
1759304787063628800,0.96462890625,3.170976400375366,7.332781791687012,-10.850337982177734
1759304787073646000,0.97464599609375,1.2137551307678223,6.973980903625488,-10.719428062438965
1759304787083705600,0.98470556640625,-6.326028823852539,7.548482894897461,-9.822450637817383
1759304787093742600,0.99474267578125,-19.996278762817383,9.695582389831543,-9.065876007080078
1759304787103784700,1.00478466796875,-16.79918098449707,7.319269180297852,-8.014188766479492
1759304787113825000,1.014824951171875,-2.1399314403533936,2.593158721923828,-2.430589199066162
1759304787123863800,1.02486376953125,2.2704224586486816,2.5417611598968506,-1.2439932823181152
1759304787133905200,1.0349052734375,-2.329972267150879,2.468186855316162,-1.55784273147583
1759304787143945500,1.044945556640625,-7.09745979309082,2.7918500900268555,-0.7809386253356934
1759304787153985500,1.054985595703125,-6.432185649871826,3.851356267929077,-0.15029668807983398
1759304787164008000,1.065008056640625,-3.8045897483825684,4.061802387237549,-0.7002291679382324
1759304787174066000,1.07506591796875,-1.4298174381256104,3.801474094390869,-1.146535873413086
1759304787184106500,1.0851064453125,0.5592019557952881,3.5613276958465576,-1.318662166595459
1759304787194145300,1.095145263671875,2.3316826820373535,3.4282822608947754,-1.4301447868347168
1759304787204164000,1.1051640625,4.839733123779297,-2.480555534362793,3.3273825645446777
1759304787214226700,1.115226806640625,7.664120674133301,-6.1798415184021,10.744699478149414
1759304787224266800,1.125266845703125,0.1533403992652893,6.496824264526367,-0.8462324142456055
1759304787234308400,1.135308349609375,-1.7578420639038086,4.896141052246094,-3.036396026611328
1759304787244331500,1.14533154296875,1.0966452360153198,4.124906063079834,-2.68381929397583
1759304787254388000,1.155387939453125,2.8144352436065674,1.4419012069702148,-2.06744384765625
1759304787274467300,1.17546728515625,4.174107074737549,-2.387739658355713,-0.43009424209594727
1759304787284509700,1.185509765625,2.4134440422058105,-2.6348228454589844,0.7692618370056152
1759304787294547700,1.195547607421875,0.8481703400611877,-2.3994150161743164,0.6279187202453613
1759304787304564000,1.20556396484375,0.240756556391716,-2.6324009895324707,0.16747379302978516
1759304787314629600,1.215629638671875,-0.23934292793273926,-3.046938896179199,-0.4465465545654297
1759304787324648000,1.22564794921875,0.013024568557739258,-2.9225735664367676,-1.0067739486694336
1759304787334736400,1.235736328125,0.317764014005661,-3.0683345794677734,-1.0754709243774414
1759304787344748800,1.245748779296875,0.6906230449676514,-3.06699800491333,-1.7066259384155273
1759304787354788600,1.25578857421875,1.4865998029708862,-2.182826042175293,-2.6427698135375977
1759304787364805400,1.265805419921875,1.0297566652297974,-3.7359189987182617,-1.8285751342773438
1759304787374871300,1.275871337890625,0.980109453201294,-4.154223918914795,-0.5086603164672852
1759304787384911000,1.2859111328125,1.1834635734558105,-4.459427833557129,0.8623261451721191
1759304787394953000,1.295952880859375,0.5171303153038025,-3.3454995155334473,0.9856557846069336
1759304787404993000,1.305992919921875,-0.15186774730682373,-0.5231804847717285,0.30357789993286133
1759304787415033300,1.316033447265625,0.043054938316345215,-0.15627717971801758,0.12676382064819336
1759304787425047800,1.3260478515625,0.5578330755233765,-0.43893003463745117,0.2747812271118164
1759304787435113000,1.336113037109375,0.7600818872451782,-0.7668910026550293,0.6015186309814453
1759304787445150200,1.346150146484375,0.8635324239730835,-1.1179137229919434,0.370729923248291
1759304787455194600,1.356194580078125,1.0641436576843262,-1.3470687866210938,0.29691219329833984
1759304787465232100,1.366232177734375,1.2996883392333984,-1.4822144508361816,0.11399364471435547
1759304787475272200,1.376272216796875,1.6152395009994507,-2.013124942779541,-0.023812294006347656
1759304787485313500,1.3863134765625,1.9213051795959473,-1.974355697631836,0.13056659698486328
1759304787495329300,1.396329345703125,2.033235549926758,-1.5275492668151855,0.2982978820800781
1759304787505393700,1.4063935546875,1.7928509712219238,-1.1998891830444336,0.38083982467651367
1759304787515434000,1.41643408203125,1.3366515636444092,-1.2450342178344727,0.1691722869873047
1759304787525474300,1.426474365234375,1.2781811952590942,-1.0966053009033203,0.11729717254638672
1759304787535545000,1.436545166015625,0.9110552072525024,-0.40404653549194336,0.061980247497558594
1759304787545555000,1.446554931640625,0.7031729221343994,0.3826117515563965,0.23763465881347656
1759304787555595500,1.456595458984375,0.012445390224456787,0.7982053756713867,0.30780935287475586
1759304787565635800,1.4666357421875,-0.6547895669937134,0.23763084411621094,0.2543210983276367
1759304787575652000,1.476652099609375,-0.64278644323349,-0.09766197204589844,0.24207305908203125
1759304787585717500,1.486717529296875,-0.3070467710494995,-0.045383453369140625,-0.13137054443359375
1759304787595733200,1.496733154296875,-0.28731805086135864,0.3262190818786621,-0.4532308578491211
1759304787605797400,1.50679736328125,1.552211046218872,0.7612342834472656,-1.203263282775879
1759304787615835000,1.5168349609375,0.2563515901565552,1.1750431060791016,-1.6330089569091797
1759304787625877200,1.526877197265625,-1.3227688074111938,0.8583993911743164,-1.4448280334472656
1759304787635892000,1.53689208984375,0.653640866279602,-2.0100979804992676,4.502800464630127
1759304787645931800,1.546931884765625,-0.47829219698905945,0.24480247497558594,-0.9463062286376953
1759304787655997000,1.556996826171875,-1.8844128847122192,0.002026081085205078,-0.5303077697753906
1759304787666038000,1.5670380859375,-0.788223922252655,0.4125361442565918,-0.8071746826171875
1759304787676078600,1.57707861328125,0.7715393304824829,0.5179669857025146,-1.3929834365844727
1759304787686101500,1.5871015625,1.0027142763137817,0.4979541301727295,-1.7754182815551758
1759304787696132900,1.5971328125,-0.6064854860305786,0.9685494899749756,-3.672654151916504
1759304787706198800,1.60719873046875,-2.25612211227417,2.0364933013916016,-5.667469024658203
1759304787716215600,1.617215576171875,-2.8756933212280273,1.6626243591308594,-6.4221086502075195
1759304787726278400,1.6272783203125,-1.3568549156188965,-0.0024993419647216797,-4.416679382324219
1759304787736319000,1.637319091796875,1.5428537130355835,0.3002328872680664,-1.3747196197509766
1759304787746335700,1.647335693359375,2.566835880279541,2.265592098236084,1.3245558738708496
1759304787756400000,1.657400146484375,1.2812029123306274,-1.108325719833374,2.0684804916381836
1759304787766416000,1.667415771484375,-0.6843032836914062,-2.7391300201416016,1.1205072402954102
1759304787776480800,1.677480712890625,1.1879386901855469,-2.825443744659424,1.1282157897949219
1759304787786517200,1.687517333984375,2.859999895095825,3.248358964920044,-0.47715187072753906
1759304787796560400,1.697560302734375,1.4168992042541504,5.0273237228393555,-1.2646293640136719
1759304787806600000,1.707599853515625,0.11687421798706055,2.906388998031616,-1.880457878112793
1759304787816604700,1.717604736328125,-0.6647690534591675,1.9295610189437866,-1.3934412002563477
1759304787826665000,1.7276650390625,-1.5698519945144653,2.825226306915283,-0.0870361328125
1759304787836724000,1.737723876953125,-1.0942142009735107,3.1506946086883545,1.4183330535888672
1759304787846762500,1.747762451171875,-0.37789463996887207,1.3625032901763916,2.9247307777404785
1759304787856804400,1.757804443359375,0.36833930015563965,-0.1485358476638794,3.8436923027038574
1759304787866842400,1.76784228515625,1.6277856826782227,0.3753640651702881,4.275661468505859
1759304787876857900,1.77785791015625,2.2444584369659424,2.150618076324463,4.258540153503418
1759304787886922500,1.787922607421875,0.3175477981567383,1.2656581401824951,2.722317695617676
1759304787896953000,1.797953125,1.5260276794433594,1.3337697982788086,2.284048080444336
1759304787907004400,1.80800439453125,2.204540491104126,1.5196536779403687,2.385136604309082
1759304787917043700,1.818043701171875,-1.5624947547912598,-0.3575153350830078,2.8946499824523926
1759304787937100000,1.83810009765625,3.3457255363464355,-1.330920696258545,2.0727291107177734
1759304787947135000,1.848135009765625,3.0895583629608154,-1.3809345960617065,0.7677221298217773
1759304787967235600,1.868235595703125,2.501500368118286,-1.6040337085723877,-0.25568580627441406
1759304787977287200,1.878287109375,2.4944875240325928,-1.1335580348968506,0.16812419891357422
1759304787987306000,1.888305908203125,1.9961602687835693,-0.7347136735916138,0.673161506652832
1759304787997365200,1.898365234375,1.2023663520812988,-0.5469857454299927,1.3432421684265137
1759304788007406300,1.90840625,0.532353401184082,-0.3372361660003662,1.996333122253418
1759304788017423600,1.918423583984375,0.40632200241088867,-0.029397249221801758,2.031533718109131
1759304788027487700,1.92848779296875,0.7649414539337158,0.5349690914154053,1.2049155235290527
1759304788037514000,1.938513916015625,0.8873429298400879,0.7253633737564087,0.6280879974365234
1759304788047567000,1.948567138671875,1.1814558506011963,0.5782884359359741,0.14054393768310547
1759304788057613600,1.958613525390625,1.3798699378967285,0.439916729927063,-0.4354238510131836
1759304788067615500,1.968615478515625,1.4164056777954102,0.10880899429321289,-0.4480323791503906
1759304788077688000,1.97868798828125,1.3875327110290527,-0.21051526069641113,-0.20299053192138672
1759304788087703300,1.988703369140625,1.3142814636230469,-0.3801090717315674,-0.12208080291748047
1759304788097768000,1.998767822265625,1.2062015533447266,-0.5751211643218994,0.15030384063720703
1759304788107808300,2.008808349609375,1.0569000244140625,-0.695643424987793,0.5989518165588379
1759304788117823500,2.018823486328125,0.8384537696838379,-0.5426440238952637,0.6606841087341309
1759304788127889400,2.028889404296875,0.8193120956420898,-0.34681248664855957,0.6425313949584961
1759304788137921000,2.038921142578125,0.607872486114502,-0.33037829399108887,0.8385400772094727
1759304788147970000,2.048969970703125,0.624000072479248,-0.39067578315734863,1.099165916442871
1759304788158009300,2.05900927734375,0.5727319717407227,-0.4112284183502197,1.215165615081787
1759304788178091800,2.079091796875,0.5570845603942871,-0.46130800247192383,1.0534844398498535
1759304788188105700,2.089105712890625,0.42107534408569336,-0.6740386486053467,1.4744906425476074
1759304788198169600,2.099169677734375,0.539947509765625,-0.6998605728149414,1.615849494934082
1759304788208211200,2.109211181640625,0.3918924331665039,-0.2596445083618164,1.0613059997558594
1759304788218275800,2.11927587890625,0.3016815185546875,0.21364784240722656,0.5414214134216309
1759304788238310700,2.139310546875,0.24532604217529297,0.8202013969421387,-0.7521905899047852
1759304788248371700,2.149371826171875,-0.05554342269897461,1.1934027671813965,-0.8501176834106445
1759304788258412500,2.15941259765625,-0.2642641067504883,1.2732234001159668,-0.642542839050293
1759304788268427800,2.169427734375,-0.3740122318267822,1.268813967704773,-0.5833606719970703
1759304788278491100,2.1794912109375,-0.3312106132507324,1.25538969039917,-0.372802734375
1759304788288507600,2.189507568359375,-0.31235218048095703,0.9883486032485962,-0.057403564453125
1759304788298572500,2.199572509765625,-0.23076772689819336,0.5645354986190796,0.506446361541748
1759304788308615400,2.209615478515625,-0.031819820404052734,0.32440185546875,1.0215482711791992
1759304788318643000,2.219642822265625,0.13628864288330078,0.17092370986938477,1.5345768928527832
1759304788328679200,2.22967919921875,0.21869516372680664,-0.07340312004089355,2.317753314971924
1759304788338709200,2.239709228515625,0.3390383720397949,-0.560905933380127,3.4979357719421387
1759304788348758800,2.2497587890625,0.4667668342590332,-1.0165221691131592,4.317102909088135
1759304788358805200,2.25980517578125,0.8161201477050781,-0.9411613941192627,4.297799587249756
1759304788368854800,2.269854736328125,1.0184478759765625,-0.15975499153137207,3.5058469772338867
1759304788378893300,2.279893310546875,0.5312178134918213,1.0037133693695068,2.5929832458496094
1759304788388935400,2.289935302734375,0.16191411018371582,1.9196418523788452,1.9836702346801758
1759304788398976800,2.299976806640625,0.22183632850646973,2.609327554702759,1.1590056419372559
1759304788409010200,2.31001025390625,-0.14553618431091309,3.3170413970947266,-0.04717063903808594
1759304788419055400,2.320055419921875,-3.716586112976074,3.9428768157958984,-2.4134531021118164
1759304788429098000,2.330097900390625,-7.516069412231445,4.275651931762695,-5.32673454284668
1759304788439112000,2.34011181640625,-6.562924385070801,3.6610679626464844,-5.378984451293945
1759304788459205000,2.360205078125,-0.9480417966842651,4.575342178344727,-2.110133171081543
1759304788469228300,2.370228271484375,-1.3928322792053223,3.9799797534942627,-1.355234146118164
1759304788499379700,2.400379638671875,-2.036862373352051,3.8309543132781982,0.7087574005126953
1759304788509393700,2.4103935546875,2.7719221115112305,2.736745834350586,-0.06332015991210938
1759304788519459600,2.42045947265625,4.488415718078613,1.0282032489776611,-1.7625675201416016
1759304788539515100,2.44051513671875,4.316098213195801,-1.1413278579711914,-1.510239601135254
1759304788559595000,2.460594970703125,1.757896065711975,-0.009693145751953125,-2.040135383605957
1759304788579688200,2.480688232421875,2.1439623832702637,-1.0625042915344238,-1.1790695190429688
1759304788599790800,2.500790771484375,1.2537907361984253,2.153172016143799,2.1944661140441895
1759304788609810400,2.510810546875,0.027825593948364258,-0.645197868347168,2.751173973083496
1759304788619837200,2.520837158203125,0.47747862339019775,-2.690507411956787,4.426787376403809
1759304788629866200,2.5308662109375,2.9112110137939453,-3.9002490043640137,5.382819175720215
1759304788639929000,2.54092919921875,-1.7521852254867554,-6.542473316192627,5.196507453918457
1759304788649968400,2.550968505859375,5.4468183517456055,-9.337535858154297,-3.6684141159057617
1759304788660022000,2.56102197265625,1.5604335069656372,-9.741065979003906,-6.5224385261535645
1759304788670063400,2.5710634765625,0.40825796127319336,-9.738868713378906,-5.093410015106201
1759304788680103200,2.581103271484375,1.1115630865097046,-7.171773910522461,-4.116338729858398
1759304788690118400,2.591118408203125,2.0630300045013428,-1.213362693786621,-2.5478768348693848
1759304788700183000,2.60118310546875,0.4381057024002075,1.64215087890625,-0.5233850479125977
1759304788710223600,2.6112236328125,-0.5423139333724976,2.6477854251861572,0.4171714782714844
1759304788720256800,2.6212568359375,0.3946516513824463,2.2950282096862793,0.12733840942382812
1759304788740319700,2.64131982421875,-0.29241442680358887,-1.016554832458496,0.4113593101501465
1759304788770464800,2.67146484375,-1.9959540367126465,-2.1852283477783203,0.9762248992919922
1759304788780505900,2.681505859375,1.235452651977539,-0.9753999710083008,0.41514158248901367
1759304788790546200,2.691546142578125,0.3779425621032715,1.5806994438171387,0.28609657287597656
1759304788800585500,2.70158544921875,0.8246541023254395,1.676231861114502,0.17412471771240234
1759304788810626300,2.711626220703125,2.8985164165496826,1.345757007598877,-1.0327568054199219
1759304788820665900,2.721665771484375,1.1923251152038574,1.3545074462890625,-1.2616353034973145
1759304788830706000,2.731705810546875,0.864060640335083,0.04625415802001953,-0.28539609909057617
1759304788840749000,2.7417490234375,1.4141414165496826,-0.7633142471313477,0.24379920959472656
1759304788850786300,2.751786376953125,1.8971734046936035,-0.1902022361755371,0.19676637649536133
1759304788860827100,2.7618271484375,1.5870404243469238,1.8717317581176758,-0.501213550567627
1759304788870867500,2.771867431640625,0.9959220886230469,2.4622130393981934,0.9078760147094727
1759304788880908000,2.781907958984375,-0.49201488494873047,3.932389259338379,1.672123908996582
1759304788890922500,2.791922607421875,-2.02046537399292,5.870229244232178,3.458037853240967
1759304788900988700,2.80198876953125,1.3804844617843628,4.056295871734619,3.047856092453003
1759304788911028500,2.812028564453125,0.9751378297805786,3.8343160152435303,1.8070735931396484
1759304788921070600,2.822070556640625,-1.3237133026123047,3.2103047370910645,0.5608329772949219
1759304788931115800,2.83211572265625,-0.6086728572845459,2.683021068572998,-0.3988175392150879
1759304788941154800,2.84215478515625,-0.3168596029281616,2.350294589996338,-0.13107967376708984
1759304788951190800,2.852190673828125,-1.0874912738800049,2.8455276489257812,0.7425918579101562
1759304788961229600,2.8622294921875,0.3435516357421875,1.1062979698181152,0.8482804298400879
1759304788971270400,2.8722705078125,2.770402431488037,-2.533717632293701,1.2770686149597168
1759304788981315300,2.8823154296875,2.722750425338745,-4.957179069519043,1.210371494293213
1759304788991357200,2.892357177734375,1.513587236404419,-6.299765110015869,1.7394006252288818
1759304789001389600,2.9023896484375,1.6515496969223022,-6.857708930969238,1.7587146759033203
1759304789011431400,2.912431396484375,-0.18499648571014404,-5.273323059082031,3.084503173828125
1759304789021471700,2.9224716796875,-2.9230780601501465,-1.2811384201049805,4.184928894042969
1759304789031510500,2.932510498046875,-0.06475234031677246,2.979743003845215,4.0254387855529785
1759304789041552000,2.9425517578125,3.3291068077087402,7.102359294891357,2.8163371086120605
1759304789051592200,2.95259228515625,0.8130072355270386,9.024222373962402,0.9329056739807129
1759304789061632500,2.962632568359375,3.352747917175293,8.2889986038208,-0.06970643997192383
1759304789071671300,2.97267138671875,2.044178009033203,7.209073543548584,0.005869150161743164
1759304789081712600,2.982712646484375,-0.02043771743774414,4.216878414154053,-0.3915008306503296
1759304789091752700,2.992752685546875,-0.872673749923706,0.4824562072753906,0.27720046043395996
1759304789101792500,3.00279248046875,-0.15483468770980835,-0.01891803741455078,-0.31340962648391724
1759304789111834600,3.012834716796875,-0.139828160405159,-0.6745729446411133,-2.032235622406006
1759304789121875500,3.02287548828125,1.3289859294891357,-3.418079376220703,-2.053169012069702
1759304789131914200,3.032914306640625,1.2793457508087158,-6.603492736816406,-2.0563459396362305
1759304789141954800,3.042954833984375,-3.0677449703216553,-16.31961441040039,0.09089314937591553
1759304789151993900,3.052993896484375,0.6552602052688599,-16.171188354492188,1.2957895994186401
1759304789162034400,3.063034423828125,0.8706380724906921,-10.188505172729492,-0.04034829139709473
1759304789172074800,3.07307470703125,-0.30546075105667114,-5.265973091125488,-1.3363986015319824
1759304789182115600,3.083115478515625,-0.2970559597015381,-2.0579328536987305,-1.3381904363632202
1759304789192155000,3.09315478515625,0.2563507854938507,0.45246410369873047,-0.19124019145965576
1759304789202195500,3.103195556640625,0.15725469589233398,0.9129180908203125,1.6251740455627441
1759304789212236800,3.11323681640625,-0.6118946075439453,-0.6853342056274414,1.7928977012634277
1759304789222275300,3.123275390625,0.06001174449920654,-1.1263580322265625,0.4963080883026123
1759304789232316000,3.13331591796875,-0.29794856905937195,-1.7106761932373047,-0.5546802282333374
1759304789242357200,3.143357177734375,-0.32100585103034973,-2.153942108154297,-1.0783147811889648
1759304789252398000,3.153398193359375,0.6892316937446594,-1.2924566268920898,-2.064237356185913
1759304789262436900,3.163436767578125,0.08114194869995117,0.834620475769043,-2.7411301136016846
1759304789272477400,3.1734775390625,-0.09452997148036957,1.9513821601867676,-1.6826010942459106
1759304789282517200,3.183517333984375,0.18179385364055634,1.6786832809448242,0.13917922973632812
1759304789292557600,3.1935576171875,0.25594455003738403,1.0422706604003906,1.3314355611801147
1759304789302599200,3.20359912109375,-0.05933636426925659,0.5746908187866211,1.3402535915374756
1759304789312637700,3.2136376953125,-0.09807610511779785,0.42371273040771484,0.7144579887390137
1759304789322679600,3.223679443359375,0.3344215154647827,0.059021949768066406,0.12453830242156982
1759304789332719900,3.233719970703125,0.5409033298492432,-0.6142311096191406,-0.21431660652160645
1759304789342759000,3.243759033203125,0.4761098623275757,-0.7115535736083984,-0.5781707763671875
1759304789352798500,3.253798583984375,0.4712163805961609,-0.3982124328613281,-0.710321307182312
1759304789362841000,3.263841064453125,0.5800024271011353,-0.1878070831298828,-0.47968530654907227
1759304789372880100,3.273880126953125,0.6543402075767517,-0.09662055969238281,-0.20521914958953857
1759304789382918700,3.283918701171875,0.5849326252937317,0.21061992645263672,-0.2075808048248291
1759304789392962000,3.293962158203125,0.46754658222198486,-0.16298294067382812,0.08744621276855469
1759304789402976000,3.30397607421875,0.3306099772453308,-0.05903434753417969,0.04039144515991211
1759304789413016300,3.314016357421875,0.3243442177772522,-0.04648017883300781,0.03739511966705322
1759304789423057000,3.324056884765625,0.11665749549865723,0.20317459106445312,-0.06609106063842773
1759304789433097700,3.33409765625,0.2169574648141861,0.08272838592529297,-0.015708088874816895
1759304789443163400,3.344163330078125,0.36066746711730957,-0.0016155242919921875,-0.043051958084106445
1759304789453201200,3.354201171875,0.43750590085983276,-0.057045936584472656,-0.0995793342590332
1759304789463242800,3.36424267578125,0.4833671450614929,-0.038331031799316406,-0.17216062545776367
1759304789473282800,3.37428271484375,0.4672083258628845,-0.004096031188964844,-0.22523999214172363
1759304789483321000,3.384321044921875,0.4548455476760864,0.010942459106445312,-0.2581310272216797
1759304789493363700,3.39436376953125,0.45107483863830566,0.0280914306640625,-0.23370373249053955
1759304789503403500,3.404403564453125,0.42088237404823303,0.05343055725097656,-0.18082237243652344
1759304789513443300,3.414443359375,0.39702433347702026,0.06916046142578125,-0.14664483070373535
1759304789523483600,3.424483642578125,0.35169926285743713,0.06344318389892578,-0.14424848556518555
1759304789533523500,3.4345234375,0.32205337285995483,0.015806198120117188,-0.14889836311340332
1759304789543564000,3.44456396484375,0.30550241470336914,-0.025887489318847656,-0.16464483737945557
1759304789553605600,3.454605712890625,0.30130037665367126,-0.05575752258300781,-0.14451026916503906
1759304789563645200,3.464645263671875,0.28232792019844055,-0.04029560089111328,-0.11792755126953125
1759304789573684500,3.4746845703125,0.2678226828575134,0.006344795227050781,-0.10994231700897217
1759304789583724000,3.48472412109375,0.23159360885620117,0.04702949523925781,-0.10686182975769043
1759304789593765400,3.494765380859375,0.2400514781475067,0.09127235412597656,-0.13078546524047852
1759304789603805400,3.504805419921875,0.27623000741004944,0.08766460418701172,-0.16777873039245605
1759304789613845500,3.514845458984375,0.2366267740726471,0.056591033935546875,-0.2076413631439209
1759304789623886800,3.524886962890625,0.1533115804195404,0.018425941467285156,-0.2705502510070801
1759304789633925400,3.53492529296875,0.13073840737342834,-0.033989906311035156,-0.38677096366882324
1759304789643968000,3.544968017578125,0.128767728805542,-0.0889434814453125,-0.48411619663238525
1759304789654005200,3.555005126953125,0.14107760787010193,-0.13099098205566406,-0.5237488746643066
1759304789664046000,3.565046142578125,0.12899261713027954,-0.14573192596435547,-0.4967365264892578
1759304789674088000,3.575087890625,0.061239615082740784,-0.12831974029541016,-0.41133737564086914
1759304789684128500,3.58512841796875,0.017735615372657776,-0.09410572052001953,-0.3412102460861206
1759304789694166300,3.595166259765625,-0.0009253472089767456,-0.06106853485107422,-0.2844797372817993
1759304789704208600,3.605208740234375,-0.007050573825836182,-0.056488990783691406,-0.28324854373931885
1759304789714250000,3.61525,0.032424986362457275,-0.06239604949951172,-0.3396437168121338
1759304789724287000,3.625286865234375,0.08792190253734589,-0.07787322998046875,-0.39832448959350586
1759304789734328000,3.635328125,0.1190081462264061,-0.06348705291748047,-0.42494869232177734
1759304789744367600,3.64536767578125,0.10994185507297516,-0.0635538101196289,-0.38634705543518066
1759304789754408400,3.655408447265625,0.12845486402511597,-0.06697654724121094,-0.3843681812286377
1759304789764449500,3.665449462890625,0.1762225329875946,-0.08236980438232422,-0.370347261428833
1759304789774488300,3.67548828125,0.15817637741565704,-0.11341571807861328,-0.2985790967941284
1759304789784529400,3.685529296875,0.13456550240516663,-0.0786590576171875,-0.2464665174484253
1759304789794571800,3.69557177734375,0.18962030112743378,-0.022294998168945312,-0.2386302947998047
1759304789804610300,3.7056103515625,0.264143168926239,-0.007822036743164062,-0.21322333812713623
1759304789814649900,3.71564990234375,0.33193516731262207,-0.02794933319091797,-0.18423426151275635
1759304789824689400,3.725689453125,0.37226003408432007,-0.06573963165283203,-0.18101418018341064
1759304789834730500,3.73573046875,0.41132062673568726,-0.07115650177001953,-0.19023990631103516
1759304789844772600,3.745772705078125,0.43636554479599,-0.06699085235595703,-0.18945050239562988
1759304789854812400,3.7558125,0.4815129339694977,-0.0677175521850586,-0.15740728378295898
1759304789864851000,3.765850830078125,0.5041903257369995,-0.07192707061767578,-0.12491083145141602
1759304789874890200,3.77589013671875,0.5589490532875061,-0.0663595199584961,-0.07165837287902832
1759304789884932000,3.78593212890625,0.6554638147354126,-0.06087684631347656,-0.04533696174621582
1759304789894972000,3.795971923828125,0.7691173553466797,-0.004893302917480469,-0.054451704025268555
1759304789905013800,3.806013671875,0.7838842272758484,0.00586700439453125,-0.021521449089050293
1759304789915053000,3.816052978515625,0.6949188113212585,-0.05955219268798828,0.05140793323516846
1759304789925092900,3.8260927734375,0.48073965311050415,-0.2543020248413086,0.0485607385635376
1759304789935133700,3.8361337890625,0.21736565232276917,-0.3943910598754883,-0.12080597877502441
1759304789945172700,3.8461728515625,0.7743687629699707,-0.3372936248779297,-0.06203579902648926
1759304789955213000,3.856213134765625,0.8066556453704834,-0.30340099334716797,0.03919804096221924
1759304789965255000,3.8662548828125,0.9466651678085327,-0.1609182357788086,0.24136757850646973
1759304789975294500,3.87629443359375,1.1542935371398926,-0.02935314178466797,0.4708446264266968
1759304789985336800,3.8863369140625,1.3955134153366089,0.056733131408691406,0.6324013471603394
1759304789995375600,3.896375732421875,0.9147441387176514,0.6201772689819336,0.6277070045471191
1759304790005417000,3.9064169921875,3.488081932067871,4.07941198348999,-5.393883228302002
1759304790015455200,3.916455322265625,-0.8300834894180298,-1.9829864501953125,4.009532928466797
1759304790025494300,3.926494384765625,0.9318341016769409,0.1745443344116211,0.870958685874939
1759304790035535400,3.936535400390625,-0.06154468655586243,-0.6591739654541016,3.7999329566955566
1759304790045577700,3.94657763671875,-0.8265478610992432,1.3390169143676758,1.9270395040512085
1759304790055616800,3.95661669921875,0.7601519227027893,1.6374578475952148,-0.4853482246398926
1759304790065655000,3.966655029296875,1.2121968269348145,0.8295040130615234,-1.9681991338729858
1759304790075698000,3.976697998046875,0.43227633833885193,0.1190195083618164,-2.2649874687194824
1759304790085735700,3.986735595703125,0.05995023250579834,-0.43033695220947266,-1.9965966939926147
1759304790095776300,3.9967763671875,-0.39100587368011475,-0.6640892028808594,-1.6631412506103516
1759304790105817600,4.006817626953125,-0.9417392611503601,-0.5805301666259766,-1.2976902723312378
1759304790115857200,4.016857177734375,-0.5880800485610962,-0.14272212982177734,-0.8635032773017883
1759304790125897000,4.02689697265625,-0.8420263528823853,0.044968605041503906,-0.4238054156303406
1759304790135939300,4.036939208984375,-1.2554025650024414,0.1920757293701172,-0.04522216320037842
1759304790145977000,4.04697705078125,-0.6132655143737793,0.3169527053833008,0.07023847103118896
1759304790156021000,4.05702099609375,-0.24241864681243896,0.33968353271484375,-0.2058931589126587
1759304790166057200,4.06705712890625,0.07183539867401123,0.40552520751953125,-0.5894491672515869
1759304790176098800,4.077098876953125,-0.1378551721572876,0.3450965881347656,-0.866450309753418
1759304790186138000,4.08713818359375,-0.5964810848236084,0.2054147720336914,-0.9053083658218384
1759304790196179000,4.097178955078125,-1.0994579792022705,-0.011849403381347656,-0.7071957588195801
1759304790206219800,4.1072197265625,-1.1892895698547363,-0.21970844268798828,-0.5711310505867004
1759304790216259600,4.117259521484375,-1.0037107467651367,-0.40233325958251953,-0.5152263641357422
1759304790226300200,4.127300048828125,-0.70658278465271,-0.4955472946166992,-0.4908720850944519
1759304790236341000,4.137341064453125,-0.6219778060913086,-0.3711833953857422,-0.42383110523223877
1759304790246380800,4.147380859375,-0.8053021430969238,-0.1915903091430664,-0.15087366104125977
1759304790256422000,4.157421875,-1.19111967086792,0.04252815246582031,-0.04323768615722656
1759304790266460400,4.16746044921875,-1.3187131881713867,0.1271371841430664,-0.07814669609069824
1759304790276502300,4.177502197265625,-1.064168930053711,0.036238670349121094,-0.3369064927101135
1759304790286541600,4.18754150390625,-0.7787985801696777,-0.13394546508789062,-0.49185407161712646
1759304790296583400,4.19758349609375,-1.7475550174713135,0.2188129425048828,-0.3120700716972351
1759304790306623000,4.207623046875,-12.41563892364502,1.4554109573364258,4.107067108154297
1759304790316661200,4.2176611328125,4.374056339263916,-1.1716222763061523,1.069123387336731
1759304790326704000,4.2277041015625,4.9367547035217285,-1.6783742904663086,-2.4527645111083984
1759304790336742400,4.237742431640625,0.04319024085998535,-1.8806915283203125,-4.573000907897949
1759304790346784300,4.2477841796875,0.3562653064727783,-2.4190187454223633,-4.306954383850098
1759304790356824300,4.25782421875,-0.23101115226745605,-0.9937009811401367,-2.909453868865967
1759304790366865400,4.267865478515625,0.11180973052978516,-0.0023412704467773438,-1.2228093147277832
1759304790376904200,4.277904296875,0.23708486557006836,1.0305442810058594,0.11826777458190918
1759304790386944000,4.287944091796875,-0.3017914295196533,1.688230037689209,1.0753484964370728
1759304790396983800,4.29798388671875,-0.6713950634002686,2.2164978981018066,1.5923116207122803
1759304790407024400,4.3080244140625,-1.0805988311767578,2.2606453895568848,1.5302773714065552
1759304790417065000,4.31806494140625,-0.927833080291748,1.7195258140563965,0.9078292846679688
1759304790427104800,4.328104736328125,-0.558784008026123,1.0246381759643555,0.10079121589660645
1759304790437160000,4.338159912109375,-0.3760087490081787,0.28775501251220703,-0.5206298828125
1759304790447187000,4.34818701171875,-0.3281404972076416,-0.36399078369140625,-0.7883007526397705
1759304790457227000,4.35822705078125,-0.5123331546783447,-0.7835311889648438,-0.6938611268997192
1759304790467264800,4.3682646484375,-0.5590717792510986,-0.9287605285644531,-0.1772056221961975
1759304790477309000,4.378308837890625,-0.5344462394714355,-0.4644298553466797,-0.0035539865493774414
1759304790487320600,4.388320556640625,-0.30739879608154297,-0.051788330078125,0.06562638282775879
1759304790497387000,4.398386962890625,-0.031131267547607422,0.1756124496459961,0.2732126712799072
1759304790507428600,4.4084287109375,0.1541609764099121,0.47226619720458984,-0.3429328203201294
1759304790517468000,4.418468017578125,0.4250814914703369,0.4617328643798828,-0.7179722189903259
1759304790527508200,4.42850830078125,0.2832663059234619,0.2026538848876953,-0.6550605893135071
1759304790537524000,4.43852392578125,0.10415816307067871,0.05075359344482422,-0.7720046043395996
1759304790547588400,4.44858837890625,0.16823124885559082,-0.2164630889892578,-0.863543689250946
1759304790557630500,4.45863037109375,0.39443373680114746,-0.4811859130859375,-0.769076943397522
1759304790567667200,4.468667236328125,0.5838756561279297,-0.45473384857177734,-0.6694747805595398
1759304790577708000,4.4787080078125,0.556549072265625,-0.2339334487915039,-0.6332225203514099
1759304790587750000,4.48875,0.5505692958831787,0.030328750610351562,-0.8088841438293457
1759304790597791500,4.49879150390625,0.5641833543777466,0.02609539031982422,-0.6925651431083679
1759304790607830500,4.50883056640625,0.49770331382751465,-0.06319999694824219,-0.29801082611083984
1759304790617864400,4.518864501953125,0.24323368072509766,-0.062315940856933594,0.38117480278015137
1759304790627910000,4.528909912109375,0.17781591415405273,0.3047828674316406,0.951591968536377
1759304790637951000,4.538950927734375,0.6143168210983276,0.7397842407226562,0.6891552805900574
1759304790647991600,4.548991455078125,1.0850878953933716,0.7046527862548828,0.22981464862823486
1759304790658031000,4.559031005859375,0.8489913940429688,0.5558404922485352,0.14826083183288574
1759304790668072000,4.569072021484375,0.35215115547180176,0.600834846496582,0.315474271774292
1759304790678110500,4.5791103515625,0.22064781188964844,0.7835912704467773,0.42116761207580566
1759304790688153600,4.589153564453125,0.32334256172180176,1.0396242141723633,0.1739896535873413
1759304790698190800,4.59919091796875,0.5857455730438232,1.1829347610473633,-0.2442668080329895
1759304790708231200,4.609231201171875,0.870927095413208,1.1321516036987305,-0.5670946836471558
1759304790718273500,4.6192734375,0.9348461627960205,1.022848129272461,-0.7300916314125061
1759304790728314400,4.629314453125,0.7908158302307129,0.8401241302490234,-0.8315532207489014
1759304790738354200,4.639354248046875,1.061877965927124,0.7294654846191406,-0.7194181680679321
1759304790748393500,4.6493935546875,1.5877728462219238,0.6988763809204102,-0.5089268684387207
1759304790758434600,4.6594345703125,1.762275218963623,0.71502685546875,-0.2741578221321106
1759304790768476000,4.669475830078125,1.7184882164001465,0.7395181655883789,-0.1988844871520996
1759304790778515000,4.679514892578125,1.7101585865020752,0.7802333831787109,-0.1183519959449768
1759304790788556000,4.68955615234375,1.7742557525634766,0.8004684448242188,0.09140247106552124
1759304790798595000,4.699594970703125,1.6754555702209473,0.7644252777099609,0.5255759954452515
1759304790808635100,4.70963525390625,0.5355322360992432,0.7706446647644043,1.1378967761993408
1759304790818674200,4.719674072265625,-0.2368464469909668,0.6689419746398926,1.3393349647521973
1759304790828716800,4.729716796875,0.40150976181030273,0.4345121383666992,0.8399830460548401
1759304790838756400,4.73975634765625,1.9828205108642578,0.07352352142333984,0.01420295238494873
1759304790848796400,4.74979638671875,2.040678024291992,-0.26320552825927734,-0.1949605792760849
1759304790858837500,4.75983740234375,0.9357624053955078,-0.3903532028198242,0.31340742111206055
1759304790868878000,4.769878173828125,0.2977104187011719,-0.3445577621459961,0.8123608827590942
1759304790878916400,4.779916259765625,0.8116455078125,-0.2092599868774414,0.9847562313079834
1759304790888959000,4.789958984375,1.4475460052490234,0.022489547729492188,0.823123574256897
1759304790898998300,4.799998291015625,1.1763696670532227,0.09747648239135742,0.48308154940605164
1759304790909037800,4.810037841796875,0.9388413429260254,-0.047430992126464844,-0.13045571744441986
1759304790919076900,4.820076904296875,0.7548460960388184,-0.5354132652282715,-0.52837735414505
1759304790929120300,4.830120361328125,0.8236079216003418,-1.105517864227295,-0.9155677556991577
1759304790939160000,4.84016015625,0.7372536659240723,-1.3850812911987305,-1.079859972000122
1759304790949197300,4.850197265625,0.2051372528076172,-1.3344273567199707,-0.8520804643630981
1759304790959239000,4.860239013671875,-0.20081853866577148,-0.8078222274780273,-0.2985430657863617
1759304790969279700,4.87027978515625,0.109100341796875,-0.006178855895996094,-0.07411269843578339
1759304790979320600,4.880320556640625,0.707890510559082,0.7497291564941406,-0.17827001214027405
1759304790999401500,4.9004013671875,0.6193346977233887,1.7074337005615234,0.048643678426742554
1759304791009440800,4.910440673828125,0.548835277557373,1.9358158111572266,0.051221683621406555
1759304791019480000,4.92047998046875,0.27529335021972656,1.710035800933838,0.06006096303462982
1759304791029519600,4.93051953125,0.1051325798034668,1.0555963516235352,0.12645210325717926
1759304791039560000,4.940559814453125,0.21984195709228516,0.3954353332519531,-0.4204559922218323
1759304791049601800,4.950601806640625,0.4281582832336426,0.010262012481689453,-0.9073015451431274
1759304791059641900,4.960641845703125,0.34651851654052734,0.03716468811035156,-1.2806105613708496
1759304791069680600,4.9706806640625,-0.009644031524658203,0.1444683074951172,-1.3813529014587402
1759304791079721500,4.980721435546875,-0.17615032196044922,0.34033632278442383,-1.1171571016311646
1759304791089747200,4.990747314453125,-0.5349225997924805,0.6099843978881836,-0.882461667060852
1759304791099801900,5.0008017578125,-0.4139852523803711,0.859734058380127,-0.47373390197753906
1759304791109843200,5.01084326171875,-0.1928243637084961,1.253267526626587,-0.13805198669433594
1759304791119883300,5.02088330078125,0.2509183883666992,1.3417637348175049,0.23371994495391846
1759304791129924900,5.0309248046875,-0.33681774139404297,0.9766178131103516,0.6139854192733765
1759304791139963400,5.04096337890625,-0.5992441177368164,0.3155808448791504,0.627764880657196
1759304791150004700,5.051004638671875,-0.35280513763427734,-0.09755802154541016,0.25373420119285583
1759304791160045300,5.06104541015625,-0.09133529663085938,-0.3616766929626465,-0.06314593553543091
1759304791170084900,5.0710849609375,-0.0773773193359375,-0.22854185104370117,0.20391452312469482
1759304791180124400,5.08112451171875,0.16383838653564453,-0.013944625854492188,0.3446102738380432
1759304791190165000,5.0911650390625,0.46412181854248047,0.02993607521057129,0.4833888113498688
1759304791200203800,5.101203857421875,0.47580528259277344,-0.014037847518920898,0.3813888430595398
1759304791210245400,5.111245361328125,0.5456008911132812,-0.08125710487365723,0.7359752655029297
1759304791220285200,5.12128515625,0.2976236343383789,0.12737226486206055,1.4139468669891357
1759304791230326000,5.131325927734375,0.28079795837402344,0.3466360569000244,1.9812262058258057
1759304791240367900,5.141367919921875,0.017945289611816406,0.306027889251709,1.5610060691833496
1759304791250405600,5.151405517578125,-0.40018558502197266,-0.13654422760009766,0.5970534682273865
1759304791260448500,5.161448486328125,-1.8757057189941406,-0.17333340644836426,-0.9462308883666992
1759304791270488800,5.17148876953125,-2.070341110229492,-0.13378405570983887,-2.2147464752197266
1759304791280525800,5.18152587890625,-1.1547784805297852,-0.18011951446533203,-2.1689887046813965
1759304791290567400,5.1915673828125,-0.509552001953125,-0.21605539321899414,-1.6922048330307007
1759304791300607500,5.201607421875,-0.670689582824707,-0.1294417381286621,-1.1024589538574219
1759304791310646300,5.211646240234375,-1.076920509338379,0.06341803073883057,-1.071110725402832
1759304791320686600,5.2216865234375,-0.9951868057250977,0.3811607360839844,-1.016281247138977
1759304791330728400,5.231728515625,-0.6758213043212891,0.7321251034736633,-0.7252396941184998
1759304791340770300,5.241770263671875,-0.29808616638183594,0.882129967212677,-0.6830630302429199
1759304791350810000,5.25181005859375,-0.1297311782836914,1.1359089612960815,-0.628536581993103
1759304791360849400,5.261849365234375,-0.16738128662109375,1.4057267904281616,-0.783436119556427
1759304791370889200,5.27188916015625,-0.6084108352661133,1.523862600326538,-0.8601359724998474
1759304791380930000,5.281929931640625,-0.9547414779663086,1.4367306232452393,-0.844028651714325
1759304791390970600,5.291970703125,-0.9959650039672852,1.627000093460083,-0.8822345733642578
1759304791401009000,5.3020087890625,-0.7651147842407227,1.445127248764038,-1.0397017002105713
1759304791411051800,5.3120517578125,-0.6961145401000977,1.4115171432495117,-0.9256470203399658
1759304791421095700,5.322095703125,-0.817718505859375,1.4748846292495728,-0.8416102528572083
1759304791431131400,5.33213134765625,-0.892364501953125,1.3369554281234741,-0.8911762237548828
1759304791441171200,5.342171142578125,-0.8247642517089844,1.1488945484161377,-1.0011403560638428
1759304791451210800,5.352210693359375,-0.7378330230712891,1.118850588798523,-1.0049669742584229
1759304791461251600,5.36225146484375,-0.6214361190795898,1.1724990606307983,-1.0287097692489624
1759304791471295000,5.372294921875,-0.5821876525878906,1.146307110786438,-1.0476861000061035
1759304791481336300,5.38233642578125,-0.6697120666503906,1.0163400173187256,-1.1024878025054932
1759304791491372000,5.3923720703125,-0.8426427841186523,0.8567824363708496,-1.1426105499267578
1759304791501413400,5.402413330078125,-1.0333061218261719,0.7498801946640015,-1.1661714315414429
1759304791511454000,5.412453857421875,-1.1230926513671875,0.7206057906150818,-1.1041499376296997
1759304791521492500,5.422492431640625,-0.9695310592651367,0.5873222947120667,-1.0513386726379395
1759304791531534000,5.4325341796875,-0.7651090621948242,0.1859702467918396,-0.8756793737411499
1759304791541573000,5.442572998046875,-0.5541820526123047,-0.1248411238193512,-0.6104047298431396
1759304791551613200,5.45261328125,-0.6477718353271484,-0.10601798444986343,-0.292521595954895
1759304791561652700,5.46265283203125,-0.9452610015869141,0.2719418406486511,-0.27780377864837646
1759304791571692300,5.4726923828125,-1.2791013717651367,0.3060459792613983,-0.4160846471786499
1759304791581733400,5.4827333984375,-1.2768659591674805,0.0318477600812912,-0.26200854778289795
1759304791591774000,5.49277392578125,-0.9525365829467773,-0.112320177257061,-0.003059983253479004
1759304791601815000,5.50281494140625,-0.5511093139648438,-0.027389496564865112,0.07304584980010986
1759304791611854800,5.512854736328125,-0.40544986724853516,0.12920203804969788,-0.052828192710876465
1759304791621894700,5.522894775390625,-0.46935367584228516,0.1869036704301834,-0.06983208656311035
1759304791631910000,5.532909912109375,-0.6539802551269531,0.23740750551223755,0.061491966247558594
1759304791641977000,5.54297705078125,-0.8030481338500977,0.1449526995420456,0.2615807056427002
1759304791652016000,5.55301611328125,-0.7052450180053711,0.08108250796794891,0.2892693281173706
1759304791662057000,5.563056884765625,-0.47930145263671875,0.09489250183105469,0.24347597360610962
1759304791672095200,5.57309521484375,-0.03718852996826172,0.15470875799655914,0.14184421300888062
1759304791682137000,5.58313720703125,0.07063674926757812,0.28737127780914307,0.06850552558898926
1759304791692177700,5.593177734375,0.033576011657714844,0.3923305571079254,-0.006736874580383301
1759304791702218500,5.603218505859375,0.06298065185546875,0.4287581443786621,-0.04570746421813965
1759304791712256500,5.613256591796875,0.0204010009765625,0.3608112931251526,-0.042542457580566406
1759304791722296800,5.623296875,0.10147571563720703,0.3216947317123413,-0.09913897514343262
1759304791732340000,5.633340087890625,0.17816543579101562,0.2654873728752136,-0.14722979068756104
1759304791742377200,5.643377197265625,0.21671772003173828,0.2407342791557312,-0.15816664695739746
1759304791752417800,5.653417724609375,0.2576456069946289,0.23757976293563843,-0.1709529161453247
1759304791762459000,5.663458984375,0.29117870330810547,0.16823536157608032,-0.16019666194915771
1759304791772499700,5.673499755859375,0.3605670928955078,0.13144046068191528,-0.16983699798583984
1759304791782537500,5.683537353515625,0.41471385955810547,0.14977362751960754,-0.1665266752243042
1759304791792579600,5.69357958984375,0.41521739959716797,0.1852843165397644,-0.14962291717529297
1759304791802620200,5.7036201171875,0.37827301025390625,0.18930374085903168,-0.16776978969573975
1759304791812660000,5.713659912109375,0.3006248474121094,0.13980700075626373,-0.1698976755142212
1759304791822700000,5.723699951171875,0.19437313079833984,0.11842484772205353,-0.21625101566314697
1759304791832739600,5.733739501953125,0.09869956970214844,0.06451734155416489,-0.3173154592514038
1759304791842782000,5.743781982421875,0.054320335388183594,-0.04027062654495239,-0.3961597681045532
1759304791852820000,5.753820068359375,0.04378795623779297,-0.10790243744850159,-0.41430914402008057
1759304791862861300,5.763861328125,0.09570503234863281,-0.12726370990276337,-0.3808814287185669
1759304791872902000,5.77390185546875,0.022543907165527344,-0.13518615067005157,-0.31168699264526367
1759304791882941400,5.78394140625,0.3554191589355469,-0.18379628658294678,-0.2327415943145752
1759304791892980700,5.793980712890625,0.2014303207397461,0.03273440897464752,-0.3920687437057495
1759304791903021600,5.804021484375,-0.03118419647216797,0.005971536040306091,-0.469079852104187
1759304791913062400,5.8140625,-0.23708820343017578,-0.08379476517438889,-0.5090148448944092
1759304791923104000,5.82410400390625,-0.3778553009033203,-0.22387388348579407,-0.39469611644744873
1759304791933142000,5.83414208984375,-0.26365089416503906,-0.2645597755908966,-0.31690895557403564
1759304791943182600,5.8441826171875,-0.07606124877929688,-0.14082667231559753,-0.3715949058532715
1759304791953222400,5.854222412109375,0.01720714569091797,-0.03471239283680916,-0.4065208435058594
1759304791963262500,5.864262451171875,0.02210712432861328,-0.020237423479557037,-0.3870002031326294
1759304791973304600,5.8743046875,0.05524921417236328,-0.03045126423239708,-0.36875975131988525
1759304791983345400,5.884345458984375,-0.013051986694335938,-0.048720620572566986,-0.3355370759963989
1759304791993383400,5.894383544921875,-0.08495140075683594,-0.08211807906627655,-0.23361635208129883
1759304792003425500,5.904425537109375,-0.1280832290649414,-0.10697807371616364,-0.09133195877075195
1759304792013464800,5.91446484375,-0.17231082916259766,-0.1187770664691925,-0.02067553997039795
1759304792023506000,5.924505859375,-0.1580181121826172,-0.1313195824623108,-0.0051697492599487305
1759304792033545000,5.934544921875,-0.0626535415649414,-0.15958209335803986,-0.038559794425964355
1759304792043585000,5.9445849609375,0.043468475341796875,-0.1650995910167694,-0.11015570163726807
1759304792053625600,5.95462548828125,0.02428913116455078,-0.14247317612171173,-0.19585204124450684
1759304792063665200,5.9646650390625,-0.01754283905029297,-0.1271267533302307,-0.2212768793106079
1759304792073705000,5.974705078125,-0.010379791259765625,-0.11067354679107666,-0.2232135534286499
1759304792083747000,5.9847470703125,0.0326080322265625,-0.09213005006313324,-0.23760652542114258
1759304792093785300,5.994785400390625,0.0732564926147461,-0.07130400836467743,-0.26429617404937744
1759304792103827200,6.0048271484375,0.1127023696899414,-0.055310435593128204,-0.31166863441467285
1759304792113867800,6.01486767578125,0.19994163513183594,-0.046846307814121246,-0.31881487369537354
1759304792123907800,6.024907958984375,0.2466716766357422,-0.06845101714134216,-0.3324599266052246
1759304792133948700,6.03494873046875,0.2153921127319336,-0.11277642846107483,-0.3198392391204834
1759304792143989500,6.044989501953125,0.1722574234008789,-0.15035712718963623,-0.25541412830352783
1759304792154027800,6.05502783203125,0.13160991668701172,-0.1356486976146698,-0.24574899673461914
1759304792164070100,6.065070068359375,0.11626815795898438,-0.07286861538887024,-0.2448875904083252
1759304792174108400,6.0751083984375,0.12601661682128906,-0.045643795281648636,-0.22367334365844727
1759304792184149500,6.0851494140625,0.15258026123046875,-0.021513011306524277,-0.17312920093536377
1759304792194189000,6.09518896484375,0.1814279556274414,-0.008558094501495361,-0.13798820972442627
1759304792204230000,6.10522998046875,0.16373825073242188,0.02425876259803772,-0.13422811031341553
1759304792214269700,6.115269775390625,0.12664318084716797,0.004575733095407486,-0.13270950317382812
1759304792224309500,6.1253095703125,0.11814117431640625,-0.036762457340955734,-0.11598086357116699
1759304792234350300,6.135350341796875,0.12994003295898438,-0.08321243524551392,-0.09721064567565918
1759304792244391700,6.1453916015625,0.07386016845703125,-0.08280418813228607,-0.10176992416381836
1759304792254431200,6.15543115234375,0.036826133728027344,-0.06570876389741898,-0.1455230712890625
1759304792264470800,6.165470703125,-0.020476341247558594,-0.048839420080184937,-0.15903592109680176
1759304792274509600,6.175509521484375,0.058442115783691406,-0.1308751404285431,-0.046898484230041504
1759304792284552400,6.185552490234375,-0.0048770904541015625,-0.2127884030342102,-0.009458303451538086
1759304792294591700,6.195591796875,0.08344554901123047,0.16959841549396515,-0.33439505100250244
1759304792304632300,6.20563232421875,0.006015777587890625,-0.07595627009868622,-0.23636162281036377
1759304792314670800,6.2156708984375,0.03560066223144531,-0.10844208300113678,-0.11607205867767334
1759304792324712700,6.225712646484375,0.047199249267578125,-0.052936308085918427,-0.14248335361480713
1759304792334754600,6.235754638671875,0.05730438232421875,-0.05433803051710129,-0.2133873701095581
1759304792344792000,6.2457919921875,0.010097503662109375,-0.08448651432991028,-0.24106407165527344
1759304792354833200,6.255833251953125,0.02513885498046875,-0.07808524370193481,-0.2354210615158081
1759304792364874800,6.265874755859375,0.05478858947753906,-0.04143037647008896,-0.24686956405639648
1759304792374913800,6.275913818359375,0.048508644104003906,-0.020880088210105896,-0.2453392744064331
1759304792384952800,6.285952880859375,0.04199790954589844,-0.04778628796339035,-0.2558281421661377
1759304792394995200,6.2959951171875,0.04019641876220703,-0.07470560073852539,-0.268343448638916
1759304792405033500,6.306033447265625,0.0061779022216796875,-0.09215705096721649,-0.2985856533050537
1759304792415074600,6.316074462890625,-0.013383865356445312,-0.10753238946199417,-0.2898106575012207
1759304792425113600,6.326113525390625,0.011301040649414062,-0.11836513876914978,-0.2467055320739746
1759304792435154000,6.33615380859375,0.040772438049316406,-0.09405873715877533,-0.2510707378387451
1759304792445195500,6.346195556640625,0.06547737121582031,-0.06384750455617905,-0.2564789056777954
1759304792455234600,6.356234619140625,0.08174419403076172,-0.044419869780540466,-0.2857999801635742
1759304792465276000,6.36627587890625,0.09917068481445312,-0.047863543033599854,-0.29747486114501953
1759304792475315200,6.376315185546875,0.1083211898803711,-0.06716225296258926,-0.28708112239837646
1759304792485356300,6.386356201171875,0.06263351440429688,-0.08183042705059052,-0.27415645122528076
1759304792495398100,6.396398193359375,0.04569721221923828,-0.08261880278587341,-0.24477314949035645
1759304792505435100,6.40643505859375,0.02167224884033203,-0.0634741261601448,-0.23698961734771729
1759304792515476500,6.4164765625,0.025035858154296875,-0.06654156744480133,-0.2018505334854126
1759304792525517000,6.42651708984375,0.08461284637451172,-0.06060067191720009,-0.19090306758880615
1759304792535558000,6.436557861328125,0.07738590240478516,-0.012423019856214523,-0.21803748607635498
1759304792545598700,6.4465986328125,0.04740715026855469,-0.02056795172393322,-0.1978074312210083
1759304792555638500,6.456638427734375,0.012628555297851562,-0.04548778012394905,-0.18149244785308838
1759304792565679900,6.466679931640625,0.028163909912109375,-0.025430774316191673,-0.18479466438293457
1759304792575718100,6.47671826171875,0.06752204895019531,-0.028797321021556854,-0.19589102268218994
1759304792585758500,6.486758544921875,0.11030960083007812,-0.04436013847589493,-0.17373943328857422
1759304792595773700,6.496773681640625,0.0040569305419921875,-0.022889912128448486,-0.20003736019134521
1759304792605814000,6.50681396484375,0.06221961975097656,-0.22444917261600494,-0.11992776393890381
1759304792615853800,6.516853759765625,0.34929847717285156,0.00736159086227417,-0.5880787372589111
1759304792625894700,6.526894775390625,-0.3148050308227539,0.04494018107652664,-0.5903801918029785
1759304792635961900,6.5369619140625,-0.1580333709716797,-0.19766545295715332,-0.22169935703277588
1759304792645999600,6.54699951171875,-0.08545303344726562,-0.14692647755146027,-0.09764277935028076
1759304792656039400,6.557039306640625,-0.0000019073486328125,-0.03848257660865784,-0.16265225410461426
1759304792666080000,6.567080078125,0.04337596893310547,0.01300317794084549,-0.2549232244491577
1759304792676120000,6.5771201171875,0.04723358154296875,0.03131759911775589,-0.3191812038421631
1759304792686160100,6.58716015625,0.11895084381103516,0.055911920964717865,-0.3763390779495239
1759304792696200400,6.597200439453125,0.07490158081054688,0.062060631811618805,-0.4141119718551636
1759304792706241000,6.607240966796875,0.040480613708496094,0.05501088500022888,-0.36698079109191895
1759304792716280300,6.6172802734375,0.04552936553955078,0.03371598571538925,-0.2847839593887329
1759304792726321400,6.6273212890625,0.05779838562011719,0.014947570860385895,-0.21022701263427734
1759304792736361200,6.637361328125,0.14519691467285156,-0.009720690548419952,-0.17227411270141602
1759304792746402300,6.64740234375,0.1754465103149414,0.000524081289768219,-0.13254773616790771
1759304792756441300,6.65744140625,0.1232900619506836,0.010282009840011597,-0.12576830387115479
1759304792766484000,6.66748388671875,0.1005411148071289,0.02266179770231247,-0.12149500846862793
1759304792776522500,6.6775224609375,0.14149856567382812,0.04183477908372879,-0.12249279022216797
1759304792786564000,6.687564208984375,0.15006542205810547,0.043407224118709564,-0.1456758975982666
1759304792796604700,6.697604736328125,0.14659690856933594,0.038881249725818634,-0.16346466541290283
1759304792806645200,6.707645263671875,0.19199180603027344,0.04106324166059494,-0.17732536792755127
1759304792816683300,6.717683349609375,0.2110729217529297,0.029929690062999725,-0.18134403228759766
1759304792826725000,6.72772509765625,0.2431774139404297,0.011487618088722229,-0.18256521224975586
1759304792836765200,6.73776513671875,0.19748401641845703,-0.040552109479904175,-0.18401765823364258
1759304792846806300,6.74780615234375,0.11631488800048828,-0.0775408074259758,-0.15606606006622314
1759304792856843800,6.75784375,0.07429790496826172,-0.08860115706920624,-0.1448822021484375
1759304792866884900,6.767884765625,0.11004447937011719,-0.058761414140462875,-0.11852943897247314
1759304792876926700,6.7779267578125,0.1732339859008789,-0.013807646930217743,-0.11607825756072998
1759304792886965000,6.787965087890625,0.18259429931640625,0.008408471941947937,-0.132537841796875
1759304792897004800,6.7980048828125,0.07625865936279297,0.05708145350217819,-0.15994548797607422
1759304792907045000,6.808045166015625,-0.020477294921875,0.061314284801483154,-0.14800703525543213
1759304792917084400,6.81808447265625,0.0019578933715820312,-0.0583338737487793,-0.09838664531707764
1759304792927127000,6.828126953125,0.08048534393310547,-0.21937721967697144,-0.05285465717315674
1759304792937167400,6.83816748046875,0.20197010040283203,-0.39208078384399414,0.01378011703491211
1759304792947206400,6.848206298828125,0.20989036560058594,-0.5033683180809021,-0.06821918487548828
1759304792957246200,6.85824609375,0.1248636245727539,-0.5492599010467529,-0.155845046043396
1759304792967286500,6.86828662109375,0.0006990432739257812,-0.5463417768478394,-0.20473980903625488
1759304792977326300,6.878326416015625,-0.028860092163085938,-0.5280165672302246,-0.2198636531829834
1759304792987366700,6.88836669921875,-0.11264705657958984,-0.482374370098114,-0.19980597496032715
1759304792997408500,6.898408447265625,-0.17803573608398438,-0.3816995620727539,-0.2629915475845337
1759304793007449600,6.90844970703125,-0.22765445709228516,-0.3020327687263489,-0.22702443599700928
1759304793017489200,6.9184892578125,-0.22156524658203125,-0.16601935029029846,-0.24468767642974854
1759304793027528700,6.92852880859375,-0.1051931381225586,-0.06658031046390533,-0.18960368633270264
1759304793037567200,6.938567138671875,-0.03725147247314453,0.127090185880661,-0.1331397294998169
1759304793047609300,6.948609375,0.03483009338378906,0.2430102825164795,-0.28230273723602295
1759304793057649000,6.95864892578125,0.07319068908691406,0.27318257093429565,-0.38620948791503906
1759304793067689500,6.968689453125,0.08670425415039062,0.3071860074996948,-0.3762410879135132
1759304793077729500,6.9787294921875,0.11053180694580078,0.26741498708724976,-0.31222105026245117
1759304793087772200,6.988772216796875,0.07234954833984375,0.17809352278709412,-0.13594329357147217
1759304793097810200,6.99881005859375,0.06861686706542969,-0.051891058683395386,-0.15656423568725586
1759304793107849000,7.008848876953125,-0.024750709533691406,-0.29519879817962646,-0.2040020227432251
1759304793117890000,7.01889013671875,-0.21410369873046875,-0.3827168047428131,-0.15762293338775635
1759304793127931000,7.028930908203125,-0.39238452911376953,-0.27970898151397705,-0.15383291244506836
1759304793137970400,7.038970458984375,-0.5577487945556641,-0.07776173949241638,-0.28981661796569824
1759304793148013000,7.049012939453125,-0.9451789855957031,0.2565980553627014,-0.6338772773742676
1759304793158051000,7.059051025390625,-1.0929460525512695,0.4097542464733124,-0.7687723636627197
1759304793168093400,7.069093505859375,-1.219435691833496,0.46456271409988403,-0.6903632879257202
1759304793178132000,7.079132080078125,-1.4738798141479492,0.30977287888526917,-1.0482847690582275
1759304793188171800,7.089171875,-1.7152948379516602,0.18721631169319153,-1.4011868238449097
1759304793198211000,7.099211181640625,-1.3167228698730469,0.5345004796981812,-1.089686393737793
1759304793208251400,7.10925146484375,-1.1725282669067383,1.2299964427947998,-1.0877853631973267
1759304793218291700,7.119291748046875,-1.5087213516235352,2.015258550643921,-1.2688119411468506
1759304793228334600,7.12933447265625,-2.424319267272949,2.433753252029419,-1.6024595499038696
1759304793238372600,7.13937255859375,-2.6474647521972656,2.5419883728027344,-1.136778473854065
1759304793248413700,7.14941357421875,-1.776900291442871,2.797480821609497,-1.0514025688171387
1759304793258452500,7.159452392578125,-1.3918981552124023,3.1226792335510254,-1.410625696182251
1759304793268495600,7.16949560546875,-1.0321264266967773,3.294975757598877,-1.4513583183288574
1759304793278533400,7.179533447265625,-1.3849611282348633,3.2586398124694824,-1.49531888961792
1759304793288576000,7.189575927734375,-1.5548133850097656,3.0215296745300293,-1.4151506423950195
1759304793298616000,7.199615966796875,-1.5289688110351562,2.915278673171997,-1.351340413093567
1759304793308654300,7.209654296875,-2.161929130554199,2.6932337284088135,-1.4288411140441895
1759304793318695200,7.219695068359375,-2.069186210632324,2.400864601135254,-1.3232773542404175
1759304793328737500,7.229737548828125,-1.5816535949707031,2.125828981399536,-1.1474682092666626
1759304793338774000,7.23977392578125,-1.2982063293457031,1.7290868759155273,-0.8222550749778748
1759304793348817200,7.249817138671875,-0.9431018829345703,1.2113001346588135,-0.4766881465911865
1759304793358856000,7.25985595703125,-1.118246078491211,0.6669237017631531,-0.3136339783668518
1759304793368895000,7.26989501953125,-1.3156347274780273,0.024933576583862305,-0.13421714305877686
1759304793378935600,7.279935546875,-1.0141258239746094,-0.3694978952407837,-0.05582702159881592
1759304793388975600,7.2899755859375,-1.1770133972167969,-0.5651402473449707,-0.03647148609161377
1759304793399017000,7.300016845703125,-0.986332893371582,-0.6415654420852661,-0.07435417175292969
1759304793409056000,7.310055908203125,-0.8294734954833984,-0.7056481838226318,-0.06869786977767944
1759304793419096300,7.320096435546875,-0.5104455947875977,-0.8076703548431396,0.08429574966430664
1759304793429137400,7.330137451171875,0.2546806335449219,-0.8456261157989502,0.3217148184776306
1759304793439177000,7.340177001953125,0.5435142517089844,-0.8336586952209473,0.7877984046936035
1759304793449217300,7.35021728515625,1.0717792510986328,-0.7574543952941895,1.4795022010803223
1759304793459257000,7.360257080078125,0.9091081619262695,-0.4186279773712158,1.5146286487579346
1759304793469300200,7.37030029296875,0.21352195739746094,-0.27200889587402344,0.7707438468933105
1759304793479339000,7.380339111328125,0.10010337829589844,-0.3454267978668213,0.05482298135757446
1759304793489391600,7.3903916015625,0.231781005859375,-0.6822447776794434,-0.40895646810531616
1759304793499418600,7.400418701171875,0.09668159484863281,-0.8494338989257812,-0.6605773568153381
1759304793509460000,7.4104599609375,0.41055965423583984,-0.8493485450744629,-0.5621880888938904
1759304793519498800,7.420498779296875,0.7021770477294922,-0.6669869422912598,-0.5445668697357178
1759304793529539300,7.430539306640625,0.4803934097290039,-0.2343459129333496,-0.2342911958694458
1759304793539580200,7.440580078125,0.6146955490112305,0.03891706466674805,-0.01574796438217163
1759304793549621000,7.45062109375,0.7479367256164551,0.1899886131286621,0.1937980055809021
1759304793559661800,7.460661865234375,0.24751853942871094,0.29437732696533203,0.15094435214996338
1759304793569700400,7.470700439453125,0.621302604675293,0.29866981506347656,0.36283403635025024
1759304793579740000,7.480739990234375,0.8501653671264648,0.3260512351989746,0.37385597825050354
1759304793589756000,7.490755859375,0.8182530403137207,0.40268659591674805,0.5409206748008728
1759304793599822000,7.500822021484375,0.8086948394775391,0.5347709655761719,0.4741939902305603
1759304793609860400,7.5108603515625,1.0360603332519531,0.753199577331543,0.22094741463661194
1759304793619901200,7.520901123046875,0.969390869140625,0.7920479774475098,0.08389711380004883
1759304793629942300,7.5309423828125,1.048612117767334,0.8094449043273926,-0.046083152294158936
1759304793639983400,7.5409833984375,1.5172028541564941,0.7700443267822266,-0.06915950775146484
1759304793650022700,7.551022705078125,0.9044346809387207,0.9821629524230957,-0.3118705749511719
1759304793660062200,7.561062255859375,0.9003996849060059,1.078958511352539,-0.4914768934249878
1759304793670103000,7.57110302734375,1.078183650970459,1.015824794769287,-0.4711085855960846
1759304793680141800,7.581141845703125,0.8933844566345215,0.9822072982788086,-0.6396000385284424
1759304793690182100,7.59118212890625,0.9633879661560059,0.8990039825439453,-0.5819450616836548
1759304793700222700,7.60122265625,0.8665099143981934,0.8293595314025879,-0.6642001867294312
1759304793710264800,7.611264892578125,1.0449585914611816,0.7266921997070312,-0.6437365412712097
1759304793720303900,7.621303955078125,1.4062895774841309,0.4502425193786621,-0.5384011268615723
1759304793730343700,7.63134375,1.3204374313354492,0.29020071029663086,-0.4524747133255005
1759304793740384000,7.641384033203125,1.0451078414916992,0.3734164237976074,-0.46063947677612305
1759304793750425300,7.65142529296875,1.334932804107666,0.3254847526550293,-0.248446524143219
1759304793760463400,7.66146337890625,0.9205465316772461,0.39812564849853516,-0.059368912130594254
1759304793770505200,7.671505126953125,0.7599773406982422,0.4022340774536133,0.09725629538297653
1759304793780545500,7.681545654296875,0.8408832550048828,0.38588714599609375,0.23839722573757172
1759304793790587100,7.691587158203125,1.0182855129241943,0.34894752502441406,0.18605844676494598
1759304793800627500,7.70162744140625,1.0094430446624756,0.3000335693359375,0.0975145474076271
1759304793810667000,7.7116669921875,0.6980936527252197,0.2511634826660156,0.10472404211759567
1759304793820705500,7.72170556640625,0.5464859008789062,0.3627939224243164,-0.08785618841648102
1759304793830745900,7.731745849609375,0.8068323135375977,0.42489147186279297,-0.23563165962696075
1759304793840786200,7.7417861328125,1.0136971473693848,0.5083408355712891,-0.19320142269134521
1759304793850826200,7.751826171875,0.8265581130981445,0.6043071746826172,-0.08642610907554626
1759304793860864800,7.76186474609375,0.35305309295654297,0.5649738311767578,0.2690342664718628
1759304793870908400,7.771908447265625,-0.11020827293395996,0.6306123733520508,0.4845474660396576
1759304793880947500,7.781947509765625,0.3184549808502197,0.6151456832885742,0.44968485832214355
1759304793890988000,7.791988037109375,0.5370347499847412,0.49604129791259766,0.23022165894508362
1759304793901027600,7.802027587890625,0.6091067790985107,0.3013162612915039,0.020257264375686646
1759304793911068200,7.812068115234375,0.4464092254638672,0.09730339050292969,-0.17673417925834656
1759304793921114000,7.822114013671875,0.3621487617492676,0.0058040618896484375,-0.3112446069717407
1759304793931153400,7.8321533203125,0.5909442901611328,-0.05377197265625,-0.33375370502471924
1759304793941188600,7.842188720703125,0.8185489177703857,0.013372421264648438,-0.303646445274353
1759304793951228400,7.852228515625,0.787372350692749,0.1985149383544922,-0.26572126150131226
1759304793961267500,7.862267333984375,0.8239247798919678,0.3924121856689453,-0.3443179130554199
1759304793971314200,7.872314208984375,0.5678777694702148,0.4974937438964844,-0.4390050768852234
1759304793981355300,7.882355224609375,0.3662569522857666,0.5360002517700195,-0.5944412350654602
1759304793991389000,7.892388916015625,0.2437887191772461,0.4686470031738281,-0.6615393757820129
1759304794001430000,7.902429931640625,0.5191229581832886,0.6055088043212891,-0.8152692914009094
1759304794011468300,7.91246826171875,0.7465465068817139,1.0011272430419922,-0.8675901889801025
1759304794021509600,7.922509521484375,-0.0360872745513916,0.7618436813354492,-0.31017589569091797
1759304794031549000,7.932548828125,-0.10723090171813965,0.2140789031982422,0.1340852975845337
1759304794041590000,7.942590087890625,0.9807946681976318,0.16867733001708984,-0.22451907396316528
1759304794051631600,7.952631591796875,1.8246815204620361,0.31238746643066406,-0.701596200466156
1759304794061671200,7.962671142578125,1.0976495742797852,0.1181344985961914,-0.6540079712867737
1759304794071710700,7.972710693359375,-0.2457350492477417,-0.1312398910522461,-0.25331348180770874
1759304794081751600,7.98275146484375,-0.5742034912109375,-0.30181121826171875,0.2150435447692871
1759304794091790800,7.992790771484375,0.047261595726013184,-0.1377582550048828,0.49689966440200806
1759304794101832400,8.00283251953125,0.8125728368759155,0.35790061950683594,0.6233549118041992
1759304794111871500,8.01287158203125,1.022888422012329,0.9366092681884766,0.6234615445137024
1759304794121911000,8.0229111328125,1.2287287712097168,1.350449562072754,0.5290873050689697
1759304794131950000,8.0329501953125,1.5947926044464111,1.2541284561157227,0.5419653058052063
1759304794141993200,8.0429931640625,1.8115614652633667,0.45824337005615234,0.7254126071929932
1759304794152033500,8.053033447265625,1.6158198118209839,-0.4686880111694336,0.8967139720916748
1759304794162072000,8.063072021484375,1.1872470378875732,-1.0761528015136719,0.8632149696350098
1759304794172115000,8.073114990234375,0.350968599319458,-1.2035465240478516,0.4037911891937256
1759304794182152700,8.083152587890625,-0.6041848659515381,-1.2157325744628906,-0.28989744186401367
1759304794192193000,8.093193115234374,-0.6931759119033813,-1.1125011444091797,-0.8789547085762024
1759304794202233000,8.103233154296875,-0.31404829025268555,-0.9013404846191406,-1.0235419273376465
1759304794212273400,8.1132734375,-0.04275929927825928,-0.5079269409179688,-0.7724980711936951
1759304794222314000,8.12331396484375,0.02302694320678711,-0.010684013366699219,-0.29159706830978394
1759304794232354600,8.1333544921875,-0.3393005132675171,0.3871955871582031,0.10843825340270996
1759304794242394600,8.14339453125,-0.4926614761352539,0.6730728149414062,0.21663916110992432
1759304794252437000,8.15343701171875,-0.4310816526412964,0.8190631866455078,0.06707513332366943
1759304794262475000,8.16347509765625,-0.3869055509567261,0.7966804504394531,-0.23731160163879395
1759304794272514000,8.17351416015625,-0.3924318552017212,0.7070074081420898,-0.5102881789207458
1759304794282554000,8.18355419921875,-0.7580554485321045,0.5310678482055664,-0.6454362273216248
1759304794292595700,8.193595703125,-0.8962196111679077,0.30631351470947266,-0.6982893347740173
1759304794302637300,8.20363720703125,-0.6194263100624084,0.10655403137207031,-0.7766948938369751
1759304794312676600,8.213676513671874,-0.6138589382171631,-0.061364173889160156,-0.7531658411026001
1759304794322715000,8.22371484375,-0.6372678875923157,-0.1234292984008789,-0.7849724888801575
1759304794332756500,8.233756591796874,-0.6832526326179504,-0.03564929962158203,-0.85197514295578
1759304794342796800,8.243796875,-0.7424843907356262,0.08799076080322266,-0.8660401105880737
1759304794352838400,8.25383837890625,-0.7872174382209778,0.1842060089111328,-0.9030253887176514
1759304794362877200,8.263877197265625,-0.6924214363098145,0.15732383728027344,-0.8957256078720093
1759304794372917500,8.27391748046875,-0.46313387155532837,0.11667823791503906,-0.750984251499176
1759304794382956800,8.283956787109375,-0.3780442476272583,-0.010389328002929688,-0.49326926469802856
1759304794392997400,8.293997314453126,-0.33160722255706787,-0.10988330841064453,-0.26622867584228516
1759304794403039000,8.3040390625,-0.17359107732772827,-0.027362823486328125,-0.21851599216461182
1759304794413077500,8.314077392578126,-0.27049511671066284,0.02834320068359375,-0.2945852279663086
1759304794423117800,8.324117919921875,-0.08499622344970703,0.055965423583984375,-0.3770925998687744
1759304794433159400,8.334159423828124,-0.06975358724594116,-0.004154205322265625,-0.30163657665252686
1759304794443198000,8.344197998046875,-0.17642027139663696,-0.048890113830566406,-0.18136990070343018
1759304794453237800,8.35423779296875,-0.031439751386642456,-0.041144371032714844,-0.12042438983917236
1759304794463276800,8.36427685546875,0.4494350254535675,-0.2130107879638672,0.013460040092468262
1759304794473317000,8.374317138671875,0.5624346137046814,-0.1436166763305664,-0.004612088203430176
1759304794483357700,8.384357666015624,0.6661703586578369,0.2805328369140625,-0.021659493446350098
1759304794493399800,8.39439990234375,0.4817148447036743,0.14551258087158203,0.19454455375671387
1759304794503438800,8.40443896484375,0.363935649394989,-0.07590484619140625,0.5199280977249146
1759304794513481200,8.414481201171874,0.3362327218055725,-0.09093093872070312,0.48625361919403076
1759304794523520500,8.4245205078125,0.5944433212280273,-0.11598777770996094,0.39620816707611084
1759304794533558800,8.434558837890625,0.7422298789024353,-0.0960702896118164,0.2993074655532837
1759304794543599400,8.444599365234374,0.42955470085144043,-0.033695220947265625,0.11960041522979736
1759304794553639700,8.4546396484375,0.36995357275009155,0.04277324676513672,0.1626434326171875
1759304794563679000,8.464678955078124,0.22305965423583984,0.07487773895263672,0.269519567489624
1759304794573719600,8.474719482421875,0.13457554578781128,0.18101119995117188,0.2946913242340088
1759304794583761000,8.484760986328125,0.13561725616455078,0.2418212890625,0.24291586875915527
1759304794593800200,8.49480029296875,0.10942823439836502,0.1817150115966797,0.2623056173324585
1759304794603841300,8.50484130859375,0.26289302110671997,0.12157821655273438,0.20746064186096191
1759304794613879800,8.5148798828125,0.3980022370815277,0.05194854736328125,0.10530209541320801
1759304794623923500,8.52492333984375,0.45556777715682983,-0.0033397674560546875,0.03978395462036133
1759304794633962800,8.534962646484376,0.40529119968414307,-0.023878097534179688,0.0009884834289550781
1759304794644003000,8.545003173828125,0.23688848316669464,-0.001819610595703125,0.08767175674438477
1759304794654043100,8.555043212890626,0.2593192756175995,0.06189537048339844,0.15507471561431885
1759304794664082700,8.565082763671874,0.46589264273643494,0.08617401123046875,0.16496193408966064
1759304794674122800,8.575122802734375,0.5658688545227051,0.037812232971191406,0.16032040119171143
1759304794684164600,8.58516455078125,0.5542750954627991,-0.052150726318359375,0.1623319387435913
1759304794694201600,8.59520166015625,0.4837348759174347,-0.040312767028808594,0.14233219623565674
1759304794704243000,8.605242919921874,0.36884596943855286,0.0036306381225585938,0.11642265319824219
1759304794714283500,8.615283447265625,0.29142192006111145,-0.04081439971923828,0.09737730026245117
1759304794724323600,8.625323486328124,0.38714656233787537,-0.07346248626708984,0.0672605037689209
1759304794734362400,8.6353623046875,0.4488997161388397,-0.017686843872070312,0.04927539825439453
1759304794744404700,8.64540478515625,0.4273889362812042,0.024878501892089844,0.08954739570617676
1759304794754444300,8.6554443359375,0.35614365339279175,0.05294322967529297,0.1949385404586792
1759304794764484000,8.665484130859374,0.2896614968776703,0.0895090103149414,0.27432453632354736
1759304794774524700,8.675524658203125,0.17515066266059875,0.05563068389892578,0.33525192737579346
1759304794784565000,8.68556494140625,0.12192048877477646,-0.006443023681640625,0.297588586807251
1759304794794606300,8.6956064453125,0.25132662057876587,0.013097763061523438,0.10397720336914062
1759304794804647400,8.7056474609375,0.34591999650001526,-0.011319160461425781,-0.11071908473968506
1759304794814685200,8.715685302734375,0.22873929142951965,-0.046792030334472656,-0.16462314128875732
1759304794824702500,8.725702392578125,0.13858501613140106,-0.09949779510498047,-0.09131479263305664
1759304794834765800,8.735765869140625,0.1210271567106247,-0.06379508972167969,-0.040082454681396484
1759304794844807200,8.74580712890625,0.16023871302604675,-0.02336597442626953,0.007398009300231934
1759304794854845700,8.755845703125,0.19303935766220093,-0.0019178390502929688,0.04739737510681152
1759304794864885200,8.76588525390625,0.18965335190296173,0.014986991882324219,0.019234538078308105
1759304794874926800,8.7759267578125,0.20278824865818024,0.03911590576171875,-0.030613183975219727
1759304794884965600,8.785965576171876,0.22809135913848877,0.028675079345703125,-0.09133875370025635
1759304794895008000,8.796008056640625,0.2905619144439697,0.033570289611816406,-0.11605024337768555
1759304794905046000,8.8060458984375,0.23267264664173126,0.04413318634033203,-0.038591861724853516
1759304794915086800,8.8160869140625,0.08420667797327042,0.049831390380859375,0.08216524124145508
1759304794925127000,8.826126953125,0.12522640824317932,0.028326034545898438,0.06982266902923584
1759304794935168500,8.83616845703125,0.23607763648033142,0.031061172485351562,-0.0497058629989624
1759304794945208800,8.846208740234376,0.2982574701309204,-0.0214996337890625,-0.09315967559814453
1759304794955248400,8.856248291015625,0.28076231479644775,-0.061242103576660156,-0.03181719779968262
1759304794965287200,8.866287109375,0.18771570920944214,-0.0400238037109375,0.05101418495178223
1759304794975327000,8.876326904296874,0.053170010447502136,-0.013823509216308594,0.10301780700683594
1759304794985369600,8.88636962890625,0.016259269788861275,-0.016050338745117188,0.07553744316101074
1759304794995409200,8.8964091796875,0.0680328980088234,0.011655807495117188,0.007353782653808594
1759304795005449000,8.906448974609376,0.13098648190498352,0.015413284301757812,-0.04908883571624756
1759304795015487000,8.916487060546874,0.23070046305656433,0.035564422607421875,-0.04703724384307861
1759304795025529300,8.926529296875,0.21264806389808655,0.04652881622314453,-0.07635688781738281
1759304795035571200,8.9365712890625,0.08606231957674026,0.005980491638183594,-0.03251838684082031
1759304795045609000,8.94660888671875,0.020908335223793983,-0.021320343017578125,-0.029433012008666992
1759304795055648800,8.956648681640624,0.024206308647990227,-0.029405593872070312,-0.06948602199554443
1759304795065689600,8.966689697265625,0.06149851530790329,-0.02443981170654297,-0.09872984886169434
1759304795075732200,8.976732177734375,0.07032199949026108,-0.0100250244140625,-0.09175968170166016
1759304795085770000,8.98677001953125,0.06639934331178665,0.00444793701171875,-0.09061944484710693
1759304795095811000,8.99681103515625,0.008855017833411694,0.0043926239013671875,-0.07609796524047852
1759304795105851400,9.006851318359375,-0.019509168341755867,-0.014362335205078125,-0.09849429130554199
1759304795115893000,9.01689306640625,-0.034177057445049286,-0.022245407104492188,-0.1420295238494873
1759304795125931500,9.026931640625,-0.02523900754749775,-0.043476104736328125,-0.14255809783935547
1759304795135971000,9.03697119140625,-0.034948673099279404,-0.03246021270751953,-0.13424277305603027
1759304795146011100,9.04701123046875,-0.02045365609228611,-0.004881858825683594,-0.09959137439727783
1759304795156053000,9.057052978515625,0.03356968238949776,0.010689735412597656,-0.06649637222290039
1759304795166092500,9.067092529296875,-0.012577813118696213,-0.011663436889648438,-0.06791996955871582
1759304795176133400,9.07713330078125,-0.05429083853960037,-0.02807903289794922,-0.09089803695678711
1759304795186173200,9.087173095703125,-0.08031530678272247,-0.034755706787109375,-0.13411545753479004
1759304795196212700,9.097212646484374,-0.03204534947872162,-0.03777313232421875,-0.20834815502166748
1759304795206252500,9.10725244140625,0.044364213943481445,0.0030202865600585938,-0.2094029188156128
1759304795216292600,9.117292724609374,0.10295508056879044,0.032547950744628906,-0.09822750091552734
1759304795226334500,9.12733447265625,0.041368842124938965,0.05875873565673828,-0.009327054023742676
1759304795236372700,9.137372802734374,0.07825230807065964,0.04581737518310547,-0.01842176914215088
1759304795246413800,9.147413818359375,0.05505293607711792,-0.014619827270507812,-0.07699692249298096
1759304795256451800,9.157451904296876,0.017492331564426422,-0.036658287048339844,-0.19495844841003418
1759304795266493000,9.167492919921875,0.05385559797286987,-0.07083797454833984,-0.2592355012893677
1759304795276532700,9.17753271484375,-0.06081303954124451,-0.05982494354248047,-0.23016953468322754
1759304795286573000,9.187572998046875,-0.18740326166152954,-0.06452274322509766,-0.14941465854644775
1759304795296614700,9.19761474609375,-0.2383846640586853,-0.03812694549560547,-0.10826230049133301
1759304795306655500,9.207655517578125,-0.23652441799640656,0.0062408447265625,-0.10436248779296875
1759304795316695800,9.21769580078125,-0.2601371109485626,0.05434608459472656,-0.13264214992523193
1759304795326735400,9.2277353515625,-0.20321790874004364,0.09397315979003906,-0.16994285583496094
1759304795336778000,9.237778076171875,-0.03282107412815094,0.09077835083007812,-0.21672511100769043
1759304795346815200,9.247815185546875,0.03704862296581268,0.012083053588867188,-0.24198532104492188
1759304795356855600,9.25785546875,0.02871406078338623,0.01956939697265625,-0.28286105394363403
1759304795366897200,9.267897216796875,-0.005383133888244629,0.005402565002441406,-0.2671549320220947
1759304795376936000,9.27793603515625,0.024110108613967896,0.011575698852539062,-0.25933289527893066
1759304795386975500,9.2879755859375,-0.07000915706157684,-0.008471488952636719,-0.21745526790618896
1759304795397016800,9.298016845703126,-0.13312432169914246,-0.02152729034423828,-0.14695513248443604
1759304795407055400,9.308055419921875,-0.11693817377090454,-0.058663368225097656,-0.07755792140960693
1759304795417097500,9.318097412109376,-0.11578325927257538,-0.07067012786865234,-0.03851723670959473
1759304795427137300,9.32813720703125,-0.03750661015510559,-0.03254127502441406,-0.0407027006149292
1759304795437175600,9.338175537109375,-0.07986520230770111,0.05235576629638672,-0.052907586097717285
1759304795447218400,9.348218505859375,-0.06068854033946991,0.13956642150878906,-0.07152211666107178
1759304795457258500,9.358258544921876,0.020165279507637024,0.1206655502319336,-0.13647592067718506
1759304795467297500,9.368297607421875,0.07257656753063202,0.07922649383544922,-0.21707725524902344
1759304795477336600,9.378336669921875,0.05923625826835632,0.0031871795654296875,-0.26619094610214233
1759304795487378000,9.3883779296875,0.026678144931793213,-0.08741569519042969,-0.2492731213569641
1759304795497417200,9.398417236328125,-0.04009300470352173,-0.08485126495361328,-0.2180337905883789
1759304795507456500,9.40845654296875,-0.07727634906768799,-0.06229972839355469,-0.1242983341217041
1759304795517498000,9.418498046875,-0.11682295799255371,0.0065135955810546875,0.024497032165527344
1759304795527538200,9.4285380859375,-0.09959292411804199,0.05735588073730469,0.140985369682312
1759304795537578500,9.43857861328125,-0.04958656430244446,0.0954885482788086,0.12339866161346436
1759304795547617500,9.448617431640624,-0.07387471199035645,0.05850982666015625,0.06727004051208496
1759304795557660000,9.458659912109376,-0.007285714149475098,-0.01902484893798828,-0.05752420425415039
1759304795567699500,9.468699462890624,0.06110766530036926,-0.05718231201171875,-0.18456721305847168
1759304795577738200,9.47873828125,-0.018872380256652832,-0.10973930358886719,-0.22920608520507812
1759304795587779300,9.488779296875,-0.05239948630332947,-0.0779256820678711,-0.19598150253295898
1759304795597818000,9.498818115234375,-0.23871031403541565,-0.0486602783203125,-0.07520651817321777
1759304795607859500,9.508859375,-0.4082193374633789,-0.04456806182861328,0.03711044788360596
1759304795617900300,9.518900390625,-0.4811853766441345,-0.16945648193359375,0.08457136154174805
1759304795627938600,9.5289384765625,-0.39680203795433044,-0.21950340270996094,0.1160048246383667
1759304795637979600,9.538979736328125,-0.4196670353412628,-0.24001693725585938,0.20614087581634521
1759304795648019200,9.549019287109376,-0.5141183137893677,-0.18823814392089844,0.35989928245544434
1759304795658059300,9.559059326171875,-0.5719375610351562,-0.05695343017578125,0.43244314193725586
1759304795668099800,9.569099853515626,-0.5723829865455627,-0.007427215576171875,0.4506484270095825
1759304795678140400,9.579140380859375,-0.5640188455581665,-0.07281303405761719,0.5531255006790161
1759304795688180700,9.5891806640625,-0.5582160949707031,-0.16083908081054688,0.6693387031555176
1759304795698219500,9.599219482421875,-0.39670324325561523,-0.26894474029541016,0.7401238679885864
1759304795708262100,9.60926220703125,-0.2307712435722351,-0.35288429260253906,0.8285466432571411
1759304795718301000,9.619301025390625,-0.2628100514411926,-0.44611263275146484,1.0394378900527954
1759304795728343300,9.62934326171875,-0.0302426815032959,-0.5180549621582031,1.3032437562942505
1759304795738379800,9.6393798828125,0.4624525308609009,-0.3383646011352539,1.4867980480194092
1759304795748421600,9.649421630859376,0.536427915096283,0.1712493896484375,0.8913909196853638
1759304795758461700,9.659461669921875,0.32025474309921265,0.6026325225830078,0.6120036840438843
1759304795768501500,9.66950146484375,0.20057398080825806,0.8846139907836914,0.46384596824645996
1759304795778542000,9.6795419921875,0.6194130182266235,1.3269977569580078,0.09888589382171631
1759304795788557600,9.6895576171875,1.1537103652954102,1.7078099250793457,-0.511777400970459
1759304795798598100,9.69959814453125,1.3625333309173584,1.6714916229248047,-1.297400712966919
1759304795808638200,9.70963818359375,1.5107862949371338,1.361170768737793,-2.0789384841918945
1759304795818678300,9.71967822265625,1.0231006145477295,1.0230169296264648,-2.4927196502685547
1759304795828742400,9.729742431640625,-0.0862804651260376,0.8121414184570312,-2.288145065307617
1759304795838784800,9.73978466796875,-0.18376082181930542,0.8548727035522461,-1.661098599433899
1759304795848822800,9.74982275390625,0.3945047855377197,1.017293930053711,-0.7140313386917114
1759304795858865200,9.759865234375,0.42572900652885437,1.1025972366333008,0.5526034832000732
1759304795868904200,9.769904296875,-0.43615245819091797,0.6964578628540039,1.7840135097503662
1759304795878943700,9.77994384765625,-0.8351640105247498,-0.0890340805053711,2.867217540740967
1759304795888983000,9.789983154296875,0.02889341115951538,-0.9588603973388672,2.651296377182007
1759304795899023600,9.800023681640624,0.4738062620162964,-1.8440275192260742,1.5315070152282715
1759304795909064200,9.810064208984375,-0.07889461517333984,-2.4723739624023438,-0.10197818279266357
1759304795919103500,9.820103515625,-0.9598245024681091,-2.222601890563965,-2.2126846313476562
1759304795929144000,9.83014404296875,-0.8057564496994019,-1.0983495712280273,-3.8980460166931152
1759304795939184600,9.8401845703125,-0.09653908014297485,-0.16868019104003906,-3.694671630859375
1759304795949224400,9.850224365234375,-0.23129725456237793,0.13053321838378906,-1.7978603839874268
1759304795959265500,9.860265625,-0.5509842038154602,0.4021749496459961,0.2961995601654053
1759304795969304800,9.870304931640625,-0.3070225715637207,0.7010631561279297,1.283750295639038
1759304795979345400,9.880345458984374,0.5233128070831299,0.7349739074707031,0.6119061708450317
1759304795989392400,9.890392333984375,1.2002758979797363,0.2955961227416992,-1.0754899978637695
1759304795999425300,9.90042529296875,1.2459464073181152,-0.32443714141845703,-2.5632576942443848
1759304796009465900,9.9104658203125,1.0044119358062744,-0.9400224685668945,-3.2440309524536133
1759304796019506200,9.920506103515624,0.6579083204269409,-1.1625823974609375,-2.868462085723877
1759304796029546200,9.930546142578125,0.2393834888935089,-1.0648918151855469,-1.7617292404174805
1759304796039586800,9.9405869140625,0.05184873938560486,-0.7416677474975586,-0.5919434428215027
1759304796049626000,9.950626220703125,0.003182440996170044,-0.3872671127319336,0.21884751319885254
1759304796059666400,9.96066650390625,-0.12617504596710205,-0.3010082244873047,0.5425034761428833
1759304796069707800,9.970707763671875,0.028378278017044067,-0.3728666305541992,0.372073769569397
1759304796079746800,9.980746826171876,0.27518242597579956,-0.370208740234375,-0.13956809043884277
1759304796089762300,9.99076220703125,0.3600926697254181,-0.3723793029785156,-0.6482839584350586
1759304796099826700,10.00082666015625,0.3260597884654999,-0.3369264602661133,-0.8791142702102661
1759304796109869300,10.010869384765625,0.23171663284301758,-0.16128158569335938,-0.8059358596801758
1759304796119906300,10.02090625,0.1451023817062378,0.09339237213134766,-0.5402741432189941
1759304796129948700,10.03094873046875,0.0874386876821518,0.3072042465209961,-0.2209082841873169
1759304796139988500,10.040988525390626,0.05405670404434204,0.3367748260498047,0.10655403137207031
1759304796150028500,10.051028564453125,0.06716948747634888,0.23128509521484375,0.3567197322845459
1759304796160069000,10.061069091796876,-0.05274994671344757,0.23971939086914062,0.39332473278045654
1759304796170107400,10.071107421875,-0.20055648684501648,0.28833866119384766,0.11511349678039551
1759304796180148000,10.08114794921875,-0.13599374890327454,0.06429862976074219,-0.28096258640289307
1759304796190188500,10.0911884765625,0.05010278522968292,-0.21171283721923828,-0.6374149918556213
1759304796200230100,10.101230224609376,0.06887386739253998,-0.28458595275878906,-0.9055082201957703
1759304796210270200,10.111270263671875,-0.11120189726352692,-0.3094758987426758,-1.0133804082870483
1759304796220310500,10.121310546875,-0.15935298800468445,-0.2871589660644531,-1.0737600326538086
1759304796230348500,10.1313486328125,0.11736272275447845,-0.25638675689697266,-1.1967324018478394
1759304796240392200,10.14139208984375,0.5079007744789124,-0.31551551818847656,-1.2196192741394043
1759304796250429200,10.15142919921875,0.7924533486366272,-0.34949398040771484,-1.0654438734054565
1759304796260469800,10.1614697265625,0.93072509765625,-0.25949764251708984,-0.7287490367889404
1759304796270510300,10.17151025390625,0.8609035015106201,-0.19135379791259766,-0.21007144451141357
1759304796280551000,10.181551025390625,0.7820872068405151,-0.1773233413696289,0.3771253824234009
1759304796290591000,10.191591064453124,0.7258997559547424,-0.17290210723876953,0.8672491312026978
1759304796300630500,10.201630615234375,0.7582716941833496,-0.13514423370361328,1.179922342300415
1759304796310672000,10.211671875,0.8879809975624084,-0.03514575958251953,1.1638931035995483
1759304796320711200,10.221711181640625,0.9617147445678711,0.046128273010253906,0.8709770441055298
1759304796330752500,10.23175244140625,0.9517210125923157,0.060088157653808594,0.5798213481903076
1759304796340791600,10.24179150390625,0.8483527302742004,0.04712867736816406,0.42749059200286865
1759304796350831000,10.2518310546875,0.627417802810669,0.09029197692871094,0.37230968475341797
1759304796360872000,10.261871826171875,0.31891533732414246,0.17414093017578125,0.3471640348434448
1759304796370912800,10.271912841796874,0.046701136976480484,0.1779918670654297,0.30440783500671387
1759304796380951000,10.281950927734375,-0.10657740384340286,0.10330772399902344,0.17342841625213623
1759304796390992100,10.2919921875,-0.17320993542671204,0.013586997985839844,-0.08861052989959717
1759304796401032700,10.30203271484375,-0.03817254304885864,-0.03866767883300781,-0.4552086591720581
1759304796411073500,10.312073486328124,0.2390848696231842,-0.054592132568359375,-0.797779381275177
1759304796421118200,10.3221181640625,0.35810327529907227,-0.037421226501464844,-0.9473695755004883
1759304796431155700,10.33215576171875,0.213430255651474,0.09957695007324219,-0.8027241230010986
1759304796441192000,10.34219189453125,0.021341264247894287,0.3034944534301758,-0.4229539632797241
1759304796451232800,10.352232666015626,-0.11936488747596741,0.48554515838623047,-0.07780516147613525
1759304796461277400,10.36227734375,-0.03533408045768738,0.6552047729492188,0.05563020706176758
1759304796471317000,10.37231689453125,0.2783772349357605,0.751164436340332,0.023981928825378418
1759304796481353000,10.38235302734375,0.6338198781013489,0.8232936859130859,-0.1282973289489746
1759304796491393000,10.39239306640625,0.701205313205719,0.9114580154418945,-0.17387831211090088
1759304796501432800,10.402432861328125,0.1349741816520691,0.9530429840087891,-0.022037148475646973
1759304796511474200,10.41247412109375,-0.5262763500213623,0.8885726928710938,0.3872746229171753
1759304796521515300,10.422515380859375,-0.41158854961395264,0.8529949188232422,0.5245604515075684
1759304796531554800,10.432554931640626,0.05606794357299805,0.8775215148925781,0.26974284648895264
1759304796541594000,10.442593994140625,0.7498658895492554,0.8265285491943359,-0.11583340167999268
1759304796551635000,10.452635009765626,1.1193194389343262,0.7909030914306641,-0.5892763733863831
1759304796561676300,10.46267626953125,0.8714331984519958,0.8286514282226562,-0.6537203788757324
1759304796571715000,10.472715087890625,0.21497011184692383,0.9350929260253906,-0.43287551403045654
1759304796581755100,10.482755126953125,-0.16036248207092285,1.0276641845703125,-0.19225192070007324
1759304796591794000,10.4927939453125,0.11253213882446289,1.0630826950073242,-0.33367425203323364
1759304796601835800,10.502835693359375,0.578035831451416,0.9417858123779297,-0.6223983764648438
1759304796611877400,10.51287744140625,0.51828932762146,0.4947957992553711,-1.0550531148910522
1759304796621915600,10.52291552734375,0.3977236747741699,-0.056128501892089844,-0.8882758617401123
1759304796631956000,10.5329560546875,0.44182920455932617,-0.5256862640380859,-0.585588812828064
1759304796641995300,10.542995361328124,0.4717419147491455,-0.6704950332641602,-0.047056734561920166
1759304796652035300,10.553035400390625,0.3583228588104248,-0.5036697387695312,0.1258145570755005
1759304796662075400,10.563075439453126,1.086775302886963,-0.18187332153320312,0.2094692587852478
1759304796672117500,10.573117431640625,1.4800255298614502,0.3304920196533203,-0.07864272594451904
1759304796682155800,10.58315576171875,0.761772871017456,0.6575870513916016,-0.005433976650238037
1759304796692196400,10.5931962890625,0.22728943824768066,0.6689949035644531,0.44459807872772217
1759304796702237000,10.60323681640625,0.21815919876098633,0.6580867767333984,0.5256574749946594
1759304796712275700,10.613275634765625,0.5958263874053955,0.525517463684082,0.6271539926528931
1759304796722317800,10.62331787109375,0.6763737201690674,0.3914194107055664,0.847959578037262
1759304796732358100,10.633358154296875,0.27618932723999023,0.4318094253540039,0.7684172987937927
1759304796742397200,10.643397216796876,0.251009464263916,0.4554252624511719,0.9324793815612793
1759304796752438300,10.653438232421875,-0.19722223281860352,0.5163545608520508,0.971766471862793
1759304796762478300,10.663478271484376,-0.12596416473388672,0.5842361450195312,0.9512509107589722
1759304796772518400,10.673518310546875,0.20028114318847656,0.7632131576538086,0.24156051874160767
1759304796782558700,10.683558837890626,0.6636624336242676,0.8539571762084961,-0.5148372054100037
1759304796792597200,10.69359716796875,0.7160196304321289,0.946169376373291,-0.8553550839424133
1759304796802638000,10.70363818359375,-0.05859565734863281,0.9373950958251953,-0.9093483686447144
1759304796812676900,10.7136767578125,-0.3798179626464844,0.8575105667114258,-0.6688698530197144
1759304796822717200,10.72371728515625,-0.017380237579345703,0.6462826728820801,-0.558281421661377
1759304796832759600,10.733759521484375,0.43230342864990234,0.26070499420166016,-0.7852120399475098
1759304796842799000,10.743799072265626,0.15140390396118164,-0.00897979736328125,-0.9640602469444275
1759304796852840400,10.75384033203125,-0.5656003952026367,-0.02861166000366211,-1.126835584640503
1759304796862879700,10.763879638671876,-0.9635343551635742,0.11839675903320312,-1.3923635482788086
1759304796872919000,10.7739189453125,-0.8988909721374512,0.4159846305847168,-1.3755062818527222
1759304796882960600,10.783960693359376,-0.4669179916381836,0.9377908706665039,-1.0585250854492188
1759304796893000200,10.794000244140625,-0.41692256927490234,1.7223896980285645,-0.6524629592895508
1759304796903038200,10.8040380859375,-0.18946361541748047,2.3995518684387207,-0.07768446207046509
1759304796913078800,10.814078857421874,-0.0030775070190429688,2.626732349395752,0.17893967032432556
1759304796923119400,10.824119384765625,0.13731002807617188,2.5554428100585938,0.2728564739227295
1759304796933160200,10.83416015625,-0.08168315887451172,2.0192575454711914,0.5003746151924133
1759304796943199700,10.84419970703125,-0.18073034286499023,1.4082798957824707,0.20778070390224457
1759304796953240600,10.854240478515624,0.08154821395874023,0.8286371231079102,-0.1653347760438919
1759304796963279400,10.864279296875,0.022910594940185547,0.32851696014404297,-0.8103551268577576
1759304796973321500,10.874321533203124,-0.2659587860107422,-0.0028209686279296875,-1.2247231006622314
1759304796983359500,10.884359375,-0.4312715530395508,-0.14983034133911133,-1.3720502853393555
1759304796993400600,10.894400634765624,-0.29616832733154297,-0.22371292114257812,-1.3071513175964355
1759304797003439900,10.90443994140625,0.19394397735595703,0.2668781280517578,-1.1732653379440308
1759304797013481700,10.914481689453124,0.41957807540893555,0.8006696701049805,-0.7745032906532288
1759304797023520300,10.924520263671875,0.2852668762207031,1.0834696292877197,-0.21292564272880554
1759304797033562400,10.934562255859374,0.0001811981201171875,1.0784716606140137,0.07922810316085815
1759304797043602000,10.944601806640625,-0.0026292800903320312,0.9054081439971924,0.13359573483467102
1759304797053642500,10.954642578125,0.28528499603271484,0.6786351203918457,0.221547931432724
1759304797063682000,10.96468212890625,0.20289897918701172,0.494189977645874,0.308378666639328
1759304797073723100,10.97472314453125,0.09079170227050781,0.28446340560913086,0.4080114960670471
1759304797083764000,10.984763916015625,0.36318111419677734,0.14457464218139648,0.39054906368255615
1759304797093802000,10.994802001953126,0.4268302917480469,0.23169469833374023,0.27193933725357056
1759304797103841300,11.00484130859375,0.10053157806396484,0.2551743984222412,0.3064931631088257
1759304797113884700,11.014884765625,-0.6015834808349609,0.37432003021240234,0.8752772808074951
1759304797123921200,11.024921142578124,-0.5156936645507812,0.4668703079223633,1.217760443687439
1759304797133961200,11.034961181640625,-0.035526275634765625,0.37090444564819336,1.0757635831832886
1759304797144002600,11.04500244140625,-0.015148162841796875,-0.15550661087036133,0.6559114456176758
1759304797154043400,11.05504345703125,-1.4058256149291992,-0.5621347427368164,-0.043788209557533264
1759304797164082400,11.06508251953125,-2.3717565536499023,-0.44369029998779297,-1.1821647882461548
1759304797174122200,11.075122314453125,-1.8565216064453125,0.10701632499694824,-1.5901002883911133
1759304797184164600,11.08516455078125,-0.7313404083251953,0.4994560480117798,-0.9822771549224854
1759304797194200800,11.095200927734375,-0.1838216781616211,0.4797910451889038,-0.43232375383377075
1759304797204243500,11.105243408203124,-0.41434192657470703,0.3637486696243286,-0.3133866786956787
1759304797214283800,11.11528369140625,-1.1130790710449219,0.36974287033081055,-0.4679301381111145
1759304797224324400,11.125324462890624,-1.2432737350463867,0.5432213544845581,-0.6881435513496399
1759304797234364700,11.13536474609375,-0.899571418762207,0.8593628406524658,-0.5996750593185425
1759304797244406000,11.145406005859375,-0.6175060272216797,1.1448637247085571,-0.5078123211860657
1759304797254443800,11.15544384765625,-0.6439371109008789,1.325132966041565,-0.37712129950523376
1759304797264484000,11.165484130859374,-0.8034772872924805,1.4090285301208496,-0.23932549357414246
1759304797274524400,11.1755244140625,-0.8020420074462891,1.4291081428527832,-0.33158791065216064
1759304797284563700,11.185563720703126,-0.6758489608764648,1.4026470184326172,-0.4844079911708832
1759304797294605000,11.19560498046875,-0.6899986267089844,1.2898967266082764,-0.6155290603637695
1759304797304645000,11.20564501953125,-0.7280845642089844,1.1419907808303833,-0.589546799659729
1759304797314686000,11.21568603515625,-0.6425933837890625,1.0685079097747803,-0.3932233154773712
1759304797324726800,11.225726806640624,-0.512598991394043,1.0852594375610352,-0.25040194392204285
1759304797334765000,11.23576513671875,-0.36423397064208984,1.0062189102172852,-0.3857470750808716
1759304797344807200,11.24580712890625,-0.31910037994384766,1.0117712020874023,-0.4730539917945862
1759304797354844400,11.255844482421875,-0.3378639221191406,0.9897286891937256,-0.49686598777770996
1759304797364886000,11.265885986328126,-0.4049081802368164,0.9984380006790161,-0.5385180711746216
1759304797374925000,11.275925048828125,-0.5521650314331055,1.1140398979187012,-0.6896090507507324
1759304797384967000,11.285966796875,-0.7556381225585938,1.2363322973251343,-0.7866216897964478
1759304797395005400,11.29600537109375,-0.9784660339355469,1.280626893043518,-0.7987177968025208
1759304797405046300,11.30604638671875,-1.1063823699951172,1.1943563222885132,-0.8163713812828064
1759304797415087000,11.316087158203125,-1.0565156936645508,1.106679916381836,-0.8568576574325562
1759304797425125600,11.326125732421875,-0.9282798767089844,0.8783416152000427,-0.8365769982337952
1759304797435167000,11.3361669921875,-0.7985754013061523,0.7284425497055054,-0.7840986251831055
1759304797445205500,11.34620556640625,-0.765838623046875,0.5004553198814392,-0.6949529051780701
1759304797455241500,11.356241455078125,-0.8069438934326172,0.14833234250545502,-0.8466858267784119
1759304797465287200,11.366287109375,-0.880284309387207,0.03968595713376999,-0.8171941041946411
1759304797475327000,11.376326904296874,-0.9127712249755859,0.27540796995162964,-0.6875931024551392
1759304797485369300,11.386369384765626,-0.792515754699707,0.20675621926784515,-0.6410601139068604
1759304797495408600,11.39640869140625,-0.5663728713989258,0.05793394520878792,-0.6321575045585632
1759304797505448200,11.4064482421875,-0.41613006591796875,0.0631919875741005,-0.5550649762153625
1759304797515488300,11.41648828125,-0.2766227722167969,-0.020861219614744186,-0.3350229859352112
1759304797525527800,11.42652783203125,-0.052435874938964844,-0.17929860949516296,0.038614094257354736
1759304797535568000,11.43656787109375,-0.058536529541015625,-0.024682622402906418,0.48175835609436035
1759304797545609200,11.446609130859375,-0.40395641326904297,0.41581615805625916,0.4009894132614136
1759304797555648500,11.4566484375,-0.797276496887207,0.36464768648147583,0.15500104427337646
1759304797565688000,11.46668798828125,-0.752741813659668,0.28959912061691284,0.02612358331680298
1759304797575729400,11.4767294921875,-0.45930004119873047,0.32326531410217285,0.015578508377075195
1759304797585769000,11.48676904296875,-0.06141376495361328,0.4465925097465515,-0.0983285903930664
1759304797595809000,11.49680908203125,0.09500503540039062,0.5588717460632324,-0.13341182470321655
1759304797605850600,11.5068505859375,0.03858375549316406,0.5649974346160889,-0.06974774599075317
1759304797615888100,11.51688818359375,0.02083110809326172,0.491033673286438,-0.09056568145751953
1759304797625929200,11.52692919921875,-0.040030479431152344,0.473073810338974,-0.25385648012161255
1759304797635970800,11.536970703125,-0.10417842864990234,0.5107357501983643,-0.4195433259010315
1759304797646010000,11.547010009765625,-0.05480480194091797,0.5502009987831116,-0.5599361658096313
1759304797656047900,11.5570478515625,0.13538360595703125,0.5499944686889648,-0.5911937952041626
1759304797666090500,11.567090576171875,0.2390289306640625,0.4691597819328308,-0.5728862285614014
1759304797676130000,11.577130126953126,0.23564529418945312,0.3511790931224823,-0.5734562873840332
1759304797686169300,11.58716943359375,0.17500877380371094,0.26257631182670593,-0.5912600159645081
1759304797696210400,11.59721044921875,0.08467769622802734,0.2720552384853363,-0.64432293176651
1759304797706248700,11.607248779296874,0.026811599731445312,0.31153789162635803,-0.6700360774993896
1759304797716291300,11.617291259765626,0.04902172088623047,0.3797144293785095,-0.6882449388504028
1759304797726331100,11.6273310546875,0.07244682312011719,0.5077633857727051,-0.7303872108459473
1759304797736371500,11.637371337890626,-0.02802753448486328,0.6875239014625549,-0.7999403476715088
1759304797746411800,11.647411865234375,-0.1223459243774414,0.6692349910736084,-0.7587825059890747
1759304797756451000,11.657451171875,0.01357269287109375,0.47207486629486084,-0.49088597297668457
1759304797766491100,11.6674912109375,0.2776222229003906,0.3041454553604126,-0.2193450927734375
1759304797776531200,11.67753125,0.4525184631347656,0.2110971212387085,0.008999347686767578
1759304797786573000,11.687572998046875,0.5330743789672852,0.1882326304912567,0.14286047220230103
1759304797796611000,11.697611083984375,0.5141963958740234,0.12244653701782227,0.2390996813774109
1759304797806651400,11.7076513671875,0.36008167266845703,0.02642345428466797,0.27767491340637207
1759304797816693500,11.717693603515626,0.19524383544921875,0.027220115065574646,0.16790378093719482
1759304797826730200,11.727730224609376,0.058539390563964844,0.17761914432048798,-0.12948262691497803
1759304797836772600,11.737772705078125,-0.02720928192138672,0.3080768585205078,-0.45041418075561523
1759304797846813400,11.7478134765625,-0.15693950653076172,0.3587866425514221,-0.6624528169631958
1759304797856851500,11.7578515625,-0.27349376678466797,0.27546191215515137,-0.7219207286834717
1759304797866894300,11.767894287109375,-0.40301990509033203,0.13371282815933228,-0.6488227844238281
1759304797876931300,11.777931396484375,-0.44394588470458984,0.05912068486213684,-0.5496417284011841
1759304797886972200,11.78797216796875,-0.29829978942871094,0.08624910563230515,-0.4223676919937134
1759304797897011200,11.79801123046875,-0.14082908630371094,0.1237887293100357,-0.3813595771789551
1759304797907053300,11.80805322265625,-0.05445098876953125,0.11368849128484726,-0.3735407590866089
1759304797917093600,11.81809375,-0.015614509582519531,0.09448558837175369,-0.27513325214385986
1759304797927132200,11.828132080078126,0.032558441162109375,0.10425710678100586,-0.23234868049621582
1759304797937173800,11.838173828125,0.1187295913696289,0.12805891036987305,-0.2764132022857666
1759304797947212500,11.848212646484376,0.13079452514648438,0.14596477150917053,-0.40300440788269043
1759304797957255700,11.858255615234375,0.12859249114990234,0.15099874138832092,-0.5366051197052002
1759304797967294000,11.8682939453125,0.09901905059814453,0.12938649952411652,-0.6169652938842773
1759304797977333800,11.878333740234375,0.03048992156982422,0.12517082691192627,-0.6235110759735107
1759304797987372800,11.888372802734375,-0.03552532196044922,0.1195090115070343,-0.6019469499588013
1759304797997414700,11.89841455078125,-0.07270622253417969,0.06601104140281677,-0.5972554683685303
1759304798007454000,11.908453857421875,-0.013067245483398438,0.013693997636437416,-0.6175456047058105
1759304798017469000,11.918468994140625,0.1530284881591797,-0.0007604770362377167,-0.6222217082977295
1759304798027534000,11.9285341796875,0.2847862243652344,0.002171717584133148,-0.5772585868835449
1759304798037574000,11.938573974609374,0.29720211029052734,0.0024467892944812775,-0.5121437311172485
1759304798047614500,11.948614501953125,0.18800067901611328,0.03815567120909691,-0.4530998468399048
1759304798057655300,11.9586552734375,0.09076690673828125,0.07027766108512878,-0.39327800273895264
1759304798067695000,11.968695068359375,0.04642295837402344,0.07116337865591049,-0.3443031311035156
1759304798077736200,11.978736083984375,0.08626556396484375,0.02235364355146885,-0.31612586975097656
1759304798087777000,11.988777099609376,0.1955699920654297,0.0194225013256073,-0.2985117435455322
1759304798097814300,11.998814208984374,0.28727054595947266,0.08988221734762192,-0.2587207555770874
1759304798107856000,12.00885595703125,0.3299875259399414,0.17342637479305267,-0.22373759746551514
1759304798117895200,12.018895263671874,0.2936859130859375,0.22008036077022552,-0.19351863861083984
1759304798127934700,12.028934814453125,0.1974506378173828,0.20573514699935913,-0.14227354526519775
1759304798137974500,12.038974609375,0.13341999053955078,0.20190805196762085,-0.08708310127258301
1759304798148015400,12.049015380859375,0.0767965316772461,0.19319772720336914,-0.08894014358520508
1759304798158053600,12.0590537109375,0.05428123474121094,0.1955716758966446,-0.12279868125915527
1759304798168095500,12.069095458984375,0.01847076416015625,0.17055292427539825,-0.16586065292358398
1759304798178138400,12.079138427734375,0.018507957458496094,0.1659056693315506,-0.19548296928405762
1759304798188176400,12.08917626953125,0.03403759002685547,0.15768001973628998,-0.19358444213867188
1759304798198216400,12.099216552734376,0.055411338806152344,0.14169958233833313,-0.20432209968566895
1759304798208255700,12.109255859375,0.044437408447265625,0.09991755336523056,-0.20018017292022705
1759304798218296800,12.119296875,0.05138969421386719,0.09440141171216965,-0.23148441314697266
1759304798228337700,12.129337646484375,0.056026458740234375,0.08207947015762329,-0.2363969087600708
1759304798238376400,12.13937646484375,0.036780357360839844,0.06913261115550995,-0.21844744682312012
1759304798248417800,12.149417724609375,0.013998031616210938,0.07177159935235977,-0.20515036582946777
1759304798258457600,12.15945751953125,-0.0004596710205078125,0.060187868773937225,-0.19340646266937256
1759304798268496100,12.16949609375,0.0030345916748046875,0.06655699759721756,-0.19979417324066162
1759304798278537000,12.179536865234375,0.0221405029296875,0.10611037909984589,-0.2107175588607788
1759304798288579000,12.1895791015625,0.044701576232910156,0.1204366460442543,-0.23003244400024414
1759304798298617600,12.19961767578125,0.05061054229736328,0.1357649564743042,-0.2132258415222168
1759304798308660000,12.209659912109375,0.03929901123046875,0.1494915932416916,-0.19858717918395996
1759304798318697200,12.219697265625,0.05235481262207031,0.16691434383392334,-0.16342759132385254
1759304798328738000,12.229738037109374,0.07717037200927734,0.15820586681365967,-0.14970433712005615
1759304798338779000,12.23977880859375,0.06741714477539062,0.17107811570167542,-0.13531827926635742
1759304798348817400,12.2498173828125,0.09104347229003906,0.18167662620544434,-0.1282414197921753
1759304798358858000,12.25985791015625,0.09426593780517578,0.1850493997335434,-0.13973188400268555
1759304798368898600,12.269898681640624,0.07476425170898438,0.18595154583454132,-0.14834356307983398
1759304798378938600,12.279938720703125,0.06117725372314453,0.17684873938560486,-0.16058194637298584
1759304798388980700,12.289980712890625,0.04646873474121094,0.18849490582942963,-0.17506742477416992
1759304798399017500,12.300017578125,0.05199718475341797,0.18355347216129303,-0.185044527053833
1759304798409059000,12.31005908203125,0.05155658721923828,0.18115265667438507,-0.20823204517364502
1759304798419098600,12.3200986328125,0.054604530334472656,0.17404167354106903,-0.25394904613494873
1759304798429138400,12.330138427734376,0.059027671813964844,0.20605486631393433,-0.281530499458313
1759304798439180000,12.340179931640625,0.07285022735595703,0.21553069353103638,-0.33068621158599854
1759304798449218800,12.35021875,0.10454463958740234,0.19895809888839722,-0.3624316453933716
1759304798459262000,12.360261962890625,0.13634872436523438,0.18361832201480865,-0.3476964235305786
1759304798469298400,12.37029833984375,0.13552570343017578,0.19133895635604858,-0.3527106046676636
1759304798479339500,12.380339599609375,0.10051822662353516,0.20241397619247437,-0.35981905460357666
1759304798489400600,12.390400634765625,0.07872295379638672,0.21785053610801697,-0.33477747440338135
1759304798499421400,12.40042138671875,0.03540325164794922,0.20683079957962036,-0.30533599853515625
1759304798509459200,12.410459228515625,0.018373489379882812,0.19448567926883698,-0.28488993644714355
1759304798519499300,12.420499267578125,0.042018890380859375,0.20245975255966187,-0.2841893434524536
1759304798529540600,12.43054052734375,0.059711456298828125,0.2045411467552185,-0.29351043701171875
1759304798539582000,12.44058203125,0.0809164047241211,0.18642838299274445,-0.2945481538772583
1759304798549620200,12.4506201171875,0.07750225067138672,0.16825616359710693,-0.2858235836029053
1759304798559659500,12.460659423828124,0.07245540618896484,0.15993978083133698,-0.293634295463562
1759304798569699300,12.47069921875,0.0746450424194336,0.16705404222011566,-0.29062843322753906
1759304798579740700,12.48074072265625,0.07804393768310547,0.1826685070991516,-0.294732928276062
1759304798589756200,12.490756103515626,0.053893089294433594,0.1697063446044922,-0.28674471378326416
1759304798599821600,12.500821533203125,0.04055023193359375,0.17602866888046265,-0.2774728536605835
1759304798609861000,12.510861083984375,0.04504108428955078,0.16455791890621185,-0.27571988105773926
1759304798619901000,12.52090087890625,0.05420207977294922,0.12458567321300507,-0.28748011589050293
1759304798629942300,12.5309423828125,0.08213520050048828,0.0884842798113823,-0.3098924160003662
1759304798639982000,12.540982177734374,0.07594585418701172,0.10935381799936295,-0.31226634979248047
1759304798650022700,12.551022705078125,0.06740093231201172,0.13366392254829407,-0.28319740295410156
1759304798660061200,12.561061279296876,0.04334831237792969,0.16877658665180206,-0.26708054542541504
1759304798670101000,12.57110107421875,0.020336151123046875,0.16327893733978271,-0.2693544626235962
1759304798680142600,12.581142578125,0.016533851623535156,0.1716991662979126,-0.2576247453689575
1759304798690183000,12.591182861328125,0.05084037780761719,0.16206802427768707,-0.27161145210266113
1759304798700223000,12.601222900390624,0.07332420349121094,0.17998038232326508,-0.3036198616027832
1759304798710263300,12.61126318359375,0.09958839416503906,0.16061143577098846,-0.30845773220062256
1759304798720301600,12.621301513671876,0.0922536849975586,0.16168421506881714,-0.2972860336303711
1759304798730342700,12.6313427734375,0.09193897247314453,0.14027327299118042,-0.30288267135620117
1759304798740383000,12.641383056640626,0.08693981170654297,0.1355435997247696,-0.2964508533477783
1759304798750424000,12.651424072265625,0.07847404479980469,0.1545582264661789,-0.28637826442718506
1759304798760462000,12.661462158203125,0.07479000091552734,0.1675761342048645,-0.27420294284820557
1759304798770504000,12.67150390625,0.08051204681396484,0.14713895320892334,-0.27185046672821045
1759304798780542000,12.6815419921875,0.06832599639892578,0.12314420938491821,-0.269443154335022
1759304798790584800,12.691584716796875,0.05873584747314453,0.10741449147462845,-0.2539621591567993
1759304798800623900,12.701623779296876,0.057453155517578125,0.1191115453839302,-0.2516822814941406
1759304798810663000,12.711662841796874,0.065704345703125,0.10549554228782654,-0.23198151588439941
