time,seconds_elapsed,z,y,x
1759304786250365700,0.15136572265625,8.465754508972168,4.523218154907227,2.0267252922058105
1759304786260403500,0.161403564453125,8.525530815124512,4.405455589294434,2.0355327129364014
1759304786270444000,0.171444091796875,8.583402633666992,4.288475036621094,2.042128801345825
1759304786280484600,0.181484619140625,8.648427963256836,4.151578903198242,2.0506577491760254
1759304786290479000,0.19147900390625,8.722960472106934,3.989135980606079,2.0573902130126953
1759304786300565200,0.201565185546875,8.809638023376465,3.8021974563598633,2.041977882385254
1759304786310604800,0.211604736328125,8.90096378326416,3.588472604751587,2.032686471939087
1759304786320645600,0.221645751953125,8.989921569824219,3.3578004837036133,2.0353355407714844
1759304786330687000,0.23168701171875,9.073531150817871,3.1342103481292725,2.0208609104156494
1759304786340727000,0.24172705078125,9.136906623840332,2.9433791637420654,2.022266387939453
1759304786350766800,0.251766845703125,9.173684120178223,2.799274206161499,2.060021162033081
1759304786360808400,0.261808349609375,9.212079048156738,2.6925883293151855,2.030683755874634
1759304786370822400,0.271822509765625,9.264439582824707,2.625932216644287,1.873698353767395
1759304786380887300,0.28188720703125,9.328333854675293,2.568915367126465,1.618322491645813
1759304786390911000,0.291910888671875,9.373444557189941,2.5408270359039307,1.3852256536483765
1759304786400968000,0.301968017578125,9.401148796081543,2.5387277603149414,1.1871670484542847
1759304786411010000,0.312010009765625,9.406991958618164,2.5815274715423584,1.0393917560577393
1759304786421047300,0.32204736328125,9.393451690673828,2.675830364227295,0.9160256385803223
1759304786431094300,0.33209423828125,9.36442756652832,2.8139781951904297,0.7906497120857239
1759304786441130800,0.342130859375,9.32073974609375,2.9861533641815186,0.6654353737831116
1759304786451168500,0.35216845703125,9.261174201965332,3.18643856048584,0.559791088104248
1759304786461208600,0.36220849609375,9.185428619384766,3.409524440765381,0.4890245795249939
1759304786471250200,0.372250244140625,9.117104530334473,3.595475912094116,0.4325077533721924
1759304786481292000,0.3822919921875,9.019620895385742,3.8380324840545654,0.38993242383003235
1759304786491334100,0.392334228515625,8.92318344116211,4.063378810882568,0.3191485106945038
1759304786501369300,0.402369384765625,8.8484468460083,4.230997085571289,0.19941256940364838
1759304786511374600,0.41237451171875,8.803489685058594,4.327804088592529,0.06925719976425171
1759304786521426200,0.42242626953125,8.77872085571289,4.378207206726074,-0.03826301172375679
1759304786531489800,0.43248974609375,8.763604164123535,4.406851768493652,-0.12255501747131348
1759304786541532400,0.442532470703125,8.75153636932373,4.427647113800049,-0.2065451592206955
1759304786551572700,0.45257275390625,8.737298965454102,4.449031352996826,-0.3190958797931671
1759304786561618400,0.462618408203125,8.712549209594727,4.483051300048828,-0.47943633794784546
1759304786571626800,0.472626708984375,8.673954010009766,4.531410217285156,-0.6818705797195435
1759304786581691600,0.482691650390625,8.628266334533691,4.582863807678223,-0.8868425488471985
1759304786591732200,0.492732177734375,8.582104682922363,4.62057638168335,-1.1107932329177856
1759304786601772500,0.5027724609375,8.53148078918457,4.647515296936035,-1.3603507280349731
1759304786611787800,0.512787841796875,8.473296165466309,4.669939041137695,-1.6220436096191406
1759304786621852700,0.522852783203125,8.409461975097656,4.686864376068115,-1.8842368125915527
1759304786631892200,0.532892333984375,8.341484069824219,4.6935296058654785,-2.150937080383301
1759304786641933300,0.542933349609375,8.268474578857422,4.685335636138916,-2.43229603767395
1759304786651972000,0.55297216796875,8.18441390991211,4.661442756652832,-2.742704391479492
1759304786662013000,0.563012939453125,8.089338302612305,4.621838092803955,-3.072021961212158
1759304786672053200,0.57305322265625,7.98832893371582,4.565120697021484,-3.403290271759033
1759304786682094600,0.583094482421875,7.892799377441406,4.427774906158447,-3.7861099243164062
1759304786692135700,0.5931357421875,7.799426555633545,4.339737415313721,-4.070839881896973
1759304786702175200,0.60317529296875,7.7365851402282715,4.238800525665283,-4.2911458015441895
1759304786712215000,0.613215087890625,7.725272178649902,4.125901699066162,-4.419640064239502
1759304786722256000,0.623255859375,7.783624172210693,3.9377803802490234,-4.488338947296143
1759304786732294700,0.633294677734375,7.872490406036377,3.718134641647339,-4.520562171936035
1759304786742334200,0.643334228515625,7.936598777770996,3.5439465045928955,-4.54829216003418
1759304786752375300,0.653375244140625,7.984475612640381,3.3604347705841064,-4.603448390960693
1759304786762417200,0.663417236328125,7.998630046844482,3.1825554370880127,-4.70418643951416
1759304786772456700,0.673456787109375,7.974703788757324,3.0015196800231934,-4.861180305480957
1759304786782496000,0.68349609375,7.90987491607666,2.8570845127105713,-5.050451278686523
1759304786792536000,0.6935361328125,7.828486919403076,2.7294323444366455,-5.2441487312316895
1759304786802578200,0.703578125,7.745678424835205,2.610713481903076,-5.4244585037231445
1759304786812616400,0.713616455078125,7.672640323638916,2.482130765914917,-5.586207866668701
1759304786822658600,0.723658447265625,7.602405548095703,2.349433660507202,-5.7375688552856445
1759304786832697600,0.733697509765625,7.532352447509766,2.2010152339935303,-5.886876583099365
1759304786842748400,0.74374853515625,7.457297325134277,2.030130386352539,-6.041804790496826
1759304786852777200,0.753777099609375,7.36494255065918,1.8312559127807617,-6.216126918792725
1759304786862793000,0.76379296875,7.238733291625977,1.5999900102615356,-6.424707889556885
1759304786872858000,0.773858154296875,7.073511600494385,1.3304473161697388,-6.665692329406738
1759304786882900000,0.78389990234375,6.88127326965332,1.0164285898208618,-6.917445659637451
1759304786892939800,0.793939697265625,6.647243022918701,0.4582129716873169,-7.200021266937256
1759304786902979800,0.803979736328125,6.439901828765869,0.05060239136219025,-7.400081634521484
1759304786912994300,0.813994384765625,6.230752468109131,-0.37320470809936523,-7.567996025085449
1759304786923060000,0.82406005859375,6.0147480964660645,-0.7871708869934082,-7.70968770980835
1759304786933100000,0.83410009765625,5.783688068389893,-1.1759233474731445,-7.835959434509277
1759304786943140400,0.844140380859375,5.528351783752441,-1.5443812608718872,-7.955395698547363
1759304786953179600,0.8541796875,5.253767967224121,-1.9021751880645752,-8.063234329223633
1759304786963196400,0.864196533203125,4.986104488372803,-2.2674379348754883,-8.138402938842773
1759304786973260800,0.8742607421875,4.760619640350342,-2.6511106491088867,-8.157464027404785
1759304786983301400,0.88430126953125,4.582602500915527,-3.064115285873413,-8.11462116241455
1759304786993342000,0.894342041015625,4.446011066436768,-3.502237319946289,-8.01270580291748
1759304787003381000,0.904381103515625,4.335901260375977,-3.94167160987854,-7.867610454559326
1759304787013421600,0.914421630859375,4.2336745262146,-4.346758842468262,-7.708293914794922
1759304787023461600,0.924461669921875,4.1382880210876465,-4.688131332397461,-7.55858039855957
1759304787033503200,0.934503173828125,4.059219837188721,-4.951245307922363,-7.4326324462890625
1759304787043544600,0.944544677734375,4.001753807067871,-5.137006759643555,-7.337115287780762
1759304787053561600,0.9545615234375,3.97036075592041,-5.2534685134887695,-7.271411895751953
1759304787063628800,0.96462890625,3.9709980487823486,-5.319073677062988,-7.223207473754883
1759304787073646000,0.97464599609375,4.006147861480713,-5.347827434539795,-7.1824541091918945
1759304787083705600,0.98470556640625,4.056666374206543,-5.3460211753845215,-7.155392646789551
1759304787093742600,0.99474267578125,4.032689094543457,-5.346550941467285,-7.168537616729736
1759304787103784700,1.00478466796875,3.816664457321167,-5.40781831741333,-7.240489959716797
1759304787113825000,1.014824951171875,3.4721782207489014,-5.534236431121826,-7.317944526672363
1759304787123863800,1.02486376953125,3.236476421356201,-5.702630519866943,-7.296667098999023
1759304787133905200,1.0349052734375,2.974669933319092,-5.724972724914551,-7.390002727508545
1759304787143945500,1.044945556640625,2.855502128601074,-5.833750247955322,-7.351841926574707
1759304787153985500,1.054985595703125,2.777313470840454,-5.924645900726318,-7.3089823722839355
1759304787164008000,1.065008056640625,2.6168296337127686,-5.984936714172363,-7.319075107574463
1759304787174066000,1.07506591796875,2.401545524597168,-6.006070613861084,-7.375352382659912
1759304787184106500,1.0851064453125,2.16239857673645,-5.930014610290527,-7.509664535522461
1759304787194145300,1.095145263671875,1.929519534111023,-5.866305351257324,-7.622304916381836
1759304787204164000,1.1051640625,1.6841540336608887,-5.828561305999756,-7.7089314460754395
1759304787214226700,1.115226806640625,1.4562593698501587,-5.8175177574157715,-7.763500213623047
1759304787224266800,1.125266845703125,1.2378641366958618,-5.865139961242676,-7.765560150146484
1759304787234308400,1.135308349609375,1.0110737085342407,-5.8755011558532715,-7.790529251098633
1759304787244331500,1.14533154296875,0.7804247140884399,-5.851470947265625,-7.8350067138671875
1759304787254388000,1.155387939453125,0.6010251045227051,-5.819777965545654,-7.874330997467041
1759304787264387300,1.16538720703125,0.4891739785671234,-5.788547992706299,-7.905032634735107
1759304787274467300,1.17546728515625,0.4313587546348572,-5.760760307312012,-7.9286627769470215
1759304787284509700,1.185509765625,0.3860931396484375,-5.731485366821289,-7.952178001403809
1759304787294547700,1.195547607421875,0.31255796551704407,-5.7046284675598145,-7.974686145782471
1759304787304564000,1.20556396484375,0.21293893456459045,-5.6791672706604,-7.996112823486328
1759304787314629600,1.215629638671875,0.1018596738576889,-5.658263206481934,-8.013102531433105
1759304787324648000,1.22564794921875,-0.019149338826537132,-5.642714023590088,-8.02468204498291
1759304787334736400,1.235736328125,-0.14723406732082367,-5.629038333892822,-8.032954216003418
1759304787344748800,1.245748779296875,-0.2726419270038605,-5.617161750793457,-8.03799057006836
1759304787354788600,1.25578857421875,-0.38444802165031433,-5.6005988121032715,-8.044974327087402
1759304787364805400,1.265805419921875,-0.47006383538246155,-5.572860240936279,-8.059676170349121
1759304787374871300,1.275871337890625,-0.5257565379142761,-5.546535491943359,-8.074381828308105
1759304787384911000,1.2859111328125,-0.5494076013565063,-5.533292770385742,-8.081890106201172
1759304787394953000,1.295952880859375,-0.5375737547874451,-5.5411224365234375,-8.077322006225586
1759304787404993000,1.305992919921875,-0.5144470930099487,-5.5559163093566895,-8.068657875061035
1759304787415033300,1.316033447265625,-0.495400995016098,-5.549034118652344,-8.074584007263184
1759304787425047800,1.3260478515625,-0.48471665382385254,-5.519982814788818,-8.095120429992676
1759304787435113000,1.336113037109375,-0.48169568181037903,-5.481070041656494,-8.121696472167969
1759304787445150200,1.346150146484375,-0.48687660694122314,-5.433232307434082,-8.153470039367676
1759304787455194600,1.356194580078125,-0.49995070695877075,-5.387973785400391,-8.182659149169922
1759304787465232100,1.366232177734375,-0.5303120613098145,-5.342091083526611,-8.210783958435059
1759304787475272200,1.376272216796875,-0.5776365399360657,-5.2995076179504395,-8.235149383544922
1759304787485313500,1.3863134765625,-0.6318355202674866,-5.26571798324585,-8.252826690673828
1759304787495329300,1.396329345703125,-0.6694062352180481,-5.24359130859375,-8.263943672180176
1759304787505393700,1.4063935546875,-0.6610461473464966,-5.243842124938965,-8.264457702636719
1759304787515434000,1.41643408203125,-0.6484404802322388,-5.235477447509766,-8.270756721496582
1759304787525474300,1.426474365234375,-0.6233450770378113,-5.230679988861084,-8.275720596313477
1759304787535545000,1.436545166015625,-0.5835852026939392,-5.22449254989624,-8.282526016235352
1759304787545555000,1.446554931640625,-0.5268423557281494,-5.207212924957275,-8.297198295593262
1759304787555595500,1.456595458984375,-0.4468916058540344,-5.170312404632568,-8.324919700622559
1759304787565635800,1.4666357421875,-0.3657076954841614,-5.11493444442749,-8.363004684448242
1759304787575652000,1.476652099609375,-0.3021560609340668,-5.056885242462158,-8.4007568359375
1759304787585717500,1.486717529296875,-0.22490262985229492,-4.989902496337891,-8.443127632141113
1759304787595733200,1.496733154296875,-0.1394110769033432,-4.912628650665283,-8.490157127380371
1759304787605797400,1.50679736328125,-0.023889677599072456,-4.822098731994629,-8.543004035949707
1759304787615835000,1.5168349609375,0.14882831275463104,-4.725057125091553,-8.595800399780273
1759304787625877200,1.526877197265625,0.36596670746803284,-4.623771667480469,-8.644242286682129
1759304787635892000,1.53689208984375,0.594158411026001,-4.530899524688721,-8.680671691894531
1759304787645931800,1.546931884765625,0.7830180525779724,-4.500392436981201,-8.681559562683105
1759304787655997000,1.556996826171875,0.965006947517395,-4.463614463806152,-8.682225227355957
1759304787666038000,1.5670380859375,1.1395699977874756,-4.39866304397583,-8.694209098815918
1759304787676078600,1.57707861328125,1.2937442064285278,-4.310600280761719,-8.716712951660156
1759304787686101500,1.5871015625,1.4343492984771729,-4.1902971267700195,-8.7532958984375
1759304787696132900,1.5971328125,1.5682953596115112,-4.033028602600098,-8.804047584533691
1759304787706198800,1.60719873046875,1.689124584197998,-3.8268699645996094,-8.873444557189941
1759304787716215600,1.617215576171875,1.7867679595947266,-3.5626795291900635,-8.9638671875
1759304787726278400,1.6272783203125,1.8545316457748413,-3.2570834159851074,-9.065773963928223
1759304787736319000,1.637319091796875,1.907174825668335,-2.944179058074951,-9.161364555358887
1759304787746335700,1.647335693359375,1.9883184432983398,-2.6519148349761963,-9.2330961227417
1759304787756400000,1.657400146484375,2.102019786834717,-2.405869960784912,-9.275203704833984
1759304787766416000,1.667415771484375,2.089123487472534,-2.666288375854492,-9.206658363342285
1759304787776480800,1.677480712890625,2.2065250873565674,-2.5804147720336914,-9.20373821258545
1759304787786517200,1.687517333984375,2.3120665550231934,-2.4982423782348633,-9.2005033493042
1759304787796560400,1.697560302734375,2.4271068572998047,-2.392627477645874,-9.198945999145508
1759304787806600000,1.707599853515625,2.5313827991485596,-2.245042085647583,-9.208040237426758
1759304787816604700,1.717604736328125,2.62964129447937,-2.0788187980651855,-9.219522476196289
1759304787826665000,1.7276650390625,2.674248218536377,-1.8304461240768433,-9.25926399230957
1759304787836724000,1.737723876953125,2.76710844039917,-1.6952561140060425,-9.257719039916992
1759304787846762500,1.747762451171875,2.8607282638549805,-1.5919667482376099,-9.247591972351074
1759304787856804400,1.757804443359375,2.9630672931671143,-1.5373657941818237,-9.224578857421875
1759304787866842400,1.76784228515625,3.06748628616333,-1.5381584167480469,-9.1902494430542
1759304787876857900,1.77785791015625,3.17370343208313,-1.5756168365478516,-9.147741317749023
1759304787886922500,1.787922607421875,3.2940561771392822,-1.6184160709381104,-9.097583770751953
1759304787896953000,1.797953125,3.4067230224609375,-1.651915431022644,-9.049946784973145
1759304787907004400,1.80800439453125,3.5255637168884277,-1.6684879064559937,-9.001258850097656
1759304787917043700,1.818043701171875,3.649627208709717,-1.673026442527771,-8.95082950592041
1759304787927043600,1.828043701171875,3.713353395462036,-1.6857208013534546,-8.922188758850098
1759304787937100000,1.83810009765625,3.7918283939361572,-1.741904377937317,-8.87828254699707
1759304787947135000,1.848135009765625,3.838170289993286,-1.7907615900039673,-8.848600387573242
1759304787967235600,1.868235595703125,3.951157808303833,-1.9302875995635986,-8.76917552947998
1759304787977287200,1.878287109375,4.002774715423584,-1.9923113584518433,-8.731816291809082
1759304787987306000,1.888305908203125,4.066220283508301,-2.0407683849334717,-8.691215515136719
1759304787997365200,1.898365234375,4.1301445960998535,-2.0792529582977295,-8.651862144470215
1759304788007406300,1.90840625,4.171175479888916,-2.1096606254577637,-8.624775886535645
1759304788017423600,1.918423583984375,4.199590682983398,-2.148543119430542,-8.60135555267334
1759304788027487700,1.92848779296875,4.223395347595215,-2.2016451358795166,-8.5762357711792
1759304788037514000,1.938513916015625,4.250611782073975,-2.2639663219451904,-8.546512603759766
1759304788047567000,1.948567138671875,4.275842666625977,-2.3351030349731445,-8.514726638793945
1759304788057613600,1.958613525390625,4.30347204208374,-2.4101762771606445,-8.479816436767578
1759304788067615500,1.968615478515625,4.334752082824707,-2.4776132106781006,-8.444375991821289
1759304788077688000,1.97868798828125,4.365421295166016,-2.532911539077759,-8.412107467651367
1759304788087703300,1.988703369140625,4.395511150360107,-2.5733935832977295,-8.384105682373047
1759304788097768000,1.998767822265625,4.423320770263672,-2.5972237586975098,-8.362103462219238
1759304788107808300,2.008808349609375,4.448729038238525,-2.6096322536468506,-8.344744682312012
1759304788117823500,2.018823486328125,4.4766459465026855,-2.6186115741729736,-8.326980590820312
1759304788127889400,2.028889404296875,4.492888450622559,-2.611814260482788,-8.320366859436035
1759304788137921000,2.038921142578125,4.501277446746826,-2.598137378692627,-8.320113182067871
1759304788147970000,2.048969970703125,4.505495071411133,-2.58780574798584,-8.321051597595215
1759304788158009300,2.05900927734375,4.506882667541504,-2.5854265689849854,-8.321039199829102
1759304788168009200,2.06900927734375,4.509856224060059,-2.5928239822387695,-8.31712532043457
1759304788178091800,2.079091796875,4.516223430633545,-2.6093640327453613,-8.308493614196777
1759304788188105700,2.089105712890625,4.520038604736328,-2.6343741416931152,-8.2985200881958
1759304788198169600,2.099169677734375,4.516055107116699,-2.6660170555114746,-8.290579795837402
1759304788208211200,2.109211181640625,4.508118629455566,-2.6985442638397217,-8.28437328338623
1759304788218275800,2.11927587890625,4.499872207641602,-2.7273309230804443,-8.279426574707031
1759304788228266800,2.129266845703125,4.490818977355957,-2.7498159408569336,-8.27690601348877
1759304788238310700,2.139310546875,4.486381530761719,-2.7661280632019043,-8.273877143859863
1759304788248371700,2.149371826171875,4.484511852264404,-2.7618424892425537,-8.276321411132812
1759304788258412500,2.15941259765625,4.463761806488037,-2.6846635341644287,-8.312853813171387
1759304788268427800,2.169427734375,4.425122261047363,-2.566884756088257,-8.370514869689941
1759304788278491100,2.1794912109375,4.394996166229248,-2.431178569793701,-8.426712989807129
1759304788288507600,2.189507568359375,4.410099029541016,-2.4523401260375977,-8.412678718566895
1759304788298572500,2.199572509765625,4.420992374420166,-2.4789834022521973,-8.399142265319824
1759304788308615400,2.209615478515625,4.422450542449951,-2.5113120079040527,-8.388763427734375
1759304788318643000,2.219642822265625,4.412075996398926,-2.5490214824676514,-8.382851600646973
1759304788328679200,2.22967919921875,4.384984016418457,-2.5924882888793945,-8.383736610412598
1759304788338709200,2.239709228515625,4.332953453063965,-2.6441636085510254,-8.39464282989502
1759304788348758800,2.2497587890625,4.24961519241333,-2.7077414989471436,-8.416949272155762
1759304788358805200,2.25980517578125,4.133453845977783,-2.785080909729004,-8.449496269226074
1759304788368854800,2.269854736328125,3.989495277404785,-2.875321626663208,-8.488378524780273
1759304788378893300,2.279893310546875,3.8223979473114014,-2.9744951725006104,-8.530988693237305
1759304788388935400,2.289935302734375,3.620309352874756,-3.0806992053985596,-8.581302642822266
1759304788398976800,2.299976806640625,3.3775277137756348,-3.191741943359375,-8.639514923095703
1759304788409010200,2.31001025390625,3.108699321746826,-3.289468288421631,-8.703533172607422
1759304788419055400,2.320055419921875,2.813140630722046,-3.3981082439422607,-8.762146949768066
1759304788429098000,2.330097900390625,2.464980363845825,-3.4908831119537354,-8.83027172088623
1759304788439112000,2.34011181640625,2.0527615547180176,-3.549686908721924,-8.91190242767334
1759304788459205000,2.360205078125,1.2021434307098389,-3.585843563079834,-9.051668167114258
1759304788469228300,2.370228271484375,0.8192838430404663,-3.5921530723571777,-9.091827392578125
1759304788489293600,2.39029345703125,-0.09622398018836975,-3.2739272117614746,-9.24706745147705
1759304788499379700,2.400379638671875,-0.5652889609336853,-3.423438549041748,-9.175871849060059
1759304788509393700,2.4103935546875,-0.798170268535614,-3.5127906799316406,-9.124656677246094
1759304788519459600,2.42045947265625,-0.983571469783783,-3.6524248123168945,-9.051436424255371
1759304788529476400,2.430476318359375,-1.0900931358337402,-3.7993059158325195,-8.978479385375977
1759304788539515100,2.44051513671875,-1.1158767938613892,-3.87355899810791,-8.943517684936523
1759304788549554700,2.4505546875,-1.1152868270874023,-3.8739686012268066,-8.943411827087402
1759304788579688200,2.480688232421875,-1.1029112339019775,-4.258700847625732,-8.768305778503418
1759304788599790800,2.500790771484375,-1.2943249940872192,-4.908838272094727,-8.394292831420898
1759304788609810400,2.510810546875,-1.366927146911621,-5.105696678161621,-8.264352798461914
1759304788619837200,2.520837158203125,-1.4473011493682861,-5.320122718811035,-8.114045143127441
1759304788629866200,2.5308662109375,-1.4301798343658447,-5.696294784545898,-7.857666492462158
1759304788639929000,2.54092919921875,-1.5295442342758179,-5.815751075744629,-7.750721454620361
1759304788649968400,2.550968505859375,-1.7493743896484375,-5.874997615814209,-7.658995151519775
1759304788660022000,2.56102197265625,-1.8760539293289185,-5.8906941413879395,-7.616842269897461
1759304788670063400,2.5710634765625,-1.9143304824829102,-5.909234523773193,-7.592920303344727
1759304788680103200,2.581103271484375,-1.8984653949737549,-5.951237678527832,-7.564042091369629
1759304788690118400,2.591118408203125,-1.8446439504623413,-5.994287967681885,-7.5433349609375
1759304788700183000,2.60118310546875,-1.774636149406433,-6.017918586730957,-7.541314601898193
1759304788710223600,2.6112236328125,-1.7498658895492554,-6.053917407989502,-7.518255710601807
1759304788720256800,2.6212568359375,-1.8021256923675537,-6.119744300842285,-7.452326774597168
1759304788740319700,2.64131982421875,-2.1329214572906494,-6.365581035614014,-7.153051376342773
1759304788770464800,2.67146484375,-2.0517709255218506,-6.877773284912109,-6.687496662139893
1759304788780505900,2.681505859375,-1.9299037456512451,-7.0239691734313965,-6.570801734924316
1759304788790546200,2.691546142578125,-1.8965719938278198,-7.127155303955078,-6.468598365783691
1759304788800585500,2.70158544921875,-1.8937755823135376,-7.197521686553955,-6.391042232513428
1759304788810626300,2.711626220703125,-1.7996914386749268,-7.226573467254639,-6.385440826416016
1759304788820665900,2.721665771484375,-1.6737252473831177,-7.170151233673096,-6.482566833496094
1759304788830706000,2.731705810546875,-1.6407556533813477,-7.187205791473389,-6.472103118896484
1759304788840749000,2.7417490234375,-1.578360676765442,-7.210095405578613,-6.462152481079102
1759304788850786300,2.751786376953125,-1.3418693542480469,-7.255137920379639,-6.465174674987793
1759304788860827100,2.7618271484375,-1.3305675983428955,-7.237942218780518,-6.486747741699219
1759304788870867500,2.771867431640625,-1.3142342567443848,-7.20242977142334,-6.529466152191162
1759304788880908000,2.781907958984375,-1.3045223951339722,-7.158635139465332,-6.5793843269348145
1759304788890922500,2.791922607421875,-1.3161250352859497,-7.124257564544678,-6.614297389984131
1759304788900988700,2.80198876953125,-1.3966954946517944,-7.125024795532227,-6.596924304962158
1759304788911028500,2.812028564453125,-1.4316948652267456,-7.167236804962158,-6.543476581573486
1759304788921070600,2.822070556640625,-1.4136816263198853,-7.240767478942871,-6.465980529785156
1759304788931115800,2.83211572265625,-1.4016454219818115,-7.323507308959961,-6.374774932861328
1759304788941154800,2.84215478515625,-1.4123728275299072,-7.398113250732422,-6.285637855529785
1759304788951190800,2.852190673828125,-1.4498966932296753,-7.4648871421813965,-6.197528839111328
1759304788961229600,2.8622294921875,-1.5374304056167603,-7.536722183227539,-6.088533878326416
1759304788971270400,2.8722705078125,-1.6355253458023071,-7.628755569458008,-5.94670295715332
1759304788981315300,2.8823154296875,-1.662764310836792,-7.745090484619141,-5.786615371704102
1759304788991357200,2.892357177734375,-1.6198290586471558,-7.893124580383301,-5.5956130027771
1759304789001389600,2.9023896484375,-1.5237298011779785,-8.0692777633667,-5.3666672706604
1759304789011431400,2.912431396484375,-1.4026769399642944,-8.271384239196777,-5.084569931030273
1759304789021471700,2.9224716796875,-1.2789998054504395,-8.50259780883789,-4.722936153411865
1759304789031510500,2.932510498046875,-1.2264901399612427,-8.738826751708984,-4.285412311553955
1759304789041552000,2.9425517578125,-1.1788966655731201,-8.966768264770508,-3.8004467487335205
1759304789051592200,2.95259228515625,-1.0605852603912354,-9.182161331176758,-3.2862138748168945
1759304789061632500,2.962632568359375,-0.9251833558082581,-9.364484786987305,-2.7724697589874268
1759304789071671300,2.97267138671875,-0.7313843965530396,-9.51882266998291,-2.2568106651306152
1759304789081712600,2.982712646484375,-0.5035744905471802,-9.640009880065918,-1.7472180128097534
1759304789091752700,2.992752685546875,-0.27067112922668457,-9.723881721496582,-1.2684587240219116
1759304789101792500,3.00279248046875,-0.10525280982255936,-9.775737762451172,-0.8124039769172668
1759304789111834600,3.012834716796875,-0.01545536145567894,-9.802658081054688,-0.37919750809669495
1759304789121875500,3.02287548828125,0.04574627801775932,-9.809887886047363,0.011103278025984764
1759304789131914200,3.032914306640625,0.1085980013012886,-9.802553176879883,0.36644092202186584
1759304789141954800,3.042954833984375,0.17303140461444855,-9.7841215133667,0.6907511949539185
1759304789151993900,3.052993896484375,0.1979042887687683,-9.757414817810059,0.994895875453949
1759304789162034400,3.063034423828125,0.17897216975688934,-9.722254753112793,1.2968662977218628
1759304789172074800,3.07307470703125,0.1770104318857193,-9.681547164916992,1.5723975896835327
1759304789182115600,3.083115478515625,0.21817073225975037,-9.645613670349121,1.7750030755996704
1759304789192155000,3.09315478515625,0.2582317590713501,-9.624030113220215,1.8834800720214844
1759304789202195500,3.103195556640625,0.2758505940437317,-9.610885620117188,1.9470182657241821
1759304789212236800,3.11323681640625,0.27725160121917725,-9.616743087768555,1.917681336402893
1759304789222275300,3.123275390625,0.28792625665664673,-9.625978469848633,1.8691517114639282
1759304789232316000,3.13331591796875,0.29851675033569336,-9.63824462890625,1.803125262260437
1759304789242357200,3.143357177734375,0.2979624271392822,-9.652398109436035,1.7258403301239014
1759304789252398000,3.153398193359375,0.2878701388835907,-9.664412498474121,1.6590373516082764
1759304789262436900,3.163436767578125,0.26949816942214966,-9.668889045715332,1.6358731985092163
1759304789272477400,3.1734775390625,0.2508566677570343,-9.670404434204102,1.6298760175704956
1759304789282517200,3.183517333984375,0.2398083508014679,-9.672934532165527,1.6164660453796387
1759304789292557600,3.1935576171875,0.23508614301681519,-9.674958229064941,1.6050101518630981
1759304789302599200,3.20359912109375,0.23009730875492096,-9.662786483764648,1.6774147748947144
1759304789312637700,3.2136376953125,0.22926582396030426,-9.664052963256836,1.6702241897583008
1759304789322679600,3.223679443359375,0.22480498254299164,-9.66484260559082,1.6662583351135254
1759304789332719900,3.233719970703125,0.21550674736499786,-9.665998458862305,1.6607609987258911
1759304789342759000,3.243759033203125,0.20749196410179138,-9.667065620422363,1.6555672883987427
1759304789352798500,3.253798583984375,0.20351409912109375,-9.66802978515625,1.6504175662994385
1759304789362841000,3.263841064453125,0.198383167386055,-9.66943073272705,1.642820954322815
1759304789372880100,3.273880126953125,0.18929894268512726,-9.671167373657227,1.6336451768875122
1759304789382918700,3.283918701171875,0.18103155493736267,-9.672527313232422,1.6265147924423218
1759304789392962000,3.293962158203125,0.17482474446296692,-9.673813819885254,1.6195271015167236
1759304789402976000,3.30397607421875,0.16886934638023376,-9.674600601196289,1.6154638528823853
1759304789413016300,3.314016357421875,0.16445353627204895,-9.67514419555664,1.6126554012298584
1759304789423057000,3.324056884765625,0.16045929491519928,-9.675617218017578,1.6102168560028076
1759304789433097700,3.33409765625,0.15766490995883942,-9.67611312866211,1.607519268989563
1759304789443163400,3.344163330078125,0.154384046792984,-9.676573753356934,1.6050505638122559
1759304789453201200,3.354201171875,0.15119555592536926,-9.677059173583984,1.602432131767273
1759304789463242800,3.36424267578125,0.14817488193511963,-9.677536010742188,1.5998287200927734
1759304789473282800,3.37428271484375,0.1452220380306244,-9.67801284790039,1.5972213745117188
1759304789483321000,3.384321044921875,0.1420212686061859,-9.678498268127441,1.5945614576339722
1759304789493363700,3.39436376953125,0.13871993124485016,-9.678996086120605,1.5918244123458862
1759304789503403500,3.404403564453125,0.13569985330104828,-9.67943286895752,1.5894291400909424
1759304789513443300,3.414443359375,0.13343463838100433,-9.679742813110352,1.5877317190170288
1759304789523483600,3.424483642578125,0.13220028579235077,-9.679922103881836,1.5867414474487305
1759304789533523500,3.4345234375,0.13181963562965393,-9.67996883392334,1.5864835977554321
1759304789543564000,3.44456396484375,0.13145534694194794,-9.679960250854492,1.5865671634674072
1759304789553605600,3.454605712890625,0.13065603375434875,-9.679965019226074,1.5865949392318726
1759304789563645200,3.464645263671875,0.12944157421588898,-9.679999351501465,1.586504340171814
1759304789573684500,3.4746845703125,0.12861184775829315,-9.680073738098145,1.5861049890518188
1759304789583724000,3.48472412109375,0.12799380719661713,-9.6801176071167,1.5858886241912842
1759304789593765400,3.494765380859375,0.12677991390228271,-9.68007755279541,1.5862338542938232
1759304789603805400,3.504805419921875,0.12508715689182281,-9.67992877960205,1.5872732400894165
1759304789613845500,3.514845458984375,0.12391010671854019,-9.679665565490723,1.58896803855896
1759304789623886800,3.524886962890625,0.12341894209384918,-9.679306983947754,1.5911990404129028
1759304789633925400,3.53492529296875,0.12404809892177582,-9.678854942321777,1.5939007997512817
1759304789643968000,3.544968017578125,0.12556487321853638,-9.678361892700195,1.5967679023742676
1759304789654005200,3.555005126953125,0.1272827833890915,-9.677934646606445,1.5992237329483032
1759304789664046000,3.565046142578125,0.1285843700170517,-9.677635192871094,1.6009281873703003
1759304789674088000,3.575087890625,0.1297350972890854,-9.677448272705078,1.6019529104232788
1759304789684128500,3.58512841796875,0.13052330911159515,-9.677312850952148,1.6027253866195679
1759304789694166300,3.595166259765625,0.13029994070529938,-9.677162170410156,1.6036442518234253
1759304789704208600,3.605208740234375,0.1292532980442047,-9.676961898803711,1.60492742061615
1759304789714250000,3.61525,0.127631276845932,-9.676756858825684,1.6063082218170166
1759304789724287000,3.625286865234375,0.12560462951660156,-9.676590919494629,1.6074601411819458
1759304789734328000,3.635328125,0.12310494482517242,-9.676547050476074,1.6079246997833252
1759304789744367600,3.64536767578125,0.1202930212020874,-9.67662525177002,1.6076642274856567
1759304789754408400,3.655408447265625,0.11724545061588287,-9.67679214477539,1.6068824529647827
1759304789764449500,3.665449462890625,0.11355936527252197,-9.677021026611328,1.6057661771774292
1759304789774488300,3.67548828125,0.10895994305610657,-9.6773099899292,1.60434889793396
1759304789784529400,3.685529296875,0.10416054725646973,-9.677623748779297,1.6027648448944092
1759304789794571800,3.69557177734375,0.09941612184047699,-9.67795181274414,1.6010948419570923
1759304789804610300,3.7056103515625,0.09418636560440063,-9.678284645080566,1.5993837118148804
1759304789814649900,3.71564990234375,0.0884099081158638,-9.678654670715332,1.5974804162979126
1759304789824689400,3.725689453125,0.08255099505186081,-9.679100036621094,1.5950918197631836
1759304789834730500,3.73573046875,0.07684177160263062,-9.679615020751953,1.5922515392303467
1759304789844772600,3.745772705078125,0.07088696956634521,-9.680182456970215,1.5890783071517944
1759304789854812400,3.7558125,0.06397321820259094,-9.680807113647461,1.585553526878357
1759304789864851000,3.765850830078125,0.05566725134849548,-9.681495666503906,1.581660509109497
1759304789874890200,3.77589013671875,0.045670848339796066,-9.682262420654297,1.577285885810852
1759304789884932000,3.78593212890625,0.03396179899573326,-9.68314266204834,1.5721789598464966
1759304789894972000,3.795971923828125,0.021936414763331413,-9.684192657470703,1.565902829170227
1759304789905013800,3.806013671875,0.007365153171122074,-9.685432434082031,1.5583453178405762
1759304789915053000,3.816052978515625,-0.013436317443847656,-9.6869535446167,1.5488301515579224
1759304789925092900,3.8260927734375,-0.04093635827302933,-9.68873405456543,1.5371661186218262
1759304789935133700,3.8361337890625,-0.07432688772678375,-9.690556526184082,1.524375319480896
1759304789945172700,3.8461728515625,-0.11452006548643112,-9.692394256591797,1.5101341009140015
1759304789955213000,3.856213134765625,-0.16255611181259155,-9.694594383239746,1.4914870262145996
1759304789965255000,3.8662548828125,-0.2142963707447052,-9.697005271911621,1.469116449356079
1759304789975294500,3.87629443359375,-0.2034088522195816,-9.696375846862793,1.474799394607544
1759304789985336800,3.8863369140625,-0.11092986911535263,-9.689970016479492,1.5258780717849731
1759304789995375600,3.896375732421875,-0.18593093752861023,-9.692390441894531,1.5030330419540405
1759304790005417000,3.9064169921875,-0.2673738896846771,-9.695618629455566,1.4695676565170288
1759304790015455200,3.916455322265625,-0.34140607714653015,-9.707161903381348,1.3749788999557495
1759304790025494300,3.926494384765625,-0.22999264299869537,-9.687253952026367,1.5298179388046265
1759304790035535400,3.936535400390625,-0.32036837935447693,-9.688599586486816,1.5048333406448364
1759304790045577700,3.94657763671875,-0.41362738609313965,-9.681645393371582,1.5266876220703125
1759304790055616800,3.95661669921875,-0.5083844065666199,-9.67361831665039,1.5487889051437378
1759304790065655000,3.966655029296875,-0.6075468063354492,-9.666417121887207,1.5580105781555176
1759304790075698000,3.976697998046875,-0.6824852824211121,-9.682760238647461,1.4193251132965088
1759304790085735700,3.986735595703125,-0.7774165868759155,-9.68513298034668,1.3527469635009766
1759304790095776300,3.9967763671875,-0.8756065368652344,-9.681283950805664,1.3199069499969482
1759304790105817600,4.006817626953125,-0.9801717400550842,-9.675933837890625,1.285170078277588
1759304790115857200,4.016857177734375,-1.089676022529602,-9.668394088745117,1.2533565759658813
1759304790125897000,4.02689697265625,-1.206477165222168,-9.658147811889648,1.2250194549560547
1759304790135939300,4.036939208984375,-1.4824978113174438,-9.622733116149902,1.2005535364151
1759304790145977000,4.04697705078125,-1.5931663513183594,-9.606817245483398,1.186187505722046
1759304790156021000,4.05702099609375,-1.6961610317230225,-9.590407371520996,1.1761163473129272
1759304790166057200,4.06705712890625,-1.7879400253295898,-9.57474136352539,1.1677734851837158
1759304790176098800,4.077098876953125,-1.87017822265625,-9.560317993164062,1.1571052074432373
1759304790186138000,4.08713818359375,-1.9531841278076172,-9.546138763427734,1.1368458271026611
1759304790196179000,4.097178955078125,-2.048962116241455,-9.528973579406738,1.1119924783706665
1759304790206219800,4.1072197265625,-2.129049777984619,-9.512565612792969,1.101975679397583
1759304790216259600,4.117259521484375,-2.2078561782836914,-9.495168685913086,1.0969418287277222
1759304790226300200,4.127300048828125,-2.2834348678588867,-9.477654457092285,1.0936834812164307
1759304790236341000,4.137341064453125,-2.352003335952759,-9.461485862731934,1.0883405208587646
1759304790246380800,4.147380859375,-2.4120848178863525,-9.447404861450195,1.0791314840316772
1759304790256422000,4.157421875,-2.468229055404663,-9.434118270874023,1.0683603286743164
1759304790266460400,4.16746044921875,-2.530585527420044,-9.41869068145752,1.0585577487945557
1759304790276502300,4.177502197265625,-2.5664751529693604,-9.409710884094238,1.0519901514053345
1759304790286541600,4.18754150390625,-2.5891401767730713,-9.403912544250488,1.0483055114746094
1759304790296583400,4.19758349609375,-2.6201281547546387,-9.395373344421387,1.0478594303131104
1759304790306623000,4.207623046875,-2.6284422874450684,-9.389242172241211,1.0814741849899292
1759304790316661200,4.2176611328125,-2.7060060501098633,-9.346553802490234,1.2472351789474487
1759304790326704000,4.2277041015625,-2.811276435852051,-9.29246711730957,1.4081639051437378
1759304790336742400,4.237742431640625,-2.877088785171509,-9.258448600769043,1.4965347051620483
1759304790346784300,4.2477841796875,-2.937682867050171,-9.235283851623535,1.521742343902588
1759304790356824300,4.25782421875,-2.9798874855041504,-9.22264289855957,1.5163198709487915
1759304790366865400,4.267865478515625,-2.9830167293548584,-9.232122421264648,1.451089859008789
1759304790376904200,4.277904296875,-2.955003499984741,-9.250425338745117,1.390587568283081
1759304790386944000,4.287944091796875,-2.9092607498168945,-9.276311874389648,1.3123798370361328
1759304790396983800,4.29798388671875,-2.8588178157806396,-9.303415298461914,1.2287064790725708
1759304790407024400,4.3080244140625,-2.8051340579986572,-9.329567909240723,1.151750087738037
1759304790417065000,4.31806494140625,-2.7475967407226562,-9.353740692138672,1.0928630828857422
1759304790427104800,4.328104736328125,-2.688936471939087,-9.375332832336426,1.0530470609664917
1759304790437160000,4.338159912109375,-2.634136199951172,-9.39356517791748,1.0287878513336182
1759304790447187000,4.34818701171875,-2.5870070457458496,-9.408048629760742,1.0159447193145752
1759304790457227000,4.35822705078125,-2.550800085067749,-9.418566703796387,1.0100162029266357
1759304790467264800,4.3682646484375,-2.5261054039001465,-9.425054550170898,1.011553406715393
1759304790477309000,4.378308837890625,-2.509293556213379,-9.428269386291504,1.023393154144287
1759304790487320600,4.388320556640625,-2.4960806369781494,-9.429760932922363,1.0417864322662354
1759304790497387000,4.398386962890625,-2.4835546016693115,-9.430644989013672,1.0635038614273071
1759304790507428600,4.4084287109375,-2.4710211753845215,-9.43104362487793,1.0888463258743286
1759304790517468000,4.418468017578125,-2.459416151046753,-9.43142032623291,1.1116305589675903
1759304790527508200,4.42850830078125,-2.447206735610962,-9.432848930358887,1.1263556480407715
1759304790537524000,4.43852392578125,-2.433497905731201,-9.435410499572754,1.1345680952072144
1759304790547588400,4.44858837890625,-2.4200100898742676,-9.43885612487793,1.1347730159759521
1759304790557630500,4.45863037109375,-2.408344268798828,-9.442338943481445,1.1305845975875854
1759304790567667200,4.468667236328125,-2.399487018585205,-9.445587158203125,1.1222509145736694
1759304790577708000,4.4787080078125,-2.3964920043945312,-9.447872161865234,1.1093451976776123
1759304790587750000,4.48875,-2.4019649028778076,-9.44843578338623,1.0925943851470947
1759304790597791500,4.49879150390625,-2.414773941040039,-9.447946548461914,1.0683162212371826
1759304790607830500,4.50883056640625,-2.434870719909668,-9.446213722229004,1.0375691652297974
1759304790617864400,4.518864501953125,-2.461686611175537,-9.442621231079102,1.006528615951538
1759304790627910000,4.528909912109375,-2.493881940841675,-9.436066627502441,0.9886013865470886
1759304790637951000,4.538950927734375,-2.5308499336242676,-9.427351951599121,0.9777290225028992
1759304790647991600,4.548991455078125,-2.573169708251953,-9.41685962677002,0.9683483839035034
1759304790658031000,4.559031005859375,-2.627647638320923,-9.403301239013672,0.9536952376365662
1759304790668072000,4.569072021484375,-2.698139190673828,-9.384946823120117,0.9375233054161072
1759304790678110500,4.5791103515625,-2.781409502029419,-9.361871719360352,0.9247903823852539
1759304790688153600,4.589153564453125,-2.8729171752929688,-9.334939002990723,0.917270302772522
1759304790698190800,4.59919091796875,-2.972184181213379,-9.304529190063477,0.9099367260932922
1759304790708231200,4.609231201171875,-3.0768184661865234,-9.271533966064453,0.8988787531852722
1759304790718273500,4.6192734375,-3.1855452060699463,-9.23653793334961,0.8802100419998169
1759304790728314400,4.629314453125,-3.301198959350586,-9.198507308959961,0.8518452048301697
1759304790738354200,4.639354248046875,-3.4243886470794678,-9.156508445739746,0.817333459854126
1759304790748393500,4.6493935546875,-3.5501792430877686,-9.111808776855469,0.7793105244636536
1759304790758434600,4.6594345703125,-3.6758365631103516,-9.065388679504395,0.7369257807731628
1759304790768476000,4.669475830078125,-3.8047080039978027,-9.01574420928955,0.6904091238975525
1759304790778515000,4.679514892578125,-3.940324306488037,-8.96088695526123,0.6422207951545715
1759304790788556000,4.68955615234375,-4.087307929992676,-8.898201942443848,0.5933175683021545
1759304790798595000,4.699594970703125,-4.2464752197265625,-8.82662582397461,0.542446494102478
1759304790808635100,4.70963525390625,-4.412660598754883,-8.747721672058105,0.4918520152568817
1759304790818674200,4.719674072265625,-4.603054046630859,-8.647953033447266,0.5108107328414917
1759304790828716800,4.729716796875,-4.773035526275635,-8.5573148727417,0.47604113817214966
1759304790838756400,4.73975634765625,-4.932314395904541,-8.468507766723633,0.4390697777271271
1759304790848796400,4.74979638671875,-5.067939758300781,-8.390728950500488,0.3844003677368164
1759304790858837500,4.75983740234375,-5.19107723236084,-8.317720413208008,0.3231019377708435
1759304790868878000,4.769878173828125,-5.329439163208008,-8.232000350952148,0.2595927119255066
1759304790878916400,4.779916259765625,-5.411494255065918,-8.17679500579834,0.3031100332736969
1759304790888959000,4.789958984375,-5.561092853546143,-8.077503204345703,0.2535548806190491
1759304790898998300,4.799998291015625,-5.706523895263672,-7.976903915405273,0.20173683762550354
1759304790909037800,4.810037841796875,-5.841647148132324,-7.879626274108887,0.1508265882730484
1759304790919076900,4.820076904296875,-5.955904960632324,-7.794615745544434,0.08517493307590485
1759304790929120300,4.830120361328125,-6.067860126495361,-7.708240509033203,0.014711595140397549
1759304790939160000,4.84016015625,-6.189032554626465,-7.611199378967285,-0.04082876816391945
1759304790949197300,4.850197265625,-6.319356441497803,-7.5029706954956055,-0.08547518402338028
1759304790959239000,4.860239013671875,-6.460041046142578,-7.3817620277404785,-0.1166309043765068
1759304790969279700,4.87027978515625,-6.607583045959473,-7.249734878540039,-0.1314994990825653
1759304790979320600,4.880320556640625,-6.756097793579102,-7.1114630699157715,-0.13560394942760468
1759304790989318000,4.89031787109375,-6.900378227233887,-6.971513748168945,-0.1374218463897705
1759304790999401500,4.9004013671875,-7.041302680969238,-6.829020977020264,-0.14361229538917542
1759304791009440800,4.910440673828125,-7.178348541259766,-6.684545516967773,-0.15584789216518402
1759304791019480000,4.92047998046875,-7.3072404861450195,-6.542938709259033,-0.17412248253822327
1759304791029519600,4.93051953125,-7.427591323852539,-6.405318260192871,-0.19729705154895782
1759304791039560000,4.940559814453125,-7.544218063354492,-6.26658296585083,-0.2254759520292282
1759304791049601800,4.950601806640625,-7.656738758087158,-6.127388954162598,-0.2560744285583496
1759304791059641900,4.960641845703125,-7.752256870269775,-5.997259140014648,-0.4141772985458374
1759304791069680600,4.9706806640625,-7.862389087677002,-5.8345947265625,-0.6135530471801758
1759304791079721500,4.980721435546875,-7.9726128578186035,-5.675902366638184,-0.6765231490135193
1759304791089747200,4.990747314453125,-8.079566955566406,-5.517278671264648,-0.718603253364563
1759304791099801900,5.0008017578125,-8.191140174865723,-5.346123695373535,-0.7485545873641968
1759304791109843200,5.01084326171875,-8.297599792480469,-5.177682876586914,-0.7599896788597107
1759304791119883300,5.02088330078125,-8.398507118225098,-5.011723518371582,-0.764119565486908
1759304791129924900,5.0309248046875,-8.506912231445312,-4.82668924331665,-0.7560673952102661
1759304791139963400,5.04096337890625,-8.599411964416504,-4.659517288208008,-0.7583827376365662
1759304791150004700,5.051004638671875,-8.688872337341309,-4.490783214569092,-0.7566508054733276
1759304791160045300,5.06104541015625,-8.774944305419922,-4.320876121520996,-0.7526618242263794
1759304791170084900,5.0710849609375,-8.857669830322266,-4.149557590484619,-0.7476747035980225
1759304791180124400,5.08112451171875,-8.937358856201172,-3.975836753845215,-0.7433163523674011
1759304791190165000,5.0911650390625,-9.013484954833984,-3.8010332584381104,-0.7384735345840454
1759304791200203800,5.101203857421875,-9.085792541503906,-3.6251564025878906,-0.7367390990257263
1759304791210245400,5.111245361328125,-9.154470443725586,-3.4473953247070312,-0.7397564053535461
1759304791220285200,5.12128515625,-9.222259521484375,-3.268507719039917,-0.70918208360672
1759304791230326000,5.131325927734375,-9.28872299194336,-3.0845654010772705,-0.6642408967018127
1759304791240367900,5.141367919921875,-9.36862564086914,-2.871288537979126,-0.46981239318847656
1759304791250405600,5.151405517578125,-9.416518211364746,-2.701402425765991,-0.517440915107727
1759304791260448500,5.161448486328125,-9.459115982055664,-2.537795305252075,-0.566462516784668
1759304791270488800,5.17148876953125,-9.497997283935547,-2.378499746322632,-0.6057646870613098
1759304791280525800,5.18152587890625,-9.53384017944336,-2.2224607467651367,-0.6345835328102112
1759304791290567400,5.1915673828125,-9.565665245056152,-2.0725462436676025,-0.6623853445053101
1759304791300607500,5.201607421875,-9.593415260314941,-1.9299508333206177,-0.6912480592727661
1759304791310646300,5.211646240234375,-9.617894172668457,-1.791454553604126,-0.7231411337852478
1759304791320686600,5.2216865234375,-9.640204429626465,-1.6541978120803833,-0.7524552345275879
1759304791330728400,5.231728515625,-9.660210609436035,-1.5209077596664429,-0.7767178416252136
1759304791340770300,5.241770263671875,-9.677794456481934,-1.3897377252578735,-0.8031271696090698
1759304791350810000,5.25181005859375,-9.700204849243164,-1.1703540086746216,-0.8788750171661377
1759304791360849400,5.261849365234375,-9.715103149414062,-0.9910929203033447,-0.9330669641494751
1759304791370889200,5.27188916015625,-9.724420547485352,-0.8764842748641968,-0.9505584239959717
1759304791380930000,5.281929931640625,-9.73234748840332,-0.7673715353012085,-0.9636786580085754
1759304791390970600,5.291970703125,-9.73908805847168,-0.6624219417572021,-0.9733831286430359
1759304791401009000,5.3020087890625,-9.744521141052246,-0.5638896226882935,-0.9810505509376526
1759304791411051800,5.3120517578125,-9.74866008758545,-0.47118327021598816,-0.9888039827346802
1759304791421095700,5.322095703125,-9.751638412475586,-0.3866886794567108,-0.9960893988609314
1759304791431131400,5.33213134765625,-9.753687858581543,-0.3104754388332367,-1.002665638923645
1759304791441171200,5.342171142578125,-9.755147933959961,-0.2425684630870819,-1.0071728229522705
1759304791451210800,5.352210693359375,-9.756086349487305,-0.1827772855758667,-1.0106958150863647
1759304791461251600,5.36225146484375,-9.756442070007324,-0.130187526345253,-1.0154145956039429
1759304791471295000,5.372294921875,-9.756299018859863,-0.08482541143894196,-1.0215493440628052
1759304791481336300,5.38233642578125,-9.755894660949707,-0.04656675085425377,-1.0278396606445312
1759304791491372000,5.3923720703125,-9.755315780639648,-0.013107813894748688,-1.0343017578125
1759304791501413400,5.402413330078125,-9.754684448242188,0.016595276072621346,-1.0402089357376099
1759304791511454000,5.412453857421875,-9.754265785217285,0.043327100574970245,-1.0433604717254639
1759304791521492500,5.422492431640625,-9.754195213317871,0.06748165935277939,-1.0427265167236328
1759304791531534000,5.4325341796875,-9.754382133483887,0.08917994797229767,-1.0393112897872925
1759304791541573000,5.442572998046875,-9.754613876342773,0.10705945640802383,-1.0354617834091187
1759304791551613200,5.45261328125,-9.75449275970459,0.1190810352563858,-1.0352869033813477
1759304791561652700,5.46265283203125,-9.754010200500488,0.12721703946590424,-1.0388587713241577
1759304791571692300,5.4726923828125,-9.753195762634277,0.13488076627254486,-1.0455245971679688
1759304791581733400,5.4827333984375,-9.752482414245605,0.1432892382144928,-1.0510433912277222
1759304791591774000,5.49277392578125,-9.752237319946289,0.15083353221416473,-1.0522783994674683
1759304791601815000,5.50281494140625,-9.752307891845703,0.1557052880525589,-1.050886869430542
1759304791611854800,5.512854736328125,-9.752116203308105,0.15832287073135376,-1.052302598953247
1759304791621894700,5.522894775390625,-9.751279830932617,0.1605299413204193,-1.0596619844436646
1759304791631910000,5.532909912109375,-9.749940872192383,0.16225215792655945,-1.0716469287872314
1759304791641977000,5.54297705078125,-9.748547554016113,0.16247950494289398,-1.0842384099960327
1759304791652016000,5.55301611328125,-9.747519493103027,0.16045315563678741,-1.093735933303833
1759304791662057000,5.563056884765625,-9.746857643127441,0.15612709522247314,-1.1002423763275146
1759304791672095200,5.57309521484375,-9.746362686157227,0.1511228233575821,-1.1053045988082886
1759304791682137000,5.58313720703125,-9.745347023010254,0.14408187568187714,-1.1151554584503174
1759304791692177700,5.593177734375,-9.743912696838379,0.13632012903690338,-1.1285881996154785
1759304791702218500,5.603218505859375,-9.742304801940918,0.12876743078231812,-1.143262505531311
1759304791712256500,5.613256591796875,-9.740578651428223,0.12161258608102798,-1.1586719751358032
1759304791722296800,5.623296875,-9.738923072814941,0.11410432308912277,-1.1732345819473267
1759304791732340000,5.633340087890625,-9.737225532531738,0.10602854937314987,-1.1879891157150269
1759304791742377200,5.643377197265625,-9.73538589477539,0.09742342680692673,-1.2037147283554077
1759304791752417800,5.653417724609375,-9.7334566116333,0.08871951699256897,-1.219844937324524
1759304791762459000,5.663458984375,-9.731485366821289,0.08043210953474045,-1.2360602617263794
1759304791772499700,5.673499755859375,-9.729493141174316,0.07307419180870056,-1.2521061897277832
1759304791782537500,5.683537353515625,-9.72754192352295,0.06666389107704163,-1.267528772354126
1759304791792579600,5.69357958984375,-9.725542068481445,0.06099742650985718,-1.28304922580719
1759304791802620200,5.7036201171875,-9.723408699035645,0.05605974420905113,-1.2993395328521729
1759304791812660000,5.713659912109375,-9.721149444580078,0.05202823504805565,-1.3163126707077026
1759304791822700000,5.723699951171875,-9.718905448913574,0.04878968000411987,-1.3328843116760254
1759304791832739600,5.733739501953125,-9.716736793518066,0.04608256742358208,-1.3487049341201782
1759304791842782000,5.743781982421875,-9.714689254760742,0.043923042714595795,-1.363452434539795
1759304791852820000,5.753820068359375,-9.712822914123535,0.04247044771909714,-1.3767457008361816
1759304791862861300,5.763861328125,-9.711065292358398,0.0425553061068058,-1.3890661001205444
1759304791872902000,5.77390185546875,-9.70938491821289,0.04553234204649925,-1.4006794691085815
1759304791882941400,5.78394140625,-9.708189964294434,0.05392953008413315,-1.4086545705795288
1759304791892980700,5.793980712890625,-9.706464767456055,0.06291721016168594,-1.420128345489502
1759304791903021600,5.804021484375,-9.704380989074707,0.06776302307844162,-1.434072732925415
1759304791913062400,5.8140625,-9.70289421081543,0.07209449261426926,-1.4438790082931519
1759304791923104000,5.82410400390625,-9.701972961425781,0.07573869824409485,-1.449874758720398
1759304791933142000,5.83414208984375,-9.701619148254395,0.07888829708099365,-1.452074646949768
1759304791943182600,5.8441826171875,-9.701560020446777,0.08172295242547989,-1.4522981643676758
1759304791953222400,5.854222412109375,-9.701452255249023,0.08430618047714233,-1.4528682231903076
1759304791963262500,5.864262451171875,-9.701201438903809,0.08634240180253983,-1.4544215202331543
1759304791973304600,5.8743046875,-9.700937271118164,0.08688019961118698,-1.4561692476272583
1759304791983345400,5.884345458984375,-9.700642585754395,0.08599390834569931,-1.458175778388977
1759304791993383400,5.894383544921875,-9.700239181518555,0.08439110964536667,-1.4609540700912476
1759304792003425500,5.904425537109375,-9.699854850769043,0.08237287402153015,-1.4636034965515137
1759304792013464800,5.91446484375,-9.699676513671875,0.07957286387681961,-1.4649412631988525
1759304792023506000,5.924505859375,-9.699679374694824,0.07649809867143631,-1.465104579925537
1759304792033545000,5.934544921875,-9.699777603149414,0.07373682409524918,-1.4645825624465942
1759304792043585000,5.9445849609375,-9.699895858764648,0.07108445465564728,-1.463935375213623
1759304792053625600,5.95462548828125,-9.699915885925293,0.06800004839897156,-1.4639325141906738
1759304792063665200,5.9646650390625,-9.69985580444336,0.0647764801979065,-1.4644819498062134
1759304792073705000,5.974705078125,-9.699820518493652,0.061456795781850815,-1.4648743867874146
1759304792083747000,5.9847470703125,-9.699836730957031,0.058442410081624985,-1.464892029762268
1759304792093785300,5.994785400390625,-9.699908256530762,0.05559416115283966,-1.4645180702209473
1759304792103827200,6.0048271484375,-9.700035095214844,0.05290195345878601,-1.4637733697891235
1759304792113867800,6.01486767578125,-9.700172424316406,0.0503133200109005,-1.4629558324813843
1759304792123907800,6.024907958984375,-9.700202941894531,0.04792049154639244,-1.4628368616104126
1759304792133948700,6.03494873046875,-9.70008373260498,0.0456661731004715,-1.4636896848678589
1759304792143989500,6.044989501953125,-9.699907302856445,0.043601226061582565,-1.4649351835250854
1759304792154027800,6.05502783203125,-9.69975757598877,0.042042944580316544,-1.4659675359725952
1759304792164070100,6.065070068359375,-9.699705123901367,0.04137095436453819,-1.4663379192352295
1759304792174108400,6.0751083984375,-9.699766159057617,0.041490454226732254,-1.4659315347671509
1759304792184149500,6.0851494140625,-9.6998872756958,0.042149290442466736,-1.4651185274124146
1759304792194189000,6.09518896484375,-9.699974060058594,0.04330959543585777,-1.4644984006881714
1759304792204230000,6.10522998046875,-9.700003623962402,0.044388629496097565,-1.4642713069915771
1759304792214269700,6.115269775390625,-9.699958801269531,0.04501347616314888,-1.4645509719848633
1759304792224309500,6.1253095703125,-9.699918746948242,0.04568678140640259,-1.4648059606552124
1759304792234350300,6.135350341796875,-9.699907302856445,0.046655960381031036,-1.4648417234420776
1759304792244391700,6.1453916015625,-9.69991397857666,0.04754188656806946,-1.4647847414016724
1759304792254431200,6.15543115234375,-9.69989013671875,0.04861879721283913,-1.4648860692977905
1759304792264470800,6.165470703125,-9.699820518493652,0.04980643838644028,-1.4653030633926392
1759304792274509600,6.175509521484375,-9.700037002563477,0.05237716808915138,-1.4637806415557861
1759304792284552400,6.185552490234375,-9.700621604919434,0.057477109134197235,-1.4597315788269043
1759304792294591700,6.195591796875,-9.701139450073242,0.06456349790096283,-1.4559615850448608
1759304792304632300,6.20563232421875,-9.700736999511719,0.06499312072992325,-1.4586234092712402
1759304792314670800,6.2156708984375,-9.700364112854004,0.06463008373975754,-1.4611334800720215
1759304792324712700,6.225712646484375,-9.699897766113281,0.06417202204465866,-1.4642373323440552
1759304792334754600,6.235754638671875,-9.699427604675293,0.06352481245994568,-1.467376947402954
1759304792344792000,6.2457919921875,-9.69892692565918,0.06284302473068237,-1.4707125425338745
1759304792354833200,6.255833251953125,-9.698433876037598,0.0623774416744709,-1.473996639251709
1759304792364874800,6.265874755859375,-9.698017120361328,0.061510443687438965,-1.476773738861084
1759304792374913800,6.275913818359375,-9.697633743286133,0.06007641553878784,-1.4793366193771362
1759304792384952800,6.285952880859375,-9.69721508026123,0.05839760601520538,-1.482132077217102
1759304792394995200,6.2959951171875,-9.696739196777344,0.05673714354634285,-1.4853103160858154
1759304792405033500,6.306033447265625,-9.696267127990723,0.055291786789894104,-1.4884474277496338
1759304792415074600,6.316074462890625,-9.695842742919922,0.05394882708787918,-1.4912750720977783
1759304792425113600,6.326113525390625,-9.695427894592285,0.052611421793699265,-1.4940019845962524
1759304792435154000,6.33615380859375,-9.695009231567383,0.0509834848344326,-1.4967782497406006
1759304792445195500,6.346195556640625,-9.694574356079102,0.04943302273750305,-1.499642014503479
1759304792455234600,6.356234619140625,-9.694140434265137,0.048046793788671494,-1.50249183177948
1759304792465276000,6.36627587890625,-9.693718910217285,0.04675835743546486,-1.5052460432052612
1759304792475315200,6.376315185546875,-9.693379402160645,0.04570651799440384,-1.5074630975723267
1759304792485356300,6.386356201171875,-9.693061828613281,0.04486546665430069,-1.5095362663269043
1759304792495398100,6.396398193359375,-9.69277286529541,0.044351935386657715,-1.5113996267318726
1759304792505435100,6.40643505859375,-9.692526817321777,0.04431604966521263,-1.5129733085632324
1759304792515476500,6.4164765625,-9.692251205444336,0.044830020517110825,-1.5147300958633423
1759304792525517000,6.42651708984375,-9.69198989868164,0.04586629197001457,-1.5163706541061401
1759304792535558000,6.436557861328125,-9.691805839538574,0.04678942263126373,-1.5175092220306396
1759304792545598700,6.4465986328125,-9.691638946533203,0.047720298171043396,-1.5185524225234985
1759304792555638500,6.456638427734375,-9.691509246826172,0.04873427748680115,-1.5193506479263306
1759304792565679900,6.466679931640625,-9.6914701461792,0.05016392469406128,-1.5195523500442505
1759304792575718100,6.47671826171875,-9.691481590270996,0.05233250930905342,-1.5193827152252197
1759304792585758500,6.486758544921875,-9.691316604614258,0.055791135877370834,-1.5203330516815186
1759304792595773700,6.496773681640625,-9.69121265411377,0.06086783483624458,-1.5208061933517456
1759304792605814000,6.50681396484375,-9.692180633544922,0.0707130879163742,-1.5141983032226562
1759304792615853800,6.516853759765625,-9.694205284118652,0.08664769679307938,-1.5003427267074585
1759304792625894700,6.526894775390625,-9.69449234008789,0.0906107947230339,-1.4982556104660034
1759304792635961900,6.5369619140625,-9.695042610168457,0.09240077435970306,-1.4945834875106812
1759304792645999600,6.54699951171875,-9.695579528808594,0.09467694908380508,-1.4909337759017944
1759304792656039400,6.557039306640625,-9.696061134338379,0.09745320677757263,-1.4876197576522827
1759304792666080000,6.567080078125,-9.696487426757812,0.10006735473871231,-1.484676480293274
1759304792676120000,6.5771201171875,-9.696822166442871,0.10234462469816208,-1.4823414087295532
1759304792686160100,6.58716015625,-9.697125434875488,0.1042395606637001,-1.4802106618881226
1759304792696200400,6.597200439453125,-9.697273254394531,0.10549502819776535,-1.4791641235351562
1759304792706241000,6.607240966796875,-9.697373390197754,0.10639491677284241,-1.4784375429153442
1759304792716280300,6.6172802734375,-9.69754695892334,0.10698512196540833,-1.4772590398788452
1759304792726321400,6.6273212890625,-9.697790145874023,0.10746130347251892,-1.4756200313568115
1759304792736361200,6.637361328125,-9.698099136352539,0.10793397575616837,-1.473565936088562
1759304792746402300,6.64740234375,-9.698392868041992,0.10819301009178162,-1.471593976020813
1759304792756441300,6.65744140625,-9.698681831359863,0.10802095383405685,-1.4697108268737793
1759304792766484000,6.66748388671875,-9.698976516723633,0.10775644332170486,-1.4677917957305908
1759304792776522500,6.6775224609375,-9.699296951293945,0.10762495547533035,-1.4656593799591064
1759304792786564000,6.687564208984375,-9.699554443359375,0.10733821988105774,-1.4639836549758911
1759304792796604700,6.697604736328125,-9.699718475341797,0.10717369616031647,-1.4629136323928833
1759304792806645200,6.707645263671875,-9.699797630310059,0.10737922042608261,-1.4623717069625854
1759304792816683300,6.717683349609375,-9.699834823608398,0.10775702446699142,-1.4620919227600098
1759304792826725000,6.72772509765625,-9.69979190826416,0.10824979841709137,-1.4623322486877441
1759304792836765200,6.73776513671875,-9.699625968933105,0.10902353376150131,-1.4633979797363281
1759304792846806300,6.74780615234375,-9.699374198913574,0.1100655049085617,-1.4649842977523804
1759304792856843800,6.75784375,-9.699127197265625,0.11158687621355057,-1.4664887189865112
1759304792866884900,6.767884765625,-9.69891357421875,0.11381393671035767,-1.4677315950393677
1759304792876926700,6.7779267578125,-9.69869613647461,0.11652463674545288,-1.4689615964889526
1759304792886965000,6.787965087890625,-9.698460578918457,0.11945423483848572,-1.4702755212783813
1759304792897004800,6.7980048828125,-9.698187828063965,0.12241373211145401,-1.4718576669692993
1759304792907045000,6.808045166015625,-9.698040008544922,0.12542752921581268,-1.4725558757781982
1759304792917084400,6.81808447265625,-9.698118209838867,0.12898051738739014,-1.4717457294464111
1759304792927127000,6.828126953125,-9.698359489440918,0.13326521217823029,-1.469766616821289
1759304792937167400,6.83816748046875,-9.69860553741455,0.13830040395259857,-1.4676848649978638
1759304792947206400,6.848206298828125,-9.698721885681152,0.14369416236877441,-1.466381311416626
1759304792957246200,6.85824609375,-9.698735237121582,0.1495276391506195,-1.4657338857650757
1759304792967286500,6.86828662109375,-9.69871711730957,0.15657243132591248,-1.4651107788085938
1759304792977326300,6.878326416015625,-9.698911666870117,0.16581498086452484,-1.4627816677093506
1759304792987366700,6.88836669921875,-9.699577331542969,0.17748120427131653,-1.4569991827011108
1759304792997408500,6.898408447265625,-9.70070743560791,0.19178473949432373,-1.4476217031478882
1759304793007449600,6.90844970703125,-9.702241897583008,0.2087862491607666,-1.4349459409713745
1759304793017489200,6.9184892578125,-9.704203605651855,0.22799526154994965,-1.4186447858810425
1759304793027528700,6.92852880859375,-9.70665454864502,0.2486269772052765,-1.398271918296814
1759304793037567200,6.938567138671875,-9.709246635437012,0.27060213685035706,-1.3760241270065308
1759304793047609300,6.948609375,-9.711917877197266,0.2913033962249756,-1.3527487516403198
1759304793057649000,6.95864892578125,-9.714493751525879,0.31041842699050903,-1.329809308052063
1759304793067689500,6.968689453125,-9.717029571533203,0.32638558745384216,-1.307262897491455
1759304793077729500,6.9787294921875,-9.719306945800781,0.3394472897052765,-1.286832332611084
1759304793087772200,6.988772216796875,-9.72127628326416,0.35016384720802307,-1.2689656019210815
1759304793097810200,6.99881005859375,-9.723118782043457,0.3592774569988251,-1.2521873712539673
1759304793107849000,7.008848876953125,-9.724915504455566,0.3676457107067108,-1.2357150316238403
1759304793117890000,7.01889013671875,-9.726608276367188,0.37632885575294495,-1.2196844816207886
1759304793127931000,7.028930908203125,-9.728048324584961,0.3857263922691345,-1.2051786184310913
1759304793137970400,7.038970458984375,-9.729225158691406,0.39594992995262146,-1.192292332649231
1759304793148013000,7.049012939453125,-9.730216026306152,0.40642544627189636,-1.1806174516677856
1759304793158051000,7.059051025390625,-9.731260299682617,0.4176516830921173,-1.1680271625518799
1759304793168093400,7.069093505859375,-9.732001304626465,0.4306567311286926,-1.1570833921432495
1759304793178132000,7.079132080078125,-9.732932090759277,0.4418033957481384,-1.1449958086013794
1759304793188171800,7.089171875,-9.733654975891113,0.45053645968437195,-1.1354022026062012
1759304793198211000,7.099211181640625,-9.734188079833984,0.4581686556339264,-1.1277533769607544
1759304793208251400,7.10925146484375,-9.735102653503418,0.45853954553604126,-1.1196744441986084
1759304793218291700,7.119291748046875,-9.73653507232666,0.44951093196868896,-1.110856056213379
1759304793228334600,7.12933447265625,-9.738865852355957,0.42909300327301025,-1.0984253883361816
1759304793238372600,7.13937255859375,-9.742292404174805,0.3988589644432068,-1.079243779182434
1759304793248413700,7.14941357421875,-9.746885299682617,0.35891327261924744,-1.0514411926269531
1759304793258452500,7.159452392578125,-9.752238273620605,0.30221736431121826,-1.0191391706466675
1759304793268495600,7.16949560546875,-9.757351875305176,0.22858276963233948,-0.988936722278595
1759304793278533400,7.179533447265625,-9.761740684509277,0.13776125013828278,-0.962070643901825
1759304793288576000,7.189575927734375,-9.764699935913086,0.033154480159282684,-0.9411092400550842
1759304793298616000,7.199615966796875,-9.766121864318848,-0.08428991585969925,-0.9230043888092041
1759304793308654300,7.209654296875,-9.7656888961792,-0.21686004102230072,-0.9058067798614502
1759304793318695200,7.219695068359375,-9.763096809387207,-0.36222147941589355,-0.8870714902877808
1759304793328737500,7.229737548828125,-9.757827758789062,-0.5198584794998169,-0.8664079904556274
1759304793338774000,7.23977392578125,-9.749076843261719,-0.6899518370628357,-0.8459569215774536
1759304793348817200,7.249817138671875,-9.736054420471191,-0.8705365657806396,-0.8291965126991272
1759304793358856000,7.25985595703125,-9.718255043029785,-1.0598946809768677,-0.8174540996551514
1759304793368895000,7.26989501953125,-9.695271492004395,-1.2579450607299805,-0.8095830082893372
1759304793378935600,7.279935546875,-9.667064666748047,-1.4613838195800781,-0.8052148222923279
1759304793388975600,7.2899755859375,-9.633233070373535,-1.671628713607788,-0.8016360402107239
1759304793399017000,7.300016845703125,-9.5935697555542,-1.8891087770462036,-0.7942407727241516
1759304793409056000,7.310055908203125,-9.54769229888916,-2.1118266582489014,-0.786036491394043
1759304793419096300,7.320096435546875,-9.495317459106445,-2.3382561206817627,-0.7794806361198425
1759304793429137400,7.330137451171875,-9.43173599243164,-2.5857794284820557,-0.7695692777633667
1759304793439177000,7.340177001953125,-9.345624923706055,-2.89573073387146,-0.7142714262008667
1759304793449217300,7.35021728515625,-9.265746116638184,-3.138416051864624,-0.729725182056427
1759304793459257000,7.360257080078125,-9.176664352416992,-3.382797956466675,-0.7626631855964661
1759304793469300200,7.37030029296875,-9.079584121704102,-3.6250505447387695,-0.810144305229187
1759304793479339000,7.380339111328125,-8.977192878723145,-3.8619720935821533,-0.8551849722862244
1759304793489391600,7.3903916015625,-8.86945629119873,-4.095086097717285,-0.8939457535743713
1759304793499418600,7.400418701171875,-8.757805824279785,-4.32289981842041,-0.9216874241828918
1759304793509460000,7.4104599609375,-8.635807991027832,-4.556523323059082,-0.9471026659011841
1759304793519498800,7.420498779296875,-8.508951187133789,-4.7845892906188965,-0.970366358757019
1759304793529539300,7.430539306640625,-8.387114524841309,-4.994067192077637,-0.9755744934082031
1759304793539580200,7.440580078125,-8.265337944030762,-5.194748401641846,-0.9668946266174316
1759304793549621000,7.45062109375,-8.144097328186035,-5.386689186096191,-0.9452011585235596
1759304793559661800,7.460661865234375,-8.023362159729004,-5.570484638214111,-0.9118544459342957
1759304793569700400,7.470700439453125,-7.903555870056152,-5.7461442947387695,-0.8670219779014587
1759304793579740000,7.480739990234375,-7.783214092254639,-5.9152045249938965,-0.8173711895942688
1759304793589756000,7.490755859375,-7.660467147827148,-6.080183029174805,-0.764687180519104
1759304793599822000,7.500822021484375,-7.535301208496094,-6.241025924682617,-0.7106191515922546
1759304793609860400,7.5108603515625,-7.408507823944092,-6.396912574768066,-0.6554849147796631
1759304793619901200,7.520901123046875,-7.277986526489258,-6.55006742477417,-0.6030242443084717
1759304793629942300,7.5309423828125,-7.144281387329102,-6.699913024902344,-0.5536737442016602
1759304793639983400,7.5409833984375,-7.0073933601379395,-6.846554279327393,-0.5072076916694641
1759304793650022700,7.551022705078125,-6.8668212890625,-6.99032735824585,-0.46712005138397217
1759304793660062200,7.561062255859375,-6.72482442855835,-7.129632949829102,-0.42566123604774475
1759304793670103000,7.57110302734375,-6.584599494934082,-7.261889457702637,-0.3796018362045288
1759304793680141800,7.581141845703125,-6.447144508361816,-7.386415004730225,-0.3336637616157532
1759304793690182100,7.59118212890625,-6.310044288635254,-7.5057878494262695,-0.287435382604599
1759304793700222700,7.60122265625,-6.172142028808594,-7.621079921722412,-0.24479486048221588
1759304793710264800,7.611264892578125,-6.0314764976501465,-7.734076976776123,-0.20374682545661926
1759304793720303900,7.621303955078125,-5.888016223907471,-7.844681739807129,-0.168441042304039
1759304793730343700,7.63134375,-5.742019176483154,-7.952729225158691,-0.1394987851381302
1759304793740384000,7.641384033203125,-5.5931782722473145,-8.0585355758667,-0.11180052161216736
1759304793750425300,7.65142529296875,-5.443959712982178,-8.160443305969238,-0.08121373504400253
1759304793760463400,7.66146337890625,-5.297623157501221,-8.256429672241211,-0.05201946571469307
1759304793770505200,7.671505126953125,-5.157228469848633,-8.344980239868164,-0.021765384823083878
1759304793780545500,7.681545654296875,-5.020967483520508,-8.427685737609863,0.012031815946102142
1759304793790587100,7.691587158203125,-4.887421607971191,-8.505715370178223,0.045449238270521164
1759304793800627500,7.70162744140625,-4.753864765167236,-8.580864906311035,0.07530541718006134
1759304793810667000,7.7116669921875,-4.619584560394287,-8.653624534606934,0.10152871906757355
1759304793820705500,7.72170556640625,-4.489645481109619,-8.72142505645752,0.1262507438659668
1759304793830745900,7.731745849609375,-4.3636884689331055,-8.784680366516113,0.15409168601036072
1759304793840786200,7.7417861328125,-4.238631725311279,-8.845071792602539,0.18665044009685516
1759304793850826200,7.751826171875,-4.115469932556152,-8.902222633361816,0.22243891656398773
1759304793860864800,7.76186474609375,-3.9969890117645264,-8.9550142288208,0.2606045603752136
1759304793870908400,7.771908447265625,-3.886256217956543,-9.002281188964844,0.30341291427612305
1759304793880947500,7.781947509765625,-3.781797409057617,-9.044941902160645,0.3509224057197571
1759304793890988000,7.791988037109375,-3.675461769104004,-9.086716651916504,0.398335725069046
1759304793901027600,7.802027587890625,-3.563802719116211,-9.129060745239258,0.4423731565475464
1759304793911068200,7.812068115234375,-3.4476418495178223,-9.171394348144531,0.4851847290992737
1759304793921114000,7.822114013671875,-3.3306338787078857,-9.212040901184082,0.5303524136543274
1759304793931153400,7.8321533203125,-3.216128349304199,-9.24978256225586,0.5780674815177917
1759304793941188600,7.842188720703125,-3.1058270931243896,-9.28433609008789,0.6253775954246521
1759304793951228400,7.852228515625,-2.9999568462371826,-9.315946578979492,0.6704768538475037
1759304793961267500,7.862267333984375,-2.8940279483795166,-9.346283912658691,0.712520956993103
1759304793971314200,7.872314208984375,-2.7887353897094727,-9.375411987304688,0.7488011717796326
1759304793981355300,7.882355224609375,-2.687554121017456,-9.402423858642578,0.7794844508171082
1759304793991389000,7.892388916015625,-2.5929415225982666,-9.426765441894531,0.8055223822593689
1759304794001430000,7.902429931640625,-2.5078318119049072,-9.447690963745117,0.8294816613197327
1759304794011468300,7.91246826171875,-2.4345128536224365,-9.465071678161621,0.8495355844497681
1759304794021509600,7.922509521484375,-2.3721792697906494,-9.47945499420166,0.8653493523597717
1759304794031549000,7.932548828125,-2.3115992546081543,-9.492696762084961,0.8839429020881653
1759304794041590000,7.942590087890625,-2.2420997619628906,-9.507025718688965,0.9086176156997681
1759304794051631600,7.952631591796875,-2.144777536392212,-9.528213500976562,0.9215106964111328
1759304794061671200,7.962671142578125,-2.0369033813476562,-9.552824974060059,0.911420464515686
1759304794071710700,7.972710693359375,-1.9713712930679321,-9.566255569458008,0.9146490097045898
1759304794081751600,7.98275146484375,-1.9253034591674805,-9.575450897216797,0.916554868221283
1759304794091790800,7.992790771484375,-1.9037213325500488,-9.579400062561035,0.9203754663467407
1759304794101832400,8.00283251953125,-1.8962602615356445,-9.580092430114746,0.9285101294517517
1759304794111871500,8.01287158203125,-1.890929937362671,-9.580061912536621,0.939644992351532
1759304794121911000,8.0229111328125,-1.8795162439346313,-9.580704689025879,0.955837070941925
1759304794131950000,8.0329501953125,-1.8652788400650024,-9.581786155700684,0.9727588891983032
1759304794141993200,8.0429931640625,-1.8124101161956787,-9.588512420654297,1.0058456659317017
1759304794152033500,8.053033447265625,-1.7400290966033936,-9.597352027893066,1.0484455823898315
1759304794162072000,8.063072021484375,-1.7109556198120117,-9.600582122802734,1.0665719509124756
1759304794172115000,8.073114990234375,-1.6742438077926636,-9.604864120483398,1.0861107110977173
1759304794182152700,8.083152587890625,-1.6332770586013794,-9.609630584716797,1.1061385869979858
1759304794192193000,8.093193115234374,-1.5904818773269653,-9.614538192749023,1.1256755590438843
1759304794202233000,8.103233154296875,-1.5432252883911133,-9.620315551757812,1.141982078552246
1759304794212273400,8.1132734375,-1.4903103113174438,-9.627442359924316,1.1521576642990112
1759304794222314000,8.12331396484375,-1.4328135251998901,-9.635268211364746,1.1596479415893555
1759304794232354600,8.1333544921875,-1.3712668418884277,-9.643047332763672,1.1693522930145264
1759304794242394600,8.14339453125,-1.308512806892395,-9.649979591369629,1.1839715242385864
1759304794252437000,8.15343701171875,-1.24578857421875,-9.655823707580566,1.203832745552063
1759304794262475000,8.16347509765625,-1.1820895671844482,-9.66089916229248,1.2271089553833008
1759304794272514000,8.17351416015625,-1.116578459739685,-9.665633201599121,1.250968337059021
1759304794282554000,8.18355419921875,-1.050103783607483,-9.67021369934082,1.2729309797286987
1759304794292595700,8.193595703125,-1.0036810636520386,-9.67429256439209,1.2793620824813843
1759304794302637300,8.20363720703125,-0.9437020421028137,-9.678862571716309,1.2904220819473267
1759304794312676600,8.213676513671874,-0.882989227771759,-9.683136940002441,1.3012570142745972
1759304794322715000,8.22371484375,-0.8240627646446228,-9.686695098876953,1.3133898973464966
1759304794332756500,8.233756591796874,-0.7982192039489746,-9.691618919372559,1.292850136756897
1759304794342796800,8.243796875,-0.8354437947273254,-9.698829650878906,1.212790608406067
1759304794352838400,8.25383837890625,-0.856239378452301,-9.703751564025879,1.1576578617095947
1759304794362877200,8.263877197265625,-0.8294638395309448,-9.706892967224121,1.150804042816162
1759304794372917500,8.27391748046875,-0.786693811416626,-9.709112167358398,1.162041425704956
1759304794382956800,8.283956787109375,-0.7452154159545898,-9.711264610290527,1.1713619232177734
1759304794392997400,8.293997314453126,-0.7044252157211304,-9.713324546813965,1.1795061826705933
1759304794403039000,8.3040390625,-0.6639887690544128,-9.71519947052002,1.1875014305114746
1759304794413077500,8.314077392578126,-0.6242990493774414,-9.716763496398926,1.1961824893951416
1759304794423117800,8.324117919921875,-0.5855647325515747,-9.718082427978516,1.2050342559814453
1759304794433159400,8.334159423828124,-0.5483601093292236,-9.719332695007324,1.2124550342559814
1759304794443198000,8.344197998046875,-0.5131715536117554,-9.720470428466797,1.2187018394470215
1759304794453237800,8.35423779296875,-0.4800821542739868,-9.721671104431152,1.2225931882858276
1759304794463276800,8.36427685546875,-0.44707754254341125,-9.723121643066406,1.2235804796218872
1759304794473317000,8.374317138671875,-0.41432201862335205,-9.724578857421875,1.223532795906067
1759304794483357700,8.384357666015624,-0.38297274708747864,-9.726142883300781,1.2213144302368164
1759304794493399800,8.39439990234375,-0.3500763177871704,-9.728033065795898,1.2161062955856323
1759304794503438800,8.40443896484375,-0.318320095539093,-9.73010540008545,1.20823335647583
1759304794513481200,8.414481201171874,-0.2883712351322174,-9.73161506652832,1.203600525856018
1759304794523520500,8.4245205078125,-0.26173073053359985,-9.73277759552002,1.2002636194229126
1759304794533558800,8.434558837890625,-0.2363777905702591,-9.733484268188477,1.1998107433319092
1759304794543599400,8.444599365234374,-0.21377362310886383,-9.733702659606934,1.2022887468338013
1759304794553639700,8.4546396484375,-0.19317622482776642,-9.733908653259277,1.204092025756836
1759304794563679000,8.464678955078124,-0.17359799146652222,-9.734112739562988,1.2054187059402466
1759304794573719600,8.474719482421875,-0.15506523847579956,-9.734014511108398,1.2087327241897583
1759304794583761000,8.484760986328125,-0.13809369504451752,-9.733728408813477,1.2131043672561646
1759304794593800200,8.49480029296875,-0.12280381470918655,-9.733416557312012,1.2172290086746216
1759304794603841300,8.50484130859375,-0.10956104099750519,-9.732979774475098,1.22197425365448
1759304794613879800,8.5148798828125,-0.0982314720749855,-9.732404708862305,1.2275151014328003
1759304794623923500,8.52492333984375,-0.08811403810977936,-9.73184585571289,1.2326875925064087
1759304794633962800,8.534962646484376,-0.07974082231521606,-9.731379508972168,1.236938714981079
1759304794644003000,8.545003173828125,-0.07332116365432739,-9.730955123901367,1.2406573295593262
1759304794654043100,8.555043212890626,-0.06793587654829025,-9.730573654174805,1.2439603805541992
1759304794664082700,8.565082763671874,-0.06321951001882553,-9.730141639709473,1.247579574584961
1759304794674122800,8.575122802734375,-0.0571875274181366,-9.729687690734863,1.2514079809188843
1759304794684164600,8.58516455078125,-0.04948381707072258,-9.729296684265137,1.2547804117202759
1759304794694201600,8.59520166015625,-0.04140413552522659,-9.72885513305664,1.2584846019744873
1759304794704243000,8.605242919921874,-0.03377936780452728,-9.728361129760742,1.262520670890808
1759304794714283500,8.615283447265625,-0.02574412152171135,-9.727923393249512,1.2660797834396362
1759304794724323600,8.625323486328124,-0.01784336380660534,-9.727530479431152,1.2692463397979736
1759304794734362400,8.6353623046875,-0.010230288840830326,-9.727208137512207,1.2717750072479248
1759304794744404700,8.64540478515625,-0.002794384490698576,-9.726971626281738,1.2736213207244873
1759304794754444300,8.6554443359375,0.004350913222879171,-9.726801872253418,1.274922251701355
1759304794764484000,8.665484130859374,0.010287591256201267,-9.726653099060059,1.2760165929794312
1759304794774524700,8.675524658203125,0.015334323979914188,-9.726465225219727,1.2774006128311157
1759304794784565000,8.68556494140625,0.01935253106057644,-9.726236343383789,1.2790802717208862
1759304794794606300,8.6956064453125,0.022039910778403282,-9.725940704345703,1.2812843322753906
1759304794804647400,8.7056474609375,0.02473723143339157,-9.725714683532715,1.2829610109329224
1759304794814685200,8.715685302734375,0.027143945917487144,-9.725642204284668,1.2834633588790894
1759304794824702500,8.725702392578125,0.02897646278142929,-9.72569751739502,1.2830028533935547
1759304794834765800,8.735765869140625,0.030067553743720055,-9.725798606872559,1.2822052240371704
1759304794844807200,8.74580712890625,0.030468087643384933,-9.725910186767578,1.2813513278961182
1759304794854845700,8.755845703125,0.030946975573897362,-9.725990295410156,1.2807437181472778
1759304794864885200,8.76588525390625,0.03075460158288479,-9.726034164428711,1.2803993225097656
1759304794874926800,8.7759267578125,0.029527271166443825,-9.72606086730957,1.2802354097366333
1759304794884965600,8.785965576171876,0.027915192767977715,-9.726106643676758,1.2799248695373535
1759304794895008000,8.796008056640625,0.026257507503032684,-9.726188659667969,1.2793296575546265
1759304794905046000,8.8060458984375,0.024691037833690643,-9.726290702819824,1.2785907983779907
1759304794915086800,8.8160869140625,0.02429986000061035,-9.726381301879883,1.2778947353363037
1759304794925127000,8.826126953125,0.024934282526373863,-9.726370811462402,1.2779654264450073
1759304794935168500,8.83616845703125,0.0258464477956295,-9.726249694824219,1.278872013092041
1759304794945208800,8.846208740234376,0.02662237361073494,-9.72611141204834,1.2799158096313477
1759304794955248400,8.856248291015625,0.02621014602482319,-9.726042747497559,1.2804419994354248
1759304794965287200,8.866287109375,0.025254124775528908,-9.726034164428711,1.2805285453796387
1759304794975327000,8.876326904296874,0.023994050920009613,-9.726021766662598,1.280644416809082
1759304794985369600,8.88636962890625,0.022662054747343063,-9.725997924804688,1.2808419466018677
1759304794995409200,8.8964091796875,0.020949404686689377,-9.725987434387207,1.2809630632400513
1759304795005449000,8.906448974609376,0.01873798854649067,-9.72597599029541,1.2810662984848022
1759304795015487000,8.916487060546874,0.016930613666772842,-9.725979804992676,1.2810832262039185
1759304795025529300,8.926529296875,0.015869343653321266,-9.72602653503418,1.2807340621948242
1759304795035571200,8.9365712890625,0.014742000959813595,-9.726101875305176,1.2801750898361206
1759304795045609000,8.94660888671875,0.012991344556212425,-9.726181030273438,1.2796046733856201
1759304795055648800,8.956648681640624,0.010771741159260273,-9.726259231567383,1.2790261507034302
1759304795065689600,8.966689697265625,0.008031736128032207,-9.726353645324707,1.2783119678497314
1759304795075732200,8.976732177734375,0.005235012620687485,-9.726479530334473,1.277376651763916
1759304795085770000,8.98677001953125,0.0020517881494015455,-9.72661304473877,1.2763662338256836
1759304795095811000,8.99681103515625,-0.001844796584919095,-9.726765632629395,1.2752082347869873
1759304795105851400,9.006851318359375,-0.005810962989926338,-9.726953506469727,1.2737616300582886
1759304795115893000,9.01689306640625,-0.010355419479310513,-9.727182388305664,1.2719863653182983
1759304795125931500,9.026931640625,-0.015799762681126595,-9.727438926696777,1.26996910572052
1759304795135971000,9.03697119140625,-0.02154582180082798,-9.727713584899902,1.2677634954452515
1759304795146011100,9.04701123046875,-0.027525769546628,-9.727998733520508,1.2654763460159302
1759304795156053000,9.057052978515625,-0.033704522997140884,-9.728261947631836,1.2632877826690674
1759304795166092500,9.067092529296875,-0.040141720324754715,-9.728506088256836,1.2612230777740479
1759304795176133400,9.07713330078125,-0.04717124626040459,-9.728732109069824,1.2592341899871826
1759304795186173200,9.087173095703125,-0.054672639816999435,-9.728954315185547,1.257215976715088
1759304795196212700,9.097212646484374,-0.06255526840686798,-9.729207992553711,1.2548704147338867
1759304795206252500,9.10725244140625,-0.07082381844520569,-9.729483604431152,1.2523014545440674
1759304795216292600,9.117292724609374,-0.07897249609231949,-9.729756355285645,1.2496789693832397
1759304795226334500,9.12733447265625,-0.08631075173616409,-9.730013847351074,1.2471909523010254
1759304795236372700,9.137372802734374,-0.09224450588226318,-9.730199813842773,1.245314598083496
1759304795246413800,9.147413818359375,-0.09682814031839371,-9.730330467224121,1.24394690990448
1759304795256451800,9.157451904296876,-0.10107322037220001,-9.730461120605469,1.242600679397583
1759304795266493000,9.167492919921875,-0.1054878681898117,-9.730633735656738,1.2408698797225952
1759304795276532700,9.17753271484375,-0.11003115773200989,-9.730862617492676,1.2386832237243652
1759304795286573000,9.187572998046875,-0.11572341620922089,-9.731127738952637,1.2360754013061523
1759304795296614700,9.19761474609375,-0.12302717566490173,-9.731356620788574,1.2335553169250488
1759304795306655500,9.207655517578125,-0.13188688457012177,-9.731542587280273,1.2311798334121704
1759304795316695800,9.21769580078125,-0.14157454669475555,-9.731694221496582,1.2289108037948608
1759304795326735400,9.2277353515625,-0.15190774202346802,-9.731794357299805,1.2268844842910767
1759304795336778000,9.237778076171875,-0.1622152179479599,-9.731833457946777,1.2252428531646729
1759304795346815200,9.247815185546875,-0.17157778143882751,-9.731900215148926,1.223440408706665
1759304795356855600,9.25785546875,-0.1800106316804886,-9.731993675231934,1.2214839458465576
1759304795366897200,9.267897216796875,-0.1876944601535797,-9.732158660888672,1.2190041542053223
1759304795376936000,9.27793603515625,-0.19448716938495636,-9.732415199279785,1.2158881425857544
1759304795386975500,9.2879755859375,-0.20057997107505798,-9.732711791992188,1.2125242948532104
1759304795397016800,9.298016845703126,-0.20656752586364746,-9.733014106750488,1.2090811729431152
1759304795407055400,9.308055419921875,-0.2132035195827484,-9.73322868347168,1.2062143087387085
1759304795417097500,9.318097412109376,-0.2202891856431961,-9.733329772949219,1.2041137218475342
1759304795427137300,9.32813720703125,-0.22804726660251617,-9.733333587646484,1.2026472091674805
1759304795437175600,9.338175537109375,-0.2355223447084427,-9.733315467834473,1.2013344764709473
1759304795447218400,9.348218505859375,-0.24250274896621704,-9.733285903930664,1.2001930475234985
1759304795457258500,9.358258544921876,-0.24840201437473297,-9.73327922821045,1.1990412473678589
1759304795467297500,9.368297607421875,-0.25222140550613403,-9.73331069946289,1.1979942321777344
1759304795477336600,9.378336669921875,-0.25476786494255066,-9.733421325683594,1.1965508460998535
1759304795487378000,9.3883779296875,-0.2571032643318176,-9.733588218688965,1.1946996450424194
1759304795497417200,9.398417236328125,-0.2594585120677948,-9.73380184173584,1.1924374103546143
1759304795507456500,9.40845654296875,-0.2625674903392792,-9.734048843383789,1.1897298097610474
1759304795517498000,9.418498046875,-0.26661258935928345,-9.734251022338867,1.187180757522583
1759304795527538200,9.4285380859375,-0.2714868187904358,-9.734317779541016,1.1855335235595703
1759304795537578500,9.43857861328125,-0.27605876326560974,-9.734221458435059,1.1852672100067139
1759304795547617500,9.448617431640624,-0.2806517481803894,-9.733951568603516,1.1863915920257568
1759304795557660000,9.458659912109376,-0.28573474287986755,-9.733526229858398,1.1886652708053589
1759304795567699500,9.468699462890624,-0.29129600524902344,-9.73306941986084,1.1910618543624878
1759304795577738200,9.47873828125,-0.2976367473602295,-9.732664108276367,1.192803978919983
1759304795587779300,9.488779296875,-0.30568134784698486,-9.732340812683105,1.1934027671813965
1759304795597818000,9.498818115234375,-0.3158665895462036,-9.732056617736816,1.1930691003799438
1759304795607859500,9.508859375,-0.32983794808387756,-9.731651306152344,1.192611575126648
1759304795617900300,9.518900390625,-0.3478865325450897,-9.731038093566895,1.1924704313278198
1759304795627938600,9.5289384765625,-0.3703392744064331,-9.730189323425293,1.1926379203796387
1759304795637979600,9.538979736328125,-0.3986526429653168,-9.729135513305664,1.1921049356460571
1759304795648019200,9.549019287109376,-0.4349299669265747,-9.727734565734863,1.1908597946166992
1759304795658059300,9.559059326171875,-0.4810469448566437,-9.72565746307373,1.1900691986083984
1759304795668099800,9.569099853515626,-0.5376509428024292,-9.72265625,1.1903873682022095
1759304795678140400,9.579140380859375,-0.6044781804084778,-9.718581199645996,1.1915924549102783
1759304795688180700,9.5891806640625,-0.6795289516448975,-9.713415145874023,1.1932846307754517
1759304795698219500,9.599219482421875,-0.7589312195777893,-9.707271575927734,1.1954182386398315
1759304795708262100,9.60926220703125,-0.8378475904464722,-9.7003173828125,1.1991513967514038
1759304795718301000,9.619301025390625,-0.9130322337150574,-9.69275951385498,1.2053626775741577
1759304795728343300,9.62934326171875,-0.9841846823692322,-9.684460639953613,1.2160344123840332
1759304795738379800,9.6393798828125,-1.0450431108474731,-9.67358112335205,1.2513381242752075
1759304795748421600,9.649421630859376,-0.8477281928062439,-9.62171459197998,1.714665412902832
1759304795758461700,9.659461669921875,-0.9085322022438049,-9.613238334655762,1.730996012687683
1759304795768501500,9.66950146484375,-0.9563343524932861,-9.606565475463867,1.7422548532485962
1759304795778542000,9.6795419921875,-0.9877771735191345,-9.601242065429688,1.75401771068573
1759304795788557600,9.6895576171875,-1.0041879415512085,-9.597811698913574,1.7634376287460327
1759304795798598100,9.69959814453125,-1.0072139501571655,-9.597416877746582,1.7638694047927856
1759304795808638200,9.70963818359375,-0.9936220645904541,-9.601117134094238,1.7513914108276367
1759304795818678300,9.71967822265625,-0.9625166654586792,-9.60891342163086,1.7258232831954956
1759304795828742400,9.729742431640625,-0.9213645458221436,-9.619415283203125,1.689396858215332
1759304795838784800,9.73978466796875,-0.878596842288971,-9.630260467529297,1.6499205827713013
1759304795848822800,9.74982275390625,-0.8363816738128662,-9.640325546264648,1.6126749515533447
1759304795858865200,9.759865234375,-0.7943279147148132,-9.649274826049805,1.580082893371582
1759304795868904200,9.769904296875,-0.844315767288208,-9.584843635559082,1.9115469455718994
1759304795878943700,9.77994384765625,-0.8013866543769836,-9.59085464477539,1.8998373746871948
1759304795888983000,9.789983154296875,-0.7443751692771912,-9.594161987304688,1.9063323736190796
1759304795899023600,9.800023681640624,-0.6775549054145813,-9.594949722290039,1.9271634817123413
1759304795909064200,9.810064208984375,-0.6101219058036804,-9.59459400177002,1.9513115882873535
1759304795919103500,9.820103515625,-0.5523759722709656,-9.59433364868164,1.9697051048278809
1759304795929144000,9.83014404296875,-0.5162928104400635,-9.594391822814941,1.9791890382766724
1759304795939184600,9.8401845703125,-0.5138860940933228,-9.647132873535156,1.704371690750122
1759304795949224400,9.850224365234375,-0.5330842137336731,-9.66805362701416,1.5750174522399902
1759304795959265500,9.860265625,-0.5396962761878967,-9.669829368591309,1.5618176460266113
1759304795969304800,9.870304931640625,-0.5572882294654846,-9.662332534790039,1.6015214920043945
1759304795979345400,9.880345458984374,-0.5569116473197937,-9.66097640991211,1.6098169088363647
1759304795989392400,9.890392333984375,-0.5172417759895325,-9.664613723754883,1.6011966466903687
1759304795999425300,9.90042529296875,-0.44209280610084534,-9.684283256530762,1.501778483390808
1759304796009465900,9.9104658203125,-0.4177502393722534,-9.684830665588379,1.5052067041397095
1759304796019506200,9.920506103515624,-0.3945876657962799,-9.686864852905273,1.4983575344085693
1759304796029546200,9.930546142578125,-0.37428322434425354,-9.690125465393066,1.482393741607666
1759304796039586800,9.9405869140625,-0.35616445541381836,-9.693860054016113,1.4622992277145386
1759304796049626000,9.950626220703125,-0.33917009830474854,-9.697396278381348,1.4427818059921265
1759304796059666400,9.96066650390625,-0.3223423957824707,-9.700141906738281,1.4280924797058105
1759304796069707800,9.970707763671875,-0.3081207871437073,-9.701699256896973,1.4206374883651733
1759304796079746800,9.980746826171876,-0.2971116602420807,-9.702258110046387,1.4191707372665405
1759304796089762300,9.99076220703125,-0.28766724467277527,-9.702553749084473,1.4190897941589355
1759304796099826700,10.00082666015625,-0.27786964178085327,-9.703409194946289,1.4151887893676758
1759304796109869300,10.010869384765625,-0.26747795939445496,-9.704917907714844,1.4068193435668945
1759304796119906300,10.02090625,-0.25696292519569397,-9.706392288208008,1.3985782861709595
1759304796129948700,10.03094873046875,-0.24679811298847198,-9.70789909362793,1.389924168586731
1759304796139988500,10.040988525390626,-0.2375495731830597,-9.709182739257812,1.3825560808181763
1759304796150028500,10.051028564453125,-0.2278519719839096,-9.709980010986328,1.378584384918213
1759304796160069000,10.061069091796876,-0.21758542954921722,-9.710079193115234,1.379538655281067
1759304796170107400,10.071107421875,-0.20857837796211243,-9.709434509277344,1.3854615688323975
1759304796180148000,10.08114794921875,-0.20316970348358154,-9.708115577697754,1.395474910736084
1759304796190188500,10.0911884765625,-0.20127519965171814,-9.706528663635254,1.4067331552505493
1759304796200230100,10.101230224609376,-0.20176519453525543,-9.705270767211914,1.4153177738189697
1759304796210270200,10.111270263671875,-0.20453619956970215,-9.704695701599121,1.418867588043213
1759304796220310500,10.121310546875,-0.2089373916387558,-9.705135345458984,1.415205478668213
1759304796230348500,10.1313486328125,-0.20792874693870544,-9.710453987121582,1.378392219543457
1759304796240392200,10.14139208984375,-0.17778635025024414,-9.721885681152344,1.299797773361206
1759304796250429200,10.15142919921875,-0.1485210359096527,-9.728270530700684,1.2549315690994263
1759304796260469800,10.1614697265625,-0.136672243475914,-9.73046588897705,1.2391326427459717
1759304796270510300,10.17151025390625,-0.1347309648990631,-9.731708526611328,1.2295647859573364
1759304796280551000,10.181551025390625,-0.1333843469619751,-9.732885360717773,1.2203683853149414
1759304796290591000,10.191591064453124,-0.1310378611087799,-9.733588218688965,1.214997410774231
1759304796300630500,10.201630615234375,-0.11603741347789764,-9.731223106384277,1.2352968454360962
1759304796310672000,10.211671875,-0.08065766841173172,-9.725339889526367,1.2835010290145874
1759304796320711200,10.221711181640625,0.0017769689438864589,-9.715057373046875,1.361526608467102
1759304796330752500,10.23175244140625,0.01599564403295517,-9.71335506439209,1.3735320568084717
1759304796340791600,10.24179150390625,0.018788859248161316,-9.712677001953125,1.3782768249511719
1759304796350831000,10.2518310546875,0.015469979494810104,-9.712284088134766,1.381093144416809
1759304796360872000,10.261871826171875,0.006868139840662479,-9.711990356445312,1.3832173347473145
1759304796370912800,10.271912841796874,-0.007325976621359587,-9.71165657043457,1.3855680227279663
1759304796380951000,10.281950927734375,-0.027726328000426292,-9.711275100708008,1.38798987865448
1759304796390992100,10.2919921875,-0.05382712930440903,-9.710915565490723,1.38972008228302
1759304796401032700,10.30203271484375,-0.08484134823083878,-9.71077823638916,1.3891438245773315
1759304796411073500,10.312073486328124,-0.11951065808534622,-9.71142578125,1.3820345401763916
1759304796421118200,10.3221181640625,-0.15651534497737885,-9.713577270507812,1.3630918264389038
1759304796431155700,10.33215576171875,-0.20435960590839386,-9.714804649353027,1.3479361534118652
1759304796441192000,10.34219189453125,-0.26132434606552124,-9.715927124023438,1.3298689126968384
1759304796451232800,10.352232666015626,-0.3280697464942932,-9.71656608581543,1.3102868795394897
1759304796461277400,10.36227734375,-0.4061938226222992,-9.716155052185059,1.2913055419921875
1759304796471317000,10.37231689453125,-0.49655550718307495,-9.714285850524902,1.2736495733261108
1759304796481353000,10.38235302734375,-0.5979626178741455,-9.710742950439453,1.2570019960403442
1759304796491393000,10.39239306640625,-0.7092918753623962,-9.705410957336426,1.2401708364486694
1759304796501432800,10.402432861328125,-0.8333820700645447,-9.697708129882812,1.2231279611587524
1759304796511474200,10.41247412109375,-0.974423348903656,-9.686529159545898,1.2073918581008911
1759304796521515300,10.422515380859375,-1.134252905845642,-9.6705961227417,1.1954784393310547
1759304796531554800,10.432554931640626,-1.3040379285812378,-9.650107383728027,1.1878832578659058
1759304796541594000,10.442593994140625,-1.4729089736938477,-9.626522064208984,1.1818468570709229
1759304796551635000,10.452635009765626,-1.6382110118865967,-9.600812911987305,1.1733769178390503
1759304796561676300,10.46267626953125,-1.8030614852905273,-9.573113441467285,1.157839059829712
1759304796571715000,10.472715087890625,-1.967712640762329,-9.543229103088379,1.1362298727035522
1759304796581755100,10.482755126953125,-2.127169132232666,-9.511898040771484,1.1113306283950806
1759304796591794000,10.4927939453125,-2.2832517623901367,-9.478623390197754,1.0856095552444458
1759304796601835800,10.502835693359375,-2.4383492469787598,-9.443397521972656,1.054897665977478
1759304796611877400,10.51287744140625,-2.5910487174987793,-9.406970977783203,1.015620470046997
1759304796621915600,10.52291552734375,-2.738133668899536,-9.370838165283203,0.9623777866363525
1759304796631956000,10.5329560546875,-2.8918044567108154,-9.329789161682129,0.9102981090545654
1759304796641995300,10.542995361328124,-3.0510826110839844,-9.283852577209473,0.8585683703422546
1759304796652035300,10.553035400390625,-3.2110161781311035,-9.233602523803711,0.8161093592643738
1759304796662075400,10.563075439453126,-3.3498611450195312,-9.186369895935059,0.79066401720047
1759304796672117500,10.573117431640625,-3.504326581954956,-9.130426406860352,0.768843412399292
1759304796682155800,10.58315576171875,-3.663879632949829,-9.069645881652832,0.7440816164016724
1759304796692196400,10.5931962890625,-3.829753875732422,-9.00327205657959,0.7142844796180725
1759304796702237000,10.60323681640625,-4.003126621246338,-8.930131912231445,0.6810529828071594
1759304796712275700,10.613275634765625,-4.176844596862793,-8.853081703186035,0.6426748037338257
1759304796722317800,10.62331787109375,-4.343122482299805,-8.775832176208496,0.5984920859336853
1759304796732358100,10.633358154296875,-4.50352668762207,-8.697798728942871,0.5501692295074463
1759304796742397200,10.643397216796876,-4.660271644592285,-8.617830276489258,0.5010113716125488
1759304796752438300,10.653438232421875,-4.817615985870361,-8.533392906188965,0.4559705853462219
1759304796762478300,10.663478271484376,-4.971984386444092,-8.44680404663086,0.4087007939815521
1759304796772518400,10.673518310546875,-5.124693393707275,-8.357307434082031,0.3592599630355835
1759304796782558700,10.683558837890626,-5.2722601890563965,-8.26700496673584,0.30987349152565
1759304796792597200,10.69359716796875,-5.411905288696289,-8.178102493286133,0.25703221559524536
1759304796802638000,10.70363818359375,-5.548737049102783,-8.087498664855957,0.20006044209003448
1759304796812676900,10.7136767578125,-5.689971446990967,-7.989941120147705,0.1456143856048584
1759304796822717200,10.72371728515625,-5.833137035369873,-7.886782169342041,0.09652584046125412
1759304796832759600,10.733759521484375,-5.974205017089844,-7.780918121337891,0.04807201027870178
1759304796842799000,10.743799072265626,-6.110773086547852,-7.674271106719971,-0.010893655940890312
1759304796852840400,10.75384033203125,-6.249312400817871,-7.561666011810303,-0.058314576745033264
1759304796862879700,10.763879638671876,-6.390066623687744,-7.442676544189453,-0.09877876937389374
1759304796872919000,10.7739189453125,-6.540340423583984,-7.310137748718262,-0.1481485664844513
1759304796882960600,10.783960693359376,-6.728368759155273,-7.134848117828369,-0.24321319162845612
1759304796893000200,10.794000244140625,-6.868516445159912,-6.999401569366455,-0.2608194649219513
1759304796903038200,10.8040380859375,-7.009528636932373,-6.857931613922119,-0.2672610282897949
1759304796913078800,10.814078857421874,-7.152261734008789,-6.709120750427246,-0.2626166045665741
1759304796923119400,10.824119384765625,-7.293328762054443,-6.555952072143555,-0.2509695291519165
1759304796933160200,10.83416015625,-7.43190336227417,-6.398916721343994,-0.23832812905311584
1759304796943199700,10.84419970703125,-7.569461345672607,-6.23619270324707,-0.22205854952335358
1759304796953240600,10.854240478515624,-7.701547145843506,-6.072935581207275,-0.20436780154705048
1759304796963279400,10.864279296875,-7.82680606842041,-5.91099739074707,-0.19321247935295105
1759304796973321500,10.874321533203124,-7.943890571594238,-5.752601146697998,-0.19577531516551971
1759304796983359500,10.884359375,-8.055651664733887,-5.594923973083496,-0.19863927364349365
1759304796993400600,10.894400634765624,-8.164071083068848,-5.435410499572754,-0.20103342831134796
1759304797003439900,10.90443994140625,-8.271018981933594,-5.270373821258545,-0.2225099503993988
1759304797013481700,10.914481689453124,-8.37399959564209,-5.10538911819458,-0.21739041805267334
1759304797023520300,10.924520263671875,-8.473127365112305,-4.939228057861328,-0.21521131694316864
1759304797033562400,10.934562255859374,-8.568628311157227,-4.7714972496032715,-0.21811211109161377
1759304797043602000,10.944601806640625,-8.65998649597168,-4.603307723999023,-0.22434334456920624
1759304797053642500,10.954642578125,-8.747495651245117,-4.434533596038818,-0.22889204323291779
1759304797063682000,10.96468212890625,-8.832014083862305,-4.263372898101807,-0.23508614301681519
1759304797073723100,10.97472314453125,-8.913115501403809,-4.090842247009277,-0.23980192840099335
1759304797083764000,10.984763916015625,-8.990961074829102,-3.9164974689483643,-0.2444911003112793
1759304797093802000,10.994802001953126,-9.065872192382812,-3.7391016483306885,-0.255314439535141
1759304797103841300,11.00484130859375,-9.137151718139648,-3.5603861808776855,-0.26877561211586
1759304797113884700,11.014884765625,-9.204727172851562,-3.3801801204681396,-0.2890230715274811
1759304797123921200,11.024921142578124,-9.272188186645508,-3.1902058124542236,-0.29198160767555237
1759304797133961200,11.034961181640625,-9.363799095153809,-2.9245107173919678,-0.051584284752607346
1759304797144002600,11.04500244140625,-9.41505241394043,-2.754061222076416,-0.08982113003730774
1759304797154043400,11.05504345703125,-9.460894584655762,-2.590158224105835,-0.13685905933380127
1759304797164082400,11.06508251953125,-9.502223014831543,-2.431663751602173,-0.17569392919540405
1759304797174122200,11.075122314453125,-9.539831161499023,-2.277695894241333,-0.1996007114648819
1759304797184164600,11.08516455078125,-9.573474884033203,-2.1301662921905518,-0.21701182425022125
1759304797194200800,11.095200927734375,-9.602851867675781,-1.9907805919647217,-0.24112968146800995
1759304797204243500,11.105243408203124,-9.628596305847168,-1.8580825328826904,-0.2716541290283203
1759304797214283800,11.11528369140625,-9.651579856872559,-1.7296226024627686,-0.3025898337364197
1759304797224324400,11.125324462890624,-9.672361373901367,-1.6043953895568848,-0.3278736472129822
1759304797234364700,11.13536474609375,-9.691030502319336,-1.4831267595291138,-0.34689369797706604
1759304797244406000,11.145406005859375,-9.707832336425781,-1.3645917177200317,-0.3632892370223999
1759304797254443800,11.15544384765625,-9.723052024841309,-1.2456287145614624,-0.38318735361099243
1759304797264484000,11.165484130859374,-9.735713005065918,-1.1351571083068848,-0.40430891513824463
1759304797274524400,11.1755244140625,-9.746482849121094,-1.0305042266845703,-0.4245279133319855
1759304797284563700,11.185563720703126,-9.75585651397705,-0.9293592572212219,-0.4423900544643402
1759304797294605000,11.19560498046875,-9.763559341430664,-0.8361687064170837,-0.4580754339694977
1759304797304645000,11.20564501953125,-9.769816398620605,-0.7515445351600647,-0.47115078568458557
1759304797314686000,11.21568603515625,-9.774965286254883,-0.6730929017066956,-0.4828529953956604
1759304797324726800,11.225726806640624,-9.779094696044922,-0.5999028086662292,-0.49558502435684204
1759304797334765000,11.23576513671875,-9.782258033752441,-0.5322882533073425,-0.5101529955863953
1759304797344807200,11.24580712890625,-9.784564018249512,-0.4704800248146057,-0.5263976454734802
1759304797354844400,11.255844482421875,-9.786054611206055,-0.41477081179618835,-0.5452243089675903
1759304797364886000,11.265885986328126,-9.786935806274414,-0.3645815849304199,-0.5649122595787048
1759304797374925000,11.275925048828125,-9.787408828735352,-0.31915682554244995,-0.5838879942893982
1759304797384967000,11.285966796875,-9.787611961364746,-0.27942031621932983,-0.6005899906158447
1759304797395005400,11.29600537109375,-9.787662506103516,-0.2456619292497635,-0.6143801808357239
1759304797405046300,11.30604638671875,-9.78767204284668,-0.21638591587543488,-0.6251547932624817
1759304797415087000,11.316087158203125,-9.787753105163574,-0.19183661043643951,-0.6318624019622803
1759304797425125600,11.326125732421875,-9.787847518920898,-0.17151659727096558,-0.6362367272377014
1759304797435167000,11.3361669921875,-9.787878036499023,-0.15457198023796082,-0.640092670917511
1759304797445205500,11.34620556640625,-9.787788391113281,-0.13957250118255615,-0.6449047327041626
1759304797455241500,11.356241455078125,-9.787596702575684,-0.12693198025226593,-0.6503918170928955
1759304797465287200,11.366287109375,-9.787333488464355,-0.11620455235242844,-0.6563363671302795
1759304797475327000,11.376326904296874,-9.787111282348633,-0.10651145875453949,-0.6612282991409302
1759304797485369300,11.386369384765626,-9.786985397338867,-0.09674564003944397,-0.664564311504364
1759304797495408600,11.39640869140625,-9.786917686462402,-0.0855882540345192,-0.6670891046524048
1759304797505448200,11.4064482421875,-9.786765098571777,-0.07344552874565125,-0.6707668900489807
1759304797515488300,11.41648828125,-9.78648567199707,-0.06226484477519989,-0.6759609580039978
1759304797525527800,11.42652783203125,-9.78613567352295,-0.053973238915205,-0.6817280650138855
1759304797535568000,11.43656787109375,-9.785696029663086,-0.0506804883480072,-0.688231348991394
1759304797545609200,11.446609130859375,-9.784896850585938,-0.050846584141254425,-0.69955974817276
1759304797555648500,11.4566484375,-9.78364372253418,-0.04919767007231712,-0.7169955372810364
1759304797565688000,11.46668798828125,-9.782204627990723,-0.04275352880358696,-0.7367612719535828
1759304797575729400,11.4767294921875,-9.780865669250488,-0.033716946840286255,-0.7547438740730286
1759304797585769000,11.48676904296875,-9.779647827148438,-0.025816956534981728,-0.7707197666168213
1759304797595809000,11.49680908203125,-9.778275489807129,-0.021054252982139587,-0.788087785243988
1759304797605850600,11.5068505859375,-9.776613235473633,-0.018951667472720146,-0.8084836602210999
1759304797615888100,11.51688818359375,-9.7747220993042,-0.01759222522377968,-0.831038773059845
1759304797625929200,11.52692919921875,-9.772769927978516,-0.015371087938547134,-0.8537346124649048
1759304797635970800,11.536970703125,-9.77091121673584,-0.011449908837676048,-0.874826967716217
1759304797646010000,11.547010009765625,-9.769152641296387,-0.004847049713134766,-0.8942633271217346
1759304797656047900,11.5570478515625,-9.767333984375,0.004884617868810892,-0.9139529466629028
1759304797666090500,11.567090576171875,-9.765619277954102,0.014156037010252476,-0.9319900870323181
1759304797676130000,11.577130126953126,-9.763862609863281,0.023572612553834915,-0.950042188167572
1759304797686169300,11.58716943359375,-9.76203727722168,0.03362686187028885,-0.9682916402816772
1759304797696210400,11.59721044921875,-9.7600736618042,0.04491933435201645,-0.9874703884124756
1759304797706248700,11.607248779296874,-9.75818920135498,0.057068534195423126,-1.0053024291992188
1759304797716291300,11.617291259765626,-9.75632095336914,0.0702216625213623,-1.0224584341049194
1759304797726331100,11.6273310546875,-9.754313468933105,0.08451423048973083,-1.0403368473052979
1759304797736371500,11.637371337890626,-9.75235652923584,0.09874233603477478,-1.057327151298523
1759304797746411800,11.647411865234375,-9.750926971435547,0.10860922187566757,-1.0694842338562012
1759304797756451000,11.657451171875,-9.74976634979248,0.11687217652797699,-1.0791475772857666
1759304797766491100,11.6674912109375,-9.74897289276123,0.12195838242769241,-1.0857146978378296
1759304797776531200,11.67753125,-9.748340606689453,0.12413445860147476,-1.0911452770233154
1759304797786573000,11.687572998046875,-9.747577667236328,0.12477995455265045,-1.0978503227233887
1759304797796611000,11.697611083984375,-9.746644020080566,0.12449782341718674,-1.1061464548110962
1759304797806651400,11.7076513671875,-9.745526313781738,0.12388499826192856,-1.1160216331481934
1759304797816693500,11.717693603515626,-9.744394302368164,0.12270279973745346,-1.1260157823562622
1759304797826730200,11.727730224609376,-9.743386268615723,0.1206614300608635,-1.1349077224731445
1759304797836772600,11.737772705078125,-9.742586135864258,0.11727369576692581,-1.1420780420303345
1759304797846813400,11.7478134765625,-9.74201488494873,0.11197184771299362,-1.1475082635879517
1759304797856851500,11.7578515625,-9.7416410446167,0.1050204187631607,-1.151352047920227
1759304797866894300,11.767894287109375,-9.741350173950195,0.09736425429582596,-1.1544495820999146
1759304797876931300,11.777931396484375,-9.741076469421387,0.09035801142454147,-1.157333254814148
1759304797886972200,11.78797216796875,-9.740822792053223,0.08510922640562057,-1.1598412990570068
1759304797897011200,11.79801123046875,-9.740607261657715,0.08059111982584,-1.1619811058044434
1759304797907053300,11.80805322265625,-9.740219116210938,0.07633353769779205,-1.1655021905899048
1759304797917093600,11.81809375,-9.739569664001465,0.07234829664230347,-1.1711719036102295
1759304797927132200,11.828132080078126,-9.738734245300293,0.06830619275569916,-1.178346872329712
1759304797937173800,11.838173828125,-9.737854957580566,0.06373275071382523,-1.1858693361282349
1759304797947212500,11.848212646484376,-9.737025260925293,0.05839081108570099,-1.1929022073745728
1759304797957255700,11.858255615234375,-9.736319541931152,0.05283595621585846,-1.1989144086837769
1759304797967294000,11.8682939453125,-9.735655784606934,0.04743996262550354,-1.204519271850586
1759304797977333800,11.878333740234375,-9.735191345214844,0.04225066676735878,-1.2084605693817139
1759304797987372800,11.888372802734375,-9.734935760498047,0.03722403571009636,-1.2106866836547852
1759304797997414700,11.89841455078125,-9.734935760498047,0.03224607929587364,-1.2108253240585327
1759304798007454000,11.908453857421875,-9.735166549682617,0.027254823595285416,-1.20909583568573
1759304798017469000,11.918468994140625,-9.735499382019043,0.02237948775291443,-1.2065125703811646
1759304798027534000,11.9285341796875,-9.735922813415527,0.01783437468111515,-1.203171730041504
1759304798037574000,11.938573974609374,-9.73627758026123,0.013633770868182182,-1.2003509998321533
1759304798047614500,11.948614501953125,-9.736595153808594,0.010023224167525768,-1.1978124380111694
1759304798057655300,11.9586552734375,-9.736950874328613,0.007589247543364763,-1.1949301958084106
1759304798067695000,11.968695068359375,-9.737407684326172,0.006342511624097824,-1.1912305355072021
1759304798077736200,11.978736083984375,-9.737981796264648,0.005983456037938595,-1.1865079402923584
1759304798087777000,11.988777099609376,-9.738677978515625,0.006259992718696594,-1.1807785034179688
1759304798097814300,11.998814208984374,-9.73935604095459,0.0070938789285719395,-1.1751679182052612
1759304798107856000,12.00885595703125,-9.739927291870117,0.008074493147432804,-1.17039954662323
1759304798117895200,12.018895263671874,-9.740370750427246,0.009070530533790588,-1.1667155027389526
1759304798127934700,12.028934814453125,-9.740705490112305,0.010159208439290524,-1.1639031171798706
1759304798137974500,12.038974609375,-9.740985870361328,0.011413143947720528,-1.1615335941314697
1759304798148015400,12.049015380859375,-9.741228103637695,0.01286756619811058,-1.1594972610473633
1759304798158053600,12.0590537109375,-9.741435050964355,0.014262309297919273,-1.1577270030975342
1759304798168095500,12.069095458984375,-9.74158763885498,0.015652522444725037,-1.1564222574234009
1759304798178138400,12.079138427734375,-9.741703033447266,0.016855623573064804,-1.1554619073867798
1759304798188176400,12.08917626953125,-9.741744041442871,0.017884258180856705,-1.1550942659378052
1759304798198216400,12.099216552734376,-9.741719245910645,0.018364496529102325,-1.1552996635437012
1759304798208255700,12.109255859375,-9.741625785827637,0.018355250358581543,-1.1560922861099243
1759304798218296800,12.119296875,-9.741508483886719,0.018046226352453232,-1.1570788621902466
1759304798228337700,12.129337646484375,-9.741381645202637,0.017713701352477074,-1.1581447124481201
1759304798238376400,12.13937646484375,-9.74123477935791,0.017473015934228897,-1.1593878269195557
1759304798248417800,12.149417724609375,-9.741086959838867,0.017196370288729668,-1.1606311798095703
1759304798258457600,12.15945751953125,-9.740966796875,0.01680862531065941,-1.161649465560913
1759304798268496100,12.16949609375,-9.740878105163574,0.01643882691860199,-1.162397861480713
1759304798278537000,12.179536865234375,-9.740776062011719,0.016317423433065414,-1.1632317304611206
1759304798288579000,12.1895791015625,-9.7406587600708,0.016384776681661606,-1.1642115116119385
1759304798298617600,12.19961767578125,-9.740513801574707,0.016495252028107643,-1.1654295921325684
1759304798308660000,12.209659912109375,-9.740344047546387,0.01676309108734131,-1.1668561697006226
1759304798318697200,12.219697265625,-9.740142822265625,0.017070982605218887,-1.1685460805892944
1759304798328738000,12.229738037109374,-9.739903450012207,0.017329247668385506,-1.1705090999603271
1759304798338779000,12.23977880859375,-9.7396240234375,0.017546728253364563,-1.1728299856185913
1759304798348817400,12.2498173828125,-9.739343643188477,0.017637724056839943,-1.1751735210418701
1759304798358858000,12.25985791015625,-9.73900032043457,0.017910826951265335,-1.1779942512512207
1759304798368898600,12.269898681640624,-9.738609313964844,0.018286656588315964,-1.1812180280685425
1759304798378938600,12.279938720703125,-9.738212585449219,0.019124671816825867,-1.1844871044158936
1759304798388980700,12.289980712890625,-9.737813949584961,0.019524475559592247,-1.1877539157867432
1759304798399017500,12.300017578125,-9.737418174743652,0.019744805991649628,-1.1909617185592651
1759304798409059000,12.31005908203125,-9.737044334411621,0.019884005188941956,-1.1940423250198364
1759304798419098600,12.3200986328125,-9.736642837524414,0.02006143145263195,-1.1973129510879517
1759304798429138400,12.330138427734376,-9.736239433288574,0.020428162068128586,-1.200561761856079
1759304798439180000,12.340179931640625,-9.73582649230957,0.020736712962388992,-1.2039116621017456
1759304798449218800,12.35021875,-9.73543930053711,0.02071489579975605,-1.2070319652557373
1759304798459262000,12.360261962890625,-9.735058784484863,0.02043064683675766,-1.2100886106491089
1759304798469298400,12.37029833984375,-9.734655380249023,0.020086100324988365,-1.2133402824401855
1759304798479339500,12.380339599609375,-9.734233856201172,0.01985696330666542,-1.2167383432388306
1759304798489400600,12.390400634765625,-9.733811378479004,0.019869094714522362,-1.220097541809082
1759304798499421400,12.40042138671875,-9.733426094055176,0.020077036693692207,-1.2231601476669312
1759304798509459200,12.410459228515625,-9.733104705810547,0.02041979320347309,-1.2257095575332642
1759304798519499300,12.420499267578125,-9.732860565185547,0.020775998011231422,-1.2276583909988403
1759304798529540600,12.43054052734375,-9.732671737670898,0.02110910788178444,-1.2291438579559326
1759304798539582000,12.44058203125,-9.73247241973877,0.02129366062581539,-1.230712890625
1759304798549620200,12.4506201171875,-9.732256889343262,0.02135472744703293,-1.2324202060699463
1759304798559659500,12.460659423828124,-9.732030868530273,0.02136598341166973,-1.2341892719268799
1759304798569699300,12.47069921875,-9.731805801391602,0.02140658348798752,-1.2359650135040283
1759304798579740700,12.48074072265625,-9.73158073425293,0.021337514743208885,-1.2377395629882812
1759304798589756200,12.490756103515626,-9.731329917907715,0.02117064967751503,-1.2397387027740479
1759304798599821600,12.500821533203125,-9.731071472167969,0.020802274346351624,-1.241749882698059
1759304798609861000,12.510861083984375,-9.730835914611816,0.02032656781375408,-1.243605375289917
1759304798619901000,12.52090087890625,-9.730622291564941,0.019753577187657356,-1.2452876567840576
1759304798629942300,12.5309423828125,-9.730391502380371,0.01903115212917328,-1.2470958232879639
1759304798639982000,12.540982177734374,-9.730107307434082,0.01849065162241459,-1.2493312358856201
1759304798650022700,12.551022705078125,-9.729772567749023,0.01794554479420185,-1.2519497871398926
1759304798660061200,12.561061279296876,-9.729430198669434,0.017428576946258545,-1.2545979022979736
1759304798670101000,12.57110107421875,-9.729116439819336,0.017010940238833427,-1.2570314407348633
1759304798680142600,12.581142578125,-9.72884464263916,0.016907736659049988,-1.2591428756713867
1759304798690183000,12.591182861328125,-9.728617668151855,0.01701349765062332,-1.2608931064605713
1759304798700223000,12.601222900390624,-9.728437423706055,0.017139505594968796,-1.2622807025909424
1759304798710263300,12.61126318359375,-9.728254318237305,0.01728195883333683,-1.2636855840682983
1759304798720301600,12.621301513671876,-9.728048324584961,0.017367327585816383,-1.2652696371078491
1759304798730342700,12.6313427734375,-9.727827072143555,0.017321208491921425,-1.2669768333435059
1759304798740383000,12.641383056640626,-9.727608680725098,0.017258862033486366,-1.2686455249786377
1759304798750424000,12.651424072265625,-9.727404594421387,0.01731952652335167,-1.2701983451843262
1759304798760462000,12.661462158203125,-9.727232933044434,0.01738881692290306,-1.271530032157898
1759304798770504000,12.67150390625,-9.727059364318848,0.017514457926154137,-1.272852897644043
1759304798780542000,12.6815419921875,-9.726884841918945,0.01764083094894886,-1.2741715908050537
1759304798790584800,12.691584716796875,-9.726725578308105,0.01773599535226822,-1.2754065990447998
1759304798800623900,12.701623779296876,-9.726592063903809,0.01797463372349739,-1.2764077186584473
1759304798810663000,12.711662841796874,-9.726495742797852,0.018353387713432312,-1.2771432399749756
1759304798820703000,12.721702880859375,-9.726405143737793,0.018862899392843246,-1.2778112888336182
1759304798830743000,12.731742919921874,-9.72630500793457,0.01961134374141693,-1.2785699367523193
1759304798840783600,12.74178369140625,-9.726186752319336,0.02041189931333065,-1.2794666290283203
1759304798850823400,12.751823486328124,-9.726097106933594,0.02127370610833168,-1.2801188230514526
1759304798860865000,12.761864990234375,-9.726034164428711,0.022051971405744553,-1.280576229095459
1759304798870903300,12.7719033203125,-9.725979804992676,0.0228242427110672,-1.2809901237487793
1759304798880945000,12.78194482421875,-9.725908279418945,0.02358299121260643,-1.2815167903900146
1759304798890985000,12.79198486328125,-9.725878715515137,0.02438683807849884,-1.2817163467407227
1759304798901025000,12.80202490234375,-9.725879669189453,0.025152822956442833,-1.2816946506500244
1759304798911066600,12.812066650390625,-9.725934982299805,0.02577189728617668,-1.2812747955322266
1759304798921111000,12.822111083984375,-9.725990295410156,0.02625918947160244,-1.2808411121368408
1759304798931149300,12.8321494140625,-9.726021766662598,0.02661053277552128,-1.2805891036987305
1759304798941185000,12.84218505859375,-9.726052284240723,0.02703453041613102,-1.2803624868392944
1759304798951226600,12.8522265625,-9.726073265075684,0.027484837919473648,-1.2801973819732666
1759304798961265700,12.862265625,-9.726065635681152,0.028022563084959984,-1.2802423238754272
1759304798971308300,12.872308349609375,-9.726034164428711,0.028353441506624222,-1.2804577350616455
1759304798981321200,12.8823212890625,-9.725976943969727,0.028768228366971016,-1.280898094177246
1759304798991360000,12.892360107421876,-9.725902557373047,0.029478592798113823,-1.2814501523971558
