time,seconds_elapsed,z,y,x
1759304786190102500,0.0911025390625,-0.1700197160243988,-0.328914612531662,-1.5452991724014282
1759304786210178600,0.111178466796875,-0.3174567222595215,-0.5830032229423523,-1.7487266063690186
1759304786220217900,0.1212177734375,-0.35652679204940796,-0.669969916343689,-1.8014695644378662
1759304786230257700,0.131257568359375,-0.4260568618774414,-0.6993807554244995,-1.780252456665039
1759304786240298800,0.141298828125,-0.5273125767707825,-0.6394766569137573,-1.6929360628128052
1759304786250365700,0.15136572265625,-0.6453388333320618,-0.5203845500946045,-1.5918301343917847
1759304786260403500,0.161403564453125,-0.761283278465271,-0.47959914803504944,-1.531842827796936
1759304786270444000,0.171444091796875,-0.9116347432136536,-0.5460981726646423,-1.672951340675354
1759304786280484600,0.181484619140625,-1.1251211166381836,-0.6487361788749695,-1.9761689901351929
1759304786290479000,0.19147900390625,-1.4463750123977661,-0.6030712127685547,-2.316408157348633
1759304786300565200,0.201565185546875,-1.7743569612503052,-0.6053527593612671,-2.6564977169036865
1759304786310604800,0.211604736328125,-1.979183316230774,-0.8157748579978943,-2.9507389068603516
1759304786320645600,0.221645751953125,-2.020251989364624,-0.6761818528175354,-2.988992929458618
1759304786330687000,0.23168701171875,-1.615195631980896,-0.4397130608558655,-2.6674225330352783
1759304786340727000,0.24172705078125,-0.4995172321796417,-0.4344504177570343,-1.959931492805481
1759304786350766800,0.251766845703125,0.7178665399551392,0.07509245723485947,-1.231489658355713
1759304786360808400,0.261808349609375,1.4959869384765625,1.386320948600769,-0.6418248414993286
1759304786370822400,0.271822509765625,1.8785438537597656,2.7979393005371094,-0.19102029502391815
1759304786380887300,0.28188720703125,1.9791167974472046,3.128818988800049,-0.01786964014172554
1759304786390911000,0.291910888671875,1.9311035871505737,2.8797433376312256,0.10924961417913437
1759304786400968000,0.301968017578125,1.8106791973114014,2.3271000385284424,0.4172302782535553
1759304786411010000,0.312010009765625,1.66252601146698,1.8938653469085693,0.8856546878814697
1759304786421047300,0.32204736328125,1.5150890350341797,1.752240538597107,1.3579593896865845
1759304786431094300,0.33209423828125,1.3441033363342285,1.753556251525879,1.7439136505126953
1759304786441130800,0.342130859375,1.0966596603393555,1.601955771446228,2.050595283508301
1759304786451168500,0.35216845703125,0.7756556272506714,1.2337379455566406,2.3140435218811035
1759304786461208600,0.36220849609375,0.40887001156806946,0.75730299949646,2.514972686767578
1759304786471250200,0.372250244140625,0.023098966106772423,0.4591647982597351,2.6323328018188477
1759304786481292000,0.3822919921875,-0.3096127510070801,0.4530694782733917,2.604870557785034
1759304786491334100,0.392334228515625,-0.4646605849266052,0.8488162159919739,2.2241122722625732
1759304786501369300,0.402369384765625,-0.3719483017921448,1.2365357875823975,1.5058294534683228
1759304786511374600,0.41237451171875,-0.2477767914533615,1.2101060152053833,0.8560107350349426
1759304786521426200,0.42242626953125,-0.31472548842430115,0.9238920211791992,0.47175517678260803
1759304786531489800,0.43248974609375,-0.45163723826408386,0.7093397974967957,0.2960231602191925
1759304786541532400,0.442532470703125,-0.5430671572685242,0.7989044785499573,0.25648677349090576
1759304786551572700,0.45257275390625,-0.6140460968017578,1.334810495376587,0.28265008330345154
1759304786561618400,0.462618408203125,-0.9735539555549622,1.66995370388031,0.49030759930610657
1759304786571626800,0.472626708984375,-1.35840904712677,1.5943615436553955,0.6974155902862549
1759304786581691600,0.482691650390625,-1.378093957901001,1.7118549346923828,0.6569799184799194
1759304786591732200,0.492732177734375,-1.3271496295928955,2.0232994556427,0.5478302240371704
1759304786601772500,0.5027724609375,-1.441145658493042,2.1966500282287598,0.5244647860527039
1759304786611787800,0.512787841796875,-1.6033047437667847,2.18450927734375,0.5493290424346924
1759304786621852700,0.522852783203125,-1.6949344873428345,2.1697206497192383,0.5295941829681396
1759304786631892200,0.532892333984375,-1.7063257694244385,2.28887939453125,0.4404791295528412
1759304786641933300,0.542933349609375,-1.6319661140441895,2.608900785446167,0.2939247786998749
1759304786651972000,0.55297216796875,-1.6112653017044067,2.969907522201538,0.16735509037971497
1759304786662013000,0.563012939453125,-1.6574798822402954,3.110799551010132,0.05056125670671463
1759304786672053200,0.57305322265625,-1.7736241817474365,3.0471649169921875,-0.033757466822862625
1759304786682094600,0.583094482421875,-1.8535962104797363,2.785831928253174,-0.11750995367765427
1759304786692135700,0.5931357421875,-1.8412723541259766,2.2766387462615967,-0.24236427247524261
1759304786702175200,0.60317529296875,-1.7225133180618286,1.3548784255981445,-0.4131334125995636
1759304786712215000,0.613215087890625,-1.5661165714263916,0.3680846095085144,-0.6280853748321533
1759304786722256000,0.623255859375,-1.5877166986465454,-0.23313800990581512,-0.8599743247032166
1759304786732294700,0.633294677734375,-1.7488431930541992,-0.46629267930984497,-1.0601708889007568
1759304786742334200,0.643334228515625,-1.897412657737732,-0.3592080771923065,-1.1504350900650024
1759304786752375300,0.653375244140625,-2.00451397895813,0.09009762853384018,-1.103621006011963
1759304786762417200,0.663417236328125,-2.1164448261260986,0.7103889584541321,-0.8870702385902405
1759304786772456700,0.673456787109375,-2.239783763885498,1.289528489112854,-0.5589550137519836
1759304786782496000,0.68349609375,-2.315342426300049,1.572111964225769,-0.23661868274211884
1759304786792536000,0.6935361328125,-2.3535797595977783,1.566266417503357,0.0025147395208477974
1759304786802578200,0.703578125,-2.395231246948242,1.3774445056915283,0.15944448113441467
1759304786812616400,0.713616455078125,-2.475553035736084,1.2207978963851929,0.18081144988536835
1759304786822658600,0.723658447265625,-2.612065076828003,1.1661397218704224,0.15324923396110535
1759304786832697600,0.733697509765625,-2.7855820655822754,1.1796127557754517,0.09561006724834442
1759304786842748400,0.74374853515625,-3.0671329498291016,1.3358097076416016,0.04951205849647522
1759304786852777200,0.753777099609375,-3.4413130283355713,1.6962502002716064,0.042101070284843445
1759304786862793000,0.76379296875,-3.8341453075408936,2.2297914028167725,0.007694104220718145
1759304786872858000,0.773858154296875,-4.185908794403076,2.677564859390259,-0.11104823648929596
1759304786882900000,0.78389990234375,-4.531161308288574,2.8815252780914307,-0.2981548607349396
1759304786892939800,0.793939697265625,-4.84412145614624,2.8813254833221436,-0.5252141952514648
1759304786902979800,0.803979736328125,-4.988210678100586,2.80584979057312,-0.7002633810043335
1759304786912994300,0.813994384765625,-4.9746880531311035,2.7614505290985107,-0.6707360148429871
1759304786923060000,0.82406005859375,-4.885639667510986,2.839407444000244,-0.4122507572174072
1759304786933100000,0.83410009765625,-4.796374320983887,3.0743939876556396,-0.031292688101530075
1759304786943140400,0.844140380859375,-4.769578456878662,3.3857054710388184,0.319754958152771
1759304786953179600,0.8541796875,-4.833995819091797,3.5224506855010986,0.5721282362937927
1759304786963196400,0.864196533203125,-4.986129283905029,3.239384412765503,0.6869902014732361
1759304786973260800,0.8742607421875,-5.1855597496032715,2.6770153045654297,0.5694136619567871
1759304786983301400,0.88430126953125,-5.37704610824585,2.0588722229003906,0.2705260217189789
1759304786993342000,0.894342041015625,-5.475986957550049,1.5374552011489868,-0.005728943273425102
1759304787003381000,0.904381103515625,-5.348567962646484,1.3174570798873901,-0.0728941410779953
1759304787013421600,0.914421630859375,-5.006680011749268,1.4351502656936646,0.23335450887680054
1759304787023461600,0.924461669921875,-4.542219161987305,1.7298743724822998,0.89891117811203
1759304787033503200,0.934503173828125,-4.009760856628418,2.0785739421844482,1.7062925100326538
1759304787043544600,0.944544677734375,-3.406839370727539,2.279370069503784,2.3744137287139893
1759304787053561600,0.9545615234375,-2.8022193908691406,2.227776288986206,2.740449905395508
1759304787063628800,0.96462890625,-2.291210889816284,1.8849889039993286,2.8774282932281494
1759304787073646000,0.97464599609375,-1.7487099170684814,1.3988114595413208,2.7333388328552246
1759304787083705600,0.98470556640625,-1.1237388849258423,1.168804407119751,2.0636186599731445
1759304787093742600,0.99474267578125,-0.4561837613582611,1.566283106803894,0.16652239859104156
1759304787103784700,1.00478466796875,-0.06070348247885704,2.1254379749298096,-2.4364829063415527
1759304787113825000,1.014824951171875,-0.46927371621131897,1.4802656173706055,-3.365687608718872
1759304787123863800,1.02486376953125,-1.092712640762329,-0.06078675389289856,-2.725145101547241
1759304787133905200,1.0349052734375,-1.2340043783187866,-1.0642178058624268,-1.7364693880081177
1759304787143945500,1.044945556640625,-0.9980185627937317,-0.5469142198562622,-1.242880940437317
1759304787153985500,1.054985595703125,-0.7003799676895142,0.74256432056427,-1.018003225326538
1759304787164008000,1.065008056640625,-0.35965773463249207,1.9471079111099243,-0.6701364517211914
1759304787174066000,1.07506591796875,-0.04792993888258934,2.842221975326538,-0.27057600021362305
1759304787184106500,1.0851064453125,0.17226798832416534,3.375013828277588,0.06878062337636948
1759304787194145300,1.095145263671875,0.3295474648475647,3.517704486846924,0.2866303622722626
1759304787204164000,1.1051640625,0.3473837971687317,3.4312539100646973,0.46607619524002075
1759304787214226700,1.115226806640625,-0.5303102731704712,3.6676228046417236,1.066366195678711
1759304787224266800,1.125266845703125,-0.5612865686416626,3.5797901153564453,0.9804986715316772
1759304787234308400,1.135308349609375,0.06618262082338333,3.1117820739746094,0.1961163878440857
1759304787244331500,1.14533154296875,0.35512787103652954,2.3707666397094727,-0.40983593463897705
1759304787254388000,1.155387939453125,0.4479734003543854,1.4191458225250244,-0.6248545050621033
1759304787264387300,1.16538720703125,0.3938981592655182,0.7486263513565063,-0.4842289388179779
1759304787274467300,1.17546728515625,0.38721993565559387,0.46018069982528687,-0.24885930120944977
1759304787284509700,1.185509765625,0.36283862590789795,0.6237220168113708,-0.1573127806186676
1759304787294547700,1.195547607421875,0.3469841182231903,0.9101026058197021,-0.2403324991464615
1759304787304564000,1.20556396484375,0.3105453550815582,1.0669490098953247,-0.33236196637153625
1759304787314629600,1.215629638671875,0.23621898889541626,1.158495545387268,-0.3637712299823761
1759304787324648000,1.22564794921875,0.18983785808086395,1.2949410676956177,-0.36228904128074646
1759304787334736400,1.235736328125,0.1564134806394577,1.3748631477355957,-0.28724655508995056
1759304787344748800,1.245748779296875,0.16011063754558563,1.3683847188949585,-0.1916031688451767
1759304787354788600,1.25578857421875,0.2821337878704071,1.1897050142288208,-0.05179364234209061
1759304787364805400,1.265805419921875,0.34556853771209717,0.8852050304412842,-0.03247511386871338
1759304787374871300,1.275871337890625,0.26093336939811707,0.44878941774368286,-0.10065620392560959
1759304787384911000,1.2859111328125,0.05489126965403557,-0.01555474754422903,-0.16685546934604645
1759304787394953000,1.295952880859375,-0.16499023139476776,-0.3504481315612793,-0.15073449909687042
1759304787404993000,1.305992919921875,-0.04541520029306412,-0.35417860746383667,-0.11056527495384216
1759304787415033300,1.316033447265625,0.20997242629528046,-0.21831603348255157,-0.03890352323651314
1759304787425047800,1.3260478515625,0.4600141644477844,-0.04608135297894478,0.05410853773355484
1759304787435113000,1.336113037109375,0.6086169481277466,0.12022453546524048,0.1381607949733734
1759304787445150200,1.346150146484375,0.6560639142990112,0.23795099556446075,0.16385777294635773
1759304787455194600,1.356194580078125,0.6196418404579163,0.35118088126182556,0.10683479905128479
1759304787465232100,1.366232177734375,0.5555909276008606,0.45441845059394836,-0.029960375279188156
1759304787475272200,1.376272216796875,0.46073028445243835,0.4805484116077423,-0.22629326581954956
1759304787485313500,1.3863134765625,0.333860844373703,0.3187057673931122,-0.44808995723724365
1759304787495329300,1.396329345703125,0.25072452425956726,-0.03815409541130066,-0.6558973789215088
1759304787505393700,1.4063935546875,0.1674383580684662,-0.4581822156906128,-0.8295310139656067
1759304787515434000,1.41643408203125,0.06236887350678444,-0.770209789276123,-0.9642611145973206
1759304787525474300,1.426474365234375,-0.0010658499086275697,-1.01285719871521,-1.0294277667999268
1759304787535545000,1.436545166015625,0.058088820427656174,-1.1966663599014282,-1.011558175086975
1759304787545555000,1.446554931640625,0.2524398863315582,-1.3856382369995117,-0.9260736703872681
1759304787555595500,1.456595458984375,0.5018820762634277,-1.5286619663238525,-0.782483696937561
1759304787565635800,1.4666357421875,0.6652735471725464,-1.4175803661346436,-0.5251309275627136
1759304787575652000,1.476652099609375,0.7470442056655884,-1.0638015270233154,-0.13088303804397583
1759304787585717500,1.486717529296875,0.8471341729164124,-0.7748062610626221,0.2997036576271057
1759304787595733200,1.496733154296875,0.9768847227096558,-0.7998371124267578,0.6077010035514832
1759304787605797400,1.50679736328125,1.0756924152374268,-1.1783137321472168,0.7792361974716187
1759304787615835000,1.5168349609375,1.129701018333435,-1.8508983850479126,0.7439798712730408
1759304787625877200,1.526877197265625,1.1393768787384033,-2.3315134048461914,0.48780953884124756
1759304787635892000,1.53689208984375,0.6483198404312134,-1.9271732568740845,0.8082972764968872
1759304787645931800,1.546931884765625,0.24001607298851013,-1.5123244524002075,1.3549283742904663
1759304787655997000,1.556996826171875,0.40380722284317017,-1.4845956563949585,1.4426112174987793
1759304787666038000,1.5670380859375,0.6534492373466492,-1.2538892030715942,1.3272829055786133
1759304787676078600,1.57707861328125,0.9999837279319763,-1.1327320337295532,1.1419415473937988
1759304787686101500,1.5871015625,1.380225658416748,-1.1233391761779785,0.925390899181366
1759304787696132900,1.5971328125,1.9271565675735474,-1.2502086162567139,0.4899245798587799
1759304787706198800,1.60719873046875,2.617910623550415,-1.3182398080825806,-0.15489797294139862
1759304787716215600,1.617215576171875,3.334244966506958,-1.3133602142333984,-0.9157482385635376
1759304787726278400,1.6272783203125,3.6721694469451904,-1.123255968093872,-1.3566104173660278
1759304787736319000,1.637319091796875,3.582571268081665,-1.1483700275421143,-1.3791931867599487
1759304787746335700,1.647335693359375,3.186807870864868,-1.3301973342895508,-1.1602275371551514
1759304787756400000,1.657400146484375,2.573744297027588,-1.6670058965682983,-1.031326413154602
1759304787766416000,1.667415771484375,1.9319528341293335,-1.5634186267852783,-1.1051697731018066
1759304787776480800,1.677480712890625,1.3430874347686768,-1.4616299867630005,-1.1332648992538452
1759304787786517200,1.687517333984375,1.2058759927749634,-1.4388307332992554,-0.8995106816291809
1759304787796560400,1.697560302734375,1.4983850717544556,-1.357593059539795,-0.5454986691474915
1759304787806600000,1.707599853515625,1.7711094617843628,-1.129334568977356,-0.31349310278892517
1759304787816604700,1.717604736328125,1.904473900794983,-1.2471942901611328,-0.5428839921951294
1759304787826665000,1.7276650390625,1.857226848602295,-1.2570366859436035,-0.9782336950302124
1759304787836724000,1.737723876953125,1.6973826885223389,-1.2349870204925537,-1.3183897733688354
1759304787846762500,1.747762451171875,1.3534795045852661,-1.313277006149292,-1.500150442123413
1759304787856804400,1.757804443359375,0.8249345421791077,-1.376595139503479,-1.5748265981674194
1759304787866842400,1.76784228515625,0.28468185663223267,-1.3170241117477417,-1.4970028400421143
1759304787876857900,1.77785791015625,0.09954039007425308,-1.5252479314804077,-1.5529433488845825
1759304787886922500,1.787922607421875,0.2020118683576584,-1.5676820278167725,-1.745795488357544
1759304787896953000,1.797953125,0.4337676167488098,-1.5917636156082153,-1.9251247644424438
1759304787907004400,1.80800439453125,0.6781969666481018,-1.761516809463501,-2.0240821838378906
1759304787917043700,1.818043701171875,0.7073912620544434,-1.4488064050674438,-1.9268068075180054
1759304787927043600,1.828043701171875,0.3583087623119354,-0.6798956394195557,-1.4048734903335571
1759304787937100000,1.83810009765625,-0.10771745443344116,-0.46364471316337585,-0.7681779861450195
1759304787947135000,1.848135009765625,-0.37837672233581543,-0.778103768825531,-0.5873998999595642
1759304787967235600,1.868235595703125,-0.47919946908950806,-0.7161844968795776,-0.6450390219688416
1759304787977287200,1.878287109375,-0.38463857769966125,-0.7051929235458374,-0.499500572681427
1759304787987306000,1.888305908203125,-0.30000343918800354,-0.6614598035812378,-0.29204288125038147
1759304787997365200,1.898365234375,-0.2785198986530304,-0.5663493275642395,-0.15291614830493927
1759304788007406300,1.90840625,-0.3399728238582611,-0.42287594079971313,-0.10120578110218048
1759304788017423600,1.918423583984375,-0.4668589234352112,-0.3246845304965973,-0.1182260736823082
1759304788027487700,1.92848779296875,-0.5977752804756165,-0.3293476104736328,-0.17554880678653717
1759304788037514000,1.938513916015625,-0.6906374096870422,-0.3328116238117218,-0.22929096221923828
1759304788047567000,1.948567138671875,-0.7346703410148621,-0.3676516115665436,-0.27264106273651123
1759304788057613600,1.958613525390625,-0.7023451328277588,-0.42455798387527466,-0.27802029252052307
1759304788067615500,1.968615478515625,-0.6150453686714172,-0.4299372136592865,-0.23032350838184357
1759304788077688000,1.97868798828125,-0.504097044467926,-0.4025748372077942,-0.14545521140098572
1759304788087703300,1.988703369140625,-0.3730807900428772,-0.36167284846305847,-0.04115179926156998
1759304788097768000,1.998767822265625,-0.24709399044513702,-0.2705260217189789,0.08117113262414932
1759304788107808300,2.008808349609375,-0.16722185909748077,-0.13319793343544006,0.22209647297859192
1759304788117823500,2.018823486328125,-0.12498755753040314,-0.01828598789870739,0.3599741458892822
1759304788127889400,2.028889404296875,-0.10267132520675659,0.041185107082128525,0.46439412236213684
1759304788137921000,2.038921142578125,-0.1266362965106964,0.10408690571784973,0.5293610095977783
1759304788147970000,2.048969970703125,-0.21133805811405182,0.16159284114837646,0.5654667019844055
1759304788158009300,2.05900927734375,-0.3340606689453125,0.17748066782951355,0.5928124189376831
1759304788168009200,2.06900927734375,-0.4580656588077545,0.15048468112945557,0.6157281398773193
1759304788178091800,2.079091796875,-0.570496141910553,0.15118414163589478,0.6398763060569763
1759304788188105700,2.089105712890625,-0.6886889338493347,0.23880034685134888,0.6900712251663208
1759304788198169600,2.099169677734375,-0.8008363246917725,0.3351931571960449,0.7792528867721558
1759304788208211200,2.109211181640625,-0.8495989441871643,0.38034188747406006,0.8810082077980042
1759304788218275800,2.11927587890625,-0.8318125605583191,0.42315906286239624,0.954884946346283
1759304788228266800,2.129266845703125,-0.7743399739265442,0.41353312134742737,0.984512209892273
1759304788238310700,2.139310546875,-0.6978818774223328,0.33464357256889343,0.9586320519447327
1759304788248371700,2.149371826171875,-0.6200914978981018,0.24231430888175964,0.8712823390960693
1759304788258412500,2.15941259765625,-0.5590382814407349,0.1542484611272812,0.7400662302970886
1759304788268427800,2.169427734375,-0.5176866054534912,0.05162710323929787,0.5979251265525818
1759304788278491100,2.1794912109375,-0.4821471869945526,-0.03795424848794937,0.46031391620635986
1759304788288507600,2.189507568359375,-0.4660262167453766,-0.06108652427792549,0.34520214796066284
1759304788298572500,2.199572509765625,-0.49308881163597107,0.003080972470343113,0.27988553047180176
1759304788308615400,2.209615478515625,-0.5601540803909302,0.12916769087314606,0.2833162248134613
1759304788318643000,2.219642822265625,-0.6606437563896179,0.31730684638023376,0.3541119694709778
1759304788328679200,2.22967919921875,-0.8016190528869629,0.603087842464447,0.482280433177948
1759304788338709200,2.239709228515625,-1.0075446367263794,1.0006998777389526,0.671701967716217
1759304788348758800,2.2497587890625,-1.2756891250610352,1.4678418636322021,0.9200782775878906
1759304788358805200,2.25980517578125,-1.5623195171356201,1.9297878742218018,1.2124042510986328
1759304788368854800,2.269854736328125,-1.8161416053771973,2.321171283721924,1.5200018882751465
1759304788378893300,2.279893310546875,-2.000617027282715,2.7562711238861084,1.7868807315826416
1759304788388935400,2.289935302734375,-2.1089673042297363,3.2783877849578857,1.995720624923706
1759304788398976800,2.299976806640625,-2.1548986434936523,3.7505927085876465,2.1800293922424316
1759304788409010200,2.31001025390625,-2.121624231338501,4.07099723815918,2.3370091915130615
1759304788419055400,2.320055419921875,-1.8947480916976929,4.420729160308838,2.192086935043335
1759304788429098000,2.330097900390625,-1.2573198080062866,4.745213985443115,1.2533894777297974
1759304788439112000,2.34011181640625,-0.5033642649650574,4.706426620483398,-0.03520635515451431
1759304788459205000,2.360205078125,-0.07589184492826462,4.088600158691406,-0.7368519902229309
1759304788469228300,2.370228271484375,-0.33652544021606445,3.883823871612549,-0.22134704887866974
1759304788489293600,2.39029345703125,-0.9637448191642761,3.4571175575256348,-0.009725880809128284
1759304788509393700,2.4103935546875,-1.4098196029663086,2.6517679691314697,0.2252773642539978
1759304788519459600,2.42045947265625,-1.470656394958496,2.056074380874634,0.9909573197364807
1759304788549554700,2.4505546875,-1.4941216707229614,0.6607436537742615,1.5906977653503418
1759304788569659100,2.4706591796875,-1.643190860748291,0.6031877994537354,0.6440231800079346
1759304788589726700,2.490726806640625,-1.8855551481246948,0.6337976455688477,0.0831029862165451
1759304788599790800,2.500790771484375,-2.143540859222412,0.8142926692962646,0.14475573599338531
1759304788609810400,2.510810546875,-2.4037580490112305,1.143207311630249,0.3184226453304291
1759304788619837200,2.520837158203125,-2.3607077598571777,1.2682781219482422,0.5102922916412354
1759304788629866200,2.5308662109375,-1.7638150453567505,1.5004003047943115,0.8632051944732666
1759304788639929000,2.54092919921875,-0.9725713729858398,2.970240592956543,0.9440099596977234
1759304788649968400,2.550968505859375,-0.28771287202835083,2.899061679840088,0.8097295165061951
1759304788660022000,2.56102197265625,-0.07724080979824066,1.500133752822876,0.5217502117156982
1759304788670063400,2.5710634765625,-0.39221611618995667,0.19200286269187927,-0.0038470521103590727
1759304788680103200,2.581103271484375,-0.7060422897338867,-0.7921929359436035,-0.4998503029346466
1759304788690118400,2.591118408203125,-0.6769479513168335,-1.4797993898391724,-0.8069149851799011
1759304788700183000,2.60118310546875,-0.687406599521637,-1.5084108114242554,-1.0756924152374268
1759304788710223600,2.6112236328125,-0.9655267596244812,-0.9541022181510925,-1.3360761404037476
1759304788720256800,2.6212568359375,-1.5222501754760742,-0.15215007960796356,-1.5828204154968262
1759304788740319700,2.64131982421875,-2.794375419616699,1.4133169651031494,-1.7227299213409424
1759304788770464800,2.67146484375,-1.2514243125915527,-0.0008660030434839427,1.77873694896698
1759304788780505900,2.681505859375,-1.3188227415084839,0.6046366691589355,1.4174305200576782
1759304788790546200,2.691546142578125,-0.9756690263748169,1.0606539249420166,1.242897629737854
1759304788800585500,2.70158544921875,-0.6203579306602478,1.3755625486373901,1.1771812438964844
1759304788810626300,2.711626220703125,-0.4242249131202698,1.0371053218841553,1.0476804971694946
1759304788820665900,2.721665771484375,-0.23227201402187347,0.4064218997955322,0.7223631143569946
1759304788830706000,2.731705810546875,-0.07760719954967499,-0.0011324655497446656,0.36060699820518494
1759304788840749000,2.7417490234375,0.012074081227183342,-0.26148295402526855,-0.020317763090133667
1759304788850786300,2.751786376953125,0.08660030364990234,-0.5184693932533264,-0.35188034176826477
1759304788860827100,2.7618271484375,0.2530394196510315,-0.9479402899742126,-0.6663893461227417
1759304788870867500,2.771867431640625,0.4214770197868347,-1.3770447969436646,-1.009509801864624
1759304788880908000,2.781907958984375,0.3873864710330963,-1.6128973960876465,-1.1848753690719604
1759304788890922500,2.791922607421875,-0.11337978392839432,-0.9721217155456543,-1.8367924690246582
1759304788900988700,2.80198876953125,-0.6159279942512512,-0.9091200232505798,-1.5933290719985962
1759304788911028500,2.812028564453125,-1.0772744417190552,-0.8078309893608093,-0.8619728088378906
1759304788921070600,2.822070556640625,-1.2149523496627808,-0.32396841049194336,-0.02721248008310795
1759304788931115800,2.83211572265625,-1.1245882511138916,0.5716785788536072,0.5030645132064819
1759304788941154800,2.84215478515625,-0.9191623330116272,1.399560809135437,0.9070049524307251
1759304788951190800,2.852190673828125,-0.8326786160469055,2.3117117881774902,1.1354132890701294
1759304788961229600,2.8622294921875,-1.0151554346084595,3.0980427265167236,1.1642245054244995
1759304788971270400,2.8722705078125,-1.3987115621566772,2.544450283050537,1.147170901298523
1759304788981315300,2.8823154296875,-1.9189128875732422,1.3166910409927368,1.0221667289733887
1759304788991357200,2.892357177734375,-2.5812387466430664,0.09222932159900665,0.933484673500061
1759304789001389600,2.9023896484375,-3.187124490737915,-0.6184427738189697,0.9177634119987488
1759304789011431400,2.912431396484375,-3.904374837875366,-0.6529829502105713,1.0458818674087524
1759304789021471700,2.9224716796875,-4.636030673980713,-0.05670654773712158,1.1907541751861572
1759304789031510500,2.932510498046875,-5.031661033630371,1.1707361936569214,0.9384475350379944
1759304789041552000,2.9425517578125,-5.520702838897705,0.6213738322257996,1.2562206983566284
1759304789051592200,2.95259228515625,-5.574594974517822,0.1895214319229126,1.3608571290969849
1759304789061632500,2.962632568359375,-5.530811786651611,-0.3588583469390869,1.6059693098068237
1759304789071671300,2.97267138671875,-5.4976372718811035,-1.0866340398788452,1.9211112260818481
1759304789081712600,2.982712646484375,-5.187757968902588,-1.1169607639312744,2.2283425331115723
1759304789091752700,2.992752685546875,-4.809197902679443,-0.6702030897140503,1.9975192546844482
1759304789101792500,3.00279248046875,-4.5923309326171875,-0.44850632548332214,1.2629321813583374
1759304789111834600,3.012834716796875,-4.217484951019287,-0.15066787600517273,0.759434700012207
1759304789121875500,3.02287548828125,-3.8053174018859863,0.12873467803001404,0.6296508312225342
1759304789131914200,3.032914306640625,-3.4856622219085693,0.036089010536670685,0.6852915287017822
1759304789141954800,3.042954833984375,-3.2031288146972656,0.38562116026878357,0.4534858167171478
1759304789151993900,3.052993896484375,-3.1289689540863037,0.8464013934135437,-0.06173602491617203
1759304789162034400,3.063034423828125,-3.0266973972320557,0.6436401009559631,-0.22824177145957947
1759304789172074800,3.07307470703125,-2.53845477104187,0.8051163554191589,0.09147989749908447
1759304789182115600,3.083115478515625,-1.668621301651001,0.7849152088165283,0.29354172945022583
1759304789192155000,3.09315478515625,-0.7401661276817322,0.4082704782485962,0.1993139386177063
1759304789202195500,3.103195556640625,0.031625766307115555,-0.002931087277829647,0.06741500645875931
1759304789212236800,3.11323681640625,0.36956679821014404,0.08736638724803925,0.05250976234674454
1759304789222275300,3.123275390625,0.5701630711555481,0.35068127512931824,0.05547415837645531
1759304789232316000,3.13331591796875,0.7160179615020752,0.49183976650238037,-0.03490658476948738
1759304789242357200,3.143357177734375,0.7651137113571167,0.6026381850242615,-0.160427063703537
1759304789252398000,3.153398193359375,0.43053674697875977,0.4455752372741699,-0.22161351144313812
1759304789262436900,3.163436767578125,0.117876335978508,0.15313266217708588,-0.22412824630737305
1759304789272477400,3.1734775390625,0.10313763469457626,0.08854880928993225,-0.1674550175666809
1759304789282517200,3.183517333984375,0.16898716986179352,0.03803751990199089,-0.09774176776409149
1759304789292557600,3.1935576171875,0.17198488116264343,0.009559341706335545,-0.042650651186704636
1759304789302599200,3.20359912109375,0.12535394728183746,0.010192189365625381,-0.014622128568589687
1759304789312637700,3.2136376953125,0.05572396516799927,0.12575364112854004,-0.044898927211761475
1759304789322679600,3.223679443359375,0.04854613170027733,0.16434073448181152,-0.10405359417200089
1759304789332719900,3.233719970703125,0.05439165234565735,0.13749463856220245,-0.1162109449505806
1759304789342759000,3.243759033203125,0.04504881426692009,0.09714222699403763,-0.07700765877962112
1759304789352798500,3.253798583984375,0.05877162888646126,0.07600842416286469,-0.06233556568622589
1759304789362841000,3.263841064453125,0.08375249058008194,0.03527297079563141,-0.08421880006790161
1759304789372880100,3.273880126953125,0.0840022936463356,-0.025330590084195137,-0.09825804084539413
1759304789382918700,3.283918701171875,0.07144524902105331,-0.02020118571817875,-0.06938016414642334
1759304789392962000,3.293962158203125,0.0609532929956913,-0.032458461821079254,-0.06098660081624985
1759304789402976000,3.30397607421875,0.03590581938624382,-0.02496420405805111,-0.050161562860012054
1759304789413016300,3.314016357421875,0.028045175597071648,-0.04789663106203079,-0.040135908871889114
1759304789423057000,3.324056884765625,0.028777947649359703,-0.019651608541607857,-0.02889452502131462
1759304789433097700,3.33409765625,0.026279861107468605,-0.013189892284572124,-0.03265830874443054
1759304789443163400,3.344163330078125,0.026196591556072235,-0.01678713597357273,-0.033540964126586914
1759304789453201200,3.354201171875,0.026030052453279495,-0.018902182579040527,-0.03327450156211853
1759304789463242800,3.36424267578125,0.025580398738384247,-0.01607101783156395,-0.033008038997650146
1759304789473282800,3.37428271484375,0.02534724399447441,-0.014388973824679852,-0.03402392938733101
1759304789483321000,3.384321044921875,0.026829440146684647,-0.01678713597357273,-0.03607235848903656
1759304789493363700,3.39436376953125,0.02576358988881111,-0.020384378731250763,-0.03310796245932579
1759304789503403500,3.404403564453125,0.021183766424655914,-0.014855283312499523,-0.028161752969026566
1759304789513443300,3.414443359375,0.013906010426580906,-0.0018485834589228034,-0.02066749520599842
1759304789523483600,3.424483642578125,0.00567898154258728,0.013889356516301632,-0.012823506258428097
1759304789533523500,3.4345234375,-0.0001332312385784462,0.02704594098031521,-0.010874999687075615
1759304789543564000,3.44456396484375,-0.0017486599972471595,0.030410030856728554,-0.013289815746247768
1759304789553605600,3.454605712890625,-0.0007993874605745077,0.020467648282647133,-0.01598774828016758
1759304789563645200,3.464645263671875,0.0018985451897606254,0.010541921481490135,-0.014821975491940975
1759304789573684500,3.4746845703125,0.002997702918946743,0.012790199369192123,-0.010775076225399971
1759304789583724000,3.48472412109375,-0.0008326952229253948,0.02271592617034912,-0.01367285568267107
1759304789593765400,3.494765380859375,-0.007327718194574118,0.030026990920305252,-0.02150019071996212
1759304789603805400,3.504805419921875,-0.014688744209706783,0.030793070793151855,-0.021616768091917038
1759304789613845500,3.514845458984375,-0.021067189052700996,0.029127679765224457,-0.014722052030265331
1759304789623886800,3.524886962890625,-0.027312403544783592,0.037421323359012604,-0.00704460171982646
1759304789633925400,3.53492529296875,-0.03344104066491127,0.04951205849647522,0.0013489662669599056
1759304789643968000,3.544968017578125,-0.032874807715415955,0.05610700696706772,0.006511676590889692
1759304789654005200,3.555005126953125,-0.02646305412054062,0.056306853890419006,0.0045964778400957584
1759304789664046000,3.565046142578125,-0.017886294052004814,0.05184360593557358,0.003297473071143031
1759304789674088000,3.575087890625,-0.012573698535561562,0.05247645452618599,0.0020317763555794954
1759304789684128500,3.58512841796875,-0.011258039623498917,0.054791346192359924,-0.006328484043478966
1759304789694166300,3.595166259765625,-0.013556278310716152,0.05698966234922409,-0.015055130235850811
1759304789704208600,3.605208740234375,-0.016104325652122498,0.05612365901470184,-0.02329881303012371
1759304789714250000,3.61525,-0.01657063513994217,0.049911752343177795,-0.026829440146684647
1759304789724287000,3.625286865234375,-0.013189892284572124,0.038137443363666534,-0.030243491753935814
1759304789734328000,3.635328125,-0.005029479041695595,0.026329822838306427,-0.03252507746219635
1759304789744367600,3.64536767578125,0.0018652373692020774,0.02513074316084385,-0.034673430025577545
1759304789754408400,3.655408447265625,0.005629019811749458,0.02459781803190708,-0.03970291092991829
1759304789764449500,3.665449462890625,0.010941615328192711,0.010491959750652313,-0.04549846798181534
1759304789774488300,3.67548828125,0.013989279977977276,-0.003297473071143031,-0.04896248131990433
1759304789784529400,3.685529296875,0.014938552863895893,-0.005179364234209061,-0.048745978623628616
1759304789794571800,3.69557177734375,0.016087671741843224,-0.007694104220718145,-0.05134398862719536
1759304789804610300,3.7056103515625,0.017436638474464417,-0.019385145977139473,-0.0564400851726532
1759304789814649900,3.71564990234375,0.021017227321863174,-0.028278330340981483,-0.05827201157808304
1759304789824689400,3.725689453125,0.02504747360944748,-0.031076187267899513,-0.05780570209026337
1759304789834730500,3.73573046875,0.029627297073602676,-0.030659839510917664,-0.05848851427435875
1759304789844772600,3.745772705078125,0.033424388617277145,-0.03528962284326553,-0.06450057029724121
1759304789854812400,3.7558125,0.03690505400300026,-0.045032158493995667,-0.07537557184696198
1759304789864851000,3.765850830078125,0.041351646184921265,-0.053459033370018005,-0.09006431698799133
1759304789874890200,3.77589013671875,0.04814643785357475,-0.062435489147901535,-0.10934954136610031
1759304789884932000,3.78593212890625,0.058088820427656174,-0.07252775877714157,-0.1295507252216339
1759304789894972000,3.795971923828125,0.07111217081546783,-0.08908173441886902,-0.1527995765209198
1759304789905013800,3.806013671875,0.08868204057216644,-0.10810049623250961,-0.18585757911205292
1759304789915053000,3.816052978515625,0.10786734521389008,-0.11915869265794754,-0.23247185349464417
1759304789925092900,3.8260927734375,0.12706929445266724,-0.11041539162397385,-0.2928089499473572
1759304789935133700,3.8361337890625,0.13358096778392792,0.006844754796475172,-0.37429651618003845
1759304789945172700,3.8461728515625,0.16742169857025146,0.037754401564598083,-0.46156296133995056
1759304789955213000,3.856213134765625,0.2133365273475647,0.002814509905874729,-0.5276123881340027
1759304789965255000,3.8662548828125,0.25600382685661316,-0.06033709645271301,-0.5888487696647644
1759304789975294500,3.87629443359375,0.28183403611183167,-0.14996841549873352,-0.6442896127700806
1759304789985336800,3.8863369140625,0.2750558853149414,-0.32168683409690857,-0.7133200764656067
1759304789995375600,3.896375732421875,0.2641642391681671,-0.3382408022880554,-0.7865639328956604
1759304790005417000,3.9064169921875,0.6817609071731567,-0.4704894721508026,-0.7214637994766235
1759304790015455200,3.916455322265625,0.6711024045944214,-0.5394699573516846,-0.7721250057220459
1759304790025494300,3.926494384765625,0.43040353059768677,-0.4684743285179138,-0.851847231388092
1759304790035535400,3.936535400390625,0.04731374233961105,-0.32341882586479187,-0.8719318509101868
1759304790045577700,3.94657763671875,-0.1860574185848236,0.10738437622785568,-0.9645109176635742
1759304790055616800,3.95661669921875,-0.14715389907360077,0.4417448341846466,-1.0769248008728027
1759304790065655000,3.966655029296875,-0.011574463918805122,0.44296056032180786,-1.1003234386444092
1759304790075698000,3.976697998046875,0.11737672239542007,0.36180609464645386,-1.0597212314605713
1759304790085735700,3.986735595703125,0.21716691553592682,0.18937155604362488,-1.0190024375915527
1759304790095776300,3.9967763671875,0.27653810381889343,0.04354996234178543,-1.0138564109802246
1759304790105817600,4.006817626953125,0.28556451201438904,-0.012323889881372452,-1.0606704950332642
1759304790115857200,4.016857177734375,0.2764548063278198,0.01786964014172554,-1.1220401525497437
1759304790125897000,4.02689697265625,0.2536889314651489,0.015538093633949757,-1.1655901670455933
1759304790135939300,4.036939208984375,0.21163782477378845,0.15319927036762238,-1.178613543510437
1759304790145977000,4.04697705078125,0.1682044416666031,0.23127277195453644,-1.140476107597351
1759304790156021000,4.05702099609375,0.1272524893283844,0.18575765192508698,-1.039620041847229
1759304790166057200,4.06705712890625,0.11349636316299438,0.0946274846792221,-0.919695258140564
1759304790176098800,4.077098876953125,0.11742668598890305,0.007327718194574118,-0.8306634426116943
1759304790186138000,4.08713818359375,0.12673620879650116,0.0074609494768083096,-0.7952905893325806
1759304790196179000,4.097178955078125,0.13144926726818085,0.10820041596889496,-0.8113282918930054
1759304790206219800,4.1072197265625,0.1263531744480133,0.2429138571023941,-0.8468344211578369
1759304790216259600,4.117259521484375,0.11674387007951736,0.32355207204818726,-0.8491492867469788
1759304790226300200,4.127300048828125,0.1162109449505806,0.3121108412742615,-0.7987379431724548
1759304790236341000,4.137341064453125,0.12527066469192505,0.19684915244579315,-0.7022451758384705
1759304790246380800,4.147380859375,0.12848487496376038,0.09141328185796738,-0.605552613735199
1759304790256422000,4.157421875,0.12164012342691422,0.07292745262384415,-0.5079107880592346
1759304790266460400,4.16746044921875,0.10888323187828064,0.1272524893283844,-0.41456565260887146
1759304790276502300,4.177502197265625,0.08913169801235199,0.15484800934791565,-0.31439241766929626
1759304790286541600,4.18754150390625,0.06798124313354492,0.2486761063337326,-0.15324923396110535
1759304790296583400,4.19758349609375,0.051244065165519714,0.5998403429985046,-0.0362388975918293
1759304790306623000,4.207623046875,0.09762518852949142,4.074760913848877,-0.8866372108459473
1759304790316661200,4.2176611328125,0.04889586567878723,6.416766166687012,-1.9267735481262207
1759304790326704000,4.2277041015625,-0.10322090238332748,4.157780647277832,-1.5008665323257446
1759304790336742400,4.237742431640625,0.11146458238363266,2.457167148590088,-1.0800390243530273
1759304790346784300,4.2477841796875,0.09732542186975479,0.7870635390281677,-0.7200815081596375
1759304790356824300,4.25782421875,0.07742400467395782,-0.26822778582572937,-0.22287920117378235
1759304790366865400,4.267865478515625,0.21518510580062866,-0.8518971800804138,0.24949215352535248
1759304790376904200,4.277904296875,0.3616895079612732,-1.1964998245239258,0.5719617009162903
1759304790386944000,4.287944091796875,0.4517205059528351,-1.360607385635376,0.7081406712532043
1759304790396983800,4.29798388671875,0.46552661061286926,-1.3530797958374023,0.7378678917884827
1759304790407024400,4.3080244140625,0.38388916850090027,-1.1944180727005005,0.7521070241928101
1759304790417065000,4.31806494140625,0.2536056637763977,-0.9648106694221497,0.738717257976532
1759304790427104800,4.328104736328125,0.11759322136640549,-0.8053828477859497,0.6988145112991333
1759304790437160000,4.338159912109375,0.003014356829226017,-0.6934852600097656,0.6261202096939087
1759304790447187000,4.34818701171875,-0.058838244527578354,-0.5916466116905212,0.5124073624610901
1759304790457227000,4.35822705078125,-0.08824904263019562,-0.44094544649124146,0.3764282166957855
1759304790467264800,4.3682646484375,-0.13409724831581116,-0.2548713684082031,0.2497752606868744
1759304790477309000,4.378308837890625,-0.17439968883991241,-0.055590733885765076,0.16843760013580322
1759304790487320600,4.388320556640625,-0.17769716680049896,0.10062289237976074,0.12592017650604248
1759304790497387000,4.398386962890625,-0.20142897963523865,0.1786297857761383,0.11457886546850204
1759304790507428600,4.4084287109375,-0.22019793093204498,0.1559971272945404,0.10938284546136856
1759304790517468000,4.418468017578125,-0.1953669637441635,0.022682618349790573,0.12110719829797745
1759304790527508200,4.42850830078125,-0.15976090729236603,-0.11874233931303024,0.15131737291812897
1759304790537524000,4.43852392578125,-0.12813514471054077,-0.21295347809791565,0.16680550575256348
1759304790547588400,4.44858837890625,-0.07457618415355682,-0.29235929250717163,0.16229230165481567
1759304790557630500,4.45863037109375,-0.04083537310361862,-0.36535337567329407,0.14916902780532837
1759304790567667200,4.468667236328125,-0.02429804764688015,-0.45358574390411377,0.10360394418239594
1759304790577708000,4.4787080078125,-0.005828866735100746,-0.5160878300666809,0.03210872784256935
1759304790587750000,4.48875,0.06306833773851395,-0.510408878326416,-0.04371650144457817
1759304790597791500,4.49879150390625,0.15483134984970093,-0.49620309472084045,-0.11972492188215256
1759304790607830500,4.50883056640625,0.19643281400203705,-0.510059118270874,-0.19075383245944977
1759304790617864400,4.518864501953125,0.16685546934604645,-0.5019320249557495,-0.2579689919948578
1759304790627910000,4.528909912109375,0.06941347569227219,-0.4083370864391327,-0.32235297560691833
1759304790637951000,4.538950927734375,0.02651301585137844,-0.2885288894176483,-0.38157427310943604
1759304790647991600,4.548991455078125,0.05748927965760231,-0.2628319263458252,-0.4738202393054962
1759304790658031000,4.559031005859375,0.08610069006681442,-0.2841988801956177,-0.6251875758171082
1759304790668072000,4.569072021484375,0.09098028391599655,-0.23295481503009796,-0.7869469523429871
1759304790678110500,4.5791103515625,0.07274425774812698,-0.11855915188789368,-0.9113016724586487
1759304790688153600,4.589153564453125,0.06465046107769012,-0.04335011541843414,-1.0078110694885254
1759304790698190800,4.59919091796875,0.08718319237232208,-0.019818147644400597,-1.0895484685897827
1759304790708231200,4.609231201171875,0.1303001493215561,-0.05782235786318779,-1.138061285018921
1759304790718273500,4.6192734375,0.18039509654045105,-0.18422549962997437,-1.1889389753341675
1759304790728314400,4.629314453125,0.22477775812149048,-0.30168548226356506,-1.266745924949646
1759304790738354200,4.639354248046875,0.267345130443573,-0.31785643100738525,-1.3338112831115723
1759304790748393500,4.6493935546875,0.31487536430358887,-0.3037838637828827,-1.353196382522583
1759304790758434600,4.6594345703125,0.35840868949890137,-0.31680724024772644,-1.3769948482513428
1759304790768476000,4.669475830078125,0.39436447620391846,-0.3018520176410675,-1.4397133588790894
1759304790778515000,4.679514892578125,0.4264732003211975,-0.25808554887771606,-1.5524437427520752
1759304790788556000,4.68955615234375,0.45157063007354736,-0.23370423913002014,-1.7033946514129639
1759304790798595000,4.699594970703125,0.4626288115978241,-0.2634647786617279,-1.8203717470169067
1759304790808635100,4.70963525390625,0.4532526731491089,-0.21663399040699005,-1.8977291584014893
1759304790818674200,4.719674072265625,0.4125671982765198,-0.09356163442134857,-1.9571335315704346
1759304790828716800,4.729716796875,0.37457963824272156,-0.057888973504304886,-1.9336682558059692
1759304790838756400,4.73975634765625,0.3645373284816742,-0.2771875858306885,-1.7931259870529175
1759304790848796400,4.74979638671875,0.3883523941040039,-0.5363556742668152,-1.6289350986480713
1759304790858837500,4.75983740234375,0.4206942915916443,-0.5926291942596436,-1.6089004278182983
1759304790868878000,4.769878173828125,0.44684091210365295,-0.4692903757095337,-1.7343709468841553
1759304790878916400,4.779916259765625,0.4499885141849518,-0.3336276710033417,-1.843986988067627
1759304790888959000,4.789958984375,0.44580838084220886,-0.29757195711135864,-1.8392072916030884
1759304790898998300,4.799998291015625,0.44454267621040344,-0.2728908956050873,-1.7496592998504639
1759304790909037800,4.810037841796875,0.4731873869895935,-0.25973430275917053,-1.6626758575439453
1759304790919076900,4.820076904296875,0.5252308249473572,-0.28541460633277893,-1.6195589303970337
1759304790929120300,4.830120361328125,0.5632849931716919,-0.21233728528022766,-1.5981253385543823
1759304790939160000,4.84016015625,0.578806459903717,-0.08338610082864761,-1.653349757194519
1759304790949197300,4.850197265625,0.5474138259887695,0.0341571569442749,-1.7942417860031128
1759304790959239000,4.860239013671875,0.4712555408477783,0.1743830442428589,-1.9381814002990723
1759304790969279700,4.87027978515625,0.37699443101882935,0.26821112632751465,-2.029961109161377
1759304790979320600,4.880320556640625,0.31890562176704407,0.29370826482772827,-2.043417453765869
1759304790989318000,4.89031787109375,0.2998535633087158,0.2521567642688751,-2.0258142948150635
1759304790999401500,4.9004013671875,0.27958574891090393,0.1460714042186737,-2.0240657329559326
1759304791009440800,4.910440673828125,0.25433844327926636,0.029827143996953964,-1.97733473777771
1759304791019480000,4.92047998046875,0.2660960853099823,-0.037554554641246796,-1.8922666311264038
1759304791029519600,4.93051953125,0.2822836935520172,-0.09807484596967697,-1.8469513654708862
1759304791039560000,4.940559814453125,0.2916598320007324,-0.12868472933769226,-1.8303641080856323
1759304791049601800,4.950601806640625,0.30569908022880554,-0.1267695277929306,-1.8201218843460083
1759304791059641900,4.960641845703125,0.3405723571777344,-0.12563705444335938,-1.8301975727081299
1759304791069680600,4.9706806640625,0.3924659192562103,-0.1390601098537445,-1.8465516567230225
1759304791079721500,4.980721435546875,0.41428253054618835,-0.15243318676948547,-1.8542457818984985
1759304791089747200,4.990747314453125,0.4154816269874573,-0.07595846056938171,-1.8701502084732056
1759304791099801900,5.0008017578125,0.4123673439025879,0.06864739209413528,-1.9163315296173096
1759304791109843200,5.01084326171875,0.4079207479953766,0.16435739398002625,-1.9360331296920776
1759304791119883300,5.02088330078125,0.4043734669685364,0.186323881149292,-1.9327189922332764
1759304791129924900,5.0309248046875,0.3830065131187439,0.16577297449111938,-1.917130947113037
1759304791139963400,5.04096337890625,0.33860719203948975,0.17887958884239197,-1.9139333963394165
1759304791150004700,5.051004638671875,0.30300113558769226,0.18677353858947754,-1.9160650968551636
1759304791160045300,5.06104541015625,0.2737235724925995,0.18780608475208282,-1.9123512506484985
1759304791170084900,5.0710849609375,0.24083212018013,0.1599441021680832,-1.9208780527114868
1759304791180124400,5.08112451171875,0.21705034375190735,0.15246650576591492,-1.924525260925293
1759304791190165000,5.0911650390625,0.2049262970685959,0.12450459599494934,-1.9205949306488037
1759304791200203800,5.101203857421875,0.2102888524532318,0.08258671313524246,-1.9207614660263062
1759304791210245400,5.111245361328125,0.237418070435524,0.003580589545890689,-1.9267568588256836
1759304791220285200,5.12128515625,0.2406156212091446,-0.10248813033103943,-1.9092369079589844
1759304791230326000,5.131325927734375,0.20953942835330963,-0.2683943212032318,-1.872265338897705
1759304791240367900,5.141367919921875,0.1531493067741394,-0.4095861315727234,-1.8284155130386353
1759304791250405600,5.151405517578125,0.08551780134439468,-0.49738553166389465,-1.762499451637268
1759304791260448500,5.161448486328125,-0.01682044379413128,-0.46009743213653564,-1.7013795375823975
1759304791270488800,5.17148876953125,-0.036721859127283096,-0.3596077561378479,-1.6598780155181885
1759304791280525800,5.18152587890625,-0.0011824272805824876,-0.2770043909549713,-1.6055196523666382
1759304791290567400,5.1915673828125,0.04729709029197693,-0.27425649762153625,-1.523199439048767
1759304791300607500,5.201607421875,0.07092898339033127,-0.2996870279312134,-1.454302191734314
1759304791310646300,5.211646240234375,0.08097128570079803,-0.30061963200569153,-1.4233592748641968
1759304791320686600,5.2216865234375,0.08475172519683838,-0.2578190863132477,-1.3939318656921387
1759304791330728400,5.231728515625,0.07825669646263123,-0.239166721701622,-1.3425878286361694
1759304791340770300,5.241770263671875,0.07162844389677048,-0.2324885129928589,-1.284582257270813
1759304791350810000,5.25181005859375,0.06378445774316788,-0.21894888579845428,-1.2237955331802368
1759304791360849400,5.261849365234375,0.05993740260601044,-0.1723012924194336,-1.1599111557006836
1759304791370889200,5.27188916015625,0.049245595932006836,-0.1467542052268982,-1.119192361831665
1759304791380930000,5.281929931640625,0.019734878093004227,-0.11076512187719345,-1.0950608253479004
1759304791390970600,5.291970703125,-0.037304747849702835,-0.08806584775447845,-1.0387372970581055
1759304791401009000,5.3020087890625,-0.06315160542726517,-0.07537557184696198,-0.9767515063285828
1759304791411051800,5.3120517578125,-0.07972224056720734,-0.07474272698163986,-0.9080541729927063
1759304791421095700,5.322095703125,-0.09995673596858978,-0.07410987466573715,-0.8295975923538208
1759304791431131400,5.33213134765625,-0.1185758039355278,-0.058138780295848846,-0.7489261031150818
1759304791441171200,5.342171142578125,-0.12438801676034927,-0.040219180285930634,-0.6656399369239807
1759304791451210800,5.352210693359375,-0.11619429290294647,-0.03612231835722923,-0.5808548927307129
1759304791461251600,5.36225146484375,-0.09580991417169571,-0.042184341698884964,-0.49765199422836304
1759304791471295000,5.372294921875,-0.06948009133338928,-0.05335910990834236,-0.4260568618774414
1759304791481336300,5.38233642578125,-0.04245080426335335,-0.06008728966116905,-0.36895060539245605
1759304791491372000,5.3923720703125,-0.013306469656527042,-0.060137249529361725,-0.322469562292099
1759304791501413400,5.402413330078125,0.017753062769770622,-0.043899692595005035,-0.28523144125938416
1759304791511454000,5.412453857421875,0.0469307042658329,-0.010158881545066833,-0.252972811460495
1759304791521492500,5.422492431640625,0.06564969569444656,0.019135337322950363,-0.22752565145492554
1759304791531534000,5.4325341796875,0.07810681313276291,0.04163476079702377,-0.19873104989528656
1759304791541573000,5.442572998046875,0.06371784210205078,0.0193684920668602,-0.14805321395397186
1759304791551613200,5.45261328125,0.04066883400082588,-0.015321592800319195,-0.09942381083965302
1759304791561652700,5.46265283203125,0.02338208258152008,-0.05290945619344711,-0.07717419415712357
1759304791571692300,5.4726923828125,0.02551378309726715,-0.06343472003936768,-0.08003866672515869
1759304791581733400,5.4827333984375,0.029494065791368484,-0.03622224181890488,-0.08045501261949539
1759304791591774000,5.49277392578125,0.01712021417915821,0.0025313934311270714,-0.062268950045108795
1759304791601815000,5.50281494140625,0.003663859097287059,0.0037304747384041548,-0.03785432502627373
1759304791611854800,5.512854736328125,0.009142993949353695,-0.0440162718296051,-0.024081546813249588
1759304791621894700,5.522894775390625,0.03330780938267708,-0.09787499904632568,-0.017636485397815704
1759304791631910000,5.532909912109375,0.0564400851726532,-0.12855149805545807,-0.005162710323929787
1759304791641977000,5.54297705078125,0.06191921979188919,-0.11474540084600449,0.014722052030265331
1759304791652016000,5.55301611328125,0.05840524286031723,-0.08306967467069626,0.03800421208143234
1759304791662057000,5.563056884765625,0.06418415158987045,-0.05557408183813095,0.05264299362897873
1759304791672095200,5.57309521484375,0.07006298005580902,-0.07843989133834839,0.07126206159591675
1759304791682137000,5.58313720703125,0.07777373492717743,-0.12050765752792358,0.08666691929101944
1759304791692177700,5.593177734375,0.08235356211662292,-0.1423242688179016,0.09058059006929398
1759304791702218500,5.603218505859375,0.08651703596115112,-0.15476474165916443,0.08834896236658096
1759304791712256500,5.613256591796875,0.08340275287628174,-0.15319927036762238,0.08723315596580505
1759304791722296800,5.623296875,0.07928924262523651,-0.1492522954940796,0.08996439725160599
1759304791732340000,5.633340087890625,0.07937251031398773,-0.15679651498794556,0.09539356827735901
1759304791742377200,5.643377197265625,0.08263667672872543,-0.16317495703697205,0.0996902734041214
1759304791752417800,5.653417724609375,0.08598411083221436,-0.16587288677692413,0.09835796058177948
1759304791762459000,5.663458984375,0.08853215724229813,-0.16658900678157806,0.0917796716094017
1759304791772499700,5.673499755859375,0.08903177827596664,-0.16165944933891296,0.08263667672872543
1759304791782537500,5.683537353515625,0.08734972774982452,-0.158012256026268,0.07427641749382019
1759304791792579600,5.69357958984375,0.08506814390420914,-0.1628585308790207,0.06654900312423706
1759304791802620200,5.7036201171875,0.08466845005750656,-0.1707857996225357,0.05760585516691208
1759304791812660000,5.713659912109375,0.083652563393116,-0.1726510375738144,0.04967859759926796
1759304791822700000,5.723699951171875,0.08298640698194504,-0.1653732806444168,0.042317572981119156
1759304791832739600,5.733739501953125,0.08779938519001007,-0.15514777600765228,0.03782101720571518
1759304791842782000,5.743781982421875,0.09662595391273499,-0.14122511446475983,0.03264165297150612
1759304791852820000,5.753820068359375,0.1071179136633873,-0.1285015344619751,0.022366194054484367
1759304791862861300,5.763861328125,0.11636083573102951,-0.12375516444444656,0.005745597183704376
1759304791872902000,5.77390185546875,0.13542956113815308,-0.11256374418735504,-0.031009571626782417
1759304791882941400,5.78394140625,0.153499037027359,-0.08535125851631165,-0.07779038697481155
1759304791892980700,5.793980712890625,0.12375516444444656,-0.14100861549377441,-0.04554842785000801
1759304791903021600,5.804021484375,0.11939184367656708,-0.11820941418409348,-0.03240849822759628
1759304791913062400,5.8140625,0.12292247265577316,-0.08500152826309204,-0.023348774760961533
1759304791923104000,5.82410400390625,0.12160681188106537,-0.044232770800590515,-0.0173200611025095
1759304791933142000,5.83414208984375,0.10916634649038315,-0.012223966419696808,-0.015288284979760647
1759304791943182600,5.8441826171875,0.09439433366060257,-0.0026979325339198112,-0.014655436389148235
1759304791953222400,5.854222412109375,0.08286982774734497,-0.008193721063435078,-0.012423813343048096
1759304791963262500,5.864262451171875,0.06561638414859772,-0.014905245043337345,-0.004829632584005594
1759304791973304600,5.8743046875,0.04469908028841019,-0.015288284979760647,0.008393567986786366
1759304791983345400,5.884345458984375,0.027578866109251976,-0.023615237325429916,0.01607101783156395
1759304791993383400,5.894383544921875,0.012706929817795753,-0.028544792905449867,0.019218606874346733
1759304792003425500,5.904425537109375,-0.0015155053697526455,-0.020850688219070435,0.023915007710456848
1759304792013464800,5.91446484375,-0.018885528668761253,-0.007694104220718145,0.027412327006459236
1759304792023506000,5.924505859375,-0.034590158611536026,0.0016986982664093375,0.024447932839393616
1759304792033545000,5.934544921875,-0.04551512002944946,0.006744831334799528,0.019385145977139473
1759304792043585000,5.9445849609375,-0.05250976234674454,0.004862940404564142,0.020401032641530037
1759304792053625600,5.95462548828125,-0.053842075169086456,-0.0010991577291861176,0.023065658286213875
1759304792063665200,5.9646650390625,-0.05209341272711754,-0.0026313168928027153,0.02496420405805111
1759304792073705000,5.974705078125,-0.05059456452727318,-0.00011657733557512984,0.02413150854408741
1759304792083747000,5.9847470703125,-0.046314507722854614,0.004180130083113909,0.02271592617034912
1759304792093785300,5.994785400390625,-0.04255072772502899,0.007344372104853392,0.021550152450799942
1759304792103827200,6.0048271484375,-0.040518950670957565,0.010791730135679245,0.0210005734115839
1759304792113867800,6.01486767578125,-0.03683843836188316,0.007644142489880323,0.019968030974268913
1759304792123907800,6.024907958984375,-0.033424388617277145,-0.0018485834589228034,0.018685681745409966
1759304792133948700,6.03494873046875,-0.027478942647576332,-0.009692572988569736,0.017419984564185143
1759304792143989500,6.044989501953125,-0.02446458674967289,-0.010158881545066833,0.014622128568589687
1759304792154027800,6.05502783203125,-0.022449463605880737,-0.006078675389289856,0.00841022189706564
1759304792164070100,6.065070068359375,-0.0177031010389328,0.0012656967155635357,-0.0002165007608709857
1759304792174108400,6.0751083984375,-0.011924196034669876,0.007327718194574118,-0.0054125189781188965
1759304792184149500,6.0851494140625,-0.00866003055125475,0.007960566319525242,-0.010974923148751259
1759304792194189000,6.09518896484375,-0.009559341706335545,0.005012825131416321,-0.012990045361220837
1759304792204230000,6.10522998046875,-0.01433901209384203,0.00046630934230051935,-0.010708460584282875
1759304792214269700,6.115269775390625,-0.021650075912475586,-0.0020817380864173174,-0.009392802603542805
1759304792224309500,6.1253095703125,-0.027062594890594482,-0.0009326186846010387,-0.01342304702848196
1759304792234350300,6.135350341796875,-0.032125383615493774,0.0010325420880690217,-0.01433901209384203
1759304792244391700,6.1453916015625,-0.037637826055288315,0.0011824272805824876,-0.01590447872877121
1759304792254431200,6.15543115234375,-0.04190122336149216,-0.0013489662669599056,-0.018236026167869568
1759304792264470800,6.165470703125,-0.043066997081041336,-0.0025813551619648933,-0.020384378731250763
1759304792274509600,6.175509521484375,-0.030426684767007828,0.02379843033850193,-0.04305034503340721
1759304792284552400,6.185552490234375,-0.011557810008525848,0.07321056723594666,-0.08313629031181335
1759304792294591700,6.195591796875,-0.049911752343177795,-0.009009762667119503,-0.03472338989377022
1759304792304632300,6.20563232421875,-0.05114414170384407,-0.019468415528535843,-0.011124808341264725
1759304792314670800,6.2156708984375,-0.049428790807724,-0.0283949077129364,-0.0044465926475822926
1759304792324712700,6.225712646484375,-0.04981182888150215,-0.029410796239972115,-0.002364854561164975
1759304792334754600,6.235754638671875,-0.0477633997797966,-0.031009571626782417,-0.0007827335502952337
1759304792344792000,6.2457919921875,-0.04419946298003197,-0.03184226527810097,-0.0018319295486435294
1759304792354833200,6.255833251953125,-0.04308365285396576,-0.028661370277404785,-0.0000666156192892231
1759304792364874800,6.265874755859375,-0.0420011468231678,-0.024181470274925232,0.0045631700195372105
1759304792374913800,6.275913818359375,-0.0399860255420208,-0.02484762668609619,0.009675919078290462
1759304792384952800,6.285952880859375,-0.03778770938515663,-0.027545558288693428,0.010708460584282875
1759304792394995200,6.2959951171875,-0.034040581434965134,-0.03014356829226017,0.009509379975497723
1759304792405033500,6.306033447265625,-0.029610643163323402,-0.027578866109251976,0.0094594182446599
1759304792415074600,6.316074462890625,-0.02379843033850193,-0.026329822838306427,0.009026416577398777
1759304792425113600,6.326113525390625,-0.018885528668761253,-0.02579689770936966,0.011391270905733109
1759304792435154000,6.33615380859375,-0.01623755693435669,-0.026246553286910057,0.013373085297644138
1759304792445195500,6.346195556640625,-0.012407159432768822,-0.027229133993387222,0.012340543791651726
1759304792455234600,6.356234619140625,-0.008393567986786366,-0.026329822838306427,0.012457121163606644
1759304792465276000,6.36627587890625,-0.004696401301771402,-0.022815849632024765,0.010891653597354889
1759304792475315200,6.376315185546875,-0.003031010739505291,-0.019801493734121323,0.008793261833488941
1759304792485356300,6.386356201171875,-0.0020484302658587694,-0.018019525334239006,0.006395099684596062
1759304792495398100,6.396398193359375,-0.0014988514594733715,-0.014921898953616619,0.0018985451897606254
1759304792505435100,6.40643505859375,-0.0026146629825234413,-0.01530493889003992,-0.002481431933119893
1759304792515476500,6.4164765625,-0.0016653904458507895,-0.01573793962597847,-0.009326186962425709
1759304792525517000,6.42651708984375,-0.0038303982000797987,-0.012906775809824467,-0.010758422315120697
1759304792535558000,6.436557861328125,-0.007094563450664282,-0.009476072154939175,-0.010708460584282875
1759304792545598700,6.4465986328125,-0.009492726065218449,-0.007710758130997419,-0.010991577059030533
1759304792555638500,6.456638427734375,-0.0115245021879673,-0.003913667518645525,-0.015271631069481373
1759304792565679900,6.466679931640625,-0.016387442126870155,0.003197549842298031,-0.020217839628458023
1759304792575718100,6.47671826171875,-0.02150019071996212,-0.003713820828124881,-0.031542494893074036
1759304792585758500,6.486758544921875,-0.02651301585137844,-0.005262633785605431,-0.047863323241472244
1759304792595773700,6.496773681640625,-0.026529669761657715,0.022899119183421135,-0.07422645390033722
1759304792605814000,6.50681396484375,0.0002831163874361664,0.1457882821559906,-0.15394869446754456
1759304792615853800,6.516853759765625,-0.01761983148753643,0.057422664016485214,-0.09461083263158798
1759304792625894700,6.526894775390625,-0.007977220229804516,0.038770291954278946,-0.032791540026664734
1759304792635961900,6.5369619140625,0.004979517310857773,0.03807082772254944,-0.02166672982275486
1759304792645999600,6.54699951171875,0.009109686128795147,0.03662193566560745,-0.026279861107468605
1759304792656039400,6.557039306640625,0.012357197701931,0.03424042835831642,-0.02571362815797329
1759304792666080000,6.567080078125,0.01795290969312191,0.03069314733147621,-0.021766653284430504
1759304792676120000,6.5771201171875,0.023265505209565163,0.02734571136534214,-0.018635720014572144
1759304792686160100,6.58716015625,0.025896821171045303,0.021766653284430504,-0.01127469353377819
1759304792696200400,6.597200439453125,0.03110949508845806,0.014189126901328564,-0.005712289363145828
1759304792706241000,6.607240966796875,0.03440696746110916,0.013273161835968494,-0.0020484302658587694
1759304792716280300,6.6172802734375,0.031575802713632584,0.017136868089437485,-0.0001332312385784462
1759304792726321400,6.6273212890625,0.0263464767485857,0.020384378731250763,-0.0006994639988988638
1759304792736361200,6.637361328125,0.01908537559211254,0.020850688219070435,-0.0010825038189068437
1759304792746402300,6.64740234375,0.014405627734959126,0.020351070910692215,0.0015654671005904675
1759304792756441300,6.65744140625,0.009426110424101353,0.020051300525665283,0.0038137442898005247
1759304792766484000,6.66748388671875,0.006211906671524048,0.021516844630241394,0.002914433367550373
1759304792776522500,6.6775224609375,0.0027145864441990852,0.02028445526957512,0.002847817726433277
1759304792786564000,6.687564208984375,-0.0010825038189068437,0.015538093633949757,0.0026979325339198112
1759304792796604700,6.697604736328125,-0.0038970138411968946,0.009692572988569736,-0.0006161945057101548
1759304792806645200,6.707645263671875,-0.007144525181502104,0.0053625572472810745,-0.0037304747384041548
1759304792816683300,6.717683349609375,-0.007843988947570324,0.0010991577291861176,-0.0054291728883981705
1759304792826725000,6.72772509765625,-0.006844754796475172,-0.0054624807089567184,-0.007277756463736296
1759304792836765200,6.73776513671875,-0.0037304747384041548,-0.01277354545891285,-0.010075611993670464
1759304792846806300,6.74780615234375,-0.0014655436389148235,-0.014472243376076221,-0.013556278310716152
1759304792856843800,6.75784375,-0.002364854561164975,-0.012806852348148823,-0.019884763285517693
1759304792866884900,6.767884765625,-0.004929556045681238,-0.012124042958021164,-0.02642974629998207
1759304792876926700,6.7779267578125,-0.00671152351424098,-0.01127469353377819,-0.029860451817512512
1759304792886965000,6.787965087890625,-0.01014222763478756,-0.014155819080770016,-0.03160911053419113
1759304792897004800,6.7980048828125,-0.015188361518085003,-0.01127469353377819,-0.03199215233325958
1759304792907045000,6.808045166015625,-0.0263464767485857,0.0015821210108697414,-0.03762117028236389
1759304792917084400,6.81808447265625,-0.04195118695497513,0.015638016164302826,-0.046814125031232834
1759304792927127000,6.828126953125,-0.0576891265809536,0.021949846297502518,-0.05818874388933182
1759304792937167400,6.83816748046875,-0.07147856056690216,0.018402565270662308,-0.06684877723455429
1759304792947206400,6.848206298828125,-0.07873966544866562,0.014205780811607838,-0.07522568851709366
1759304792957246200,6.85824609375,-0.07482599467039108,0.009825804270803928,-0.08673353493213654
1759304792967286500,6.86828662109375,-0.06486696004867554,0.019135337322950363,-0.10332082211971283
1759304792977326300,6.878326416015625,-0.04834628477692604,0.043100304901599884,-0.12032446265220642
1759304792987366700,6.88836669921875,-0.03470673784613609,0.07765715569257736,-0.14055895805358887
1759304792997408500,6.898408447265625,-0.0206175334751606,0.11193089187145233,-0.16382446885108948
1759304793007449600,6.90844970703125,-0.010941615328192711,0.14625459909439087,-0.18717323243618011
1759304793017489200,6.9184892578125,-0.004346669185906649,0.18727315962314606,-0.20337748527526855
1759304793027528700,6.92852880859375,0.006511676590889692,0.22103062272071838,-0.21963170170783997
1759304793037567200,6.938567138671875,-0.020051300525665283,0.23278827965259552,-0.21894888579845428
1759304793047609300,6.948609375,-0.03470673784613609,0.24336351454257965,-0.20615868270397186
1759304793057649000,6.95864892578125,-0.04418281093239784,0.24537862837314606,-0.1820271760225296
1759304793067689500,6.968689453125,-0.05748927965760231,0.2301403135061264,-0.15229995548725128
1759304793077729500,6.9787294921875,-0.07194487005472183,0.20455990731716156,-0.12991711497306824
1759304793087772200,6.988772216796875,-0.08568433672189713,0.1778637021780014,-0.11372951418161392
1759304793097810200,6.99881005859375,-0.07829000800848007,0.1770976185798645,-0.10115581750869751
1759304793107849000,7.008848876953125,-0.05407522991299629,0.17143529653549194,-0.09627622365951538
1759304793117890000,7.01889013671875,-0.01858575828373432,0.15771247446537018,-0.09584322571754456
1759304793127931000,7.028930908203125,0.015421516261994839,0.14045903086662292,-0.09875765442848206
1759304793137970400,7.038970458984375,0.036005742847919464,0.1261366754770279,-0.10132236033678055
1759304793148013000,7.049012939453125,0.04120175912976265,0.12960068881511688,-0.10097262263298035
1759304793158051000,7.059051025390625,0.059354517608881,0.12282254546880722,-0.11369621008634567
1759304793168093400,7.069093505859375,0.06798124313354492,0.12883460521697998,-0.11539490520954132
1759304793178132000,7.079132080078125,0.06253541260957718,0.10268797725439072,-0.09174636006355286
1759304793188171800,7.089171875,0.0787230059504509,0.10438667237758636,-0.07672453671693802
1759304793198211000,7.099211181640625,0.06826435774564743,0.08443529903888702,-0.03324119374155998
1759304793208251400,7.10925146484375,0.06211906671524048,0.09133001416921616,0.06173602491617203
1759304793218291700,7.119291748046875,0.07410987466573715,0.11124808341264725,0.16838763654232025
1759304793228334600,7.12933447265625,0.112397201359272,0.16187594830989838,0.2890784740447998
1759304793238372600,7.13937255859375,0.1346801221370697,0.23658537864685059,0.3820239305496216
1759304793248413700,7.14941357421875,0.1264864057302475,0.3131100535392761,0.5219167470932007
1759304793258452500,7.159452392578125,0.1269027590751648,0.3281818628311157,0.6991142630577087
1759304793268495600,7.16949560546875,0.13596248626708984,0.30201855301856995,0.8716154098510742
1759304793278533400,7.179533447265625,0.15309934318065643,0.2569364309310913,1.0337245464324951
1759304793288576000,7.189575927734375,0.17283421754837036,0.20872339606285095,1.1619596481323242
1759304793298616000,7.199615966796875,0.17781373858451843,0.19430111348628998,1.311944603919983
1759304793308654300,7.209654296875,0.17634819447994232,0.19510050117969513,1.4466913938522339
1759304793318695200,7.219695068359375,0.16885393857955933,0.21888227760791779,1.5746433734893799
1759304793328737500,7.229737548828125,0.16274195909500122,0.22762556374073029,1.6997641324996948
1759304793338774000,7.23977392578125,0.15331584215164185,0.20970596373081207,1.810795783996582
1759304793348817200,7.249817138671875,0.1266196370124817,0.1589115560054779,1.9003105163574219
1759304793358856000,7.25985595703125,0.08984781801700592,0.11474540084600449,1.995870590209961
1759304793368895000,7.26989501953125,0.052992723882198334,0.07134532928466797,2.0602211952209473
1759304793378935600,7.279935546875,0.020850688219070435,0.038770291954278946,2.123739242553711
1759304793388975600,7.2899755859375,-0.006944678258150816,0.05782235786318779,2.2032949924468994
1759304793399017000,7.300016845703125,-0.029610643163323402,0.0749758780002594,2.27595591545105
1759304793409056000,7.310055908203125,-0.04073544964194298,0.06823104619979858,2.335860013961792
1759304793419096300,7.320096435546875,-0.04689739644527435,0.04643108695745468,2.388469696044922
1759304793429137400,7.330137451171875,-0.05302603170275688,-0.021766653284430504,2.4468250274658203
1759304793439177000,7.340177001953125,-0.06938016414642334,-0.17736408114433289,2.4925899505615234
1759304793449217300,7.35021728515625,-0.10077277570962906,-0.3944644033908844,2.541285991668701
1759304793459257000,7.360257080078125,-0.15561409294605255,-0.5821205973625183,2.5906147956848145
1759304793469300200,7.37030029296875,-0.20436006784439087,-0.6033876538276672,2.601972818374634
1759304793479339000,7.380339111328125,-0.248326376080513,-0.5704795122146606,2.5686981678009033
1759304793489391600,7.3903916015625,-0.2821504473686218,-0.5020819306373596,2.544100522994995
1759304793499418600,7.400418701171875,-0.3044333755970001,-0.3857044279575348,2.506096363067627
1759304793509460000,7.4104599609375,-0.33867380023002625,-0.34200459718704224,2.4494729042053223
1759304793519498800,7.420498779296875,-0.370149701833725,-0.3244014084339142,2.4331188201904297
1759304793529539300,7.430539306640625,-0.400026798248291,-0.22494429349899292,2.389019250869751
1759304793539580200,7.440580078125,-0.4371483623981476,-0.08973123878240585,2.3210713863372803
1759304793549621000,7.45062109375,-0.5020652413368225,-0.01950172334909439,2.237652063369751
1759304793559661800,7.460661865234375,-0.551027774810791,0.108366958796978,2.177414894104004
1759304793569700400,7.470700439453125,-0.6094996333122253,0.1376611739397049,2.1022889614105225
1759304793579740000,7.480739990234375,-0.6450890302658081,0.17145195603370667,2.0744271278381348
1759304793589756000,7.490755859375,-0.6902377605438232,0.13194888830184937,2.0486135482788086
1759304793599822000,7.500822021484375,-0.7335545420646667,0.12610337138175964,2.0244319438934326
1759304793609860400,7.5108603515625,-0.7580690979957581,0.05862174555659294,2.007361650466919
1759304793619901200,7.520901123046875,-0.7393500804901123,0.04025248810648918,2.014406442642212
1759304793629942300,7.5309423828125,-0.7249111533164978,-0.008010528050363064,2.006645679473877
1759304793639983400,7.5409833984375,-0.7137697339057922,-0.0688638985157013,2.0053799152374268
1759304793650022700,7.551022705078125,-0.7177500128746033,-0.13942648470401764,2.012874126434326
1759304793660062200,7.561062255859375,-0.6900712251663208,-0.0662325769662857,1.9696906805038452
1759304793670103000,7.57110302734375,-0.6600775122642517,-0.02224961668252945,1.9055896997451782
1759304793680141800,7.581141845703125,-0.6339475512504578,0.004663093481212854,1.8517143726348877
1759304793690182100,7.59118212890625,-0.5999236106872559,0.00018319295486435294,1.8242686986923218
1759304793700222700,7.60122265625,-0.5695135593414307,-0.010458651930093765,1.81449294090271
1759304793710264800,7.611264892578125,-0.52391517162323,-0.019718224182724953,1.824202060699463
1759304793720303900,7.621303955078125,-0.5029645562171936,-0.11541155725717545,1.8240689039230347
1759304793730343700,7.63134375,-0.5144391059875488,-0.22281259298324585,1.844786286354065
1759304793740384000,7.641384033203125,-0.516987144947052,-0.21871572732925415,1.8403397798538208
1759304793750425300,7.65142529296875,-0.5082938075065613,-0.21643415093421936,1.8065823316574097
1759304793760463400,7.66146337890625,-0.5071280598640442,-0.23521974682807922,1.7329387664794922
1759304793770505200,7.671505126953125,-0.4903242588043213,-0.17534896731376648,1.6517009735107422
1759304793780545500,7.681545654296875,-0.45453503727912903,-0.08841557800769806,1.5980587005615234
1759304793790587100,7.691587158203125,-0.4125172197818756,-0.07106221467256546,1.5613868236541748
1759304793800627500,7.70162744140625,-0.3607069253921509,-0.05599042773246765,1.5601377487182617
1759304793810667000,7.7116669921875,-0.3445359766483307,-0.10287117213010788,1.52608060836792
1759304793820705500,7.72170556640625,-0.3479500412940979,-0.0962928757071495,1.4624626636505127
1759304793830745900,7.731745849609375,-0.3661860525608063,-0.05385872721672058,1.4259239435195923
1759304793840786200,7.7417861328125,-0.3964628577232361,-0.02354862168431282,1.4018590450286865
1759304793850826200,7.751826171875,-0.4200114905834198,-0.021733345463871956,1.358059287071228
1759304793860864800,7.76186474609375,-0.4385972321033478,0.012973391450941563,1.2808018922805786
1759304793870908400,7.771908447265625,-0.4556341767311096,0.10293778777122498,1.1858912706375122
1759304793880947500,7.781947509765625,-0.44913914799690247,0.18062825500965118,1.151584267616272
1759304793890988000,7.791988037109375,-0.42420825362205505,0.18923832476139069,1.1851085424423218
1759304793901027600,7.802027587890625,-0.4118677079677582,0.15351569652557373,1.2338378429412842
1759304793911068200,7.812068115234375,-0.4267396628856659,0.1359957903623581,1.257569670677185
1759304793921114000,7.822114013671875,-0.4533859193325043,0.1524498462677002,1.2386342287063599
1759304793931153400,7.8321533203125,-0.46073028445243835,0.1742498129606247,1.1869571208953857
1759304793941188600,7.842188720703125,-0.44121190905570984,0.17546553909778595,1.1365957260131836
1759304793951228400,7.852228515625,-0.4030744731426239,0.21072185039520264,1.1160447597503662
1759304793961267500,7.862267333984375,-0.3443361222743988,0.2481098771095276,1.1088502407073975
1759304793971314200,7.872314208984375,-0.2815175950527191,0.26306506991386414,1.0796726942062378
1759304793981355300,7.882355224609375,-0.22481106221675873,0.26841098070144653,1.0202182531356812
1759304793991389000,7.892388916015625,-0.1970156878232956,0.25821879506111145,0.9353498816490173
1759304794001430000,7.902429931640625,-0.18620730936527252,0.2170170396566391,0.8204379677772522
1759304794011468300,7.91246826171875,-0.15887825191020966,0.1288512647151947,0.7018288373947144
1759304794021509600,7.922509521484375,-0.12950076162815094,0.1774473488330841,0.6258204579353333
1759304794031549000,7.932548828125,-0.14430607855319977,0.3622557520866394,0.6363956928253174
1759304794041590000,7.942590087890625,-0.16940352320671082,0.3750292956829071,0.6948009133338928
1759304794051631600,7.952631591796875,-0.14430607855319977,0.13819409906864166,0.7500918507575989
1759304794061671200,7.962671142578125,-0.09234590083360672,-0.08548448979854584,0.7443795800209045
1759304794071710700,7.972710693359375,-0.046231240034103394,-0.09046401083469391,0.6057191491127014
1759304794081751600,7.98275146484375,-0.0173200611025095,0.05415849760174751,0.35867515206336975
1759304794091790800,7.992790771484375,-0.011957503855228424,0.17491596937179565,0.12200650572776794
1759304794101832400,8.00283251953125,-0.04038571938872337,0.22036446630954742,0.031076187267899513
1759304794111871500,8.01287158203125,-0.0939280241727829,0.21102163195610046,0.060636866837739944
1759304794121911000,8.0229111328125,-0.1348133534193039,0.14254076778888702,0.10272128134965897
1759304794131950000,8.0329501953125,-0.15095099806785583,0.05460815504193306,0.1349632441997528
1759304794141993200,8.0429931640625,-0.15734609961509705,0.011724349111318588,0.18664030730724335
1759304794152033500,8.053033447265625,-0.16942016780376434,0.005812212824821472,0.24662767350673676
1759304794162072000,8.063072021484375,-0.18434207141399384,0.028861217200756073,0.32381853461265564
1759304794172115000,8.073114990234375,-0.1950838416814804,0.05522434785962105,0.3961464464664459
1759304794182152700,8.083152587890625,-0.19654938578605652,0.10825037956237793,0.4213438034057617
1759304794192193000,8.093193115234374,-0.17118549346923828,0.15080110728740692,0.447357177734375
1759304794202233000,8.103233154296875,-0.12483767420053482,0.10310432314872742,0.5044134855270386
1759304794212273400,8.1132734375,-0.09299540519714355,0.010125573724508286,0.5663992762565613
1759304794222314000,8.12331396484375,-0.09486064314842224,-0.04409953951835632,0.6193920373916626
1759304794232354600,8.1333544921875,-0.1257203221321106,-0.02208307757973671,0.6458883881568909
1759304794242394600,8.14339453125,-0.16990314424037933,0.044565849006175995,0.640958845615387
1759304794252437000,8.15343701171875,-0.20988915860652924,0.08811581134796143,0.6398763060569763
1759304794262475000,8.16347509765625,-0.2342371642589569,0.07269429415464401,0.6551146507263184
1759304794272514000,8.17351416015625,-0.23949980735778809,0.02199980802834034,0.686307430267334
1759304794282554000,8.18355419921875,-0.2377011775970459,-0.003464012173935771,0.7106054425239563
1759304794292595700,8.193595703125,-0.23385412991046906,0.02897779457271099,0.7135865092277527
1759304794302637300,8.20363720703125,-0.22692610323429108,0.05570731312036514,0.714569091796875
1759304794312676600,8.213676513671874,-0.2256271094083786,0.0621357187628746,0.701678991317749
1759304794322715000,8.22371484375,-0.2304733842611313,0.06048698350787163,0.6569965481758118
1759304794332756500,8.233756591796874,-0.22940753400325775,0.04729709029197693,0.5872166752815247
1759304794342796800,8.243796875,-0.21976493299007416,0.05392534285783768,0.5261967778205872
1759304794352838400,8.25383837890625,-0.19450095295906067,0.08854880928993225,0.48607751727104187
1759304794362877200,8.263877197265625,-0.16011063754558563,0.1256537139415741,0.460497111082077
1759304794372917500,8.27391748046875,-0.12200650572776794,0.12625324726104736,0.4347834885120392
1759304794382956800,8.283956787109375,-0.08923162519931793,0.10793396085500717,0.41573143005371094
1759304794392997400,8.293997314453126,-0.07837327569723129,0.09824138134717941,0.4078041613101959
1759304794403039000,8.3040390625,-0.08385241031646729,0.06866405159235,0.4070380926132202
1759304794413077500,8.314077392578126,-0.09056393802165985,0.05036140978336334,0.3977285623550415
1759304794423117800,8.324117919921875,-0.08450191468000412,0.05424176901578903,0.3843221664428711
1759304794433159400,8.334159423828124,-0.06884723901748657,0.06320156902074814,0.3664691746234894
1759304794443198000,8.344197998046875,-0.05164375901222229,0.10796726495027542,0.33694180846214294
1759304794453237800,8.35423779296875,-0.01458882074803114,0.17346706986427307,0.31437575817108154
1759304794463276800,8.36427685546875,-0.0019485069205984473,0.1693202555179596,0.31529173254966736
1759304794473317000,8.374317138671875,0.01573793962597847,0.11203081905841827,0.3053160309791565
1759304794483357700,8.384357666015624,0.03837059810757637,0.05522434785962105,0.3188556730747223
1759304794493399800,8.39439990234375,0.07384341210126877,0.020567571744322777,0.32563379406929016
1759304794503438800,8.40443896484375,0.07061255723237991,0.02045099437236786,0.3121941089630127
1759304794513481200,8.414481201171874,0.046580970287323,0.035922471433877945,0.2805350124835968
1759304794523520500,8.4245205078125,0.03497320041060448,0.048362940549850464,0.24336351454257965
1759304794533558800,8.434558837890625,-0.010891653597354889,0.005146056413650513,0.23703502118587494
1759304794543599400,8.444599365234374,-0.019385145977139473,0.010108919814229012,0.2148020714521408
1759304794553639700,8.4546396484375,-0.00997568853199482,0.028711332008242607,0.19879765808582306
1759304794563679000,8.464678955078124,-0.020101262256503105,0.01119142398238182,0.19315199553966522
1759304794573719600,8.474719482421875,-0.03945310041308403,-0.023148927837610245,0.18505819141864777
1759304794583761000,8.484760986328125,-0.041434913873672485,-0.04934551939368248,0.1721014529466629
1759304794593800200,8.49480029296875,-0.0440162718296051,-0.039386484771966934,0.15096764266490936
1759304794603841300,8.50484130859375,-0.051327332854270935,-0.023115620017051697,0.12555378675460815
1759304794613879800,8.5148798828125,-0.05440830811858177,-0.0156546700745821,0.10640180110931396
1759304794623923500,8.52492333984375,-0.04804651439189911,-0.03119276463985443,0.09437768161296844
1759304794633962800,8.534962646484376,-0.041518185287714005,-0.05622358247637749,0.07853981852531433
1759304794644003000,8.545003173828125,-0.035256315022706985,-0.04541520029306412,0.06495022773742676
1759304794654043100,8.555043212890626,-0.033341117203235626,-0.029111025854945183,0.0510941818356514
1759304794664082700,8.565082763671874,-0.03480666130781174,-0.03470673784613609,0.04588150605559349
1759304794674122800,8.575122802734375,-0.03377411887049675,-0.02563035860657692,0.06148621812462807
1759304794684164600,8.58516455078125,-0.03347434848546982,-0.013206546194851398,0.07594180852174759
1759304794694201600,8.59520166015625,-0.03842055797576904,-0.010042304173111916,0.07347702980041504
1759304794704243000,8.605242919921874,-0.03762117028236389,-0.0020650841761380434,0.07760719954967499
1759304794714283500,8.615283447265625,-0.0341571569442749,0.008859877474606037,0.07795692980289459
1759304794724323600,8.625323486328124,-0.02889452502131462,0.005962098017334938,0.0733771026134491
1759304794734362400,8.6353623046875,-0.021799961104989052,-0.007777373772114515,0.0711621344089508
1759304794744404700,8.64540478515625,-0.013439700938761234,-0.019135337322950363,0.0717117115855217
1759304794754444300,8.6554443359375,-0.009026416577398777,-0.036089010536670685,0.06801454722881317
1759304794764484000,8.665484130859374,-0.008643376640975475,-0.05978751927614212,0.06073679029941559
1759304794774524700,8.675524658203125,-0.011008230969309807,-0.05945444107055664,0.05464146286249161
1759304794784565000,8.68556494140625,-0.01765313930809498,-0.04499885067343712,0.03762117028236389
1759304794794606300,8.6956064453125,-0.020550917834043503,-0.044116195291280746,0.029627297073602676
1759304794804647400,8.7056474609375,-0.013556278310716152,-0.06461714953184128,0.031742341816425323
1759304794814685200,8.715685302734375,-0.0011824272805824876,-0.08456853032112122,0.03144257143139839
1759304794824702500,8.725702392578125,0.006145291030406952,-0.0898311659693718,0.026829440146684647
1759304794834765800,8.735765869140625,0.0082436827942729,-0.08863208442926407,0.017469946295022964
1759304794844807200,8.74580712890625,0.00816041324287653,-0.07804019749164581,0.013439700938761234
1759304794854845700,8.755845703125,0.005629019811749458,-0.06486696004867554,0.008759954012930393
1759304794864885200,8.76588525390625,0.003064318560063839,-0.055790580809116364,-0.0016320826252922416
1759304794874926800,8.7759267578125,0.0020484302658587694,-0.048662710934877396,-0.010208843275904655
1759304794884965600,8.785965576171876,0.003230857430025935,-0.05111083388328552,-0.012040773406624794
1759304794895008000,8.796008056640625,0.006378445774316788,-0.07669123262166977,-0.010242151096463203
1759304794905046000,8.8060458984375,0.00841022189706564,-0.09615964442491531,0.0006495022680610418
1759304794915086800,8.8160869140625,0.004846286494284868,-0.0824701339006424,0.01135796308517456
1759304794925127000,8.826126953125,-0.0045798239298164845,-0.05612365901470184,0.01300669927150011
1759304794935168500,8.83616845703125,-0.011341309174895287,-0.04061887413263321,0.012040773406624794
1759304794945208800,8.846208740234376,-0.008993108756840229,-0.03717151656746864,0.002947741188108921
1759304794955248400,8.856248291015625,-0.002981049008667469,-0.04216768592596054,-0.003530627815052867
1759304794965287200,8.866287109375,-0.00023315467115025967,-0.05447492375969887,-0.004979517310857773
1759304794975327000,8.876326904296874,-0.0008660030434839427,-0.0647004172205925,-0.003996937070041895
1759304794985369600,8.88636962890625,-0.0009825803572311997,-0.06431738287210464,-0.007077909540385008
1759304794995409200,8.8964091796875,-0.0012157351011410356,-0.05882159247994423,-0.013473008759319782
1759304795005449000,8.906448974609376,-0.0010158881777897477,-0.047280434519052505,-0.01695367507636547
1759304795015487000,8.916487060546874,0.0013656201772391796,-0.04178464785218239,-0.011341309174895287
1759304795025529300,8.926529296875,0.004063552711158991,-0.04571496695280075,-0.006311830133199692
1759304795035571200,8.9365712890625,0.005712289363145828,-0.045365236699581146,-0.009043070487678051
1759304795045609000,8.94660888671875,0.004713055212050676,-0.03945310041308403,-0.01483862940222025
1759304795055648800,8.956648681640624,0.005695635452866554,-0.03912002220749855,-0.020600879564881325
1759304795065689600,8.966689697265625,0.0072111408226192,-0.039053406566381454,-0.024198124185204506
1759304795075732200,8.976732177734375,0.008709992282092571,-0.0308929942548275,-0.026329822838306427
1759304795085770000,8.98677001953125,0.01055857539176941,-0.025580398738384247,-0.03385739028453827
1759304795095811000,8.99681103515625,0.011957503855228424,-0.01748660020530224,-0.037221476435661316
1759304795105851400,9.006851318359375,0.015155053697526455,-0.010608537122607231,-0.04121841490268707
1759304795115893000,9.01689306640625,0.01795290969312191,-0.014388973824679852,-0.04872932657599449
1759304795125931500,9.026931640625,0.019634954631328583,-0.029660604894161224,-0.053125955164432526
1759304795135971000,9.03697119140625,0.021633422002196312,-0.04166806861758232,-0.05440830811858177
1759304795146011100,9.04701123046875,0.02204976975917816,-0.041185107082128525,-0.05654000863432884
1759304795156053000,9.057052978515625,0.02111715078353882,-0.0338074266910553,-0.05953770875930786
1759304795166092500,9.067092529296875,0.019884763285517693,-0.018252680078148842,-0.06584954261779785
1759304795176133400,9.07713330078125,0.019401799887418747,0.0014488897286355495,-0.07415983825922012
1759304795186173200,9.087173095703125,0.019984684884548187,0.0053292494267225266,-0.0783066600561142
1759304795196212700,9.097212646484374,0.02216634713113308,-0.01244046725332737,-0.08103790134191513
1759304795206252500,9.10725244140625,0.025696974247694016,-0.029877105727791786,-0.08158747851848602
1759304795216292600,9.117292724609374,0.02571362815797329,-0.03205876797437668,-0.076158307492733
1759304795226334500,9.12733447265625,0.022266270592808723,-0.013989279977977276,-0.06741500645875931
1759304795236372700,9.137372802734374,0.015937786549329758,0.0020151224453002214,-0.05482465401291847
1759304795246413800,9.147413818359375,0.01244046725332737,0.007077909540385008,-0.04641443118453026
1759304795256451800,9.157451904296876,0.012973391450941563,0.00857676099985838,-0.04641443118453026
1759304795266493000,9.167492919921875,0.01653732731938362,-0.0007161179091781378,-0.04488227516412735
1759304795276532700,9.17753271484375,0.022865811362862587,-0.009259571321308613,-0.04862940311431885
1759304795286573000,9.187572998046875,0.02479766495525837,-0.002764548175036907,-0.06288514286279678
1759304795296614700,9.19761474609375,0.02346535213291645,0.003697166917845607,-0.07977220416069031
1759304795306655500,9.207655517578125,0.02316558174788952,0.007061255630105734,-0.0919129028916359
1759304795316695800,9.21769580078125,0.02066749520599842,0.014305704273283482,-0.1012224331498146
1759304795326735400,9.2277353515625,0.017902947962284088,0.023898353800177574,-0.10821707546710968
1759304795336778000,9.237778076171875,0.016054363921284676,0.02216634713113308,-0.1039203628897667
1759304795346815200,9.247815185546875,0.016720520332455635,0.01820271834731102,-0.09422779083251953
1759304795356855600,9.25785546875,0.019718224182724953,0.022482771426439285,-0.08603407442569733
1759304795366897200,9.267897216796875,0.02601339854300022,0.030210183933377266,-0.07857312262058258
1759304795376936000,9.27793603515625,0.030326761305332184,0.023998277261853218,-0.06864739209413528
1759304795386975500,9.2879755859375,0.03314127027988434,0.014105857349932194,-0.06181929633021355
1759304795397016800,9.298016845703126,0.03175899758934975,0.02213303931057453,-0.0659494623541832
1759304795407055400,9.308055419921875,0.02559705078601837,0.026779478415846825,-0.07161179184913635
1759304795417097500,9.318097412109376,0.018552450463175774,0.02191653847694397,-0.07890620082616806
1759304795427137300,9.32813720703125,0.014189126901328564,0.01284016016870737,-0.07903943210840225
1759304795437175600,9.338175537109375,0.012573698535561562,0.007760719861835241,-0.0746261477470398
1759304795447218400,9.348218505859375,0.011591117829084396,0.010192189365625381,-0.06883058696985245
1759304795457258500,9.358258544921876,0.010092265903949738,0.01433901209384203,-0.05219333618879318
1759304795467297500,9.368297607421875,0.010891653597354889,0.018802259117364883,-0.035639356821775436
1759304795477336600,9.378336669921875,0.013806086964905262,0.013889356516301632,-0.02826167643070221
1759304795487378000,9.3883779296875,0.018236026167869568,0.004962863866239786,-0.02421477809548378
1759304795497417200,9.398417236328125,0.023365428671240807,-0.011641079559922218,-0.02579689770936966
1759304795507456500,9.40845654296875,0.02568032033741474,-0.021183766424655914,-0.031792305409908295
1759304795517498000,9.418498046875,0.0230490043759346,-0.023598583415150642,-0.04175134003162384
1759304795527538200,9.4285380859375,0.011457886546850204,-0.015421516261994839,-0.04601473733782768
1759304795537578500,9.43857861328125,-0.0025480473414063454,-0.004396630916744471,-0.0449155829846859
1759304795547617500,9.448617431640624,-0.016603942960500717,0.012873467989265919,-0.050960950553417206
1759304795557660000,9.458659912109376,-0.024714395403862,0.022532733157277107,-0.05703962221741676
1759304795567699500,9.468699462890624,-0.02354862168431282,0.009809150360524654,-0.06123640760779381
1759304795577738200,9.47873828125,-0.015071784146130085,-0.013239854015409946,-0.07056259363889694
1759304795587779300,9.488779296875,-0.004263399634510279,-0.039353176951408386,-0.08478502929210663
1759304795597818000,9.498818115234375,0.0019318530103191733,-0.05710623785853386,-0.11026550084352493
1759304795607859500,9.508859375,0.0025313934311270714,-0.05490792542695999,-0.14991845190525055
1759304795617900300,9.518900390625,-0.0014821975491940975,-0.0382540188729763,-0.19621630012989044
1759304795627938600,9.5289384765625,0.0002165007608709857,-0.041018567979335785,-0.248326376080513
1759304795637979600,9.538979736328125,0.008010528050363064,-0.06156948581337929,-0.3141592741012573
1759304795648019200,9.549019287109376,0.012806852348148823,-0.07868970185518265,-0.39864450693130493
1759304795658059300,9.559059326171875,0.009675919078290462,-0.08085470646619797,-0.49363839626312256
1759304795668099800,9.569099853515626,0.0010325420880690217,-0.07261102646589279,-0.6024217009544373
1759304795678140400,9.579140380859375,-0.00634513795375824,-0.04706393554806709,-0.707374632358551
1759304795688180700,9.5891806640625,-0.011474540457129478,-0.0005995405954308808,-0.7853148579597473
1759304795698219500,9.599219482421875,-0.0210005734115839,0.05649004504084587,-0.8187059760093689
1759304795708262100,9.60926220703125,-0.035755932331085205,0.11154785752296448,-0.8055160641670227
1759304795718301000,9.619301025390625,-0.06138629466295242,0.16091002523899078,-0.7726412415504456
1759304795728343300,9.62934326171875,-0.10720118880271912,0.17949578166007996,-0.739466667175293
1759304795738379800,9.6393798828125,-0.16565638780593872,0.11476206034421921,-0.7077576518058777
1759304795748421600,9.649421630859376,-0.18968798220157623,-0.038387250155210495,-0.6592614650726318
1759304795758461700,9.659461669921875,-0.14115849137306213,-0.04563169926404953,-0.5636680722236633
1759304795768501500,9.66950146484375,-0.11434570699930191,0.052126720547676086,-0.4314027428627014
1759304795778542000,9.6795419921875,-0.10896649956703186,0.05978751927614212,-0.27502259612083435
1759304795788557600,9.6895576171875,-0.07654134929180145,-0.12127373367547989,-0.10078943520784378
1759304795798598100,9.69959814453125,0.005179364234209061,-0.33785775303840637,0.08916500955820084
1759304795808638200,9.70963818359375,0.1228058934211731,-0.45308613777160645,0.294857382774353
1759304795818678300,9.71967822265625,0.2421477735042572,-0.4844954013824463,0.45656681060791016
1759304795828742400,9.729742431640625,0.32931432127952576,-0.3861374258995056,0.5035974383354187
1759304795838784800,9.73978466796875,0.3623223602771759,-0.2597676217556,0.4801487326622009
1759304795848822800,9.74982275390625,0.34152162075042725,-0.21556814014911652,0.47202160954475403
1759304795858865200,9.759865234375,0.2890618145465851,-0.24366328120231628,0.4649104177951813
1759304795868904200,9.769904296875,0.20127908885478973,-0.17823009192943573,0.45391884446144104
1759304795878943700,9.77994384765625,0.05713954567909241,0.03224195912480354,0.509442925453186
1759304795888983000,9.789983154296875,-0.12115715444087982,0.10508614033460617,0.6205577850341797
1759304795899023600,9.800023681640624,-0.2297239601612091,0.02111715078353882,0.6915367245674133
1759304795909064200,9.810064208984375,-0.2298571914434433,0.05350899696350098,0.6538489460945129
1759304795919103500,9.820103515625,-0.16137634217739105,0.1620258390903473,0.4751192629337311
1759304795929144000,9.83014404296875,-0.07750727236270905,0.022066423669457436,0.2527563273906708
1759304795939184600,9.8401845703125,0.026080014184117317,-0.3793259859085083,0.12198985368013382
1759304795949224400,9.850224365234375,0.09551014751195908,-0.5838359594345093,0.06100325286388397
1759304795959265500,9.860265625,0.0790727436542511,-0.3892350494861603,-0.004946209955960512
1759304795969304800,9.870304931640625,-0.011907542124390602,0.020484302192926407,-0.04186791554093361
1759304795979345400,9.880345458984374,-0.10198851674795151,0.3573761582374573,-0.007427641656249762
1759304795989392400,9.890392333984375,-0.13443031907081604,0.46266213059425354,0.07349368184804916
1759304795999425300,9.90042529296875,-0.0881657749414444,0.40107598900794983,0.15561409294605255
1759304796009465900,9.9104658203125,0.006195252761244774,0.28098466992378235,0.19636619091033936
1759304796019506200,9.920506103515624,0.10217170417308807,0.15353234112262726,0.19593319296836853
1759304796029546200,9.930546142578125,0.18004536628723145,0.07399329543113708,0.18645711243152618
1759304796039586800,9.9405869140625,0.20564241707324982,0.031042879447340965,0.17506584525108337
1759304796049626000,9.950626220703125,0.18016193807125092,0.016137633472681046,0.1736336052417755
1759304796059666400,9.96066650390625,0.118709035217762,0.030343415215611458,0.1577957421541214
1759304796069707800,9.970707763671875,0.04862940311431885,0.052376531064510345,0.12213973701000214
1759304796079746800,9.980746826171876,0.006128637120127678,0.02881125546991825,0.09984015673398972
1759304796089762300,9.99076220703125,0.004763016942888498,-0.025863513350486755,0.09724214673042297
1759304796099826700,10.00082666015625,0.03064318560063839,-0.07745730876922607,0.10525267571210861
1759304796109869300,10.010869384765625,0.06371784210205078,-0.10480302572250366,0.11694371700286865
1759304796119906300,10.02090625,0.08145424723625183,-0.11959169059991837,0.12395501136779785
1759304796129948700,10.03094873046875,0.08052162826061249,-0.1307997703552246,0.11722683906555176
1759304796139988500,10.040988525390626,0.05857178196310997,-0.12382178008556366,0.11427909135818481
1759304796150028500,10.051028564453125,0.0173200611025095,-0.11083173751831055,0.11919199675321579
1759304796160069000,10.061069091796876,-0.033008038997650146,-0.09133001416921616,0.11387939751148224
1759304796170107400,10.071107421875,-0.08218701928853989,-0.062185682356357574,0.08583422750234604
1759304796180148000,10.08114794921875,-0.1137794777750969,-0.041018567979335785,0.044482581317424774
1759304796190188500,10.0911884765625,-0.12243951112031937,-0.048113130033016205,0.014139165170490742
1759304796200230100,10.101230224609376,-0.10666826367378235,-0.060187213122844696,-0.005012825131416321
1759304796210270200,10.111270263671875,-0.08195386826992035,-0.0407521054148674,-0.02050095610320568
1759304796220310500,10.121310546875,-0.057922281324863434,0.004962863866239786,-0.03197549656033516
1759304796230348500,10.1313486328125,-0.03114280290901661,0.024897588416934013,-0.03543950989842415
1759304796240392200,10.14139208984375,0.0025480473414063454,0.008193721063435078,-0.026812786236405373
1759304796250429200,10.15142919921875,0.04090198874473572,-0.01950172334909439,-0.006928024347871542
1759304796260469800,10.1614697265625,0.07655800133943558,-0.04111849144101143,0.004613131750375032
1759304796270510300,10.17151025390625,0.09572664648294449,-0.028578100726008415,0.006228560581803322
1759304796280551000,10.181551025390625,0.09172970801591873,0.028794601559638977,-0.00008326952229253948
1759304796290591000,10.191591064453124,0.06694869697093964,0.10107254981994629,-0.018718989565968513
1759304796300630500,10.201630615234375,0.028128445148468018,0.15028484165668488,-0.03898679092526436
1759304796310672000,10.211671875,-0.0054125189781188965,0.15506450831890106,-0.044732388108968735
1759304796320711200,10.221711181640625,-0.021616768091917038,0.11456221342086792,-0.033341117203235626
1759304796330752500,10.23175244140625,-0.023098966106772423,0.0482463613152504,-0.02543051354587078
1759304796340791600,10.24179150390625,-0.02033441700041294,-0.005995405837893486,-0.03585585579276085
1759304796350831000,10.2518310546875,-0.018519142642617226,-0.03693836182355881,-0.06251876056194305
1759304796360872000,10.261871826171875,-0.02108384296298027,-0.048912517726421356,-0.10678483545780182
1759304796370912800,10.271912841796874,-0.02374846860766411,-0.04779670760035515,-0.16685546934604645
1759304796380951000,10.281950927734375,-0.022782541811466217,-0.03728809207677841,-0.2288912683725357
1759304796390992100,10.2919921875,-0.010491959750652313,-0.026662901043891907,-0.2849150002002716
1759304796401032700,10.30203271484375,0.01662059687077999,-0.03194218873977661,-0.3340107202529907
1759304796411073500,10.312073486328124,0.05778905004262924,-0.07804019749164581,-0.3773108720779419
1759304796421118200,10.3221181640625,0.10959934443235397,-0.14340677857398987,-0.4318857192993164
1759304796431155700,10.33215576171875,0.15922798216342926,-0.1703527867794037,-0.5090599060058594
1759304796441192000,10.34219189453125,0.1891050934791565,-0.13379746675491333,-0.6090666055679321
1759304796451232800,10.352232666015626,0.19588322937488556,-0.057056277990341187,-0.7259770035743713
1759304796461277400,10.36227734375,0.18902182579040527,0.007877296768128872,-0.8576927781105042
1759304796471317000,10.37231689453125,0.1749492734670639,0.006578292232006788,-0.9772844314575195
1759304796481353000,10.38235302734375,0.17013628780841827,-0.038970138877630234,-1.0773078203201294
1759304796491393000,10.39239306640625,0.1659228503704071,-0.10138897597789764,-1.1842259168624878
1759304796501432800,10.402432861328125,0.16374118626117706,-0.10168874263763428,-1.3338112831115723
1759304796511474200,10.41247412109375,0.14269065856933594,-0.01908537559211254,-1.5375384092330933
1759304796521515300,10.422515380859375,0.11612767726182938,0.10441998392343521,-1.7083408832550049
1759304796531554800,10.432554931640626,0.09206278622150421,0.17380015552043915,-1.7699936628341675
1759304796541594000,10.442593994140625,0.08626722544431686,0.10292112827301025,-1.739633560180664
1759304796551635000,10.452635009765626,0.09529364109039307,-0.13747797906398773,-1.6966499090194702
1759304796561676300,10.46267626953125,0.12035776674747467,-0.3555275499820709,-1.6785304546356201
1759304796571715000,10.472715087890625,0.17268434166908264,-0.34416958689689636,-1.654498815536499
1759304796581755100,10.482755126953125,0.22650976479053497,-0.15205015242099762,-1.631100058555603
1759304796591794000,10.4927939453125,0.2862306535243988,-0.0135895861312747,-1.6362128257751465
1759304796601835800,10.502835693359375,0.3550279438495636,-0.008793261833488941,-1.6298010349273682
1759304796611877400,10.51287744140625,0.4299538731575012,-0.07357694953680038,-1.5885660648345947
1759304796621915600,10.52291552734375,0.45823219418525696,-0.21282024681568146,-1.5898150205612183
1759304796631956000,10.5329560546875,0.448323130607605,-0.3552444577217102,-1.6369456052780151
1759304796641995300,10.542995361328124,0.38998448848724365,-0.3702995777130127,-1.6814115047454834
1759304796652035300,10.553035400390625,0.34263744950294495,-0.15103426575660706,-1.696882963180542
1759304796662075400,10.563075439453126,0.30361732840538025,0.07440964877605438,-1.7137035131454468
1759304796672117500,10.573117431640625,0.30265140533447266,0.130450040102005,-1.7363028526306152
1759304796682155800,10.58315576171875,0.35749271512031555,0.14187461137771606,-1.7924097776412964
1759304796692196400,10.5931962890625,0.40788742899894714,0.14757025241851807,-1.8867042064666748
1759304796702237000,10.60323681640625,0.43641558289527893,0.09575995057821274,-1.9474409818649292
1759304796712275700,10.613275634765625,0.47939929366111755,0.027878636494278908,-1.9178303480148315
1759304796722317800,10.62331787109375,0.4815309941768646,-0.0951770693063736,-1.850631833076477
1759304796732358100,10.633358154296875,0.4765181839466095,-0.1673717498779297,-1.8062825202941895
1759304796742397200,10.643397216796876,0.4663259983062744,-0.23546956479549408,-1.7891956567764282
1759304796752438300,10.653438232421875,0.4555342495441437,-0.26231566071510315,-1.7816014289855957
1759304796762478300,10.663478271484376,0.43468356132507324,-0.26258212327957153,-1.7913439273834229
1759304796772518400,10.673518310546875,0.40510624647140503,-0.2949739694595337,-1.7836664915084839
1759304796782558700,10.683558837890626,0.40762096643447876,-0.3067649304866791,-1.718766212463379
1759304796792597200,10.69359716796875,0.4104854464530945,-0.3859209418296814,-1.6654071807861328
1759304796802638000,10.70363818359375,0.4265231490135193,-0.367818146944046,-1.6897218227386475
1759304796812676900,10.7136767578125,0.4369651675224304,-0.27119219303131104,-1.7584691047668457
1759304796822717200,10.72371728515625,0.4520202875137329,-0.22144697606563568,-1.7940752506256104
1759304796832759600,10.733759521484375,0.4706226885318756,-0.18877200782299042,-1.7799193859100342
1759304796842799000,10.743799072265626,0.45893165469169617,-0.18579095602035522,-1.785731554031372
1759304796852840400,10.75384033203125,0.43330129981040955,-0.115245021879673,-1.8167577981948853
1759304796862879700,10.763879638671876,0.4341672956943512,0.04463246464729309,-1.842404842376709
1759304796872919000,10.7739189453125,0.43433383107185364,0.1617593765258789,-1.867851972579956
1759304796882960600,10.783960693359376,0.42066097259521484,0.18517476320266724,-1.8999607563018799
1759304796893000200,10.794000244140625,0.37236467003822327,0.2106219381093979,-1.9603310823440552
1759304796903038200,10.8040380859375,0.287546306848526,0.26253214478492737,-2.03688907623291
1759304796913078800,10.814078857421874,0.19878101348876953,0.2999867796897888,-2.0786070823669434
1759304796923119400,10.824119384765625,0.1399594098329544,0.2826001048088074,-2.0973427295684814
1759304796933160200,10.83416015625,0.08510145545005798,0.2558705806732178,-2.1181602478027344
1759304796943199700,10.84419970703125,0.04688074067234993,0.2714919447898865,-2.1294515132904053
1759304796953240600,10.854240478515624,0.04025248810648918,0.2259768396615982,-2.1065690517425537
1759304796963279400,10.864279296875,0.062185682356357574,0.19599980115890503,-2.025197982788086
1759304796973321500,10.874321533203124,0.12337213009595871,0.15594716370105743,-1.9688745737075806
1759304796983359500,10.884359375,0.18332618474960327,0.16212576627731323,-1.9534530639648438
1759304796993400600,10.894400634765624,0.22745902836322784,0.22068089246749878,-1.9595317840576172
1759304797003439900,10.90443994140625,0.2896280586719513,0.25961771607398987,-1.9615634679794312
1759304797013481700,10.914481689453124,0.3305966556072235,0.24982522428035736,-1.9627126455307007
1759304797023520300,10.924520263671875,0.34022262692451477,0.1961163878440857,-1.94900643825531
1759304797033562400,10.934562255859374,0.32335221767425537,0.12623660266399384,-1.938847541809082
1759304797043602000,10.944601806640625,0.30161887407302856,0.0996902734041214,-1.9261906147003174
1759304797053642500,10.954642578125,0.2917764186859131,0.08959800750017166,-1.9274896383285522
1759304797063682000,10.96468212890625,0.28869545459747314,0.0744929164648056,-1.9309536218643188
1759304797073723100,10.97472314453125,0.2835327386856079,0.08300305902957916,-1.9277894496917725
1759304797083764000,10.984763916015625,0.2795024812221527,0.03973621875047684,-1.9400966167449951
1759304797093802000,10.994802001953126,0.28729650378227234,-0.014605474658310413,-1.9485068321228027
1759304797103841300,11.00484130859375,0.3191221356391907,-0.0551910400390625,-1.9445099830627441
1759304797113884700,11.014884765625,0.33297815918922424,-0.13428042829036713,-1.9371155500411987
1759304797123921200,11.024921142578124,0.3281485438346863,-0.16274195909500122,-1.9136003255844116
1759304797133961200,11.034961181640625,0.29668930172920227,-0.2649303078651428,-1.850698471069336
1759304797144002600,11.04500244140625,0.25502124428749084,-0.38865217566490173,-1.7709429264068604
1759304797154043400,11.05504345703125,0.1798122078180313,-0.4098859131336212,-1.69943106174469
1759304797164082400,11.06508251953125,0.10267132520675659,-0.29682254791259766,-1.6383278369903564
1759304797174122200,11.075122314453125,0.08300305902957916,-0.18510815501213074,-1.5772579908370972
1759304797184164600,11.08516455078125,0.1033041700720787,-0.18788935244083405,-1.4907909631729126
1759304797194200800,11.095200927734375,0.12052430957555771,-0.2548380494117737,-1.4085206985473633
1759304797204243500,11.105243408203124,0.12347204983234406,-0.29745540022850037,-1.3486998081207275
1759304797214283800,11.11528369140625,0.10215505212545395,-0.27127546072006226,-1.3054662942886353
1759304797224324400,11.125324462890624,0.07833997160196304,-0.21531833708286285,-1.269027590751648
1759304797234364700,11.13536474609375,0.056423429399728775,-0.16504019498825073,-1.2165510654449463
1759304797244406000,11.145406005859375,0.031742341816425323,-0.16144295036792755,-1.1603775024414062
1759304797254443800,11.15544384765625,0.00962595734745264,-0.19884762167930603,-1.1197586059570312
1759304797264484000,11.165484130859374,-0.028744639828801155,-0.21133805811405182,-1.0709127187728882
1759304797274524400,11.1755244140625,-0.07244448363780975,-0.18838897347450256,-1.0129238367080688
1759304797284563700,11.185563720703126,-0.1086500734090805,-0.16520673036575317,-0.9523535370826721
1759304797294605000,11.19560498046875,-0.12658633291721344,-0.14722052216529846,-0.8926159739494324
1759304797304645000,11.20564501953125,-0.12806852161884308,-0.1348799765110016,-0.8348103165626526
1759304797314686000,11.21568603515625,-0.12387174367904663,-0.12580358982086182,-0.7738736271858215
1759304797324726800,11.225726806640624,-0.12758556008338928,-0.14657101035118103,-0.7146689891815186
1759304797334765000,11.23576513671875,-0.12132369726896286,-0.14913572371006012,-0.6444728374481201
1759304797344807200,11.24580712890625,-0.10939949750900269,-0.1727176457643509,-0.5821205973625183
1759304797354844400,11.255844482421875,-0.09464414417743683,-0.19130340218544006,-0.5291944742202759
1759304797364886000,11.265885986328126,-0.08178732544183731,-0.19193625450134277,-0.47871649265289307
1759304797374925000,11.275925048828125,-0.07152852416038513,-0.17721420526504517,-0.4273058772087097
1759304797384967000,11.285966796875,-0.06684877723455429,-0.15381546318531036,-0.3726810812950134
1759304797395005400,11.29600537109375,-0.0740099549293518,-0.12520405650138855,-0.32057100534439087
1759304797405046300,11.30604638671875,-0.0938614085316658,-0.08824904263019562,-0.2767712473869324
1759304797415087000,11.316087158203125,-0.11009896546602249,-0.053625572472810745,-0.2320055514574051
1759304797425125600,11.326125732421875,-0.1173267588019371,-0.04130168259143829,-0.1957666575908661
1759304797435167000,11.3361669921875,-0.112397201359272,-0.04626454785466194,-0.1711188703775406
1759304797445205500,11.34620556640625,-0.10943280905485153,-0.0527595691382885,-0.14980188012123108
1759304797455241500,11.356241455078125,-0.10037308186292648,-0.05987078696489334,-0.1260034441947937
1759304797465287200,11.366287109375,-0.0720614492893219,-0.05718950927257538,-0.10983250290155411
1759304797475327000,11.376326904296874,-0.03770444169640541,-0.041684724390506744,-0.10023985058069229
1759304797485369300,11.386369384765626,-0.008260336704552174,-0.030110260471701622,-0.10623525828123093
1759304797495408600,11.39640869140625,0.021067189052700996,-0.029943721368908882,-0.11805953085422516
1759304797505448200,11.4064482421875,0.05452488362789154,-0.04393300041556358,-0.11577794700860977
1759304797515488300,11.41648828125,0.08303637057542801,-0.05530761927366257,-0.0967092216014862
1759304797525527800,11.42652783203125,0.088515505194664,-0.06153617799282074,-0.05645673722028732
1759304797535568000,11.43656787109375,0.06529995799064636,-0.08918166160583496,-0.009076378308236599
1759304797545609200,11.446609130859375,0.0399194099009037,-0.14555512368679047,-0.0017819678178057075
1759304797555648500,11.4566484375,0.04041902720928192,-0.189737930893898,-0.03745463117957115
1759304797565688000,11.46668798828125,0.05624023824930191,-0.19323526322841644,-0.07562538236379623
1759304797575729400,11.4767294921875,0.07357694953680038,-0.1702861785888672,-0.07995539903640747
1759304797585769000,11.48676904296875,0.09514375776052475,-0.166122704744339,-0.05257637798786163
1759304797595809000,11.49680908203125,0.11671056598424911,-0.19032081961631775,-0.01707025244832039
1759304797605850600,11.5068505859375,0.12668626010417938,-0.21779976785182953,0.0021316998172551394
1759304797615888100,11.51688818359375,0.11731010675430298,-0.22794198989868164,-0.0007327718194574118
1759304797625929200,11.52692919921875,0.10233824700117111,-0.22121381759643555,-0.01637078821659088
1759304797635970800,11.536970703125,0.08891519904136658,-0.1995304375886917,-0.03637212887406349
1759304797646010000,11.547010009765625,0.0835859477519989,-0.1796623319387436,-0.05615696683526039
1759304797656047900,11.5570478515625,0.08398564159870148,-0.17318396270275116,-0.07131201773881912
1759304797666090500,11.567090576171875,0.08451856672763824,-0.1745329201221466,-0.07960566133260727
1759304797676130000,11.577130126953126,0.083652563393116,-0.1754988431930542,-0.08590084314346313
1759304797686169300,11.58716943359375,0.08260336518287659,-0.1760484278202057,-0.09349501878023148
1759304797696210400,11.59721044921875,0.08779938519001007,-0.17033614218235016,-0.10137231647968292
1759304797706248700,11.607248779296874,0.09924061596393585,-0.15934455394744873,-0.10825037956237793
1759304797716291300,11.617291259765626,0.11014892905950546,-0.14345674216747284,-0.10583556443452835
1759304797726331100,11.6273310546875,0.12533728778362274,-0.12671956419944763,-0.09014758467674255
1759304797736371500,11.637371337890626,0.14735375344753265,-0.1104486957192421,-0.07151186466217041
1759304797746411800,11.647411865234375,0.1686374396085739,-0.09982350468635559,-0.06116979196667671
1759304797756451000,11.657451171875,0.17190159857273102,-0.08077143877744675,-0.04659762606024742
1759304797766491100,11.6674912109375,0.1516837626695633,-0.06108652427792549,-0.020151223987340927
1759304797776531200,11.67753125,0.11701033264398575,-0.06315160542726517,-0.0021650076378136873
1759304797786573000,11.687572998046875,0.07535891979932785,-0.07660796493291855,0.006311830133199692
1759304797796611000,11.697611083984375,0.03389069810509682,-0.09297875314950943,0.008193721063435078
1759304797806651400,11.7076513671875,-0.008143759332597256,-0.10220501571893692,0.007710758130997419
1759304797816693500,11.717693603515626,-0.04773009195923805,-0.09672588109970093,0.010158881545066833
1759304797826730200,11.727730224609376,-0.07252775877714157,-0.07902278006076813,0.020967265591025352
1759304797836772600,11.737772705078125,-0.07727412134408951,-0.05998736619949341,0.037304747849702835
1759304797846813400,11.7478134765625,-0.06939682364463806,-0.043266844004392624,0.05564069747924805
1759304797856851500,11.7578515625,-0.06205245107412338,-0.033757466822862625,0.06808116286993027
1759304797866894300,11.767894287109375,-0.061369638890028,-0.029460757970809937,0.06943012773990631
1759304797876931300,11.777931396484375,-0.06260202825069427,-0.027828674763441086,0.054674770683050156
1759304797886972200,11.78797216796875,-0.06313495337963104,-0.021550152450799942,0.042767226696014404
1759304797897011200,11.79801123046875,-0.0621357187628746,-0.025197358801960945,0.03875363618135452
1759304797907053300,11.80805322265625,-0.05604039132595062,-0.043400075286626816,0.03610566630959511
1759304797917093600,11.81809375,-0.054125189781188965,-0.06283517926931381,0.034923236817121506
1759304797927132200,11.828132080078126,-0.05832197517156601,-0.07249444723129272,0.03720482438802719
1759304797937173800,11.838173828125,-0.06458384543657303,-0.07167840749025345,0.044149503111839294
1759304797947212500,11.848212646484376,-0.06619927287101746,-0.06015390530228615,0.05004498362541199
1759304797957255700,11.858255615234375,-0.0585218220949173,-0.04488227516412735,0.0522766076028347
1759304797967294000,11.8682939453125,-0.04493223503232002,-0.034456927329301834,0.051493871957063675
1759304797977333800,11.878333740234375,-0.033124618232250214,-0.02333212085068226,0.049995023757219315
1759304797987372800,11.888372802734375,-0.025580398738384247,-0.0072111408226192,0.048945825546979904
1759304797997414700,11.89841455078125,-0.02451454848051071,0.013789433054625988,0.0485960952937603
1759304798007454000,11.908453857421875,-0.02329881303012371,0.033590927720069885,0.048279669135808945
1759304798017469000,11.918468994140625,-0.01665390469133854,0.040352411568164825,0.04588150605559349
1759304798027534000,11.9285341796875,-0.004912902135401964,0.03520635515451431,0.04426607862114906
1759304798037574000,11.938573974609374,0.008526799269020557,0.030926302075386047,0.04186791554093361
1759304798047614500,11.948614501953125,0.019268568605184555,0.03190888091921806,0.034590158611536026
1759304798057655300,11.9586552734375,0.02687940187752247,0.037637826055288315,0.023515313863754272
1759304798067695000,11.968695068359375,0.03240849822759628,0.0456816591322422,0.013389739207923412
1759304798077736200,11.978736083984375,0.0362388975918293,0.05574062094092369,0.005162710323929787
1759304798087777000,11.988777099609376,0.041268374770879745,0.05958767235279083,0.000016653904822305776
1759304798097814300,11.998814208984374,0.04814643785357475,0.05409188196063042,-0.003297473071143031
1759304798107856000,12.00885595703125,0.053042687475681305,0.04426607862114906,-0.003380742622539401
1759304798117895200,12.018895263671874,0.05797224119305611,0.034090545028448105,-0.002764548175036907
1759304798127934700,12.028934814453125,0.060353752225637436,0.0271791722625494,-0.003713820828124881
1759304798137974500,12.038974609375,0.0597042478621006,0.02341539040207863,-0.0053792111575603485
1759304798148015400,12.049015380859375,0.05802220478653908,0.02050095610320568,-0.006428407039493322
1759304798158053600,12.0590537109375,0.057672470808029175,0.017186829820275307,-0.006295176222920418
1759304798168095500,12.069095458984375,0.056639932096004486,0.0135895861312747,-0.004713055212050676
1759304798178138400,12.079138427734375,0.05737270042300224,0.008893185295164585,-0.003347434801980853
1759304798188176400,12.08917626953125,0.05748927965760231,0.003447358263656497,0.0003663859097287059
1759304798198216400,12.099216552734376,0.056090351194143295,-0.002398162381723523,0.00559571199119091
1759304798208255700,12.109255859375,0.05364222824573517,-0.007744065951555967,0.008709992282092571
1759304798218296800,12.119296875,0.05076110363006592,-0.00874330010265112,0.010125573724508286
1759304798228337700,12.129337646484375,0.04822970926761627,-0.009775842539966106,0.009426110424101353
1759304798238376400,12.13937646484375,0.04476569592952728,-0.010192189365625381,0.008926493115723133
1759304798248417800,12.149417724609375,0.03898679092526436,-0.010342074558138847,0.008643376640975475
1759304798258457600,12.15945751953125,0.03127603232860565,-0.006694869603961706,0.00832695234566927
1759304798268496100,12.16949609375,0.02333212085068226,-0.006328484043478966,0.006028713658452034
1759304798278537000,12.179536865234375,0.018019525334239006,-0.006928024347871542,0.0037471286486834288
1759304798288579000,12.1895791015625,0.01612097956240177,-0.009392802603542805,0.002314892830327153
1759304798298617600,12.19961767578125,0.014105857349932194,-0.011074846610426903,0.0006994639988988638
1759304798308660000,12.209659912109375,0.01135796308517456,-0.013906010426580906,-0.0000666156192892231
1759304798318697200,12.219697265625,0.008260336704552174,-0.0168704055249691,-0.00039969373028725386
1759304798328738000,12.229738037109374,0.004230091813951731,-0.020983919501304626,-0.0009992342675104737
1759304798338779000,12.23977880859375,0.0006328483577817678,-0.021933192387223244,0.00044965543202124536
1759304798348817400,12.2498173828125,-0.0026479708030819893,-0.025397205725312233,-0.0015155053697526455
1759304798358858000,12.25985791015625,-0.00592879019677639,-0.029943721368908882,-0.002398162381723523
1759304798368898600,12.269898681640624,-0.007810681592673063,-0.030360069125890732,-0.006844754796475172
1759304798378938600,12.279938720703125,-0.011724349111318588,-0.03184226527810097,-0.005728943273425102
1759304798388980700,12.289980712890625,-0.013889356516301632,-0.03094295598566532,-0.0026812786236405373
1759304798399017500,12.300017578125,-0.01483862940222025,-0.0300602987408638,-0.002348200650885701
1759304798409059000,12.31005908203125,-0.015971094369888306,-0.02989375963807106,-0.0011491194600239396
1759304798419098600,12.3200986328125,-0.015921132639050484,-0.029910413548350334,-0.0026313168928027153
1759304798429138400,12.330138427734376,-0.014372319914400578,-0.029877105727791786,-0.0025480473414063454
1759304798439180000,12.340179931640625,-0.012074081227183342,-0.027995213866233826,-0.0002831163874361664
1759304798449218800,12.35021875,-0.010941615328192711,-0.027528904378414154,0.0024980856105685234
1759304798459262000,12.360261962890625,-0.010675152763724327,-0.028494831174612045,0.003663859097287059
1759304798469298400,12.37029833984375,-0.009725880809128284,-0.029544027522206306,0.004296707455068827
1759304798479339500,12.380339599609375,-0.00807714369148016,-0.029927067458629608,0.003114280290901661
1759304798489400600,12.390400634765625,-0.006528330501168966,-0.028794601559638977,0.0012323890114203095
1759304798499421400,12.40042138671875,-0.005645673722028732,-0.025064127519726753,-0.0012323890114203095
1759304798509459200,12.410459228515625,-0.0061785988509655,-0.019551685079932213,-0.0011824272805824876
1759304798519499300,12.420499267578125,-0.008393567986786366,-0.012940083630383015,-0.0017653139075264335
1759304798529540600,12.43054052734375,-0.009492726065218449,-0.01210738904774189,-0.0014488897286355495
1759304798539582000,12.44058203125,-0.009526033885776997,-0.013206546194851398,-0.00038303982000797987
1759304798549620200,12.4506201171875,-0.0094594182446599,-0.014022587798535824,0.00048296325257979333
1759304798559659500,12.460659423828124,-0.010008996352553368,-0.014155819080770016,0.0006495022680610418
1759304798569699300,12.47069921875,-0.009692572988569736,-0.014205780811607838,0.0012823506258428097
