time,seconds_elapsed,z,y,x
1757491818459487500,0.073487548828125,9.603965759277344,3.110292434692383,-1.2690765857696533
1757491818469549000,0.083549072265625,9.455899238586426,2.997615337371826,-1.1379191875457764
1757491818479594000,0.093593994140625,9.309104919433594,2.9100773334503174,-1.014917016029358
1757491818489635300,0.10363525390625,9.230395317077637,2.839223861694336,-0.9112182259559631
1757491818499676200,0.11367626953125,9.21588134765625,2.787823438644409,-0.8888474106788635
1757491818509691600,0.123691650390625,9.297134399414062,2.7648539543151855,-0.871489405632019
1757491818519759000,0.133759033203125,9.35077953338623,2.7444286346435547,-0.8551040887832642
1757491818529795800,0.1437958984375,9.38631820678711,2.685920238494873,-0.8759785294532776
1757491818539821800,0.15382177734375,9.449390411376953,2.6645219326019287,-0.9097966551780701
1757491818549881900,0.1638818359375,9.608080863952637,2.665494680404663,-0.9153332114219666
1757491818559901200,0.173901123046875,9.704896926879883,2.704699754714966,-0.8904933929443359
1757491818569968400,0.183968505859375,9.736170768737793,2.75348162651062,-0.8759785294532776
1757491818580004900,0.1940048828125,9.638382911682129,2.7269208431243896,-0.783801794052124
1757491818590046200,0.204046142578125,9.456198692321777,2.718466281890869,-0.7305307984352112
1757491818600100000,0.21410009765625,9.328707695007324,2.7520599365234375,-0.7190086841583252
1757491818610128400,0.22412841796875,9.422829627990723,2.7678468227386475,-0.8087912797927856
1757491818620169700,0.234169677734375,9.64339542388916,2.7883472442626953,-0.9087491631507874
1757491818630185000,0.24418505859375,9.70205307006836,2.9118731021881104,-1.0465654134750366
1757491818640251600,0.254251708984375,9.717316627502441,2.8761844635009766,-1.0731260776519775
1757491818650307000,0.26430712890625,9.660005569458008,2.7608139514923096,-0.9030629396438599
1757491818660330000,0.274330078125,9.372626304626465,2.673051357269287,-0.694617748260498
1757491818670376000,0.2843759765625,9.259350776672363,2.6321253776550293,-0.5989245176315308
1757491818680390400,0.294390380859375,9.256956100463867,2.6465654373168945,-0.609548807144165
1757491818690453200,0.304453369140625,9.23323917388916,2.7702410221099854,-0.7577648162841797
1757491818700494000,0.314494140625,9.213112831115723,2.9059622287750244,-0.9130886793136597
1757491818710539000,0.3245390625,9.203460693359375,2.9471874237060547,-1.039307951927185
1757491818720554800,0.3345546875,9.237354278564453,3.212120771408081,-1.2691513299942017
1757491818730621200,0.34462109375,9.311124801635742,3.2701802253723145,-1.4457237720489502
1757491818740662800,0.354662841796875,9.180940628051758,3.191171646118164,-1.3644704818725586
1757491818750679800,0.3646796875,8.958653450012207,3.0271687507629395,-1.1974749565124512
1757491818760740900,0.374740966796875,8.786944389343262,2.8720693588256836,-0.9208698272705078
1757491818770760400,0.384760498046875,8.762404441833496,2.600402355194092,-0.7841758728027344
1757491818780827000,0.394826904296875,8.760383605957031,2.469768762588501,-0.937778890132904
1757491818790864100,0.404864013671875,8.87597942352295,2.5324668884277344,-1.1026047468185425
1757491818800883700,0.4148837890625,9.201664924621582,2.533364772796631,-1.1327567100524902
1757491818810950100,0.4249501953125,9.484854698181152,2.331129550933838,-1.1294646263122559
1757491818820967400,0.434967529296875,9.65499210357666,2.191218376159668,-1.1240029335021973
1757491818831028700,0.44502880859375,10.312799453735352,2.0265421867370605,-1.0767922401428223
1757491818841073700,0.45507373046875,10.774805068969727,1.7293617725372314,-0.9891045689582825
1757491818851069700,0.465069580078125,10.56493854522705,1.5032594203948975,-0.5814917087554932
1757491818861155800,0.47515576171875,9.8970308303833,1.318232536315918,-0.15008652210235596
1757491818871203300,0.485203369140625,9.52922248840332,1.0981155633926392,0.04346972331404686
1757491818881238300,0.49523828125,9.516502380371094,0.8977507948875427,-0.0019452888518571854
1757491818891279000,0.505279052734375,9.662698745727539,1.2234370708465576,-0.23912090063095093
1757491818901294800,0.515294921875,9.730409622192383,2.0504093170166016,-0.6503250598907471
1757491818911362600,0.525362548828125,9.807024002075195,2.2533178329467773,-0.9106944799423218
1757491818921389800,0.535389892578125,10.064101219177246,2.150891065597534,-1.049782633781433
1757491818931417900,0.54541796875,10.224662780761719,1.9928736686706543,-1.0134207010269165
1757491818941481200,0.555481201171875,10.049362182617188,1.9918261766433716,-0.9875333905220032
1757491818951500800,0.565500732421875,9.644891738891602,2.1534347534179688,-0.7077110409736633
1757491818961562600,0.575562744140625,9.374197006225586,2.070535659790039,-0.5137059092521667
1757491818971636000,0.585635986328125,9.416544914245605,1.9586814641952515,-0.6065560579299927
1757491818981652500,0.595652587890625,9.47146224975586,2.03312611579895,-0.7184849381446838
1757491818991690000,0.60568994140625,9.457171440124512,2.0976948738098145,-0.7191583514213562
1757491819001731000,0.61573095703125,9.547477722167969,2.028562307357788,-0.7749731540679932
1757491819011746600,0.62574658203125,9.636960983276367,2.0406079292297363,-0.821809709072113
1757491819021813500,0.6358134765625,9.605013847351074,2.088043212890625,-0.7485620975494385
1757491819031854300,0.645854248046875,9.653944969177246,2.0614824295043945,-0.6916998624801636
1757491819041879000,0.655879150390625,9.783531188964844,1.9408745765686035,-0.7336731553077698
1757491819051909600,0.66590966796875,9.867852210998535,1.8801965713500977,-0.8001123070716858
1757491819061973800,0.675973876953125,9.875259399414062,1.9360861778259277,-0.7615805864334106
1757491819071993300,0.685993408203125,9.74582290649414,1.9978116750717163,-0.6459855437278748
1757491819082034400,0.696034423828125,9.60523796081543,2.034921884536743,-0.6367828249931335
1757491819092101400,0.706101318359375,9.538200378417969,2.0450971126556396,-0.7401823997497559
1757491819102142200,0.71614208984375,9.530119895935059,2.1396682262420654,-0.7860463261604309
1757491819112141600,0.7261416015625,9.381006240844727,2.107346296310425,-0.7258920073509216
1757491819122224400,0.736224365234375,9.3311767578125,2.1657049655914307,-0.6811503767967224
1757491819132261600,0.74626171875,9.42679500579834,2.2554876804351807,-0.762104332447052
1757491819142272300,0.756272216796875,9.451859474182129,2.325144052505493,-0.8536825180053711
1757491819152347400,0.766347412109375,9.536853790283203,2.311826229095459,-0.8565256595611572
1757491819162403600,0.776403564453125,9.685443878173828,2.1610662937164307,-0.8427590131759644
1757491819172425700,0.78642578125,9.90705680847168,2.108468770980835,-0.889445960521698
1757491819182466300,0.79646630859375,9.842039108276367,2.2300491333007812,-0.8262988328933716
1757491819192486700,0.806486572265625,9.603816032409668,2.3570168018341064,-0.8386439681053162
1757491819202549000,0.816549072265625,9.438840866088867,2.2881834506988525,-0.8872761726379395
1757491819212611000,0.826611083984375,9.283890724182129,2.336292028427124,-0.9148843288421631
1757491819222608000,0.83660791015625,9.236381530761719,2.4321348667144775,-0.9629179835319519
1757491819232676000,0.846676025390625,9.288005828857422,2.3978679180145264,-0.9920225143432617
1757491819242691800,0.85669189453125,9.556081771850586,2.336815595626831,-1.0426000356674194
1757491819252742000,0.866741943359375,9.646537780761719,2.3035213947296143,-1.0957213640213013
1757491819262779100,0.876779052734375,9.629778861999512,2.301276683807373,-1.1254992485046387
1757491819272799200,0.88679931640625,9.80223560333252,2.234912395477295,-1.2687023878097534
1757491819282882000,0.896882080078125,9.859546661376953,2.3430256843566895,-1.423427700996399
1757491819292902000,0.90690185546875,9.707664489746094,2.569951057434082,-1.3961188793182373
1757491819302940400,0.9169404296875,9.65259838104248,2.4585459232330322,-1.296385407447815
1757491819312979500,0.9269794921875,9.633369445800781,2.269329071044922,-1.2045079469680786
1757491819323046400,0.93704638671875,9.693000793457031,2.2655882835388184,-1.1869255304336548
1757491819333087000,0.9470869140625,9.791911125183105,2.2958149909973145,-1.2886042594909668
1757491819343128600,0.957128662109375,9.73085880279541,2.2771103382110596,-1.3564648628234863
1757491819353137200,0.96713720703125,9.545008659362793,2.3044190406799316,-1.2754361629486084
1757491819363187700,0.977187744140625,9.471237182617188,2.2945430278778076,-1.186850666999817
1757491819373251600,0.98725146484375,9.478344917297363,2.2765865325927734,-1.1834089756011963
1757491819383293000,0.99729296875,9.456947326660156,2.2957401275634766,-1.1772738695144653
1757491819393333800,1.007333740234375,9.418190956115723,2.295440912246704,-1.1496657133102417
1757491819403350800,1.017350830078125,9.359607696533203,2.2777087688446045,-1.1733832359313965
1757491819413413400,1.027413330078125,9.375020027160645,2.2851908206939697,-1.2401964664459229
1757491819423433200,1.03743310546875,9.472883224487305,2.354846954345703,-1.352349877357483
1757491819433494000,1.047493896484375,9.472135543823242,2.42240834236145,-1.2564321756362915
1757491819443537400,1.057537353515625,9.456722259521484,2.3366661071777344,-1.044545292854309
1757491819453557800,1.067557861328125,9.536478996276855,2.2141876220703125,-0.9216180443763733
1757491819463595800,1.077595703125,9.551816940307617,2.1699697971343994,-0.9255834221839905
1757491819473647400,1.0876474609375,9.534608840942383,2.207453966140747,-0.9729437232017517
1757491819483680000,1.097679931640625,9.489493370056152,2.29484224319458,-0.9983820915222168
1757491819493719800,1.1077197265625,9.3666410446167,2.2865374088287354,-0.983568012714386
1757491819503782700,1.11778271484375,9.246182441711426,2.361281394958496,-1.0874912738800049
1757491819513825800,1.12782568359375,9.179518699645996,2.444031000137329,-1.147495985031128
1757491819523840800,1.1378408203125,9.2009916305542,2.430788040161133,-1.1381436586380005
1757491819533909200,1.1479091796875,9.310601234436035,2.3154923915863037,-1.0236709117889404
1757491819543924500,1.157924560546875,9.56513500213623,2.4296658039093018,-1.0062381029129028
1757491819553991200,1.1679912109375,9.806426048278809,2.295366048812866,-1.20869779586792
1757491819564032300,1.1780322265625,9.602095603942871,2.6355671882629395,-1.367762565612793
1757491819574047200,1.188047119140625,9.317185401916504,2.7713632583618164,-1.469366431236267
1757491819584114400,1.198114501953125,8.167669296264648,3.231274366378784,-1.429862141609192
1757491819594155500,1.208155517578125,10.320206642150879,2.2923734188079834,-1.983147144317627
1757491819604196600,1.218196533203125,10.554388999938965,2.3405566215515137,-1.8896985054016113
1757491819614237700,1.22823779296875,10.381632804870605,2.4374470710754395,-1.3762918710708618
1757491819624274700,1.238274658203125,9.665766716003418,2.26401686668396,-1.1068693399429321
1757491819634297300,1.24829736328125,9.356988906860352,2.5837178230285645,-1.2404958009719849
1757491819644341500,1.258341552734375,8.465897560119629,2.7159225940704346,-1.4025533199310303
1757491819654407000,1.268406982421875,8.51602554321289,2.3500585556030273,-1.3288567066192627
1757491819664443000,1.27844287109375,8.477194786071777,2.0231003761291504,-1.1101614236831665
1757491819674480600,1.288480712890625,8.809016227722168,2.4287679195404053,-1.1328314542770386
1757491819684524000,1.29852392578125,9.358186721801758,2.793135643005371,-1.5970821380615234
1757491819694537700,1.308537841796875,10.157251358032227,2.8254573345184326,-2.3475894927978516
1757491819704607500,1.318607421875,10.300004959106445,2.7889456748962402,-2.4833858013153076
1757491819714638800,1.328638916015625,9.911770820617676,2.68951153755188,-2.2566099166870117
1757491819724689400,1.338689453125,9.602095603942871,2.618957281112671,-1.886930227279663
1757491819734730800,1.348730712890625,9.68574333190918,2.5801265239715576,-1.784952163696289
1757491819744749000,1.3587490234375,9.799018859863281,2.604218006134033,-1.8593220710754395
1757491819754813000,1.36881298828125,9.863737106323242,2.7370214462280273,-1.9434932470321655
1757491819764854300,1.378854248046875,9.801861763000488,2.8137106895446777,-1.979630708694458
1757491819774895000,1.38889501953125,9.711405754089355,2.8278515338897705,-1.913490891456604
1757491819784936400,1.3989365234375,9.44879150390625,2.764704465866089,-1.860219955444336
1757491819794969600,1.408969482421875,9.260323524475098,2.658087730407715,-1.7467197179794312
1757491819805014500,1.4190146484375,9.197999000549316,2.652700662612915,-1.8478747606277466
1757491819815059500,1.4290595703125,9.199345588684082,2.7125556468963623,-1.8820669651031494
1757491819825100500,1.4391005859375,9.211690902709961,2.7561750411987305,-1.767295002937317
1757491819835141600,1.4491416015625,9.273940086364746,2.7038767337799072,-1.588926911354065
1757491819845160400,1.459160400390625,9.306336402893066,2.685321569442749,-1.4603134393692017
1757491819855224000,1.46922412109375,9.224485397338867,2.8023383617401123,-1.4436287879943848
1757491819865259300,1.47925927734375,9.111358642578125,2.8838908672332764,-1.4867244958877563
1757491819875302100,1.48930224609375,9.13081169128418,2.8476035594940186,-1.6039655208587646
1757491819885347000,1.49934716796875,9.266682624816895,2.894664764404297,-1.7498621940612793
1757491819895363600,1.509363525390625,9.400533676147461,3.0118308067321777,-1.8225111961364746
1757491819905426200,1.51942626953125,9.509769439697266,3.1162030696868896,-1.7005565166473389
1757491819915466800,1.529466796875,9.517400741577148,3.069366693496704,-1.4050222635269165
1757491819925508600,1.539508544921875,9.415796279907227,2.8268039226531982,-1.0899603366851807
1757491819935550500,1.549550537109375,9.262642860412598,2.5992801189422607,-0.9010428190231323
1757491819945553000,1.559552978515625,9.005041122436523,2.5296237468719482,-0.7439981698989868
1757491819955634700,1.569634765625,8.767491340637207,2.575786828994751,-0.6459855437278748
1757491819965650400,1.579650390625,8.94765567779541,2.6693851947784424,-0.8001123070716858
1757491819975716600,1.589716552734375,9.173309326171875,2.861295461654663,-1.0552444458007812
1757491819985758500,1.599758544921875,9.428441047668457,2.933570384979248,-1.2611457109451294
1757491819995773700,1.609773681640625,9.678260803222656,2.8109424114227295,-1.4051719903945923
1757491820005840000,1.61983984375,9.680954933166504,2.864288330078125,-1.329604983329773
1757491820015870500,1.629870361328125,9.633444786071777,2.8399720191955566,-1.213860273361206
1757491820025922600,1.639922607421875,9.522562980651855,2.8568062782287598,-1.20600426197052
1757491820035963600,1.649963623046875,9.48657512664795,2.924966335296631,-1.1910405158996582
1757491820045980400,1.65998046875,9.612345695495605,2.6651954650878906,-1.0895862579345703
1757491820056048600,1.670048583984375,9.158270835876465,2.4315361976623535,-1.0245686769485474
1757491820066086100,1.680086181640625,9.40255355834961,2.718017578125,-1.0858452320098877
1757491820076124000,1.6901240234375,9.571345329284668,2.557830333709717,-1.0948983430862427
1757491820086165000,1.7001650390625,9.646537780761719,2.484358310699463,-0.983568012714386
1757491820096187400,1.7101875,9.584588050842285,2.464980363845825,-0.9046341776847839
1757491820106227700,1.720227783203125,9.457021713256836,2.4384944438934326,-0.8242787718772888
1757491820116245500,1.73024560546875,9.41527271270752,2.415599822998047,-0.7740753293037415
1757491820126329300,1.740329345703125,9.344943046569824,2.435950517654419,-0.7593360543251038
1757491820136363800,1.75036376953125,9.258901596069336,2.414851665496826,-0.8163479566574097
1757491820146413000,1.7604130859375,9.339855194091797,2.483759880065918,-1.0072107315063477
1757491820156452600,1.77045263671875,9.249773979187012,2.399738311767578,-1.1397897005081177
1757491820166472000,1.780471923828125,9.41100788116455,2.476203203201294,-1.2080243825912476
1757491820176534300,1.7905341796875,9.016788482666016,2.5931448936462402,-1.0741735696792603
1757491820186554000,1.80055419921875,9.3404541015625,2.6761937141418457,-1.0512042045593262
1757491820196617200,1.8106171875,9.298405647277832,2.694823741912842,-1.2000936269760132
1757491820206615600,1.820615478515625,9.671602249145508,2.652850389480591,-1.2617442607879639
1757491820216677400,1.830677490234375,10.058639526367188,2.649109363555908,-1.5893758535385132
1757491820226743800,1.840743896484375,9.759215354919434,3.018639326095581,-1.6344166994094849
1757491820236776200,1.850776123046875,9.042675018310547,2.8848633766174316,-1.1582698822021484
1757491820246822400,1.860822509765625,8.654664993286133,2.2386534214019775,-0.7478887438774109
1757491820256863500,1.870863525390625,9.219921112060547,1.6276830434799194,-0.9897031188011169
1757491820266883000,1.880883056640625,9.25523567199707,2.046069860458374,-1.347411870956421
1757491820276949000,1.890948974609375,10.012327194213867,3.0773720741271973,-1.772457480430603
1757491820286946000,1.900946044921875,10.257957458496094,3.463362455368042,-1.9141643047332764
1757491820297032200,1.9110322265625,10.042329788208008,3.079392194747925,-1.6974141597747803
1757491820307072800,1.92107275390625,9.66419506072998,2.6286089420318604,-1.4636054039001465
1757491820317122600,1.93112255859375,9.33357048034668,2.569277763366699,-1.4445266723632812
1757491820327155200,1.9411552734375,9.137994766235352,2.680084228515625,-1.5860837697982788
1757491820337170700,1.951170654296875,9.149965286254883,2.7245266437530518,-1.6407015323638916
1757491820347238000,1.96123779296875,9.289502143859863,2.69183087348938,-1.5854852199554443
1757491820357278200,1.9712783203125,9.415796279907227,2.68412446975708,-1.4727333784103394
1757491820367319600,1.981319580078125,9.497124671936035,2.6931028366088867,-1.3811551332473755
1757491820377361200,1.991361083984375,9.519720077514648,2.6775405406951904,-1.3825767040252686
1757491820387376400,2.00137646484375,9.435025215148926,2.6669909954071045,-1.3870657682418823
1757491820397438700,2.011438720703125,9.387141227722168,2.6238954067230225,-1.3620762825012207
1757491820407455500,2.02145556640625,9.419387817382812,2.629955768585205,-1.377638578414917
1757491820417521400,2.031521484375,9.420660018920898,2.6827030181884766,-1.4214824438095093
1757491820427573500,2.041573486328125,9.370680809020996,2.7065701484680176,-1.4139257669448853
1757491820437584000,2.051583984375,9.37285041809082,2.717942714691162,-1.3709797859191895
1757491820447644000,2.061643798828125,9.411232948303223,2.752284526824951,-1.31007719039917
1757491820457703400,2.071703369140625,9.36125373840332,2.6955718994140625,-1.1718120574951172
1757491820467730200,2.081730224609375,9.266982078552246,2.6162638664245605,-1.0453683137893677
1757491820477746700,2.09174658203125,9.284564971923828,2.5253591537475586,-1.0234464406967163
1757491820487812600,2.1018125,9.389310836791992,2.4631845951080322,-1.0374375581741333
1757491820497853400,2.111853515625,9.384672164916992,2.4955811500549316,-1.0586860179901123
1757491820507869000,2.121868896484375,9.39896297454834,2.507552146911621,-1.0741735696792603
1757491820517931800,2.131931884765625,9.52129077911377,2.5509471893310547,-1.1495909690856934
1757491820527951400,2.141951416015625,9.713874816894531,2.696394920349121,-1.162609338760376
1757491820538017800,2.152017822265625,9.838373184204102,2.789170265197754,-1.1172691583633423
1757491820548054800,2.1620546875,9.555258750915527,2.35611891746521,-1.1200374364852905
1757491820558088200,2.172088134765625,9.697564125061035,2.534412145614624,-1.2424410581588745
1757491820568140500,2.182140625,9.637859344482422,2.6680386066436768,-0.945260763168335
1757491820578178300,2.19217822265625,9.977386474609375,2.313621759414673,-0.5936123728752136
1757491820588223000,2.202222900390625,9.917157173156738,2.1187188625335693,-0.526649534702301
1757491820598264600,2.2122646484375,10.25818157196045,2.0572926998138428,-0.5036053657531738
1757491820608279600,2.222279541015625,10.206631660461426,1.8941876888275146,-0.33855509757995605
1757491820618342700,2.2323427734375,10.40108585357666,2.408641815185547,-0.11768997460603714
1757491820628404700,2.24240478515625,9.889175415039062,2.984297513961792,0.0019452888518571854
1757491820638424300,2.25242431640625,9.04551887512207,2.511742115020752,0.1900397539138794
1757491820648444200,2.262444091796875,10.188824653625488,1.8350807428359985,-0.2100163847208023
1757491820658485800,2.27248583984375,10.669983863830566,1.9191023111343384,-0.19737200438976288
1757491820668526600,2.282526611328125,10.034623146057129,2.195258617401123,0.16662147641181946
1757491820678567400,2.2925673828125,9.359233856201172,2.2421698570251465,0.5315876007080078
1757491820688608000,2.30260791015625,9.06946086883545,2.154407501220703,0.7412298917770386
1757491820698674700,2.3126748046875,8.774374961853027,1.9702783823013306,0.8738088011741638
1757491820708694300,2.3226943359375,8.768913269042969,1.7684921026229858,0.8832359910011292
1757491820718756900,2.3327568359375,9.209895133972168,1.7099837064743042,0.7566425800323486
1757491820728777500,2.342777587890625,9.455525398254395,1.7111808061599731,0.6803273558616638
1757491820738835000,2.3528349609375,9.464279174804688,1.825728416442871,0.688258171081543
1757491820748876500,2.36287646484375,9.350255012512207,1.9812767505645752,0.6635679602622986
1757491820758921000,2.3729208984375,9.416470527648926,2.108319044113159,0.31214404106140137
1757491820768943400,2.382943359375,9.485977172851562,2.4179940223693848,-0.0512508787214756
1757491820779004700,2.393004638671875,9.516278266906738,2.6937761306762695,-0.29897594451904297
1757491820789019100,2.40301904296875,9.379434585571289,2.853289842605591,-0.3951180875301361
1757491820799084800,2.413084716796875,9.487398147583008,2.9444940090179443,-0.2828150689601898
1757491820809125400,2.42312548828125,9.604190826416016,2.418966770172119,-0.030376434326171875
1757491820819201500,2.433201416015625,9.504457473754883,2.0679168701171875,0.2421884685754776
1757491820829215500,2.443215576171875,9.458293914794922,2.078017473220825,0.39047932624816895
1757491820839261700,2.45326171875,9.64339542388916,2.1029322147369385,0.3635445535182953
1757491820849291000,2.463291015625,9.813608169555664,2.021604061126709,0.33354222774505615
1757491820859306500,2.473306396484375,9.983596801757812,1.7556232213974,0.47652095556259155
1757491820869351000,2.483350830078125,9.728389739990234,1.3503297567367554,0.6611737608909607
1757491820879413000,2.4934130859375,9.570297241210938,1.5010148286819458,0.661697506904602
1757491820889434600,2.5034345703125,9.683947563171387,1.7227777242660522,0.4371662735939026
1757491820899492900,2.513492919921875,9.894562721252441,2.066495418548584,0.1628057211637497
1757491820909535700,2.52353564453125,9.995492935180664,2.3861212730407715,-0.02760813757777214
1757491820919551500,2.533551513671875,9.838373184204102,2.535684108734131,-0.04496610164642334
1757491820929620000,2.543619873046875,9.56401252746582,2.4771008491516113,0.05850830301642418
1757491820939682000,2.55368212890625,9.472808837890625,2.319457769393921,0.09487023949623108
1757491820949702000,2.563701904296875,9.423428535461426,2.191816806793213,0.08230068534612656
1757491820959739400,2.573739501953125,9.31853199005127,2.241197347640991,0.029478607699275017
1757491820969741800,2.583741943359375,9.228151321411133,2.393453598022461,-0.07294833660125732
1757491820979825000,2.593824951171875,9.187973022460938,2.5371055603027344,-0.14933833479881287
1757491820989862100,2.603862060546875,9.136796951293945,2.609081268310547,-0.19153612852096558
1757491820999907000,2.613906982421875,9.136946678161621,2.6186580657958984,-0.21420623362064362
1757491821009949000,2.623948974609375,9.1847562789917,2.632873773574829,-0.2131587713956833
1757491821019955200,2.633955078125,9.307683944702148,2.69991135597229,-0.28244099020957947
1757491821030026800,2.64402685546875,9.55705451965332,2.7935097217559814,-0.44524669647216797
1757491821040069400,2.6540693359375,9.75869083404541,2.8895022869110107,-0.6090250611305237
1757491821050113000,2.664113037109375,9.670105934143066,2.8745384216308594,-0.694617748260498
1757491821060150000,2.67414990234375,9.513809204101562,2.8399720191955566,-0.6607248783111572
1757491821070170400,2.68417041015625,9.297957420349121,2.811241626739502,-0.578798234462738
1757491821080236000,2.694236083984375,9.16657543182373,2.7682957649230957,-0.555828869342804
1757491821090252000,2.704251953125,9.162909507751465,2.7626094818115234,-0.6059575080871582
1757491821100318200,2.714318115234375,9.29997730255127,2.8324153423309326,-0.7707833051681519
1757491821110324500,2.724324462890625,9.403825759887695,2.921300172805786,-0.901940643787384
1757491821120375000,2.734375,9.398064613342285,3.0194623470306396,-0.9597007632255554
1757491821130437400,2.744437255859375,9.310976028442383,3.0847043991088867,-1.08651864528656
1757491821140478700,2.754478759765625,9.253140449523926,3.339761734008789,-1.2205939292907715
1757491821150521000,2.76452099609375,9.480889320373535,3.2746694087982178,-1.1636568307876587
1757491821160561000,2.774560791015625,9.38976001739502,3.0060698986053467,-0.9036614894866943
1757491821170627600,2.784627685546875,9.110311508178711,2.764105796813965,-0.6569839119911194
1757491821180647000,2.79464697265625,9.044919967651367,2.7708394527435303,-0.5564274191856384
1757491821190674200,2.804674072265625,9.069385528564453,2.652850389480591,-0.6062567830085754
1757491821200729000,2.81472900390625,9.401955604553223,2.6314520835876465,-0.7225251793861389
1757491821210770000,2.82477001953125,9.601122856140137,2.6711061000823975,-0.8293664455413818
1757491821220796200,2.834796142578125,9.599102973937988,2.7846810817718506,-0.8595932126045227
1757491821230820000,2.844820068359375,9.50041675567627,2.853813648223877,-0.79899001121521
1757491821240893700,2.854893798828125,9.418415069580078,2.755352020263672,-0.6991068720817566
1757491821250934500,2.8649345703125,9.383475303649902,2.635791540145874,-0.6567594408988953
1757491821260950300,2.8749501953125,9.428590774536133,2.604966163635254,-0.7156418561935425
1757491821271016700,2.8850166015625,9.441609382629395,2.6063129901885986,-0.7514800429344177
1757491821281053700,2.8950537109375,9.512088775634766,2.614318609237671,-0.7088333368301392
1757491821291073300,2.9050732421875,9.500117301940918,2.5543887615203857,-0.6435165405273438
1757491821301140000,2.915139892578125,9.523835182189941,2.4980502128601074,-0.6177788376808167
1757491821311180800,2.925180908203125,9.45343017578125,2.501865863800049,-0.6365583539009094
1757491821321222100,2.93522216796875,9.427019119262695,2.637437582015991,-0.7321019768714905
1757491821331263000,2.945262939453125,9.410484313964844,2.7683706283569336,-0.8839093446731567
1757491821341279000,2.955279052734375,9.515305519104004,2.862492561340332,-1.1188403367996216
1757491821351340800,2.9653408203125,9.734674453735352,2.9239187240600586,-1.2972084283828735
1757491821361360100,2.975360107421875,9.88618278503418,2.9321489334106445,-1.3157634735107422
1757491821371425000,2.985425048828125,9.942521095275879,2.963871955871582,-1.2215665578842163
1757491821381462000,2.9954619140625,9.900996208190918,2.9502551555633545,-1.110460638999939
1757491821391507000,3.0055068359375,9.80448055267334,2.8995277881622314,-0.9623942375183105
1757491821401535700,3.01553564453125,9.592219352722168,2.8324153423309326,-0.8699930310249329
1757491821411560200,3.025560302734375,9.420136451721191,2.727369785308838,-0.826972246170044
1757491821421632500,3.035632568359375,9.210044860839844,2.689361810684204,-0.7987655401229858
1757491821431648300,3.045648193359375,9.048062324523926,2.715548515319824,-0.7322516441345215
1757491821441714700,3.055714599609375,9.1115083694458,2.7667245864868164,-0.7202057838439941
1757491821451756300,3.06575634765625,9.266458511352539,2.7823617458343506,-0.790086567401886
1757491821461775600,3.075775634765625,9.363049507141113,2.79089093208313,-0.8596680760383606
1757491821471839000,3.0858388671875,9.418116569519043,2.901024341583252,-0.9308207035064697
1757491821491920100,3.105920166015625,9.397690773010254,2.9741222858428955,-0.9409212470054626
1757491821501957600,3.11595751953125,9.291373252868652,2.9456162452697754,-0.9430161714553833
1757491821511978200,3.125978271484375,9.251943588256836,2.9217491149902344,-0.9238625764846802
1757491821522043400,3.13604345703125,9.252093315124512,2.9227216243743896,-0.8785223960876465
1757491821532062000,3.14606201171875,9.228001594543457,2.8400468826293945,-0.8252514004707336
1757491821542122500,3.15612255859375,9.223362922668457,2.8627171516418457,-0.8096142411231995
1757491821552166700,3.166166748046875,9.404424667358398,2.7740566730499268,-0.7990648150444031
1757491821562182400,3.176182373046875,9.313070297241211,2.632349967956543,-0.8628852367401123
1757491821572243500,3.186243408203125,9.217002868652344,2.8069770336151123,-0.897002637386322
1757491821582267400,3.196267333984375,9.175628662109375,2.960355520248413,-0.9924713969230652
1757491821592305700,3.2063056640625,9.178321838378906,3.1064767837524414,-1.0905588865280151
1757491821602368800,3.21636865234375,9.116446495056152,3.1699979305267334,-1.1100865602493286
1757491821612407800,3.22640771484375,9.06646728515625,3.1961843967437744,-1.093027949333191
1757491821622409000,3.236408935546875,8.99628734588623,3.3114054203033447,-1.1813888549804688
1757491821632469500,3.246469482421875,9.242740631103516,3.18825364112854,-1.226354956626892
1757491821642530300,3.2565302734375,9.304166793823242,2.9658920764923096,-1.2054805755615234
1757491821652577500,3.26657763671875,9.232490539550781,2.874688148498535,-1.083974838256836
1757491821662614500,3.276614501953125,9.223287582397461,2.914940595626831,-1.0073603391647339
1757491821672637200,3.28663720703125,9.12041187286377,2.879476547241211,-1.0512042045593262
1757491821682702300,3.296702392578125,9.242292404174805,2.965667724609375,-1.1371710300445557
1757491821692764700,3.3067646484375,9.267206192016602,2.9804069995880127,-1.227851390838623
1757491821702783200,3.316783203125,9.31149959564209,3.044975757598877,-1.2574796676635742
1757491821712823800,3.32682373046875,9.247005462646484,3.022305488586426,-1.24416184425354
1757491821722839300,3.33683935546875,9.18281078338623,3.073556423187256,-1.2125135660171509
1757491821732902100,3.346902099609375,9.176825523376465,3.068917751312256,-1.2268038988113403
1757491821742940400,3.3569404296875,9.197026252746582,3.04138445854187,-1.2176011800765991
1757491821752989200,3.3669892578125,8.892963409423828,2.744353771209717,-1.1895442008972168
1757491821762994000,3.376993896484375,8.69566535949707,2.898181200027466,-1.0956465005874634
1757491821773070300,3.3870703125,9.351377487182617,3.279682159423828,-1.4088380336761475
1757491821783114200,3.3971142578125,9.82535457611084,3.562272787094116,-1.7158195972442627
1757491821793127200,3.407127197265625,10.387094497680664,3.5354127883911133,-1.7639280557632446
1757491821803189500,3.417189453125,10.719215393066406,3.1367034912109375,-1.6619501113891602
1757491821813189600,3.427189697265625,10.911125183105469,2.8057799339294434,-1.1901427507400513
1757491821823276000,3.437276123046875,10.572569847106934,2.34841251373291,-0.8301146030426025
1757491821833291300,3.447291259765625,9.469740867614746,2.390460729598999,-0.5514145493507385
1757491821843332600,3.45733251953125,8.725443840026855,2.410362482070923,-0.5036801695823669
1757491821853404000,3.46740380859375,8.745719909667969,2.4777743816375732,-0.6214450001716614
1757491821863415000,3.4774150390625,9.152284622192383,2.5440638065338135,-0.8723124265670776
1757491821873477600,3.4874775390625,9.410933494567871,2.4815900325775146,-0.8679729104042053
1757491821883520300,3.497520263671875,9.617733001708984,2.1663784980773926,-0.6645405888557434
1757491821893544200,3.507544189453125,9.241244316101074,1.795127511024475,-0.33361703157424927
1757491821903604200,3.517604248046875,9.015067100524902,1.164030909538269,0.37319618463516235
1757491821913641000,3.527640869140625,8.336610794067383,1.438765525817871,-0.45347675681114197
1757491821923682800,3.537682861328125,8.98237133026123,1.609277606010437,1.6519991159439087
1757491821933727700,3.547727783203125,9.102156639099121,1.6649428606033325,1.216254472732544
1757491821943739100,3.5577392578125,6.716783046722412,2.514585256576538,-0.955436110496521
1757491821953810000,3.567809814453125,8.440383911132812,3.9782652854919434,-1.922544002532959
1757491821963829200,3.577829345703125,9.851765632629395,4.508880138397217,-2.1856815814971924
1757491821973891800,3.587891845703125,8.839616775512695,5.705681800842285,-2.703951597213745
1757491821983933200,3.59793310546875,9.098265647888184,5.945925235748291,-2.099714994430542
1757491821993995000,3.6079951171875,9.871967315673828,5.378798484802246,-2.5712978839874268
1757491822004012800,3.6180126953125,9.917531967163086,4.771269798278809,-3.130493640899658
1757491822014056400,3.628056396484375,9.34269905090332,4.259284973144531,-3.273247718811035
1757491822024097300,3.63809716796875,9.535805702209473,3.581725835800171,-2.2155344486236572
1757491822034114300,3.6481142578125,9.86074447631836,3.0556747913360596,-1.6787842512130737
1757491822044179500,3.658179443359375,9.743353843688965,2.917783737182617,-1.002571940422058
1757491822054220800,3.668220703125,9.82999324798584,3.3044471740722656,-0.7306804060935974
1757491822064263700,3.678263671875,10.409989356994629,3.2166099548339844,-0.5107879638671875
1757491822074303000,3.688302978515625,10.885163307189941,2.5965864658355713,0.15105916559696198
1757491822084318500,3.698318359375,10.658462524414062,2.99821400642395,-1.101706862449646
1757491822094386000,3.708385986328125,10.1097412109375,2.872443437576294,-0.8601917624473572
1757491822104422100,3.718422119140625,9.481412887573242,2.5429415702819824,-0.6828712224960327
1757491822114433500,3.72843359375,8.928726196289062,2.3144447803497314,-0.4264671802520752
1757491822124488000,3.738488037109375,8.541688919067383,2.1944355964660645,0.042272623628377914
1757491822134548500,3.748548583984375,8.646360397338867,2.3127241134643555,0.25258827209472656
1757491822144590300,3.75859033203125,8.834155082702637,2.3401825428009033,0.43335050344467163
1757491822154632000,3.7686318359375,8.234482765197754,2.553116798400879,0.27884969115257263
1757491822164649700,3.778649658203125,7.710002899169922,2.9198038578033447,-0.08858546614646912
1757491822174709500,3.78870947265625,8.31790542602539,2.9095535278320312,-0.3587561547756195
1757491822184755000,3.7987548828125,9.515305519104004,2.441786527633667,0.21607670187950134
1757491822194795800,3.808795654296875,10.034099578857422,1.8555063009262085,0.553359866142273
1757491822204836900,3.8188369140625,9.334842681884766,1.4573954343795776,0.33189621567726135
1757491822214852600,3.8288525390625,8.892813682556152,1.6495301723480225,-0.2613420784473419
1757491822224919000,3.8389189453125,7.597550392150879,1.8057518005371094,-0.3390040099620819
1757491822234937000,3.84893701171875,7.870938301086426,2.411410093307495,-0.7205050587654114
1757491822244997400,3.858997314453125,8.139238357543945,2.36188006401062,-0.6922235488891602
1757491822255016700,3.8690166015625,8.439560890197754,2.3878421783447266,-1.4607622623443604
1757491822265058300,3.879058349609375,9.429563522338867,2.636390209197998,-2.5340380668640137
1757491822275124700,3.889124755859375,10.685023307800293,2.4414870738983154,-2.598457098007202
1757491822285140500,3.899140380859375,11.508553504943848,2.066345691680908,-2.2789807319641113
1757491822295207000,3.90920703125,10.95616626739502,1.7768718004226685,-1.7640777826309204
1757491822305248000,3.919248046875,10.011054992675781,2.9193549156188965,-2.6791865825653076
1757491822315274000,3.92927392578125,9.243189811706543,4.184765338897705,-2.899827241897583
1757491822325329700,3.93932958984375,9.266234397888184,4.1041107177734375,-2.018611192703247
1757491822335348000,3.949347900390625,9.537751197814941,3.0457239151000977,-1.0138696432113647
1757491822345410600,3.95941064453125,9.491962432861328,1.2297219038009644,-1.0187327861785889
1757491822355449300,3.969449462890625,9.492486000061035,0.16415245831012726,-0.6631190776824951
1757491822365493500,3.979493408203125,10.675820350646973,0.3191021978855133,-1.908552885055542
1757491822375532800,3.98953271484375,11.118448257446289,0.8755296468734741,-2.299481153488159
1757491822385575000,3.999574951171875,11.201123237609863,1.5074492692947388,-2.636914014816284
1757491822395617800,4.00961767578125,10.949881553649902,1.9432687759399414,-2.5552117824554443
1757491822405613800,4.01961376953125,9.589900016784668,2.422632932662964,-2.7664999961853027
1757491822415700000,4.029699951171875,9.45447826385498,2.7765257358551025,-3.067720651626587
1757491822425741000,4.039740966796875,10.478747367858887,1.4829087257385254,-2.2828712463378906
1757491822435756500,4.049756591796875,11.375600814819336,0.6606500148773193,-1.6433950662612915
1757491822445823000,4.059822998046875,11.45490837097168,1.199569821357727,-1.7607108354568481
1757491822455869200,4.069869140625,10.32521915435791,1.4879963397979736,-1.0745476484298706
1757491822465905200,4.0799052734375,9.57396411895752,1.3028945922851562,-0.5901707410812378
1757491822475942400,4.0899423828125,8.447267532348633,1.3710545301437378,0.22093991935253143
1757491822485948400,4.099948486328125,7.714192867279053,1.9757400751113892,0.0769137293100357
1757491822496029200,4.110029296875,7.328426837921143,2.521019458770752,-0.4653729498386383
1757491822506053600,4.1200537109375,7.016881465911865,2.8202199935913086,-1.0251672267913818
1757491822516109800,4.13010986328125,7.611840724945068,2.5894787311553955,-1.37674081325531
1757491822526169900,4.140169921875,9.877952575683594,1.9363853931427002,-1.8308161497116089
1757491822536188700,4.150188720703125,10.324172019958496,1.9697545766830444,-2.4471733570098877
1757491822546230800,4.160230712890625,9.763778686523438,1.9096002578735352,-2.1764791011810303
1757491822556249300,4.170249267578125,8.809016227722168,1.966761827468872,-1.8709938526153564
1757491822566317300,4.1803173828125,9.220294952392578,2.931325912475586,-1.9475334882736206
1757491822576331800,4.190331787109375,9.690156936645508,2.3738510608673096,-1.112181544303894
1757491822586402800,4.20040283203125,7.799785614013672,1.679532527923584,-0.1844283491373062
1757491822596425500,4.210425537109375,7.713519096374512,1.7841291427612305,-0.5568763613700867
1757491822606456600,4.22045654296875,8.386289596557617,2.016291856765747,-1.1407623291015625
1757491822616517600,4.230517578125,8.550442695617676,1.7466449737548828,-1.4739304780960083
1757491822626564600,4.240564697265625,8.760458946228027,1.298929214477539,-1.8048540353775024
1757491822636604000,4.25060400390625,9.175029754638672,1.2626421451568604,-2.064774513244629
1757491822646645000,4.26064501953125,10.308384895324707,1.2478280067443848,-2.062978744506836
1757491822656681700,4.270681640625,11.055376052856445,0.9816226959228516,-1.5467290878295898
1757491822666726700,4.2807265625,11.646818161010742,0.6432172656059265,-1.1150245666503906
1757491822676742700,4.29074267578125,10.92870807647705,0.8603414297103882,-0.8739584684371948
1757491822686805200,4.30080517578125,10.210597038269043,1.067290186882019,-0.4611082971096039
1757491822696850400,4.310850341796875,9.897106170654297,1.7056442499160767,-0.2775777578353882
1757491822706889700,4.3208896484375,9.235857963562012,2.2001216411590576,-0.11125556379556656
1757491822716932400,4.330932373046875,8.203956604003906,2.4001123905181885,-0.4272901713848114
1757491822726943700,4.34094384765625,8.227599143981934,2.5172038078308105,-0.7070376873016357
1757491822737015600,4.351015625,8.50517749786377,2.532167673110962,-0.9158569574356079
1757491822747012000,4.36101220703125,9.159018516540527,2.479495048522949,-0.8309376239776611
1757491822757093000,4.371093017578125,9.874810218811035,2.4483704566955566,-0.7808090448379517
1757491822767138000,4.381137939453125,9.950002670288086,2.324545383453369,-0.6304232478141785
1757491822777153300,4.3911533203125,9.514108657836914,2.525733232498169,-0.6246621608734131
1757491822787220000,4.401219970703125,9.639056205749512,2.5823709964752197,-0.2859574556350708
1757491822797261800,4.41126171875,9.786972999572754,2.7600655555725098,-0.03486556187272072
1757491822807302100,4.42130224609375,9.413103103637695,2.9034934043884277,0.05850830301642418
1757491822817339600,4.431339599609375,9.094749450683594,2.993724822998047,0.005686229094862938
1757491822827385300,4.44138525390625,8.902240753173828,2.9034934043884277,-0.05132569745182991
1757491822837423000,4.451423095703125,8.745345115661621,2.832789421081543,-0.19063830375671387
1757491822847462100,4.461462158203125,9.158644676208496,2.6587610244750977,-0.11020809412002563
1757491822857504300,4.471504150390625,9.457844734191895,2.524012327194214,0.010399813763797283
1757491822867529500,4.481529541015625,9.727492332458496,2.3961470127105713,0.2016366720199585
1757491822877586000,4.4915859375,10.215983390808105,2.4182932376861572,0.41546881198883057
1757491822887607300,4.501607177734375,10.201543807983398,2.5867104530334473,0.6649147272109985
1757491822897646000,4.51164599609375,9.786972999572754,2.6822540760040283,0.7820061445236206
1757491822907713300,4.52171337890625,9.294440269470215,2.758344888687134,0.7526023387908936
1757491822917728800,4.531728759765625,9.122956275939941,2.7771244049072266,0.8585457801818848
1757491822927795700,4.541795654296875,9.20555591583252,2.6697592735290527,1.05068039894104
1757491822937836800,4.5518369140625,9.429339408874512,2.4996213912963867,1.1010334491729736
1757491822947851800,4.561851806640625,9.672125816345215,2.3766942024230957,1.0179097652435303
1757491822957918700,4.571918701171875,9.81832218170166,2.321103811264038,0.8605659008026123
1757491822967943700,4.581943603515625,9.651999473571777,2.311676502227783,0.6357353925704956
1757491822978001000,4.5920009765625,9.531242370605469,2.3943512439727783,0.3660135865211487
1757491822988038400,4.602038330078125,9.730783462524414,2.5341129302978516,0.2908206880092621
1757491822998057500,4.612057373046875,9.823184967041016,2.6266636848449707,0.39122751355171204
1757491823008120300,4.622120361328125,9.79991626739502,2.628384590148926,0.5094412565231323
1757491823018165500,4.63216552734375,10.024297714233398,2.5230395793914795,0.7451952695846558
1757491823028206000,4.6422060546875,10.195483207702637,2.489071846008301,1.0520272254943848
1757491823038247700,4.65224755859375,10.522815704345703,2.49603009223938,1.2510452270507812
1757491823048288800,4.662288818359375,9.915511131286621,2.6619033813476562,0.9590274095535278
1757491823058329900,4.672329833984375,8.821511268615723,2.414402723312378,0.8491185903549194
1757491823068361000,4.68236083984375,8.450783729553223,2.1064486503601074,0.9454103708267212
1757491823078407700,4.69240771484375,8.526275634765625,2.3977181911468506,1.1749545335769653
1757491823088452000,4.7024521484375,8.972046852111816,2.6582372188568115,1.2856115102767944
1757491823098490000,4.712489990234375,9.268178939819336,2.4781484603881836,1.156549096107483
1757491823108532700,4.72253271484375,9.708039283752441,2.3627777099609375,1.1763759851455688
1757491823118550800,4.73255078125,10.283170700073242,2.271573781967163,1.3521254062652588
1757491823128615400,4.742615478515625,10.712780952453613,2.066495418548584,1.1661258935928345
1757491823138654000,4.752654052734375,10.637513160705566,2.1342811584472656,1.0034698247909546
1757491823148697900,4.76269775390625,10.356792449951172,1.9611504077911377,0.5895721912384033
1757491823158716000,4.7727158203125,9.680805206298828,2.5276036262512207,0.42945992946624756
1757491823168777700,4.78277783203125,8.858097076416016,2.231919765472412,0.10429741442203522
1757491823178818300,4.792818359375,8.532261848449707,3.027991771697998,1.503783106803894
1757491823188838000,4.802837890625,8.452055931091309,2.919579267501831,0.9926958680152893
1757491823198886400,4.812886474609375,9.922245025634766,2.6557681560516357,1.0425251722335815
1757491823208971000,4.822970947265625,9.989806175231934,2.5293993949890137,0.48407766222953796
1757491823218984200,4.832984130859375,9.770886421203613,2.6321253776550293,0.03000234067440033
1757491823229026600,4.843026611328125,10.245911598205566,2.477325439453125,-0.1892915666103363
1757491823239068700,4.853068603515625,10.865710258483887,2.3104794025421143,-0.20043957233428955
1757491823249109000,4.86310888671875,11.285892486572266,2.1972784996032715,-0.3355623185634613
1757491823259107800,4.87310791015625,11.364602088928223,2.1368250846862793,-0.21458032727241516
1757491823269213400,4.88321337890625,11.443012237548828,2.18306303024292,0.08125322312116623
1757491823279215400,4.89321533203125,11.324723243713379,2.2530934810638428,0.4629787504673004
1757491823289250300,4.903250244140625,10.747346878051758,2.383427858352661,0.8304887413978577
1757491823299290400,4.913290283203125,10.248455047607422,2.428842782974243,1.2161048650741577
1757491823309357000,4.923357177734375,10.029984474182129,2.330381155014038,1.9074305295944214
1757491823319402800,4.93340283203125,9.650876998901367,1.6469115018844604,2.603843927383423
1757491823329409500,4.943409423828125,9.384672164916992,2.4379706382751465,2.779817819595337
1757491823339443700,4.953443603515625,9.694870948791504,2.7857284545898438,3.8773348331451416
1757491823349502200,4.963502197265625,10.413430213928223,1.2898013591766357,4.8675618171691895
1757491823369603800,4.983603759765625,10.024147987365723,1.2981061935424805,5.248838424682617
1757491823389685500,5.003685546875,8.935609817504883,-0.07175122946500778,5.623007297515869
1757491823399723000,5.013722900390625,9.63755989074707,-1.5541361570358276,7.779210090637207
1757491823409768200,5.023768310546875,8.817545890808105,-0.7597849369049072,7.957802772521973
1757491823419809500,5.0338095703125,7.837120056152344,-0.5013607740402222,7.641842842102051
1757491823429842000,5.043842041015625,7.394641399383545,-1.5060276985168457,7.137189865112305
1757491823439891000,5.053890869140625,6.307150363922119,-1.3223475217819214,6.006228923797607
1757491823449906700,5.06390673828125,5.172373294830322,-1.153930425643921,5.07952356338501
1757491823459969300,5.07396923828125,5.3925652503967285,-1.6193033456802368,4.466757297515869
1757491823470014700,5.0840146484375,6.323685169219971,-1.7058687210083008,4.306719779968262
1757491823480043300,5.094043212890625,6.754117965698242,-1.6444424390792847,4.079644680023193
1757491823490097000,5.104096923828125,6.481852054595947,-2.0043208599090576,4.494889259338379
1757491823510178600,5.124178466796875,5.489231109619141,-1.9045875072479248,4.895169734954834
1757491823520195600,5.134195556640625,5.62727165222168,-1.7664719820022583,3.9396588802337646
1757491823530235400,5.1442353515625,5.796736240386963,-1.609576940536499,2.5604491233825684
1757491823540302300,5.15430224609375,5.752817630767822,-1.6909797191619873,1.1222072839736938
1757491823550362600,5.164362548828125,5.497012138366699,-1.7668460607528687,-0.6646902561187744
1757491823560384800,5.174384765625,3.6896891593933105,-2.041356325149536,-2.3848493099212646
1757491823570423600,5.184423583984375,2.9576621055603027,-3.190498113632202,-1.8056769371032715
1757491823580441000,5.194441162109375,4.814889430999756,-3.2888848781585693,-1.2565070390701294
1757491823590504000,5.20450390625,6.227019309997559,-3.231498956680298,-0.4464437961578369
1757491823600547300,5.21454736328125,5.922955513000488,-3.9328503608703613,0.2256535142660141
1757491823610590000,5.22458984375,5.691616058349609,-4.040589332580566,1.606658935546875
1757491823620631600,5.234631591796875,5.10039758682251,-4.063259601593018,3.0173676013946533
1757491823630651000,5.24465087890625,4.470797538757324,-4.297891139984131,3.567584991455078
1757491823640713200,5.254713134765625,5.372289180755615,-4.367921829223633,3.463886022567749
1757491823650750500,5.26475048828125,7.077484607696533,-5.120150089263916,3.7015106678009033
1757491823660791600,5.27479150390625,8.510937690734863,-5.753117084503174,5.037849426269531
1757491823670836200,5.284836181640625,9.369483947753906,-5.5126495361328125,8.910096168518066
1757491823680852700,5.294852783203125,8.49365520477295,-5.026177406311035,12.545093536376953
1757491823690918700,5.304918701171875,7.265130043029785,-4.9333271980285645,16.454675674438477
1757491823700975900,5.314975830078125,7.18088436126709,-4.402936935424805,19.1602725982666
1757491823711000800,5.325000732421875,7.571588039398193,-3.3028759956359863,20.948591232299805
1757491823721037800,5.335037841796875,7.769259452819824,-2.124779224395752,20.48666000366211
1757491823731080200,5.345080078125,9.276185035705566,-1.0414776802062988,18.719663619995117
1757491823741124400,5.355124267578125,9.428366661071777,-0.28535890579223633,16.62384033203125
1757491823751165400,5.36516552734375,8.802581787109375,0.2347813993692398,14.915502548217773
1757491823761206500,5.37520654296875,8.071601867675781,-0.8302642703056335,14.6300687789917
1757491823771209500,5.38520947265625,6.310891151428223,-1.514931082725525,14.757784843444824
1757491823781284600,5.39528466796875,3.309011220932007,-1.6598551273345947,15.496246337890625
1757491823791351000,5.40535107421875,-0.13706804811954498,-1.0856956243515015,16.549545288085938
1757491823801345000,5.415344970703125,-4.439448356628418,0.8535329103469849,18.284143447875977
1757491823811411000,5.425410888671875,-10.826953887939453,1.1134533882141113,19.803638458251953
1757491823821449000,5.435448974609375,-21.18269920349121,0.20477905869483948,19.135581970214844
1757491823831482400,5.445482421875,-33.296688079833984,2.5429415702819824,13.729175567626953
1757491823841526500,5.455526611328125,-20.67325782775879,-3.7211132049560547,8.299201011657715
1757491823851577000,5.4655771484375,-7.6577043533325195,-11.894693374633789,0.8175450563430786
1757491823861591800,5.475591796875,-3.350984573364258,-12.602778434753418,0.7928548455238342
1757491823871658500,5.485658447265625,-3.0294880867004395,-5.2748003005981445,5.614926815032959
1757491823881699600,5.495699462890625,-5.122469425201416,-3.9858968257904053,8.355239868164062
1757491823891736600,5.505736572265625,-2.710386037826538,-5.390694618225098,10.488473892211914
1757491823901740800,5.51574072265625,-2.653373956680298,-2.2723968029022217,11.318214416503906
1757491823911799300,5.52579931640625,-3.0986955165863037,-0.7740005254745483,13.708600044250488
1757491823931880000,5.5458798828125,-2.8237364292144775,-0.4660463333129883,15.137788772583008
1757491823941945300,5.5559453125,-1.43764328956604,-0.7978677153587341,14.463297843933105
1757491823992151600,5.606151611328125,1.502586007118225,0.5460276007652283,12.953903198242188
1757491824002192600,5.616192626953125,2.1058499813079834,-0.559869110584259,10.086921691894531
1757491824022274800,5.63627490234375,5.680542945861816,-0.5354781746864319,16.369905471801758
1757491824032290300,5.646290283203125,3.658639430999756,-0.11888708174228668,13.026552200317383
1757491824042352600,5.6563525390625,1.6698808670043945,-6.476913928985596,9.104101181030273
1757491824052374800,5.666374755859375,1.4246996641159058,-6.823025703430176,5.419126033782959
1757491824062413800,5.676413818359375,10.035895347595215,8.567276954650879,11.45146656036377
1757491824072454700,5.68645458984375,5.834744453430176,-7.9717936515808105,16.554258346557617
1757491824092537000,5.706537109375,3.498302698135376,-1.4980220794677734,8.84739875793457
1757491824112619000,5.726618896484375,1.4412345886230469,-1.7143232822418213,7.9951372146606445
1757491824122666000,5.736666015625,-0.13213001191616058,-3.8501007556915283,6.658798694610596
1757491824132690000,5.74668994140625,0.9594763517379761,-3.1174750328063965,2.7338790893554688
1757491824142731000,5.75673095703125,0.28378772735595703,-4.623727321624756,0.580145001411438
1757491824152792600,5.76679248046875,-1.2195464372634888,-7.9823431968688965,-0.004638765938580036
1757491824162813200,5.776813232421875,-3.8283286094665527,-8.89909839630127,3.448772668838501
1757491824172880000,5.7868798828125,-6.895076274871826,-10.939107894897461,7.704616069793701
1757491824182913800,5.796913818359375,-5.913378715515137,-13.369521141052246,10.029685020446777
1757491824192973300,5.806973388671875,-5.571232318878174,-13.636849403381348,10.895039558410645
1757491824202988300,5.81698828125,-3.925518035888672,-10.753631591796875,10.233790397644043
1757491824213029600,5.827029541015625,-1.7969231605529785,-8.501136779785156,9.20443344116211
1757491824223097900,5.837097900390625,-0.43200376629829407,-5.962759494781494,8.328530311584473
1757491824233118000,5.847117919921875,0.5029320120811462,-4.884620189666748,8.56765079498291
1757491824243168300,5.857168212890625,1.829843521118164,-4.540079593658447,9.776199340820312
1757491824253195500,5.867195556640625,3.1518917083740234,-1.9218705892562866,9.932046890258789
1757491824263256800,5.8772568359375,3.2537949085235596,-1.3555670976638794,10.325592994689941
1757491824273302300,5.88730224609375,3.113060712814331,-2.345644235610962,10.918682098388672
1757491824283344000,5.89734375,1.8400936126708984,-2.751236915588379,12.709395408630371
1757491824293359600,5.907359619140625,2.077418804168701,-2.373701333999634,14.632088661193848
1757491824303422500,5.91742236328125,1.344643473625183,-1.543137788772583,13.707926750183105
1757491824313463800,5.9274638671875,1.3424737453460693,-1.8958336114883423,11.579107284545898
1757491824323505200,5.937505126953125,1.3440449237823486,-3.015122890472412,9.688586235046387
1757491824333523500,5.9475234375,0.7228992581367493,-4.364854335784912,8.224157333374023
1757491824343591000,5.9575908203125,1.2905495166778564,-4.6268696784973145,7.423820972442627
1757491824353632000,5.967632080078125,1.1496657133102417,-6.06780481338501,6.42080020904541
1757491824363668700,5.977668701171875,1.125948190689087,-7.343390941619873,5.259612083435059
1757491824373713700,5.987713623046875,0.7499836683273315,-8.133103370666504,5.185616493225098
1757491824383755300,5.99775537109375,0.5402665734291077,-8.687660217285156,5.117231845855713
1757491824393795600,6.007795654296875,0.6080524325370789,-9.7459716796875,5.669469833374023
1757491824403833300,6.017833251953125,0.6379799246788025,-10.2445650100708,6.55495023727417
1757491824413878300,6.027878173828125,0.6420949697494507,-10.482563018798828,6.639270782470703
1757491824423919600,6.037919677734375,2.239626169204712,-10.73993968963623,6.547767639160156
1757491824433960000,6.0479599609375,3.6542251110076904,-10.478897094726562,6.468983173370361
1757491824444001300,6.058001220703125,3.392808198928833,-10.420389175415039,6.301164627075195
1757491824454043100,6.068043212890625,2.0596868991851807,-9.685368537902832,7.523404598236084
1757491824464083700,6.078083740234375,0.8329577445983887,-8.498817443847656,7.6886796951293945
1757491824474124800,6.088124755859375,1.1212345361709595,-5.874697685241699,6.436437129974365
1757491824484166000,6.098165771484375,0.25258827209472656,-6.224325656890869,6.397606372833252
1757491824494206700,6.108206787109375,6.049175262451172,-10.6338472366333,5.677549839019775
1757491824504247600,6.11824755859375,4.798503875732422,-8.214356422424316,5.965752124786377
1757491824514289400,6.128289306640625,17.225383758544922,-11.142464637756348,6.339396953582764
1757491824524330500,6.13833056640625,18.835634231567383,-10.36060905456543,7.651045799255371
1757491824534371300,6.148371337890625,13.379622459411621,-10.99776554107666,9.944092750549316
1757491824544410400,6.158410400390625,-26.672754287719727,-3.14044451713562,9.727117538452148
1757491824554449700,6.16844970703125,-7.447089672088623,5.27300500869751,3.7207391262054443
1757491824564491500,6.178491455078125,7.522132873535156,-1.3075333833694458,4.564021587371826
1757491824574534000,6.188533935546875,6.981417179107666,-8.68294620513916,6.69950008392334
1757491824584576800,6.19857666015625,5.051690578460693,-7.007154941558838,5.901108741760254
1757491824594618000,6.2086181640625,7.079953670501709,-4.701389312744141,6.520533561706543
1757491824604659000,6.218658935546875,0.489165335893631,-2.552443504333496,7.2958807945251465
1757491824614696200,6.2286962890625,-2.045396327972412,-0.23994390666484833,7.116764545440674
1757491824624741400,6.238741455078125,-3.121216058731079,2.0605099201202393,6.779181957244873
1757491824634755800,6.248755859375,-1.9951930046081543,0.12360066175460815,5.985354423522949
1757491824644823300,6.2588232421875,-0.15330372750759125,-1.7450737953186035,3.954697370529175
1757491824654864600,6.26886474609375,1.3635727167129517,-2.282721757888794,2.8318917751312256
1757491824664879400,6.27887939453125,2.7146506309509277,-3.5388545989990234,2.9436709880828857
1757491824674946800,6.28894677734375,3.399167776107788,-5.577966213226318,3.4291701316833496
1757491824684983600,6.298983642578125,3.9244706630706787,-6.876147270202637,4.0779242515563965
1757491824695029000,6.309029052734375,4.129399299621582,-7.547496318817139,3.323002338409424
1757491824705065700,6.319065673828125,3.29965877532959,-8.820612907409668,2.389936923980713
1757491824715111000,6.32911083984375,3.1928176879882812,-8.639925956726074,4.575394153594971
1757491824725152300,6.33915234375,2.5245361328125,-8.05042839050293,6.328248977661133
1757491824735192600,6.349192626953125,3.612476348876953,-8.21069049835205,8.802955627441406
1757491824745235000,6.35923486328125,4.716427803039551,-8.60700511932373,10.193687438964844
1757491824755275800,6.36927587890625,4.548234939575195,-9.230320930480957,11.24519157409668
1757491824765314300,6.379314208984375,4.516137599945068,-8.046463012695312,12.123189926147461
1757491824775354000,6.38935400390625,3.9281368255615234,-8.881665229797363,13.180005073547363
1757491824785404200,6.399404052734375,2.0504841804504395,-8.282516479492188,12.303728103637695
1757491824795436300,6.409436279296875,1.364844560623169,-7.430405139923096,11.606191635131836
1757491824805477600,6.4194775390625,2.4874260425567627,-8.241291046142578,11.79361343383789
1757491824815521800,6.429521728515625,1.6979379653930664,-9.055095672607422,9.927931785583496
1757491824825560300,6.439560302734375,6.294580936431885,-10.135029792785645,7.689352989196777
1757491824835604200,6.449604248046875,6.000542640686035,-14.874950408935547,6.959570407867432
1757491824845641500,6.459641357421875,5.0400190353393555,-18.964696884155273,9.28374195098877
1757491824855687000,6.46968701171875,1.916184425354004,-15.4318265914917,8.750358581542969
1757491824865741600,6.479741455078125,0.1859995424747467,-10.014496803283691,8.504878044128418
1757491824875769000,6.48976904296875,1.1522095203399658,-6.560037612915039,7.683516979217529
1757491824885809700,6.4998095703125,1.045817255973816,-6.98396110534668,7.7277350425720215
1757491824895851300,6.509851318359375,-0.2917185127735138,-6.655731201171875,7.152602672576904
1757491824905891300,6.519891357421875,-1.4600141048431396,-5.690942764282227,6.503399848937988
1757491824915930400,6.529930419921875,-0.7411550879478455,-5.491775035858154,5.348721504211426
1757491824925974300,6.539974365234375,0.06673837453126907,-4.797605991363525,4.280383586883545
1757491824936015600,6.550015625,0.23029227554798126,-4.2445454597473145,3.4445080757141113
1757491824946061800,6.560061767578125,0.8260744214057922,-3.997044801712036,2.7059717178344727
1757491824956094000,6.570093994140625,0.32770636677742004,-4.188132286071777,2.601973533630371
1757491824966092300,6.58009228515625,-1.348833441734314,-4.426205635070801,3.447052001953125
1757491824976175600,6.590175537109375,-3.1390976905822754,-4.583624362945557,3.945943593978882
1757491824986216700,6.600216796875,-2.2328176498413086,-3.7410898208618164,4.004676342010498
1757491824996257800,6.6102578125,-0.5957821011543274,-3.112537145614624,4.1623945236206055
1757491825006301400,6.620301513671875,-0.979602575302124,-3.6575920581817627,4.650961399078369
1757491825016345000,6.630344970703125,-1.3020715713500977,-4.184391021728516,5.7538652420043945
1757491825026386700,6.64038671875,0.16400282084941864,-3.2917280197143555,6.404564380645752
1757491825036423400,6.65042333984375,-0.5348048210144043,-2.159121036529541,7.470283508300781
1757491825046463500,6.66046337890625,-2.878728151321411,-3.9280619621276855,9.537302017211914
1757491825056505600,6.670505615234375,-3.6076879501342773,-2.177227258682251,11.653851509094238
1757491825066547200,6.680547119140625,-4.071115493774414,-2.7988216876983643,10.203115463256836
1757491825076587000,6.6905869140625,-4.279485702514648,-3.8039376735687256,10.947936058044434
1757491825086632000,6.7006318359375,-5.868412971496582,-2.7382185459136963,9.295488357543945
1757491825096673500,6.710673583984375,-5.394286155700684,-2.377666711807251,9.39709186553955
1757491825106714000,6.720714111328125,-3.668440818786621,-3.3440263271331787,10.22383975982666
1757491825116751600,6.730751708984375,-2.97741436958313,-4.78930139541626,11.615469932556152
1757491825126796500,6.740796630859375,-4.032359600067139,-4.680065631866455,9.073426246643066
1757491825136837600,6.750837646484375,-6.842030048370361,-5.340117454528809,5.128604412078857
1757491825146874600,6.76087451171875,-7.706935405731201,-8.885331153869629,4.915445804595947
1757491825156919600,6.77091943359375,-5.761795997619629,-11.557933807373047,5.6676740646362305
1757491825166960000,6.780960205078125,-4.237138271331787,-9.748066902160645,6.521206855773926
1757491825177002500,6.79100244140625,-4.487856388092041,-6.7719244956970215,9.461212158203125
1757491825187039500,6.80103955078125,-5.554099082946777,-5.020865440368652,10.646191596984863
1757491825197084400,6.81108447265625,-6.9870285987854,-4.943652629852295,12.146159172058105
1757491825207124700,6.821124755859375,-6.7626471519470215,-4.415207386016846,12.421941757202148
1757491825217166600,6.83116650390625,-4.210951805114746,-4.844143390655518,12.472818374633789
1757491825227207200,6.841207275390625,-0.46155720949172974,-5.654131889343262,11.958364486694336
1757491825237248000,6.851248046875,0.30024784803390503,-5.6227827072143555,9.921647071838379
1757491825247286000,6.8612861328125,-0.41606736183166504,-6.174346923828125,8.385466575622559
1757491825257331000,6.8713310546875,-2.7414357662200928,-6.226121425628662,6.4747443199157715
1757491825267372300,6.881372314453125,-5.076755046844482,-6.3202433586120605,6.38114595413208
1757491825277411600,6.89141162109375,-6.263082027435303,-6.042815685272217,5.157035827636719
1757491825287450000,6.9014501953125,-5.039570331573486,-5.801524639129639,2.7819128036499023
1757491825297492700,6.91149267578125,-2.145728349685669,-9.84383487701416,6.522852897644043
1757491825307532300,6.9215322265625,-0.3744681179523468,-11.233220100402832,8.632967948913574
1757491825317573600,6.93157373046875,-1.4692916870117188,-7.962291717529297,7.847370147705078
1757491825327618600,6.94161865234375,-2.069488048553467,-6.650344371795654,7.841085433959961
1757491825337659400,6.951659423828125,-2.322824478149414,-5.3948845863342285,5.561954975128174
1757491825347700200,6.9617001953125,-1.9756653308868408,-5.078924655914307,5.558887481689453
1757491825357742000,6.9717421875,-2.159644842147827,-6.655880928039551,7.537171363830566
1757491825367782400,6.981782470703125,-2.4963293075561523,-6.8821330070495605,7.2568254470825195
1757491825377820200,6.991820068359375,-2.1850082874298096,-6.1839985847473145,7.734992504119873
1757491825387865600,7.001865478515625,-1.7912369966506958,-4.033331871032715,8.066215515136719
1757491825397906700,7.01190673828125,-1.0962450504302979,-0.9020155072212219,6.498162746429443
1757491825407947800,7.02194775390625,-0.12988543510437012,-2.0230255126953125,4.427701950073242
1757491825417988900,7.03198876953125,1.396941900253296,-3.542146682739258,4.532073974609375
1757491825428030200,7.0420302734375,0.522908627986908,-5.597568988800049,5.389871597290039
1757491825438066700,7.052066650390625,-1.5304186344146729,-6.557643413543701,5.275997638702393
1757491825448108000,7.06210791015625,-2.1954829692840576,-6.362067222595215,5.273229122161865
1757491825458153200,7.0721533203125,-1.8724154233932495,-5.8308539390563965,5.947122097015381
1757491825468172000,7.082172119140625,-1.1853543519973755,-4.787580490112305,5.813720226287842
1757491825478235400,7.0922353515625,-0.5674257874488831,-3.9658455848693848,6.074164390563965
1757491825488276500,7.1022763671875,-0.7122750282287598,-3.510498285293579,6.777162075042725
1757491825498313200,7.112313232421875,-0.4588637053966522,-2.8844892978668213,7.128660678863525
1757491825508354800,7.122354736328125,-0.9473556876182556,-2.7252748012542725,7.190461158752441
1757491825518396400,7.132396484375,-1.5704467296600342,-3.86543869972229,7.843180179595947
1757491825528437000,7.14243701171875,-1.3263877630233765,-4.1017165184021,8.000374794006348
1757491825538477600,7.1524775390625,-1.6070330142974854,-3.6327521800994873,7.6384758949279785
1757491825548520200,7.162520263671875,-1.7071406841278076,-4.162768363952637,6.897919654846191
1757491825558561300,7.172561279296875,-1.3241431713104248,-4.7847371101379395,6.261884689331055
1757491825568600600,7.1826005859375,-1.0912322998046875,-5.0125603675842285,5.647099018096924
1757491825578646300,7.192646240234375,-1.1354501247406006,-5.125162601470947,5.242029666900635
1757491825588685600,7.202685546875,-1.1190648078918457,-5.06298828125,4.969090938568115
1757491825598702800,7.212702880859375,-1.425148606300354,-5.277942657470703,5.574075698852539
1757491825608767500,7.222767578125,-2.631152868270874,-7.437063694000244,6.495993137359619
1757491825618806800,7.232806884765625,0.45923781394958496,-8.378658294677734,5.976451396942139
1757491825628847600,7.24284765625,7.622988700866699,-7.717484951019287,7.3963623046875
1757491825638890500,7.252890380859375,2.453981876373291,-6.478559970855713,9.525257110595703
1757491825648933400,7.262933349609375,0.4961234927177429,-7.536123752593994,13.510479927062988
1757491825658976800,7.272976806640625,1.4010568857192993,-7.0417962074279785,13.182549476623535
1757491825669015800,7.283015869140625,3.853916645050049,-5.918541431427002,13.51885986328125
1757491825679054300,7.293054443359375,2.2795794010162354,-4.757652759552002,12.923003196716309
1757491825689095200,7.30309521484375,-0.3155857026576996,-4.0592193603515625,12.205864906311035
1757491825699191000,7.31319091796875,-0.37312138080596924,-3.761141300201416,11.579257011413574
1757491825709221600,7.3232216796875,-0.30623334646224976,-3.8495023250579834,10.05931282043457
1757491825719222500,7.333222412109375,-1.5696237087249756,-4.48942756652832,8.937929153442383
1757491825729262800,7.343262939453125,-2.263493299484253,-7.057882308959961,8.414346694946289
1757491825739304700,7.3533046875,-0.22340895235538483,-8.32209587097168,7.28188943862915
1757491825749345800,7.363345703125,-0.25326165556907654,-7.808314800262451,6.968024730682373
1757491825759383000,7.373383056640625,-0.7745990753173828,-7.27493143081665,7.19480037689209
1757491825769424600,7.383424560546875,-1.0630255937576294,-7.6490254402160645,6.865522861480713
1757491825779464700,7.393464599609375,-2.4944589138031006,-8.891765594482422,6.249240398406982
1757491825789507000,7.403507080078125,-3.6337249279022217,-9.57673168182373,5.753490924835205
1757491825799524600,7.413524658203125,-4.694206714630127,-10.095376014709473,6.155866622924805
1757491825809591800,7.423591796875,-5.103914260864258,-10.933720588684082,7.304859161376953
1757491825819629800,7.4336298828125,-3.3172411918640137,-12.698246955871582,9.458892822265625
1757491825829670100,7.443670166015625,-1.85236394405365,-15.860837936401367,12.41887378692627
1757491825839715300,7.45371533203125,-2.5340380668640137,-14.737283706665039,10.893841743469238
1757491825849756400,7.46375634765625,-3.7130327224731445,-12.188132286071777,11.007118225097656
1757491825859797800,7.4737978515625,-4.522422790527344,-12.907515525817871,13.11102294921875
1757491825869838300,7.48383837890625,-3.331007957458496,-11.992406845092773,11.909955978393555
1757491825879880000,7.4938798828125,-2.0510077476501465,-9.640702247619629,10.153809547424316
1757491825889917400,7.50391748046875,-2.011054515838623,-9.090410232543945,8.928202629089355
1757491825899961900,7.5139619140625,-1.8382232189178467,-8.5310640335083,8.524255752563477
1757491825910003500,7.52400341796875,2.052429437637329,-5.8010759353637695,6.773944854736328
1757491825920044800,7.534044921875,4.088024616241455,-4.087351322174072,5.1256866455078125
1757491825930086000,7.5440859375,2.466701030731201,-3.264493942260742,2.082731008529663
1757491825940127000,7.554126953125,0.10691606998443604,-4.130745887756348,-0.32381579279899597
1757491825950168000,7.56416796875,-2.6321253776550293,-4.386027812957764,-2.0549733638763428
1757491825960205000,7.574205078125,-3.2672622203826904,-4.661361217498779,1.0200047492980957
1757491825970250200,7.584250244140625,-3.1875803470611572,-4.7649102210998535,3.9139211177825928
1757491825980291800,7.594291748046875,-1.161487102508545,-4.76693058013916,5.7159318923950195
1757491825990332400,7.60433251953125,-1.0316765308380127,-3.0870985984802246,4.476035118103027
1757491826000373200,7.614373291015625,0.11679214984178543,-2.5983822345733643,4.545541763305664
1757491826010413300,7.624413330078125,1.1456254720687866,-1.8656816482543945,4.094683647155762
1757491826020451600,7.63445166015625,1.0031704902648926,-0.9705495238304138,3.4665048122406006
1757491826030492700,7.64449267578125,0.047734394669532776,-0.6076782941818237,3.518728256225586
1757491826040536300,7.654536376953125,-0.8942343592643738,-0.8087164163589478,4.135085582733154
1757491826050575400,7.664575439453125,-1.5570541620254517,-0.6893804669380188,3.602001667022705
1757491826060620300,7.674620361328125,-2.0275895595550537,-0.6951414942741394,2.2007951736450195
1757491826070661000,7.6846611328125,-2.871171474456787,-1.220294713973999,1.9088521003723145
1757491826080698600,7.69469873046875,-2.4648306369781494,-1.628580927848816,3.5103485584259033
1757491826090743600,7.70474365234375,-1.5144822597503662,-1.7663222551345825,4.064681053161621
1757491826100784400,7.714784423828125,-1.0465654134750366,-1.9500772953033447,3.9037458896636963
1757491826110826000,7.724825927734375,1.2247837781906128,-2.873042106628418,4.222324371337891
1757491826120863200,7.73486328125,0.3446902334690094,-3.4209401607513428,6.427982807159424
1757491826130908200,7.744908203125,-0.7549217343330383,-3.5801546573638916,8.579920768737793
1757491826140949800,7.75494970703125,-3.8523454666137695,-4.942305564880371,10.982502937316895
1757491826150986500,7.764986572265625,-9.379958152770996,-6.459630966186523,14.043265342712402
1757491826161032000,7.775031982421875,-11.274819374084473,-7.689053535461426,16.512733459472656
1757491826171072500,7.785072509765625,-6.4590325355529785,-6.119654178619385,19.20853042602539
1757491826181113600,7.795113525390625,-3.091662645339966,-6.5353474617004395,22.98119354248047
1757491826191150600,7.805150634765625,-3.33280348777771,-7.030872344970703,22.0601749420166
1757491826201170000,7.815169921875,-4.300659656524658,-7.293411731719971,15.60593032836914
1757491826211233000,7.82523291015625,-6.318747043609619,-8.704120635986328,12.09041976928711
1757491826221278700,7.83527880859375,-1.4365957975387573,-10.513837814331055,13.557915687561035
1757491826231341300,7.84534130859375,2.6150667667388916,-9.570746421813965,11.407098770141602
1757491826241361400,7.855361328125,0.973242998123169,-5.164667129516602,7.8763251304626465
1757491826251407400,7.865407470703125,-0.29800328612327576,-0.6062567830085754,6.0930938720703125
1757491826261439500,7.875439453125,0.9189245104789734,2.4047510623931885,5.5504326820373535
1757491826271480300,7.885480224609375,1.9004724025726318,0.4275146424770355,4.761693000793457
1757491826281522000,7.89552197265625,-1.8938883543014526,-2.717418909072876,7.597026348114014
1757491826291575800,7.905575927734375,-5.223624229431152,-2.980332136154175,12.6011323928833
1757491826301607400,7.915607421875,-4.190077304840088,-2.9963433742523193,11.653477668762207
1757491826311648800,7.925648681640625,-0.9788544178009033,-5.05715274810791,8.691625595092773
1757491826321689300,7.935689453125,2.236558437347412,-5.166388034820557,8.358531951904297
1757491826331704600,7.94570458984375,2.8941409587860107,-5.444639205932617,8.921618461608887
1757491826341768200,7.955768310546875,2.4962544441223145,-7.352743148803711,11.29487133026123
1757491826351813000,7.965813232421875,-0.8648305535316467,-8.111780166625977,12.450896263122559
1757491826361854500,7.9758544921875,-3.6500353813171387,-5.779153823852539,9.411532402038574
1757491826371895300,7.985895263671875,-3.1420156955718994,-3.5649664402008057,6.67712926864624
1757491826381937000,7.99593701171875,-3.5149126052856445,-2.980182647705078,5.824793338775635
1757491826391977500,8.0059775390625,-2.69759202003479,-1.2089970111846924,6.239813327789307
1757491826402014700,8.0160146484375,-0.9382277727127075,-1.5778536796569824,6.687379360198975
1757491826412059600,8.0260595703125,-0.5315876007080078,-3.907935619354248,5.434762954711914
1757491826422101500,8.0361015625,0.33758243918418884,-4.716726779937744,4.288090229034424
1757491826432141600,8.0461416015625,0.7699602842330933,-4.917690277099609,3.7393689155578613
1757491826442183200,8.05618310546875,-0.5817909836769104,-6.376956462860107,3.9255928993225098
1757491826452224300,8.066224365234374,-1.8417396545410156,-8.27503490447998,5.944877624511719
1757491826462266400,8.076266357421876,-2.04547119140625,-10.030881881713867,7.862408638000488
1757491826472302000,8.086302001953126,-2.9042415618896484,-10.335169792175293,7.341670036315918
1757491826482348000,8.09634814453125,-3.7299418449401855,-7.783774375915527,6.382941722869873
1757491826492392000,8.106391845703126,-3.7590463161468506,-3.9008278846740723,6.402020454406738
1757491826502403600,8.116403564453124,-2.6402058601379395,-4.254870414733887,7.43145227432251
1757491826512467200,8.12646728515625,-1.876754879951477,-4.788627624511719,7.705887794494629
1757491826522510000,8.136510009765624,-0.9546130895614624,-4.259434223175049,7.879392623901367
1757491826532506400,8.14650634765625,-0.6645405888557434,-3.56481671333313,7.36127233505249
1757491826542595000,8.156594970703125,-1.3988871574401855,-3.7176713943481445,6.855347633361816
1757491826552636000,8.166635986328124,-0.9730185270309448,-2.99709153175354,5.608791351318359
1757491826562673200,8.176673095703125,-2.276960611343384,-3.231873035430908,4.911630153656006
1757491826572717600,8.186717529296875,-2.6231472492218018,-3.4758570194244385,6.339995861053467
1757491826582759400,8.196759521484376,-3.5206735134124756,-2.474257707595825,7.883058547973633
1757491826592800500,8.206800537109375,-1.2826935052871704,-1.7071406841278076,7.600991725921631
1757491826602837000,8.2168369140625,2.1366004943847656,-1.502586007118225,7.267823696136475
1757491826612883000,8.226883056640625,1.1892448663711548,-1.1633576154708862,7.7661919593811035
1757491826622924300,8.23692431640625,-1.6891840696334839,-1.8300678730010986,9.23091983795166
1757491826632952800,8.246952880859375,-0.5337573289871216,-3.501370429992676,10.065149307250977
1757491826643006200,8.257006103515625,0.8035539388656616,-3.5604023933410645,9.532289505004883
1757491826653046500,8.267046630859374,3.2694320678710938,-3.8621466159820557,9.971027374267578
1757491826663084000,8.277083984375,5.839757442474365,-6.455440998077393,13.408203125
1757491826673129700,8.287129638671875,-7.057882308959961,2.7252001762390137,16.263662338256836
1757491826683170800,8.2971708984375,5.1268086433410645,8.986336708068848,19.19184684753418
1757491826693211600,8.307211669921875,-1.8638859987258911,8.481983184814453,18.126649856567383
1757491826703248600,8.31724853515625,-4.522646903991699,6.147412300109863,14.680571556091309
1757491826713294000,8.327294189453125,-0.7726537585258484,4.001309394836426,12.183419227600098
1757491826723331300,8.337331298828126,2.93349552154541,4.7352070808410645,11.16161823272705
1757491826733376800,8.347376708984376,3.1420905590057373,6.167762756347656,10.91606330871582
1757491826743415300,8.357415283203125,1.4337527751922607,5.962908744812012,11.310433387756348
1757491826753455000,8.367455078125,-0.22176292538642883,3.242946147918701,11.049241065979004
1757491826763496200,8.37749609375,-2.878204584121704,-3.582249402999878,10.389264106750488
1757491826773537800,8.387537841796876,-5.3832879066467285,-12.965649604797363,12.276942253112793
1757491826783582500,8.39758251953125,0.19437925517559052,-15.924135208129883,14.086734771728516
1757491826793619700,8.40761962890625,7.102773666381836,-18.354698181152344,13.932159423828125
1757491826803664400,8.417664306640624,8.118139266967773,-24.246679306030273,12.035801887512207
1757491826813705500,8.42770556640625,7.6769328117370605,-28.476036071777344,9.709983825683594
1757491826823747300,8.437747314453125,1.9077298641204834,-25.589826583862305,7.875502109527588
1757491826833758500,8.447758544921875,-3.859004259109497,-19.55576515197754,6.457161903381348
1757491826843829200,8.457829345703125,-6.320692539215088,-15.697359085083008,4.851400852203369
1757491826853870600,8.46787060546875,-6.559813499450684,-14.868965148925781,3.2268600463867188
1757491826863907800,8.477907958984375,-5.721543312072754,-13.09875202178955,2.3529765605926514
1757491826873952800,8.487952880859375,-5.339668273925781,-11.04056167602539,2.306588888168335
1757491826883993600,8.49799365234375,-4.022558212280273,-10.371307373046875,2.2846670150756836
1757491826894034700,8.50803466796875,-2.8837411403656006,-5.680318355560303,2.0197336673736572
1757491826904075300,8.5180751953125,-1.5990275144577026,-3.4851346015930176,1.0285340547561646
1757491826914117000,8.5281171875,0.3613748252391815,-2.379986047744751,-0.19026421010494232
1757491826924158200,8.538158203125,1.488594889640808,-1.34090256690979,-0.344839870929718
1757491826934194400,8.5481943359375,2.3174376487731934,-1.0928034782409668,0.20784664154052734
1757491826944241000,8.558240966796875,3.1903486251831055,-1.3649942874908447,0.9107692837715149
1757491826954281200,8.56828125,2.893467664718628,-1.342399001121521,1.525630235671997
1757491826964322800,8.57832275390625,2.0289363861083984,-1.4480431079864502,1.8941128253936768
1757491826974364700,8.58836474609375,0.03411737456917763,-1.932420015335083,2.159046173095703
1757491826984402200,8.598402099609375,-1.729287028312683,-1.795202374458313,2.4485950469970703
1757491826994442200,8.608442138671874,-2.9816789627075195,-1.7604864835739136,2.5453357696533203
1757491827004483300,8.6184833984375,-2.4998457431793213,-1.7309329509735107,2.9705309867858887
1757491827014527200,8.62852734375,-1.148917555809021,-1.604040265083313,1.2562825679779053
1757491827024573700,8.63857373046875,-1.2117652893066406,-2.3517794609069824,0.1453729271888733
1757491827034602000,8.64860205078125,-1.2993032932281494,-3.2875382900238037,-0.15764321386814117
1757491827044652300,8.65865234375,-1.4839560985565186,-0.559869110584259,-0.7040449380874634
1757491827054693000,8.668693115234374,-3.871873140335083,-0.6687304377555847,-0.2115875780582428
1757491827064734200,8.678734130859375,-5.316624164581299,-4.393584728240967,2.11250901222229
1757491827074771500,8.688771484375,-5.660566329956055,-5.042263507843018,4.756455898284912
1757491827084816100,8.698816162109376,-6.653561115264893,-5.963881492614746,7.251288890838623
1757491827094857500,8.708857421875,-4.5603556632995605,-8.25662899017334,9.671228408813477
1757491827104898000,8.71889794921875,-2.3249943256378174,-10.323423385620117,13.930887222290039
1757491827114940200,8.728940185546875,-4.708721160888672,-11.721637725830078,19.112613677978516
1757491827124981200,8.738981201171875,-9.227402687072754,-11.588235855102539,22.010345458984375
1757491827135021300,8.749021240234375,-13.879037857055664,-11.701885223388672,21.70067024230957
1757491827145063400,8.7590634765625,-15.76237678527832,-12.317344665527344,17.900997161865234
1757491827155104300,8.769104248046874,-10.080262184143066,-7.54203462600708,11.904419898986816
1757491827165145900,8.779145751953125,-6.693589210510254,-3.3417069911956787,7.465943813323975
1757491827175187200,8.789187255859375,-6.916325092315674,-6.393790245056152,6.576572895050049
1757491827185228000,8.79922802734375,-4.686724662780762,-5.852850437164307,8.10317611694336
1757491827195269400,8.809269287109375,-1.5925930738449097,-9.5501708984375,12.287043571472168
1757491827205310700,8.819310791015624,1.2502222061157227,-10.600626945495605,11.126005172729492
1757491827215351800,8.829351806640625,1.0517278909683228,-8.752827644348145,7.824326038360596
1757491827225394700,8.839394775390625,-0.959251880645752,-5.020117282867432,5.147608280181885
1757491827235429400,8.849429443359375,-0.6142624020576477,-2.7085154056549072,3.057769775390625
1757491827245470700,8.859470703125,-3.7428107261657715,-3.3628807067871094,1.7636288404464722
1757491827255490000,8.869489990234374,-6.950367450714111,-5.453766822814941,2.7394156455993652
1757491827265531100,8.87953125,-4.550704002380371,-6.658574104309082,3.1152305603027344
1757491827275572700,8.88957275390625,-0.7165396809577942,-6.766462802886963,2.5644893646240234
1757491827285639400,8.899639404296876,1.9206734895706177,-6.87293004989624,3.5598037242889404
1757491827295680300,8.90968017578125,1.3566893339157104,-8.40649127960205,6.299144744873047
1757491827305717200,8.91971728515625,0.5637596845626831,-12.001310348510742,9.183110237121582
1757491827315763200,8.92976318359375,-1.3441946506500244,-9.362600326538086,10.264616012573242
1757491827325804300,8.93980419921875,-2.023324966430664,-8.104522705078125,10.809596061706543
1757491827335822000,8.949822021484374,-2.1377227306365967,-7.516147136688232,9.896432876586914
1757491827345886700,8.95988671875,-0.9113678336143494,-6.293832302093506,8.854804992675781
1757491827355927600,8.969927490234374,1.401879906654358,-5.688323974609375,6.660818576812744
1757491827365969000,8.979968994140625,3.6488382816314697,-5.272705554962158,4.470647811889648
1757491827376006000,8.990005859375,4.441094398498535,-5.1134161949157715,3.642254114151001
1757491827386055400,9.000055419921875,4.405630588531494,-5.116858005523682,4.3751044273376465
1757491827396088000,9.010088134765626,-0.6694038510322571,-1.0442460775375366,4.424859046936035
1757491827406129200,9.020129150390625,-0.7014262676239014,6.228590488433838,4.671985149383545
1757491827416170200,9.030170166015624,-0.23747487366199493,-6.371345043182373,6.648324012756348
1757491827436253000,9.0502529296875,-0.3654150366783142,-5.179705619812012,3.950582504272461
1757491827446293800,9.060293701171876,-1.3998597860336304,-5.373636245727539,3.127126693725586
1757491827456339500,9.07033935546875,-2.4780735969543457,-5.1898064613342285,2.9567642211914062
1757491827466381000,9.080381103515625,-2.372504234313965,-5.800926208496094,3.1251814365386963
1757491827486436900,9.100436767578126,-0.35651159286499023,-10.938434600830078,5.4356608390808105
1757491827516596700,9.1305966796875,-0.12659341096878052,0.3794809579849243,7.347056865692139
1757491827526626800,9.140626708984374,5.094711780548096,9.32421875,7.724218368530273
1757491827536664000,9.1506640625,5.214945316314697,-2.0620810985565186,8.715118408203125
1757491827546684400,9.160684326171875,1.3447932004928589,-11.064129829406738,8.184578895568848
1757491827556746500,9.17074658203125,-3.5208232402801514,-7.636231422424316,7.905579090118408
1757491827566792400,9.18079248046875,-1.5304933786392212,-7.3605241775512695,7.592761993408203
1757491827576832800,9.190832763671875,0.41120412945747375,-7.7952961921691895,8.0354642868042
1757491827586874000,9.2008740234375,-0.7306056022644043,-8.183231353759766,10.338836669921875
1757491827596915200,9.210915283203125,0.12621931731700897,-5.810727596282959,12.079870223999023
1757491827606952200,9.2209521484375,2.7292404174804688,-4.478728294372559,11.421613693237305
1757491827616993800,9.230993896484375,3.945868968963623,-4.214917182922363,10.818723678588867
1757491827627038700,9.241038818359375,1.1572223901748657,-5.028197765350342,11.428796768188477
1757491827637079000,9.2510791015625,-1.3883377313613892,-5.498209476470947,11.846734046936035
1757491827647121000,9.261120849609375,0.2412906438112259,-5.863624572753906,11.876138687133789
1757491827657162500,9.27116259765625,3.4240076541900635,-6.899415969848633,12.286369323730469
1757491827667175700,9.28117578125,4.221800804138184,-7.5828857421875,12.464288711547852
1757491827677240800,9.29124072265625,2.599579334259033,-9.352275848388672,11.68071174621582
1757491827687286000,9.3012861328125,-0.17545008659362793,-11.013028144836426,9.990330696105957
1757491827697327400,9.311327392578125,-1.5401450395584106,-7.9698486328125,9.465775489807129
1757491827707368700,9.32136865234375,1.5266777276992798,-8.164003372192383,11.203217506408691
1757491827717409000,9.331408935546875,2.0183868408203125,-10.169371604919434,12.428450584411621
1757491827727446500,9.341446533203126,-4.961683750152588,-11.59564208984375,13.374908447265625
1757491827737487000,9.351487060546875,-3.2609026432037354,-19.44593048095703,14.52786636352539
1757491827747529000,9.361529052734374,1.4497638940811157,-22.25350570678711,12.91065788269043
1757491827757574700,9.37157470703125,3.2193033695220947,-20.666973114013672,6.99436092376709
1757491827767614500,9.381614501953125,2.1520133018493652,-17.63568878173828,4.392088413238525
1757491827777655800,9.39165576171875,-0.7912836670875549,-15.423222541809082,6.276175498962402
1757491827787697000,9.40169677734375,-0.557400107383728,-13.886893272399902,8.766294479370117
1757491827797738800,9.41173876953125,-0.1967734545469284,-11.916390419006348,9.569025993347168
1757491827807775200,9.421775146484375,3.0889689922332764,-9.97596549987793,8.566827774047852
1757491827817817300,9.4318173828125,4.477755546569824,-8.10594367980957,7.125443458557129
1757491827827862000,9.441862060546875,3.6477906703948975,-9.269824981689453,7.085714817047119
1757491827837902300,9.45190234375,-1.5058032274246216,-8.341323852539062,7.44761323928833
1757491827847944000,9.46194384765625,-4.130970478057861,-3.6163668632507324,7.1932291984558105
1757491827857985300,9.4719853515625,-3.0190136432647705,1.4830583333969116,5.926472187042236
1757491827868000000,9.482,-0.41786301136016846,2.751236915588379,3.381136417388916
1757491827878063400,9.4920634765625,1.594388723373413,1.3830255270004272,1.5117887258529663
1757491827888105200,9.502105224609375,2.340406894683838,-0.6878840923309326,0.6519710421562195
1757491827898150000,9.51214990234375,2.2782325744628906,-2.403329610824585,0.10137947648763657
1757491827908191200,9.522191162109374,4.343979835510254,-4.174739360809326,0.16101007163524628
1757491827918232300,9.532232421875,1.664344310760498,-3.153238534927368,-0.41389763355255127
1757491827928273400,9.5422734375,1.0475380420684814,-1.8993501663208008,-0.27495908737182617
1757491827938309000,9.55230908203125,0.15674538910388947,-0.8394669890403748,-0.17298106849193573
1757491827948348200,9.56234814453125,-2.0445735454559326,0.6827215552330017,0.024091655388474464
1757491827958394400,9.572394287109375,-2.2741174697875977,2.079289436340332,-0.6492027640342712
1757491827968436700,9.582436767578125,-1.9928736686706543,2.6126725673675537,-1.4934581518173218
1757491827978476800,9.592476806640626,-1.4957027435302734,2.0480151176452637,-2.2737433910369873
1757491827988519400,9.60251953125,-0.5234323740005493,-1.627308964729309,-1.8698714971542358
1757491827998551600,9.612551513671875,-1.441459059715271,-5.573552131652832,-0.9472060203552246
1757491828008599800,9.622599853515625,-3.0389153957366943,-8.486621856689453,1.3232454061508179
1757491828018640600,9.632640625,-3.6326024532318115,-6.555997848510742,2.04891300201416
1757491828028682500,9.6426826171875,-3.8762125968933105,-5.6681227684021,2.6464908123016357
1757491828038723600,9.6527236328125,-4.403236389160156,-7.719429969787598,5.04682731628418
1757491828048765400,9.662765380859375,-5.829506874084473,-9.61676025390625,9.3358154296875
1757491828058807600,9.6728076171875,-7.1403326988220215,-11.187655448913574,14.047080993652344
1757491828068844300,9.68284423828125,-7.984288692474365,-11.868132591247559,17.465028762817383
1757491828078892800,9.692892822265625,-12.550479888916016,-13.401618957519531,21.721694946289062
1757491828088928300,9.70292822265625,-17.351003646850586,-10.234089851379395,21.400272369384766
1757491828098968300,9.71296826171875,-13.635951042175293,-6.0202202796936035,17.408241271972656
1757491828109011700,9.72301171875,-8.232462882995605,-5.212700843811035,13.241880416870117
1757491828119059700,9.733059814453124,-5.878737926483154,-5.249661445617676,10.355819702148438
1757491828129082000,9.74308203125,-5.060818672180176,-6.342763900756836,7.576076984405518
1757491828139121700,9.75312158203125,-7.112948894500732,-9.58137035369873,5.273603439331055
1757491828149178400,9.763178466796875,-7.33471155166626,-14.502054214477539,7.5243024826049805
1757491828159219500,9.773219482421876,3.1566052436828613,-13.167435646057129,11.550003051757812
1757491828169251000,9.7832509765625,8.334365844726562,-7.874454498291016,9.465551376342773
1757491828179302000,9.793302001953125,-0.32344168424606323,-3.6717326641082764,9.597980499267578
1757491828189342700,9.8033427734375,-5.40446138381958,-0.7321767807006836,9.01671314239502
1757491828199369000,9.813368896484375,-3.610231637954712,-0.8647557497024536,8.168642044067383
1757491828209423000,9.823423095703125,-4.116455554962158,-3.3177649974823,8.804153442382812
1757491828219466200,9.83346630859375,-1.3085808753967285,0.034341830760240555,6.704737186431885
1757491828229507300,9.84350732421875,-0.3223194181919098,-5.513247966766357,7.085639953613281
1757491828239548200,9.853548095703125,0.5348048210144043,-9.856180191040039,6.207641124725342
1757491828249590000,9.863590087890625,2.6277859210968018,-6.50714111328125,2.6770167350769043
1757491828259605500,9.87360546875,2.770390748977661,-5.421894073486328,2.676642656326294
1757491828269682200,9.88368212890625,3.076997995376587,-7.802329063415527,6.823175430297852
1757491828279711200,9.893711181640626,3.374103546142578,-12.138602256774902,10.957438468933105
1757491828289754400,9.90375439453125,3.260453701019287,-13.413888931274414,12.251579284667969
1757491828299795500,9.91379541015625,2.075847625732422,-10.935441017150879,8.470236778259277
1757491828309837300,9.92383740234375,-1.0736498832702637,-6.984484672546387,5.37670373916626
1757491828319874000,9.9338740234375,-1.0608558654785156,-6.032789707183838,5.466037273406982
1757491828329915400,9.943915283203125,0.1843535304069519,-7.614908218383789,6.760178089141846
1757491828339946800,9.95394677734375,0.6371569037437439,-8.634763717651367,7.677680969238281
1757491828349997800,9.963997802734376,0.621968686580658,-7.554903507232666,7.6769328117370605
1757491828360040400,9.97404052734375,0.9516952037811279,-6.588244438171387,6.864400863647461
1757491828370068500,9.984068359375,1.5203180313110352,-6.451849937438965,5.968819618225098
1757491828380125400,9.99412548828125,1.7931073904037476,-5.498807907104492,4.920383930206299
1757491828390162000,10.004161865234375,1.421108365058899,-4.084134101867676,2.995894432067871
1757491828400197000,10.014197021484375,-0.8004863858222961,-3.804760694503784,2.3585879802703857
1757491828410248400,10.02424853515625,-1.7837550640106201,-4.136806488037109,2.7656023502349854
1757491828420289500,10.03428955078125,-1.8057518005371094,-4.802693843841553,3.23374342918396
1757491828430330400,10.044330322265624,-1.3238439559936523,-5.195343017578125,3.7054011821746826
1757491828440369200,10.054369140625,0.36578911542892456,-5.001636981964111,3.850175619125366
1757491828450409000,10.064408935546876,1.6421231031417847,-3.460444450378418,4.297741889953613
1757491828460454400,10.074454345703124,0.7299322485923767,-4.207884311676025,5.2807111740112305
1757491828470482000,10.08448193359375,2.2177040576934814,-2.6105029582977295,5.432069778442383
1757491828480536600,10.09453662109375,-2.354398012161255,-4.668319225311279,4.482095241546631
1757491828490577400,10.104577392578125,-2.6891374588012695,-11.58397102355957,5.295749664306641
1757491828500618500,10.114618408203125,-2.1472997665405273,-9.031153678894043,7.230040073394775
1757491828510658000,10.124657958984375,-3.905092716217041,-5.170278549194336,8.144475936889648
1757491828520699100,10.13469921875,-3.142913579940796,-4.4600982666015625,5.823746204376221
1757491828530742000,10.144741943359374,-1.5977555513381958,-5.245845794677734,4.761319160461426
1757491828540783000,10.154783203125,-1.5671546459197998,-6.028225898742676,5.03059196472168
1757491828550825200,10.1648251953125,-1.4371196031570435,-7.002516269683838,4.71223783493042
1757491828560866300,10.1748662109375,0.5009866952896118,-8.687286376953125,4.646846294403076
1757491828570908000,10.184907958984375,3.063530683517456,-9.967735290527344,5.645003795623779
1757491828580944400,10.1949443359375,1.2535141706466675,-10.602198600769043,6.003161430358887
1757491828590985200,10.204985107421875,-2.1752817630767822,-10.880898475646973,5.433715343475342
1757491828601027800,10.21502783203125,-4.55848503112793,-11.161767959594727,5.100846767425537
1757491828611070200,10.2250703125,-3.266364574432373,-11.206809043884277,4.762441158294678
1757491828621115100,10.235115234375,2.412607192993164,-11.675474166870117,3.4414405822753906
1757491828631151400,10.2451513671875,3.7531356811523438,-12.752640724182129,0.9166051745414734
1757491828641193200,10.255193115234375,-0.4246715307235718,-13.155988693237305,-0.3166331648826599
1757491828651233300,10.2652333984375,-0.47173255681991577,-12.247464179992676,-0.04115034267306328
1757491828661276400,10.2752763671875,2.1814169883728027,-11.464784622192383,0.3546411395072937
1757491828671316200,10.285316162109375,2.7555017471313477,-11.228805541992188,0.27660512924194336
1757491828681357600,10.295357666015626,-0.4330512285232544,-11.368717193603516,0.4361936151981354
1757491828691399000,10.30539892578125,-4.215141773223877,-11.545364379882812,0.8423100709915161
1757491828701441500,10.315441650390625,-3.6415059566497803,-12.456433296203613,0.5517138838768005
1757491828711483000,10.32548291015625,-0.6134393811225891,-13.286622047424316,-0.039205051958560944
1757491828721523000,10.33552294921875,2.314818859100342,-13.681365966796875,-0.48647186160087585
1757491828731564000,10.34556396484375,3.5732712745666504,-14.273482322692871,-0.7933785915374756
1757491828741604000,10.35560400390625,1.5769559144973755,-15.197868347167969,-0.5480477213859558
1757491828751682000,10.36568212890625,-3.987916946411133,-16.695816040039062,-0.23672668635845184
1757491828761702100,10.3757021484375,-7.379378318786621,-18.357017517089844,0.7454197406768799
1757491828771725800,10.385725830078124,-7.308599948883057,-20.135459899902344,1.685667634010315
1757491828781771500,10.395771484375,-4.776731491088867,-21.497760772705078,1.914388656616211
1757491828791812400,10.405812255859376,-1.4384663105010986,-22.29547882080078,1.5682768821716309
1757491828801854000,10.41585400390625,1.1252747774124146,-20.548086166381836,0.4464437961578369
1757491828811897600,10.425897705078125,2.0480899810791016,-16.954315185546875,-0.6293757557868958
1757491828821932800,10.435932861328125,2.957437753677368,-12.434361457824707,-1.1699416637420654
1757491828831972900,10.445972900390625,3.0428807735443115,-8.804976463317871,-1.8366519212722778
1757491828842015200,10.45601513671875,3.136927843093872,-6.235773086547852,-2.064849376678467
1757491828852061000,10.46606103515625,3.5534441471099854,-4.8413004875183105,-1.7325042486190796
1757491828862100500,10.4761005859375,4.767529010772705,17.557804107666016,-0.2100163847208023
1757491828872140500,10.486140625,0.9512462615966797,11.94317626953125,0.3991583287715912
1757491828882180900,10.496180908203126,-0.530465304851532,-10.180220603942871,-0.8206126093864441
1757491828892223700,10.5062236328125,-0.5604676604270935,-20.80905532836914,-0.20216040313243866
1757491828902263600,10.516263671875,-0.9992799162864685,-16.218996047973633,0.9834931492805481
1757491828912306400,10.526306396484374,-1.7500866651535034,-9.299528121948242,0.26807576417922974
1757491828922347000,10.536346923828125,-0.553359866142273,-3.2932991981506348,-0.6048352122306824
1757491828932388400,10.546388427734374,1.2694506645202637,0.9721207022666931,-1.6597803831100464
1757491828942429200,10.55642919921875,1.8922423124313354,2.8370542526245117,-2.6962451934814453
1757491828952469000,10.566468994140624,1.0983400344848633,2.7519853115081787,-2.7136032581329346
1757491828962510300,10.57651025390625,0.7832032442092896,1.1650035381317139,-2.7694928646087646
1757491828972552700,10.586552734375,0.5433341264724731,-1.1004348993301392,-2.714500904083252
1757491828982594600,10.596594482421875,-0.6097732186317444,-2.7671735286712646,-3.4320881366729736
1757491828992635100,10.60663525390625,-3.0154969692230225,-4.14563512802124,-3.0695910453796387
1757491829002675000,10.616675048828125,-5.169006824493408,-5.837138652801514,-1.182137131690979
1757491829012718000,10.626718017578124,-8.785523414611816,-6.875548839569092,-0.5912929773330688
1757491829022756600,10.636756591796875,-9.03519344329834,-8.680028915405273,0.6928969621658325
1757491829032798200,10.646798095703126,-10.242469787597656,-12.344204902648926,3.173065423965454
1757491829042841000,10.656841064453126,-11.862371444702148,-20.485462188720703,9.025840759277344
1757491829052883700,10.6668837890625,-14.344111442565918,-30.02291488647461,12.82783317565918
1757491829062921000,10.6769208984375,-13.011363983154297,-32.79951477050781,10.553565979003906
1757491829072960300,10.686960205078124,-7.889194011688232,-24.507497787475586,6.284106254577637
1757491829083003000,10.6970029296875,-3.8180034160614014,-12.632705688476562,2.2672340869903564
1757491829093043500,10.70704345703125,-2.434080123901367,-3.8978352546691895,0.24346038699150085
1757491829103088000,10.717088134765625,-3.8366334438323975,1.8100165128707886,-0.7543231844902039
1757491829113127400,10.72712744140625,-3.70510196685791,5.140650272369385,0.24495676159858704
1757491829123157500,10.737157470703124,4.79738187789917,1.4906150102615356,0.6720224618911743
1757491829133211600,10.747211669921874,9.763554573059082,-6.652439117431641,-1.2066776752471924
1757491829143250700,10.757250732421875,5.629217147827148,-13.655329704284668,-2.662053108215332
1757491829153294000,10.767294189453125,-3.255815029144287,-19.91115379333496,-1.9883097410202026
1757491829163333000,10.7773330078125,-4.003105163574219,-24.772356033325195,3.671508312225342
1757491829173375700,10.787375732421875,-5.956474781036377,-22.477214813232422,4.338742256164551
1757491829183415800,10.797415771484374,-2.053102731704712,-13.593230247497559,0.8521861433982849
1757491829193458400,10.80745849609375,1.9931728839874268,-6.878316879272461,-1.6211738586425781
1757491829203500000,10.8175,5.140575408935547,-3.788524866104126,-3.755754232406616
1757491829213541400,10.827541259765624,6.079925537109375,-2.708141326904297,-6.012439250946045
1757491829223577300,10.837577392578124,4.912003993988037,-3.8942439556121826,-6.67480993270874
1757491829233621200,10.847621337890626,3.5469350814819336,-7.615132808685303,-4.491148471832275
1757491829243662000,10.857662109375,3.2426469326019287,-11.127052307128906,-1.721730351448059
1757491829253704400,10.867704345703125,3.3494133949279785,-13.587767601013184,1.3841478824615479
1757491829263720400,10.877720458984374,2.684723138809204,-14.485668182373047,4.252401351928711
1757491829273761800,10.88776171875,2.2105963230133057,-13.863250732421875,6.029347896575928
1757491829283807500,10.897807373046875,2.0875942707061768,-12.73445987701416,7.223381519317627
1757491829293864000,10.907864013671874,2.5137622356414795,-11.754183769226074,7.1653218269348145
1757491829303913000,10.917912841796875,1.917231798171997,-10.939556121826172,6.387655258178711
1757491829313949000,10.927948974609375,1.83193838596344,-8.653243064880371,2.995370864868164
1757491829323989800,10.93798974609375,0.7170634269714355,-6.954557418823242,-0.1306336373090744
1757491829334025700,10.948025634765624,0.3535936772823334,-5.821650981903076,-2.2064812183380127
1757491829344078300,10.958078369140624,0.8080430626869202,-4.8695068359375,-2.0359692573547363
1757491829354115000,10.968114990234374,0.15524901449680328,-5.194519996643066,-2.0398597717285156
1757491829364158500,10.978158447265624,-2.130465507507324,-6.441898822784424,-2.1267993450164795
1757491829374197000,10.988197021484375,-3.0488662719726562,-8.546701431274414,-1.7629554271697998
1757491829384240600,10.99824072265625,-1.879074215888977,-10.199298858642578,0.12666822969913483
1757491829394279700,11.00827978515625,-0.25423428416252136,-9.021127700805664,1.6189292669296265
1757491829414361900,11.02836181640625,1.4179660081863403,-7.363367557525635,2.3092823028564453
1757491829424404700,11.03840478515625,2.2292263507843018,-7.539116859436035,2.64057993888855
1757491829434445800,11.04844580078125,2.4448540210723877,-6.937049865722656,2.8970589637756348
1757491829444483300,11.0584833984375,1.2665326595306396,-7.384915351867676,2.860322952270508
1757491829454523400,11.0685234375,0.5868038535118103,-8.264185905456543,2.8728175163269043
1757491829474610700,11.088610595703125,0.42287588119506836,-9.06399917602539,3.4840123653411865
1757491829484652800,11.09865283203125,0.9081506133079529,-9.363199234008789,2.7423336505889893
1757491829494693600,11.108693603515626,1.106644868850708,-9.978059768676758,3.417423725128174
1757491829504734700,11.118734619140625,1.8168997764587402,-10.908881187438965,4.600009441375732
1757491829514776300,11.1287763671875,1.7044471502304077,-12.154389381408691,5.4071550369262695
1757491829524817200,11.138817138671875,1.8798223733901978,-13.040019989013672,5.770325183868408
1757491829534854000,11.14885400390625,1.8675521612167358,-12.268712043762207,5.256394863128662
1757491829544899800,11.15889990234375,0.879120945930481,-11.63791561126709,4.482469081878662
1757491829554940400,11.1689404296875,-2.835108995437622,-11.241150856018066,4.256516456604004
1757491829564981500,11.1789814453125,-4.87639045715332,-12.350264549255371,5.591508388519287
1757491829575022600,11.189022705078125,-2.889277696609497,-12.5941743850708,6.303783416748047
1757491829585064700,11.199064697265625,1.464428424835205,-11.797802925109863,6.769754886627197
1757491829595105300,11.209105224609376,3.811269760131836,-11.452065467834473,7.919869422912598
1757491829605142000,11.21914208984375,1.4741548299789429,-12.597092628479004,7.611616134643555
1757491829615187200,11.229187255859374,-1.5587749481201172,-12.471096992492676,6.422521114349365
1757491829625229000,11.23922900390625,1.6762404441833496,-10.425027847290039,6.075212001800537
1757491829635269600,11.24926953125,1.8567782640457153,-9.974244117736816,4.388871192932129
1757491829645311000,11.25931103515625,0.07152677327394485,-10.69138240814209,2.591648578643799
1757491829655352300,11.269352294921875,0.016834231093525887,-11.825261116027832,1.766920804977417
1757491829665395700,11.279395751953125,2.9899837970733643,-12.833669662475586,1.7678186893463135
1757491829675430700,11.2894306640625,4.988468647003174,-12.853047370910645,0.7297825813293457
1757491829685471700,11.2994716796875,3.7300167083740234,-14.766986846923828,-2.132784843444824
1757491829695514600,11.3095146484375,0.5057750940322876,-15.837569236755371,-2.2741923332214355
1757491829705555700,11.3195556640625,-4.463241100311279,-17.15886878967285,-1.1490671634674072
1757491829715598800,11.329598876953124,-6.9235076904296875,-19.163938522338867,-0.11050736904144287
1757491829725640200,11.33964013671875,-3.94407320022583,-21.30255889892578,0.27413609623908997
1757491829735681300,11.349681396484375,0.2356044054031372,-22.96293830871582,0.4296844005584717
1757491829745722400,11.359722412109376,0.9400234222412109,-23.75773811340332,0.8685714602470398
1757491829755763500,11.369763427734375,0.1736544370651245,-21.169382095336914,1.4038251638412476
1757491829765804800,11.3798046875,0.012943653389811516,-12.803667068481445,-0.11911153793334961
1757491829775845600,11.389845703125,2.438718795776367,-7.898845672607422,-1.0580127239227295
1757491829785887000,11.399886962890625,2.986093282699585,-6.060173511505127,-1.4419827461242676
1757491829795928000,11.409927978515626,2.907982349395752,-5.799130439758301,-1.5866823196411133
1757491829805969700,11.4199697265625,3.1837644577026367,-6.130802154541016,-0.9636662006378174
1757491829816010200,11.43001025390625,2.5668835639953613,-5.436558723449707,0.09157821536064148
1757491829826056700,11.440056640625,2.631152868270874,-4.70183801651001,0.4983680546283722
1757491829836088800,11.4500888671875,2.1878514289855957,-4.313902378082275,0.6533926129341125
1757491829846129700,11.460129638671875,2.0388123989105225,-3.1402947902679443,0.959102213382721
1757491829856170500,11.47017041015625,0.9304466247558594,-3.014673948287964,1.2311433553695679
1757491829866212900,11.480212890625,0.6391022205352783,-3.255964756011963,-0.14859014749526978
1757491829876255000,11.4902548828125,0.9148843288421631,-3.2736217975616455,-2.2823476791381836
1757491829886296300,11.50029638671875,1.1094880104064941,-2.5901522636413574,-3.925443410873413
1757491829896340000,11.510340087890626,1.03062903881073,-1.3553426265716553,-4.940659523010254
1757491829906376400,11.52037646484375,0.5083189606666565,-0.019976619631052017,-5.37790060043335
1757491829916417800,11.530417724609375,-0.21839608252048492,0.6777835488319397,-5.495141983032227
1757491829926459400,11.54045947265625,-0.15233108401298523,1.2083237171173096,-5.6040778160095215
1757491829936500500,11.55050048828125,-0.5194669365882874,0.642618715763092,-5.046453475952148
1757491829946542600,11.56054248046875,-0.6981342434883118,-0.37581485509872437,-3.773261785507202
1757491829956586800,11.570586669921875,-0.9199720025062561,-1.5754594802856445,-2.282721757888794
1757491829966627300,11.58062744140625,-2.871396064758301,-3.779771089553833,-1.1846809387207031
1757491829976664800,11.590664794921874,-6.872556209564209,-6.676455974578857,0.5017349123954773
1757491829986706000,11.600705810546875,-12.715754508972168,-12.695404052734375,5.179256916046143
1757491829996751600,11.610751708984376,-9.589376449584961,-22.62191390991211,14.830583572387695
1757491830006792200,11.620792236328125,-10.185832023620605,-32.134525299072266,24.66304588317871
1757491830016833300,11.630833251953124,-4.688969135284424,-32.78926467895508,21.369447708129883
1757491830026875000,11.640875,-1.4487165212631226,-22.91924476623535,8.677484512329102
1757491830036916000,11.650916015625,-3.9060652256011963,-15.177218437194824,1.4558991193771362
1757491830046952700,11.66095263671875,-6.614131927490234,-10.345121383666992,-3.191096782684326
1757491830056998000,11.670997802734375,-10.7395658493042,-5.735684394836426,-3.5598037242889404
1757491830067039200,11.681039306640624,-12.32445240020752,-3.57985520362854,-3.4723405838012695
1757491830077080000,11.691080078125,-4.3179426193237305,-6.412794589996338,-2.70761775970459
1757491830087121200,11.70112109375,9.692327499389648,-10.082731246948242,-0.9989806413650513
1757491830097162800,11.711162841796876,11.69582462310791,-12.077101707458496,-2.495431423187256
1757491830107204000,11.7212041015625,0.11671733111143112,-14.324284553527832,-4.521150588989258
1757491830117240800,11.73124072265625,-6.558765888214111,-13.42556095123291,0.01458966638892889
1757491830127286500,11.74128662109375,-2.542642116546631,-9.186102867126465,3.158026933670044
1757491830137327400,11.751327392578125,3.443535327911377,-7.705962657928467,1.4802900552749634
1757491830147369200,11.761369140625,6.95231294631958,-8.229095458984375,-1.022773027420044
1757491830157409000,11.771408935546875,6.93151330947876,-8.911967277526855,-3.5200002193450928
1757491830167446800,11.78144677734375,5.040467739105225,-9.486125946044922,-4.240654945373535
1757491830177488600,11.791488525390625,3.0771477222442627,-10.978761672973633,-2.648510694503784
1757491830187529500,11.801529541015626,1.9944448471069336,-12.743886947631836,-0.5050269365310669
1757491830197575200,11.8115751953125,0.5667524337768555,-13.595100402832031,1.1295394897460938
1757491830207611100,11.821611083984376,0.45242929458618164,-13.846342086791992,2.7620110511779785
1757491830217656000,11.831656005859376,2.0503344535827637,-13.512275695800781,4.084957122802734
1757491830227697700,11.84169775390625,1.9277812242507935,-13.06291389465332,4.032433986663818
1757491830237734400,11.851734375,1.6484078168869019,-12.4971342086792,2.4147019386291504
1757491830247779800,11.86177978515625,1.3028945922851562,-11.818303108215332,0.39459437131881714
1757491830257821200,11.8718212890625,0.5422866940498352,-10.901698112487793,-0.7650970816612244
1757491830267861800,11.88186181640625,1.3743466138839722,-9.878401756286621,-2.25129771232605
1757491830277899300,11.891899169921874,-0.09629180282354355,-8.789862632751465,-2.7311856746673584
1757491830287944400,11.9019443359375,0.7260416746139526,-8.01915454864502,-3.3384149074554443
1757491830297985300,11.9119853515625,-0.4727051854133606,-7.5266218185424805,-2.3546226024627686
1757491830308022500,11.9220224609375,1.272144079208374,-7.763722896575928,-2.23663330078125
1757491830318067700,11.932067626953126,0.18989011645317078,-7.9795002937316895,-0.24742577970027924
1757491830328109300,11.942109375,0.9677812457084656,-8.155997276306152,-0.5218611359596252
1757491830338150100,11.952150146484374,0.3291279077529907,-7.84729528427124,-0.2602946162223816
1757491830348187400,11.9621875,-0.5267243981361389,-7.334412574768066,0.3520972728729248
1757491830358232600,11.972232666015625,-0.7572411298751831,-7.133598804473877,-0.11926117539405823
1757491830368269300,11.982269287109375,-0.5961562395095825,-7.198691368103027,-0.5392939448356628
1757491830378314800,11.992314697265625,0.12120646238327026,-6.925004005432129,-0.2985270321369171
1757491830388356400,12.0023564453125,0.4711340069770813,-6.851980686187744,0.3017442226409912
1757491830398402000,12.012402099609375,0.41621699929237366,-6.7859907150268555,0.7439981698989868
1757491830408434400,12.022434326171876,0.5972784757614136,-6.941239833831787,1.4389899969100952
1757491830418475300,12.032475341796875,0.513855516910553,-8.371550559997559,1.2125883102416992
1757491830428518100,12.04251806640625,0.9027636647224426,-9.306711196899414,1.659181833267212
1757491830438557700,12.0525576171875,1.3410521745681763,-8.961347579956055,2.954145669937134
1757491830448609800,12.06260986328125,0.8684218525886536,-9.892168045043945,2.7317841053009033
1757491830458643000,12.072642822265625,-0.47061026096343994,-9.473482131958008,2.9698574542999268
1757491830468686600,12.0826865234375,-0.34431612491607666,-10.255638122558594,1.9509750604629517
1757491830478724400,12.092724365234375,-0.11103110015392303,-9.972148895263672,4.018517971038818
1757491830488764700,12.1027646484375,-0.8158990740776062,-10.938508987426758,1.8244565725326538
1757491830498804000,12.112803955078125,0.7522282600402832,-13.485565185546875,2.885910987854004
1757491830508844800,12.1228447265625,1.8655320405960083,-12.321160316467285,3.2525229454040527
1757491830518885600,12.1328857421875,0.8564508557319641,-10.267159461975098,2.7376201152801514
1757491830528931300,12.142931396484375,0.23859716951847076,-12.003180503845215,2.9066357612609863
1757491830538971100,12.15297119140625,-1.5078233480453491,-11.365425109863281,3.646967649459839
1757491830549011000,12.163010986328125,-2.650905132293701,-12.321983337402344,3.5073559284210205
1757491830559052000,12.173052001953126,0.16886603832244873,-12.362909317016602,3.2445921897888184
1757491830569092900,12.1830927734375,3.8091750144958496,-12.754586219787598,2.924367666244507
1757491830579196400,12.193196533203125,0.9649381041526794,-11.298312187194824,3.3638534545898438
1757491830589206300,12.203206298828125,-0.5893477201461792,-11.155259132385254,2.1309890747070312
1757491830599218000,12.213218017578125,0.2049286961555481,-11.71318244934082,1.222614049911499
1757491830609261000,12.223260986328125,1.023072361946106,-12.614450454711914,0.9347113370895386
1757491830619302100,12.23330224609375,-0.10205284506082535,-13.608119010925293,0.3175309896469116
1757491830629339100,12.243339111328124,0.48557403683662415,-15.132102966308594,-0.7658452391624451
1757491830639384800,12.253384765625,1.9425206184387207,-17.065645217895508,-1.348833441734314
1757491830649421600,12.263421630859375,2.673275947570801,-19.122713088989258,-2.114229679107666
1757491830659462700,12.273462646484376,1.889025092124939,-21.47007942199707,-2.907982349395752
1757491830669503500,12.28350341796875,0.1082628071308136,-23.66765594482422,-3.4980034828186035
1757491830679546400,12.29354638671875,-1.6225205659866333,-25.207502365112305,-3.5743186473846436
1757491830689586200,12.303586181640625,-2.1879262924194336,-25.083826065063477,-4.291606426239014
1757491830699631000,12.313631103515625,-0.4106055796146393,-21.510032653808594,-4.8331451416015625
1757491830709672200,12.323672119140625,0.5002385377883911,-14.480805397033691,-2.8844144344329834
1757491830719709400,12.33370947265625,0.028057051822543144,-9.715371131896973,-4.006472110748291
1757491830729754600,12.343754638671875,0.3488800823688507,-8.711676597595215,-3.4929158687591553
1757491830739795700,12.353795654296874,0.671648383140564,-6.350395679473877,-1.9820997714996338
1757491830749836500,12.36383642578125,1.0271124839782715,-5.10615873336792,-4.088697910308838
1757491830759873800,12.373873779296876,1.3137433528900146,-5.592929840087891,-2.008660316467285
1757491830769919500,12.38391943359375,1.1858031749725342,-4.589535236358643,-1.5693243741989136
1757491830779960300,12.393960205078125,1.28501296043396,-3.047295093536377,-1.259873867034912
1757491830789997600,12.40399755859375,1.1089643239974976,-3.118447780609131,-2.0447230339050293
1757491830800042200,12.414042236328125,0.5003881454467773,-4.2550950050354,-1.876530408859253
1757491830810083800,12.424083740234375,-0.009277531877160072,-4.142417907714844,-1.5822679996490479
1757491830820120800,12.434120849609375,-0.44846391677856445,-3.033752918243408,-1.3424737453460693
1757491830830166000,12.444166015625,-1.2291233539581299,-2.427121877670288,-0.8670002818107605
1757491830840207400,12.454207275390624,-1.7099837064743042,-2.3015012741088867,-0.5321861505508423
1757491830850248000,12.464248046875,-1.3305776119232178,-1.6297780275344849,-0.5425111651420593
1757491830860289800,12.474289794921875,-0.8568997383117676,-1.380257248878479,-0.9261071681976318
1757491830870330400,12.484330322265626,0.22931963205337524,-1.8116625547409058,-1.6560393571853638
1757491830880369000,12.494368896484374,1.38175368309021,-2.2660369873046875,-2.615440845489502
1757491830890411000,12.504410888671876,1.6626982688903809,-2.8122143745422363,-3.0930092334747314
1757491830900450000,12.514449951171875,1.5593734979629517,-3.3093104362487793,-2.759392261505127
1757491830910491100,12.5244912109375,1.0814310312271118,-3.4421887397766113,-2.2950668334960938
1757491830920534500,12.534534423828125,0.4826560914516449,-3.7976527214050293,-2.187252998352051
1757491830930575400,12.544575439453125,0.2016366720199585,-5.044283866882324,-2.0964977741241455
1757491830940618000,12.554617919921874,-1.1076176166534424,-6.303783416748047,-0.7576152086257935
1757491830950655200,12.5646552734375,-4.103811264038086,-6.603133678436279,1.809118628501892
1757491830960700200,12.5747001953125,-9.673921585083008,-8.336161613464355,4.297068119049072
1757491830970741500,12.584741455078126,-13.932533264160156,-11.151368141174316,8.226252555847168
1757491830980782600,12.594782470703125,-6.737882137298584,-17.542091369628906,14.12593936920166
1757491830990823400,12.604823486328126,-7.289521217346191,-26.44291114807129,19.86925506591797
1757491831000865000,12.614864990234375,-6.4549174308776855,-31.113399505615234,16.78275489807129
1757491831010902500,12.624902587890626,-5.713762283325195,-29.59420394897461,9.270573616027832
1757491831020942800,12.63494287109375,-5.5609822273254395,-23.281291961669922,3.741987705230713
1757491831030988500,12.644988525390625,-8.253486633300781,-15.613262176513672,0.5471498966217041
1757491831041029600,12.655029541015624,-10.760215759277344,-8.207398414611816,-1.7983447313308716
1757491831051070700,12.66507080078125,-10.267833709716797,-3.9049429893493652,-3.015122890472412
1757491831061111600,12.675111572265624,-5.7457098960876465,-5.0125603675842285,-1.4624083042144775
1757491831071153000,12.68515283203125,2.090512275695801,-6.80776309967041,1.0630255937576294
1757491831081190100,12.695190185546876,11.904120445251465,-7.659724712371826,0.5332335829734802
1757491831091231500,12.7052314453125,7.402422904968262,-6.590414047241211,-2.494683265686035
1757491831101276200,12.715276123046875,-2.8104934692382812,-5.575048446655273,-8.272116661071777
1757491831111318300,12.725318359375,-6.678625583648682,-5.582231044769287,-8.354416847229004
1757491831121359000,12.735359130859376,-3.1698482036590576,-9.78869342803955,-4.6937575340271
1757491831131374300,12.745374267578125,4.114360809326172,-12.957793235778809,-1.3468133211135864
1757491831141437000,12.75543701171875,7.119009017944336,-13.008745193481445,-0.11058218777179718
1757491831151478300,12.765478271484374,6.051793575286865,-12.075081825256348,-0.28790274262428284
1757491831161519000,12.77551904296875,3.952976703643799,-10.967239379882812,1.1290156841278076
1757491831171575300,12.7855751953125,1.59798002243042,-9.448193550109863,2.0213048458099365
1757491831181605000,12.795605224609375,0.8327332735061646,-7.900267124176025,3.1354315280914307
1757491831191646200,12.805646240234376,-0.00785597413778305,-6.476240634918213,3.2300772666931152
1757491831201683200,12.81568310546875,-0.37319618463516235,-6.4266357421875,2.4600422382354736
1757491831211729000,12.82572900390625,1.018059492111206,-6.7457380294799805,1.3619266748428345
1757491831221769700,12.835769775390625,1.8873791694641113,-7.192107200622559,0.35022681951522827
1757491831231818500,12.845818603515625,2.142810583114624,-7.703568458557129,-0.39549219608306885
1757491831241851600,12.8558515625,2.189347743988037,-7.778985977172852,-0.8520365357398987
1757491831251893000,12.86589306640625,2.0382885932922363,-7.619771480560303,-0.8967781662940979
1757491831261933800,12.875933837890624,1.9763386249542236,-7.350573539733887,-0.7383867502212524
1757491831271971000,12.88597119140625,2.2480058670043945,-6.634856700897217,-0.42699089646339417
1757491831282016500,12.8960166015625,2.2129905223846436,-6.60163688659668,-0.12823942303657532
1757491831292057300,12.906057373046876,2.6232969760894775,-7.086762428283691,0.07661445438861847
1757491831302098700,12.9160986328125,3.1117141246795654,-8.007556915283203,0.2364274114370346
1757491831312139800,12.926139892578124,2.188300371170044,-9.116296768188477,0.40387189388275146
1757491831322177000,12.936177001953125,0.06337152421474457,-11.548506736755371,0.5250783562660217
1757491831332217600,12.946217529296876,-0.3966892957687378,-13.183446884155273,1.2321908473968506
1757491831342263300,12.95626318359375,0.157119482755661,-13.879037857055664,1.9541175365447998
1757491831352304000,12.96630419921875,0.09816227108240128,-13.879711151123047,2.8505215644836426
1757491831362346000,12.976345947265624,0.1280149668455124,-12.212224006652832,3.45228910446167
1757491831372387600,12.9863876953125,0.6316951513290405,-9.118541717529297,2.8203697204589844
1757491831382425000,12.996425048828126,1.5466543436050415,-7.620744228363037,2.427645683288574
1757491831392464600,13.006464599609375,1.3486089706420898,-7.384541034698486,2.0351462364196777
1757491831402506800,13.0165068359375,0.21772271394729614,-8.144326210021973,1.7059435844421387
1757491831412549400,13.02654931640625,-0.4835539162158966,-9.046939849853516,1.6589573621749878
1757491831422592300,13.03659228515625,-0.46148237586021423,-9.762731552124023,2.018012762069702
1757491831432632600,13.046632568359374,0.09150339663028717,-10.229227066040039,2.511143445968628
1757491831442674700,13.0566748046875,1.4459482431411743,-10.008212089538574,2.840420961380005
