time,seconds_elapsed,z,y,x
1758972246343341000,0.057341064453125,-2.260062654301524,-0.11960793780758976,0.17243695313222707
1758972246353299200,0.06729931640625,-1.559152519506216,0.7367895496889948,0.6611134003274143
1758972246363257000,0.077257080078125,0.5188824195623397,1.710005636535585,1.6964882755756376
1758972246373215200,0.08721533203125,2.0990297963023186,2.148280441683531,3.0802263605087994
1758972246383173600,0.097173583984375,2.898843957442045,1.915458066497743,4.173163051757216
1758972246393131800,0.1071318359375,3.4081220978349447,1.5071788789018987,3.711790864138305
1758972246403089700,0.117089599609375,3.765961722525954,0.5846747421607374,2.347693299220502
1758972246413047800,0.1270478515625,2.3275474600315094,-1.0627814992204307,1.6603353044375777
1758972246423005700,0.137005615234375,0.4130874646604061,-2.9417312052711844,0.7874852793119848
1758972246432963800,0.1469638671875,0.05078910699486732,-4.968509712094068,0.8259083873391151
1758972246442922000,0.156921875,0.20471943951249122,-4.773471416379511,2.485899700644612
1758972246452879600,0.166879638671875,-1.325513859501481,-2.8536607076302167,4.252944444480538
1758972246462837800,0.176837646484375,-3.7039942189127206,-0.33028321698457,4.38659742038399
1758972246472795600,0.186795654296875,-5.209960507154465,0.5231996982395649,4.035219685183465
1758972246482753800,0.19675390625,-5.963216330736875,-0.7945929193601011,3.3623063953384755
1758972246492711700,0.206711669921875,-5.491670831888913,-1.815188012497127,2.5224302729234096
1758972246502669800,0.216669921875,-0.4519646000653505,-1.1622598183214663,-0.4810796353906393
1758972246512628000,0.2266279296875,3.5889883680731054,0.22183336365967987,-1.9226789576619863
1758972246522585900,0.2365859375,0.9996762237489223,1.480542508649826,-0.8138546691909432
1758972246532543700,0.246543701171875,-0.5275678303211927,2.8575834340319037,-1.5604253159210084
1758972246542501600,0.256501708984375,-2.0887959870576855,1.5765128196299074,-0.9675187519878149
1758972246552459800,0.266459716796875,-2.1202608003795147,-1.1773679556041956,-0.18109218794852494
1758972246562417700,0.276417724609375,-2.583358204355836,-4.439986188483238,1.0110220858886838
1758972246572375800,0.286375732421875,-6.403529655975103,-7.840550418284535,0.3852735750615597
1758972246582333700,0.296333740234375,-6.107610773146152,-9.490733454281091,0.1615121659487486
1758972246592291800,0.306291748046875,-4.538917687356472,-9.460101000130177,-0.057230538219213485
1758972246602250000,0.31625,-3.4994846227586267,-9.328788157612085,0.4212923984259367
1758972246612207600,0.32620751953125,-4.173408550950884,-11.05890748463273,0.8944277968138455
1758972246622165800,0.336165771484375,-4.0573341940969225,-9.260203866207599,2.4031699795097112
1758972246632123600,0.34612353515625,-4.309279495164752,-11.252227578252553,0.28040917900800705
1758972246642081800,0.356081787109375,-4.753997192841768,-11.907786413192749,0.35855098783075806
1758972246652039700,0.366039794921875,-4.123520192188025,-10.549560955178737,2.3911925414681434
1758972246661997800,0.375997802734375,-3.943995399686694,-11.3099947075665,1.6547808851808308
1758972246671955700,0.385955810546875,-3.3122008866935966,-12.049717680358887,-0.822415284526348
1758972246681913900,0.395913818359375,-2.123818200600147,-11.94860942196846,-3.2739088577002287
1758972246691872000,0.4058720703125,-1.1897808624535797,-10.713934355777502,-3.800058053395152
1758972246701829600,0.41582958984375,-0.8495891226559877,-8.758008377552033,-2.4026374800682064
1758972246711787800,0.425787841796875,-0.8355611818253994,-6.766666802552342,-0.903380918598175
1758972246721745700,0.43574560546875,-0.217185537853837,-5.165342782270908,-0.039079379978775974
1758972246731703800,0.445703857421875,1.4531249248921871,-3.9382013264551756,0.5882634143024683
1758972246741661700,0.45566162109375,9.274790025442838,-2.7645973995596167,2.674702024579048
1758972246751619800,0.465619873046875,12.153692434096335,-2.3173829166308044,3.838417302405834
1758972246761577700,0.47557763671875,9.25494375372231,-2.236732778248936,3.2786347171783445
1758972246771536000,0.485535888671875,11.075817702901363,0.46880891349092124,5.524251497498154
1758972246781493800,0.49549365234375,9.51250104945302,4.203883476452529,7.688137504592538
1758972246791451600,0.50545166015625,8.014423468634485,7.5057006240367885,10.024726933735609
1758972246801409800,0.515409912109375,8.09015470918417,10.016515570229291,12.481078468334674
1758972246811367700,0.52536767578125,7.812039194071293,11.751727251952886,13.417836755877733
1758972246821325800,0.535325927734375,7.586758028045296,12.53133098423481,13.429262989777326
1758972246831283700,0.54528369140625,6.166091019165515,13.503300870412588,12.56484279321432
1758972246841241900,0.555241943359375,3.7198572662159797,14.590826058006286,11.283389609235524
1758972246851199700,0.56519970703125,0.8958151595190167,14.824833551323414,9.920606049525738
1758972246861157600,0.57515771484375,-1.9303543145954607,14.045343216288089,9.446562304121255
1758972246871115800,0.58511572265625,-4.350570413713157,12.805464736235141,8.985636983487009
1758972246881073700,0.59507373046875,-6.383756449490785,11.499198598039149,7.96754773569107
1758972246891031800,0.60503173828125,-7.014210069268941,10.426516759312152,5.599179020449519
1758972246900989700,0.61498974609375,-6.821062994128465,9.517544304317235,3.269908974409103
1758972246910947800,0.62494775390625,-7.134442130324244,9.631543023940921,2.854595065870881
1758972246920905700,0.63490576171875,-7.177151391237974,9.445169972980022,2.4249685543417927
1758972246930863900,0.64486376953125,-7.0660735274970525,7.325394325768947,1.156290680783987
1758972246940821800,0.65482177734375,-6.384146325591206,5.576838009303808,-0.11242343313097954
1758972246950779600,0.664779541015625,-6.001563889309764,5.08540473768115,-0.37469314433634276
1758972246960737800,0.67473779296875,-5.672991860157251,4.383572519604861,-0.7663824316591024
1758972246970695700,0.68469580078125,-3.724108786180615,2.4823849705219265,-1.2285276494771242
1758972246980653800,0.69465380859375,-0.9002899668455123,1.224309154999256,-1.1975006430506705
1758972246990611700,0.70461181640625,2.147595382028818,-0.6210811035379767,-1.5404852284371853
1758972247000569900,0.71456982421875,2.7103432468026876,-0.5874404074817896,-1.631105995082855
1758972247010527700,0.72452783203125,3.382303765967488,-1.6168009908765553,-3.2570266964823005
1758972247020486000,0.73448583984375,2.3538977068185805,-3.697040454252064,-3.23416312276721
1758972247030443800,0.74444384765625,-1.2760497175000607,-2.4530992548048496,-2.4874486836522816
1758972247040401700,0.754401611328125,-3.5790164246350527,0.41187808887064453,-3.2047675169348713
1758972247050359800,0.76435986328125,-2.9756898812353607,2.2065958525300027,-3.9667461606770753
1758972247060317700,0.774317626953125,-2.6254011103153228,2.0450418932661414,-3.9820857686281204
1758972247070275800,0.78427587890625,-1.3792360973387956,2.34692377615273,-3.4622488248199224
1758972247080233700,0.794233642578125,-0.32328561318218707,2.0875129615098236,-2.27760123360157
1758972247090192000,0.80419189453125,-0.33777707987129685,0.7246849781364202,-0.19878829589784144
1758972247100149800,0.814149658203125,0.063281508821249,-0.14897534045875072,1.6859458387732504
1758972247110107600,0.824107666015625,3.2940468058437107,0.4636866020411253,2.2837609252750872
1758972247120065800,0.834065673828125,0.1632534566581249,1.2381997331857681,-1.5822680221557617
1758972247130023700,0.844023681640625,-2.187750866806507,0.5573726014763116,-4.227488516184687
1758972247139981800,0.85398193359375,-1.6600965272456407,0.0745054981470108,-2.912292637079954
1758972247149939700,0.863939697265625,-0.5010229377448558,1.1567816791713237,-2.6941683570712804
1758972247159897900,0.87389794921875,2.4813427679926154,-3.2726836998194453,-5.101723419797421
1758972247169855700,0.883855712890625,3.0559681175649165,-4.97066952047646,-6.064792206639051
1758972247179814000,0.89381396484375,2.8894688108533617,-5.215495929449796,-7.077333757179975
1758972247189771800,0.903771728515625,3.3285411961197853,-5.111764336818457,-7.335424136874079
1758972247199729700,0.913729736328125,3.0716432410806416,-3.945236924180388,-5.861667342841625
1758972247209687800,0.923687744140625,2.6009230871409175,-3.1926334270268675,-4.2967464690670365
1758972247219645700,0.933645751953125,1.5388392147958279,-4.656653839942813,-2.3975639761961993
1758972247229603800,0.943603759765625,-1.6947545836508273,-13.487587752974033,-3.494976205423474
1758972247239561700,0.953561767578125,-4.078651122891903,-21.082261960971355,-4.744052429671585
1758972247249519900,0.963519775390625,-2.758204483652115,-17.65862372957468,-0.5195851610042155
1758972247259477800,0.973477783203125,1.8229180222272872,-5.360895164987444,9.703367904701828
1758972247269436000,0.983435791015625,-0.2748690805375576,-2.3030372881531713,9.681146720543504
1758972247279393800,0.993393798828125,-1.6968430803626775,-5.000063957265019,6.022780864861607
1758972247289351700,1.0033515625,0.222017780315876,-2.8381051188409328,4.169816956199705
1758972247299309800,1.013309814453125,0.32828495583944023,-2.480959906154871,0.23282018322870135
1758972247309267700,1.023267822265625,0.23986250295564532,0.6987567561537027,0.20518501119762658
1758972247319225900,1.033225830078125,0.4653038279794156,4.030636741307378,0.9210327490143477
1758972247329183700,1.043183837890625,-0.6223271580763161,3.4137323389321566,-0.3130143214713782
1758972247339142000,1.053141845703125,-3.27814021165967,1.5547405482828616,-2.2217234251655635
1758972247349099800,1.063099853515625,-7.098032846337556,-0.4319277742087841,-2.8631559734672307
1758972247359057700,1.0730576171875,-9.037851154848934,-1.8106553375035523,-2.2234981797531246
1758972247369015800,1.083015869140625,-7.355040691491961,-1.5949398722022772,-0.04896875969991087
1758972247378973700,1.0929736328125,-3.906924436920881,-2.5347435187906027,1.1053989901974797
1758972247388931800,1.102931884765625,-1.2132494163244962,-4.2592701403707265,0.9926293739773332
1758972247398889700,1.1128896484375,0.12658172234296797,-3.830960556659102,1.1742154098574071
1758972247408848000,1.122847900390625,0.1593196243405342,-2.456806292629242,1.169240032597631
1758972247418805800,1.1328056640625,-0.18325097341760993,-1.5170353792667388,0.6232848241273313
1758972247428764000,1.142763916015625,-0.720753045514971,-0.29014088394939896,-0.24614867055304346
1758972247438721500,1.152721435546875,-1.396451436033845,0.40700025370121,-1.0095338200923054
1758972247448679700,1.1626796875,-1.5752192726880312,0.9399410092324018,-1.4896598810851573
1758972247458637800,1.172637939453125,-1.5561901625692844,1.186551963534951,-1.8081152976319192
1758972247468595700,1.182595703125,-1.6883166595578192,1.155745906382799,-2.049690303593874
1758972247478553900,1.192553955078125,-2.0739346641428766,0.8967249678403139,-1.743296642371267
1758972247488511700,1.20251171875,-2.606042329850793,0.48310325017273426,-1.0281235889457165
1758972247498470000,1.212469970703125,-2.889608511584997,-0.21626725396513938,-0.25649777674041685
1758972247508427800,1.222427734375,-3.0593156744271517,-0.8757195892125368,0.12511866405308245
1758972247518385700,1.2323857421875,-3.1208944709837434,-1.2040285835146902,0.7463666485905647
1758972247528343600,1.242343505859375,-3.1083336800962686,-1.3597259257048369,1.377681122981757
1758972247538301700,1.2523017578125,-2.9545214210003614,-1.7707313233941793,1.7912419042423366
1758972247548259800,1.262259765625,-2.8294945268839595,-3.080607468780875,1.9849077425599098
1758972247558217700,1.2722177734375,-2.4837819778382775,-3.4374604205220938,1.8535019610613583
1758972247568175900,1.28217578125,-1.8587609045028686,-3.789388190820813,1.3592153458341956
1758972247578133800,1.2921337890625,-1.014287590490654,-2.9559213509261606,1.247648967923969
1758972247588092000,1.302091796875,-1.235273616605997,-1.6615531557947396,1.4175211120694875
1758972247598049800,1.3120498046875,-2.3197119441002605,-1.1574223151624201,0.7979619574017822
1758972247608007700,1.322007568359375,-3.201765997031331,-0.5365595305502414,0.2633284264780581
1758972247617965800,1.3319658203125,-4.0733921794503924,-0.4856102645576,-0.08426029170304536
1758972247627923700,1.341923828125,-4.449392899253964,-0.6984773546904325,-0.3491054063543677
1758972247637881900,1.3518818359375,-4.032051868802308,-0.35385493896901604,-0.03505509289875627
1758972247647839700,1.36183984375,-2.9676772551715374,-0.16442016234993934,0.3600304127335548
1758972247657798000,1.3717978515625,-1.8027900109559296,-0.3658914137214422,0.5153128905124962
1758972247667755800,1.381755859375,-1.0518599999725817,-0.24905191771388052,0.5679249751508235
1758972247677714000,1.3917138671875,-0.581948787795566,0.20643384221494196,1.0043776794381438
1758972247687671600,1.401671630859375,-0.32014146993756293,0.5120996275544166,1.5617070262946187
1758972247697629700,1.411629638671875,-0.9738158063054084,1.2204489724397658,2.394464841137081
1758972247707587800,1.421587890625,-2.837030767607689,0.7186702478915452,2.6113062417283652
1758972247717545700,1.431545654296875,-4.5487680502414705,-0.7685235353410244,1.9806053691908716
1758972247727504000,1.44150390625,-5.520899264460802,-1.8388439056336878,1.0635691424667835
1758972247737461800,1.451461669921875,-7.9776243085473775,-3.0296248850405214,0.12703969524353742
1758972247747420000,1.461419921875,-3.1561598456323146,-4.085737281760573,0.6917819487050175
1758972247757377800,1.471377685546875,3.9100083744108676,-3.940397667455673,1.5804326234221457
1758972247767335700,1.481335693359375,7.15891781541109,-2.786742595872283,2.5300027540042995
1758972247777293600,1.49129345703125,7.120718140876293,-1.298625852575898,2.707738617262244
1758972247787251700,1.501251708984375,6.0678036634147166,-0.45850189287960524,2.1788152806788683
1758972247797209900,1.5112099609375,4.963383455121517,-0.7283247959434985,1.2150152569532393
1758972247807166700,1.521166748046875,3.539716095381975,-1.1255302163392304,0.18156492002680896
1758972247817124900,1.531124755859375,0.7039901267625391,-1.372392515054345,-0.959471785262972
1758972247827082800,1.541082763671875,-2.636206581968069,-1.5805547884970903,-2.20148640056178
1758972247837040600,1.55104052734375,-3.283525996351242,-1.605537254062295,-2.9098393987089395
1758972247846998800,1.560998779296875,-2.0270646302878856,-1.222347499537468,-2.509397188349068
1758972247856956700,1.570956787109375,0.12225552970692515,-0.00013853168785572052,-1.3802607642114162
1758972247866914800,1.580914794921875,1.8265034794986248,0.8381102817863225,-0.1316733463935554
1758972247876872700,1.590872802734375,2.4100050862267612,1.4888403813958166,0.5711567966789007
1758972247886830800,1.600830810546875,2.663452608551085,1.8323223949104546,0.843535667835921
1758972247896788700,1.610788818359375,3.0360546258270737,1.7389876931309698,0.8497833300538361
1758972247906747000,1.620746826171875,3.10697846609503,1.4786089102387427,0.9370194226972758
1758972247916704800,1.630704833984375,2.95634249894768,1.176899169048667,0.8361312367983162
1758972247926662700,1.64066259765625,2.8894281865820286,1.0188169775485991,0.7739118042506277
1758972247936620800,1.650620849609375,2.876937246060371,0.8749047656983137,0.6673683690689504
1758972247946578700,1.66057861328125,2.71042303404063,0.9158867644280194,0.5380591214582324
1758972247956536800,1.670536865234375,2.610907597799599,1.0635989530831576,0.35969986560493705
1758972247966494700,1.68049462890625,2.770297949288785,1.2425848164021969,0.41526100930720566
1758972247976452900,1.690452880859375,3.0712405054986474,1.5346727427661417,0.5012340962775051
1758972247986410800,1.70041064453125,3.431633029542863,2.0215812304407357,0.5129107978068291
1758972247996368600,1.71036865234375,3.5602857129409906,2.6044921777993437,0.3024488691195845
1758972248006326800,1.720326904296875,3.4847514562681314,3.1244787592113017,0.05134601022526621
1758972248016284700,1.73028466796875,3.288793999882042,3.6208635157614943,-0.0859672417514026
1758972248026242800,1.740242919921875,2.9860934940889474,4.010100733757019,-0.2053808260306716
1758972248036200700,1.75020068359375,2.6181615144506094,4.216083909595012,-0.22877163849025964
1758972248046158800,1.760158935546875,2.2377774649962783,4.160673572540283,-0.19189532151371239
1758972248056116700,1.77011669921875,1.8224582957610487,3.9019314509391783,-0.1382568164370954
1758972248066075000,1.780074951171875,1.331612468637526,3.5268092675358056,-0.07498597514033317
1758972248076032800,1.79003271484375,0.7682698528409003,3.0424545559972525,0.056323214115947484
1758972248085990700,1.79999072265625,0.1243067631483078,2.4314263521790505,0.13439444192051886
1758972248095948800,1.80994873046875,-0.6801648684084415,1.5986486635923385,0.05421762013882398
1758972248105906700,1.81990673828125,-1.729669829687476,0.6401888318508863,-0.09079612321257591
1758972248115864800,1.82986474609375,-3.1755133653998375,-0.5626695388406515,-0.4419358118735254
1758972248125822700,1.83982275390625,-5.314441456848383,-1.9494196650713682,-0.6803960468158126
1758972248135780900,1.84978076171875,-8.1518673612535,-3.450814992135763,-0.4412150963835418
1758972248145738800,1.85973876953125,-10.375823513907193,-5.019603354993462,0.36703956084325906
1758972248155697000,1.86969677734375,-10.45727430114746,-6.299306480434536,1.3368264038935302
1758972248165654800,1.87965478515625,-8.208796286177634,-6.8514008492469785,1.8839371390745043
1758972248175612700,1.88961279296875,-5.030606979566812,-6.369090210756659,1.8871325741149485
1758972248185570800,1.89957080078125,-2.9057603127017617,-4.618755194181204,1.5532117312803864
1758972248195528700,1.90952880859375,-2.135380043578148,-2.3936153847008943,0.20148922541961073
1758972248205486800,1.91948681640625,-1.8891826385125516,-0.7264835519909858,-1.2919978127382694
1758972248215444700,1.92944482421875,-0.9161588593676686,-0.40149464202225205,-2.5704776799947022
1758972248225403000,1.93940283203125,1.1533610570728778,-1.3054659277290106,-4.500820888674259
1758972248235360800,1.94936083984375,2.475965751129389,-1.5077742144465445,-5.659739579874277
1758972248245318700,1.959318603515625,1.6549810839280485,-0.682135291698575,-5.293049124729633
1758972248255276800,1.96927685546875,1.618019719016552,0.19128478839993476,-4.022420701625943
1758972248265234700,1.979234619140625,3.402483215165138,1.675249088191986,-2.9975501231268047
1758972248275192800,1.98919287109375,4.972281047326326,3.697423023828864,-2.420974370139092
1758972248285150700,1.999150634765625,5.9814312018632885,5.208285851940512,-2.315323207622021
1758972248295108900,2.00910888671875,5.699368994951248,5.984564823713899,-2.5005019342318175
1758972248305066800,2.019066650390625,4.778959492401778,6.118149702817202,-3.0313369496554134
1758972248315025000,2.02902490234375,3.2713211792945858,5.5850546335071325,-3.629984395328164
1758972248324982800,2.038982666015625,0.5244494060397148,4.039615582054854,-3.9322693060576914
1758972248334940700,2.048940673828125,0.017745792309939862,0.8277496312916278,-3.2104391328305004
1758972248344898800,2.05889892578125,3.919840032595396,-1.5819599791198968,-2.272697533338517
1758972248354856700,2.068856689453125,6.065746146363019,-1.5208102216303347,-2.0777385864704847
1758972248364814800,2.07881494140625,5.560894590240717,-1.211543196928501,-1.6719854102209208
1758972248374772700,2.088772705078125,4.3924552065014835,-1.6092378621459007,-1.0257371322005986
1758972248384731000,2.09873095703125,3.3120915811002254,-1.7851994092077015,-0.6099570674553513
1758972248394688800,2.108688720703125,2.6220272499680517,-1.7862118011206387,-0.0051079906634986395
1758972248404647000,2.11864697265625,1.7256373593010008,-1.436654851606488,1.2260067526973784
1758972248414604800,2.128604736328125,1.3122140868149696,-1.4381103111118076,2.0372392566911874
1758972248424563000,2.13856298828125,1.6339935332179067,-1.2098118430912495,2.427400165402889
1758972248434520800,2.148520751953125,1.994203978693485,-0.7859189067780971,2.4408774866133927
1758972248444479000,2.15847900390625,2.252674882137775,-0.8767319811254739,2.6142344041347503
1758972248454437000,2.16843701171875,1.01275431650877,-1.4927952565014362,3.535677049124241
1758972248464395000,2.17839501953125,0.0974187562227249,-1.9818191288948057,3.6611473030939696
1758972248474353000,2.188352783203125,-0.5527225837133825,-2.007928552663326,3.966116338340938
1758972248484310800,2.198310791015625,-1.267816288292408,-1.6679630228370428,4.1012458165377375
1758972248494269000,2.20826904296875,-1.5463596734285354,-1.3643757973372936,3.496116023108363
1758972248504226800,2.218226806640625,-1.2050455785375087,-1.03188922508955,2.8824592243522402
1758972248514185000,2.22818505859375,-0.6858814924895763,-0.4612748647242784,2.2041002363219855
1758972248524143000,2.23814306640625,-0.1492283653717488,0.18737375243604182,1.6269385001398622
1758972248534101000,2.24810107421875,0.2937490645091981,0.6614619215041398,1.2168667300388216
1758972248544059100,2.25805908203125,0.6122539462208747,0.8941156621247529,1.058304207675904
1758972248554016800,2.268016845703125,0.7697557074844836,0.8042302240163087,0.990366543611884
1758972248563975000,2.277974853515625,0.7548398779034614,0.6455547427982091,0.8324339897155761
1758972248573932800,2.287932861328125,0.5265571919739246,0.6223275964677334,0.7022413833990693
1758972248583891000,2.297890869140625,0.2454278819978237,0.8319342234998941,0.7171734334625304
1758972248593848800,2.307848876953125,0.03352935376935638,0.979113328191638,0.772836137843132
1758972248603807000,2.317806884765625,-0.12495556417955085,1.1217980440735815,0.7784780892528593
1758972248613765000,2.32776513671875,-0.2651034367939457,1.198095101812482,0.7300957511387764
1758972248623723000,2.337722900390625,-0.44486035755071784,1.2733406046718359,0.5635932295568287
1758972248633681000,2.347680908203125,-0.6194383047670126,1.2444149544388055,0.4751579902566969
1758972248643638800,2.357638671875,-0.7432377029150724,1.1573270380944012,0.407301428604871
1758972248653596000,2.367595947265625,-0.8632312059741467,1.0546399860799311,0.3253413766682148
1758972248663554000,2.377553955078125,-0.9569027384925634,0.9123959997028112,0.29713191188052296
1758972248673512000,2.387511962890625,-1.0439683699399231,0.7259767715126275,0.3395150095798075
1758972248683470000,2.397469970703125,-1.0868201811295002,0.5732751040071249,0.39131767753139135
1758972248693428000,2.407427978515625,-1.1211935023091733,0.4378226774662733,0.36896073816418645
1758972248703385900,2.4173857421875,-1.168793604004383,0.217439220353961,0.21814386149197815
1758972248713343700,2.42734375,-1.2152408824026584,-0.08860241256058216,0.04321618752256035
1758972248723302000,2.437302001953125,-1.2830927678793669,-0.5227595532566308,-0.12259382175058126
1758972248733260000,2.447260009765625,-1.3177480478055774,-1.0746230359226465,-0.2414529870174825
1758972248743218000,2.457218017578125,-1.4137766648441552,-1.6186387276977299,-0.26605755918100477
1758972248753176000,2.467176025390625,-1.5861545082002877,-1.9543980380058288,-0.13928382139727472
1758972248763134000,2.477134033203125,-1.8561463380903005,-1.9697662875294684,0.13361322841495274
1758972248773092000,2.487092041015625,-2.192006770685315,-1.7943910159230232,0.4832588791258633
1758972248783049700,2.4970498046875,-2.4784189895004034,-1.517355697262287,0.9154524646639823
1758972248793007900,2.5070078125,-2.6124562885463236,-1.2423603599965571,1.3570029304817317
1758972248802965800,2.5169658203125,-2.819281175905466,-1.145316866827011,1.6887551971055565
1758972248812924000,2.526923828125,-3.059756403931975,-1.1529191585242748,1.8627936671502887
1758972248822882000,2.536882080078125,-3.0851515419512987,-1.2142226452708245,1.9483470674037933
1758972248832840000,2.54683984375,-3.0494162117034196,-1.3427496564626693,1.929345868205279
1758972248842798000,2.556798095703125,-2.971080926135182,-1.3310276544868946,1.8985965096764266
1758972248852756000,2.566755859375,-2.909467642787099,-1.3091624441593885,1.9209331369079647
1758972248862713900,2.5767138671875,-2.915356700825691,-1.4142238240897655,1.9962517050035298
1758972248872671700,2.586671630859375,-2.9449533821880816,-2.659593302774429,2.064509394802153
1758972248882630000,2.5966298828125,-3.0566099225997925,-4.739790388312936,2.2575841353587807
1758972248892587800,2.606587890625,-3.1166999419033528,-5.922004614904522,2.4474834607496856
1758972248902546000,2.6165458984375,-3.2927216947197913,-5.691768456819653,2.368185613759607
1758972248912504000,2.626504150390625,-4.333248984295129,-4.148087062689662,2.1751203716836867
1758972248922462000,2.6364619140625,-6.912597368487715,-2.5360920107901093,1.6852492348112165
1758972248932420000,2.646420166015625,-8.797155562070012,-1.2053928576052189,0.8960212034851313
1758972248942378000,2.6563779296875,-8.932791528484225,-0.14381108956336974,-0.08426073009446262
1758972248952336000,2.6663359375,-7.900493138071894,0.6640250499904156,-1.0713323238141834
1758972248962293800,2.676293701171875,-5.374925443905592,0.9483458494842052,-1.8867960356369613
1758972248972252000,2.686251953125,-2.2013573673546314,0.43701019203960895,-2.446222354772687
1758972248982210000,2.6962099609375,0.3906792334973812,-0.30242928763628,-2.156151905710995
1758972248992168000,2.70616796875,2.5215163729488848,-1.031221116569638,-1.2066769060663878
1758972249002126000,2.7161259765625,4.753793779224157,-2.1647025841742753,-0.697210111233592
1758972249012084000,2.726083984375,7.235659694308042,-3.485036995211243,-0.7485233882330358
1758972249022042000,2.7360419921875,8.923995058566332,-4.370804515707492,-0.6306688699640334
1758972249031999700,2.745999755859375,7.924282594460249,-4.366168088078498,0.04672127303406596
1758972249041958000,2.7559580078125,5.48287494649291,-3.6955923012703655,0.29797186983600255
1758972249051915800,2.765915771484375,3.2779321218669413,-2.6498352943480015,-0.14153181951977312
1758972249061874000,2.7758740234375,-0.5345981673493981,-1.8831611862659454,-0.7701504789557307
1758972249071832000,2.78583203125,-4.997219089227914,-1.6351695912599562,-0.9170311852227896
1758972249081790000,2.7957900390625,-3.5996439098611472,-1.6215905632406473,-1.103755606904626
1758972249091748000,2.805748046875,-0.546482081888616,-1.5179355429768562,-0.9245864959731698
1758972249101706000,2.8157060546875,1.2930322703525423,-1.17525198636353,-0.4683386656306684
1758972249111663900,2.825663818359375,2.4553230683341623,-0.5818997244894504,0.0774522191233933
1758972249121621800,2.835621826171875,3.457018230690062,0.11288637446761131,0.36822482510507104
1758972249131580000,2.845579833984375,4.1238127453938125,0.7699684734523295,0.8233950893439352
1758972249141537800,2.855537841796875,4.314436439536512,1.0746832416772842,1.2987068088576197
1758972249151496000,2.865495849609375,3.98308383975476,1.2533821047484874,1.242384909915924
1758972249161454000,2.8754541015625,3.89531612445265,1.3764841682821511,0.6859205093257129
1758972249171412000,2.885411865234375,3.9652760881245133,1.6116069293648003,0.3112114367678761
1758972249181370000,2.8953701171875,4.126249617151916,1.9312404497802256,0.01622062856927514
1758972249191328000,2.905327880859375,4.265119158659875,2.276699900847673,-0.15003434799239038
1758972249201286000,2.915285888671875,4.232179596610367,2.636113058465719,-0.3202900846280157
1758972249211243800,2.925243896484375,4.08906379583478,2.93635915684402,-0.4343528093986213
1758972249221201000,2.935200927734375,4.082291817481815,3.0865391969174145,-0.6473661761343479
1758972249231159000,2.945158935546875,4.1641318963006135,3.2121582117080685,-0.7931056034117937
1758972249241117000,2.955116943359375,4.162754762728512,3.2965982438921926,-1.057726115527004
1758972249251075000,2.965074951171875,4.221631022328138,3.384536055064201,-1.4274272967949508
1758972249261032700,2.97503271484375,4.219457477681338,3.724892630034685,-1.6589437039487063
1758972249270990800,2.984990966796875,4.045927249419689,4.17218690020144,-1.7161054147154091
1758972249280949000,2.994948974609375,3.760260588274896,4.6149148853659625,-1.6958754043743014
1758972249290907000,3.004906982421875,3.4064190933093426,4.952199797806143,-1.698285972647369
1758972249300865000,3.014864990234375,3.1562372947826978,5.127333661872148,-1.5896905733719466
1758972249310823000,3.024822998046875,2.93623728403002,4.994045135366917,-1.469739228954166
1758972249320781000,3.034781005859375,2.639994283813238,4.521212519317865,-1.2366045729488133
1758972249330739000,3.044739013671875,2.0816049065098166,3.7956501738250252,-1.0165456716157495
1758972249340697000,3.054697021484375,1.1667734963536263,2.8659587559282778,-0.8844533691577613
1758972249350654700,3.06465478515625,-0.24177345114350318,1.5471610529392956,-0.9877237740181386
1758972249360612900,3.07461279296875,-2.579152569359541,-0.3868278187662363,-1.3986226425930857
1758972249370571000,3.084571044921875,-6.489134055763483,-2.919223313125968,-1.6038459399744867
1758972249380528600,3.094528564453125,-13.20951899961233,-6.360163392457365,-0.7788257336467505
1758972249390486800,3.10448681640625,-19.922635998284814,-10.708334636074303,1.1934409923963247
1758972249400444700,3.114444580078125,-18.400674268531798,-14.67768834890127,1.2853295870207249
1758972249410402800,3.12440283203125,-10.269998163866996,-14.709016384100913,1.28860714738667
1758972249420360700,3.134360595703125,-4.485651084332168,-9.838304198414086,3.545365207184851
1758972249430318800,3.14431884765625,-3.0616917559087273,-4.7672699313908815,3.7355700913935896
1758972249440276700,3.15427685546875,-3.17398864005059,-0.7113175470411777,1.1497222621791063
1758972249450234600,3.164234619140625,-1.2547864185884594,1.3784727117508648,-0.6920536052532493
1758972249460192800,3.17419287109375,2.9444875182420014,1.0943617556154728,-3.4424639278978106
1758972249470150700,3.184150634765625,5.878009405833482,1.0256634824424982,-5.690455036133527
1758972249480108800,3.19410888671875,6.3584630182802675,1.7963222762465476,-6.170085057237744
1758972249490066700,3.204066650390625,7.894233493155241,2.0879490148395297,-5.906721121054887
1758972249500024800,3.21402490234375,8.601946878224611,2.676540930444002,-5.7629445182830095
1758972249509982700,3.223982666015625,7.032829429543018,3.9543507894843812,-5.723837081253528
1758972249519940900,3.23394091796875,5.695927330064773,4.889778705206513,-5.587993609568477
1758972249529899000,3.24389892578125,4.46494439639002,5.244062098720669,-5.370904517826438
1758972249539856600,3.253856689453125,3.4817864689826963,5.226889430123567,-5.282512533146143
1758972249549814800,3.263814697265625,3.0215681275740263,4.4808729101449245,-4.681970944289863
1758972249559772700,3.273772705078125,3.1462735346511006,2.9195687655627727,-3.5710710185885426
1758972249569730800,3.283730712890625,3.306546806454658,1.1846925994038582,-2.6632816358983513
1758972249579688700,3.293688720703125,4.122635226047039,0.18896715910732745,-2.5131857669770716
1758972249589646800,3.303646728515625,4.290581224435567,-0.42140754923820495,-2.652754396665096
1758972249599604700,3.313604736328125,3.7211283090651035,-1.4441998601585626,-2.335540943003446
1758972249609563000,3.32356298828125,3.4768998659849166,-2.0831915911793706,-1.7621408974424004
1758972249619520800,3.333520751953125,3.3426597378432747,-2.201792251640558,-0.40519875723719595
1758972249629478700,3.343478759765625,3.2573183729052544,-2.2053128269821403,0.7447723651364445
1758972249639436800,3.353436767578125,3.359946388208866,-2.0462907242834567,1.8659622141838073
1758972249649394700,3.363394775390625,3.5724855615615843,-2.289568734771013,2.567303726133704
1758972249659352800,3.373352783203125,2.99892930252552,-2.3234417782783505,2.9869594632685184
1758972249669310700,3.383310791015625,2.420367051895708,-2.287090361958742,3.8994133306384082
1758972249679267800,3.393267822265625,2.0311270574212075,-2.85922214114964,5.680269157683849
1758972249689225700,3.403225830078125,1.2117759097058325,-2.8680279634177683,5.909633209109306
1758972249699183600,3.41318359375,-0.5544166742801666,-2.199136768695712,5.680027165621519
1758972249709141800,3.423141845703125,-2.201800434947014,-1.2935621394455432,5.677426627734303
1758972249719099600,3.433099609375,-3.125930711585283,-0.47704584982991216,5.092555778479576
1758972249729057800,3.443057861328125,-3.212791833436489,0.13914134418666363,4.010043450611829
1758972249739016000,3.453015869140625,-2.7328023313701153,0.7330483173340558,2.8696383212238548
1758972249748973800,3.462973876953125,-2.1859587226927277,1.2063982352554798,1.809788783802092
1758972249758932000,3.472931884765625,-1.309704295951128,1.4097621685057877,1.0026520246893167
1758972249768889600,3.4828896484375,-0.4533808966040611,1.4296896887689827,0.5917690843358635
1758972249778847700,3.49284765625,0.13570378008657133,1.4429174191325902,0.38124578085020183
1758972249788805600,3.5028056640625,0.7267793200671673,1.5878244872391223,0.4220492081426084
1758972249798763800,3.512763671875,0.8862532581865787,1.8276584947526453,0.6531709168903529
1758972249808721700,3.5227216796875,0.682586542597413,1.873978347378969,0.6618402532972395
1758972249818679800,3.5326796875,0.48934886656403537,1.8028730130642652,0.5059358442276716
1758972249828638000,3.542637939453125,0.3135398431828245,1.662598865455389,0.4441860750183463
1758972249838595800,3.552595947265625,0.14253975445330141,1.4778034390747545,0.43138095398098225
1758972249848553700,3.5625537109375,0.03152089089062065,1.2917922071635721,0.40584728427380323
1758972249858511600,3.57251171875,-0.04048164799213409,1.0085907670885323,0.32991146106272934
1758972249868469800,3.5824697265625,-0.034970227626897395,0.565177137747407,0.11199424793347716
1758972249878427600,3.592427734375,-0.00019354981072247028,0.10597089599072933,-0.09257686914950608
1758972249888385800,3.6023857421875,-0.13413498726673423,-0.2980436198979616,-0.1622718982748687
1758972249898343700,3.61234375,-0.4958353059738874,-0.6514677662342786,-0.10157689881548285
1758972249908301800,3.6223017578125,-0.8496462596707045,-0.9084159901559352,0.013523060048371553
1758972249918260000,3.632260009765625,-1.0782347966790198,-1.0974936239004134,0.14695231019854546
1758972249928217600,3.642217529296875,-1.1950181785851717,-1.206278408268094,0.24921339188590644
1758972249938175700,3.65217578125,-1.3053741577923297,-1.1263988158673048,0.3389722810052335
1758972249948133600,3.662133544921875,-1.359767572889477,-0.9735422500610351,0.3654704118303954
1758972249958091800,3.672091796875,-1.3540548943310975,-0.8134639163076877,0.282605373878032
1758972249968049700,3.682049560546875,-1.3616593779854476,-0.6871504895120859,0.19189765960127114
1758972249978007800,3.6920078125,-1.5899299350857734,-0.6994558443337678,0.25666633824035523
1758972249987965700,3.701965576171875,-2.0572984405100345,-0.9303764775514602,0.5621959299795329
1758972249997923800,3.711923828125,-2.6237375610172746,-1.3836258567303419,1.1415209816753864
1758972250007882000,3.721882080078125,-3.0263889718592165,-1.8124755386680365,1.838027766945213
1758972250017839600,3.731839599609375,-3.435339190584421,-2.170479414010048,2.508086398011446
1758972250027797800,3.7417978515625,-3.9045997933655974,-2.254505020174384,2.9107839860826727
1758972250037755600,3.751755615234375,-3.8507583130627867,-2.070797973552346,3.036816842371225
1758972250047713800,3.7617138671875,-3.9140456671029327,-1.7944091361016035,3.103241617654264
1758972250057671700,3.771671630859375,-4.061338169041275,-1.7588719587743282,3.1364787013456223
1758972250067629800,3.7816298828125,-4.244571752932668,-2.9158108743339777,3.091664869368076
1758972250077588000,3.791587890625,-4.310802174687385,-4.804789806967974,3.223824976365268
1758972250087544600,3.801544677734375,-4.3693589930742975,-5.606625829324126,3.3972926607847214
1758972250097502700,3.811502685546875,-4.482956146159768,-5.227095181828737,3.1165216627269983
1758972250107460900,3.8214609375,-4.903666360783577,-4.267289780697226,2.4726260853126645
1758972250117418800,3.831418701171875,-5.307447067916393,-3.1639094368457794,1.7799819668203591
1758972250127377000,3.841376953125,-5.605348064473271,-1.9864947194904088,0.9541959637518972
1758972250137334800,3.851334716796875,-6.417310928568243,-0.95268241738379,-0.2619013162843883
1758972250147293000,3.86129296875,-7.064868243360519,-0.07243804422318935,-1.5854922448992728
1758972250157250800,3.871250732421875,-5.630393658402562,0.3240121738910675,-2.4173561796419323
1758972250167208700,3.881208740234375,-2.4779876123458147,0.18259645503163335,-2.451459086382389
1758972250177166600,3.89116650390625,0.6547113512653857,-0.12533785976171494,-1.987809309220314
1758972250187124700,3.901124755859375,3.0058816058814526,-0.5083779766827822,-1.6674819613218306
1758972250197083000,3.911082763671875,4.279449589568376,-1.0994225461363791,-1.4980688129901885
1758972250207040800,3.921040771484375,5.777240170139074,-2.3767069199979303,-1.5407926869511603
1758972250216999000,3.9309990234375,7.889523415768146,-4.018495052614808,-2.0520142164967954
1758972250226956800,3.940956787109375,9.176104025763273,-4.813547113919258,-2.3161443147465586
1758972250236915000,3.9509150390625,7.778520370829105,-4.414996708655357,-1.6662335686959324
1758972250246872600,3.96087255859375,4.950654906451702,-3.3436604393184184,-1.3268005383111536
1758972250256830700,3.970830810546875,1.2482571629501877,-2.444008185854554,-1.7589217892654239
1758972250266788600,3.98078857421875,-5.928267766952514,-2.1960195134580136,-2.7509774550080297
1758972250276746800,3.990746826171875,-5.591276869022846,-1.8049650169074534,-3.3959488449603317
1758972250286705000,4.000704833984375,-1.0721689207687974,-1.0300532418340445,-3.026730917164683
1758972250296662800,4.010662841796875,1.6529703286275266,-0.12813947317898272,-2.1842285378992554
1758972250306621000,4.020620849609375,2.7348960887789726,0.20935645166337488,-1.391462249444425
1758972250316578800,4.030578857421875,3.0846272258162495,0.5170458517849446,-0.6337593833252787
1758972250326536700,4.04053662109375,3.690747491587698,0.9854068753778934,-0.05978358370289206
1758972250336494600,4.05049462890625,4.3035707621291275,1.6079916614770888,0.38508448223024605
1758972250346452700,4.06045263671875,4.6245063050538295,2.061452637580037,0.820555920395255
1758972250356410600,4.07041064453125,4.645009871639311,2.3497230514824388,1.3443566532678901
1758972250366368800,4.08036865234375,4.579085739354789,2.519422031018138,1.4071221753910184
1758972250376327000,4.090326904296875,4.460288971799612,2.4217782338678835,1.2763459239676593
1758972250386285000,4.10028515625,4.503232918252051,2.233301488626003,1.022815691795945
1758972250396243200,4.1102431640625,4.535995370168983,2.027614080864191,0.6451314758848399
1758972250406201000,4.120201171875,4.444118758243322,2.055436153769493,0.41216589283607896
1758972250416159200,4.1301591796875,4.2539995064914224,2.1697452545166014,0.19174181145243346
1758972250426116900,4.140116943359375,4.11058530729115,2.3051889132291077,-0.2967463466290384
1758972250436074000,4.150073974609375,4.1935576050102705,2.6726182040423154,-0.9281350553002208
1758972250446032100,4.1600322265625,4.34474565308243,3.1181214991390704,-1.5558078852534294
1758972250455990000,4.169989990234375,4.240071811164915,3.719181851172447,-2.0591171803697943
1758972250465948200,4.1799482421875,3.7950302883610125,4.395149267891049,-2.30402863727808
1758972250475906000,4.189906005859375,3.1167922963619232,5.027080559006333,-2.3800448322489856
1758972250485864200,4.1998642578125,2.462533730365336,5.467935151514411,-2.483072368264198
1758972250495822000,4.209822021484375,1.9911442988619208,5.392426029282808,-2.812948758013546
1758972250505780000,4.219780029296875,1.3460560045316814,4.92184382250905,-3.1583854127272963
1758972250515738000,4.229738037109375,0.6615279724776745,4.259395228055119,-3.1737320349410174
1758972250525696000,4.239696044921875,0.34084991144537924,3.4736844110697507,-2.8365777631431817
1758972250535654100,4.249654052734375,-0.3890668298646807,2.344942831468582,-2.468222005134821
1758972250545612000,4.259612060546875,-2.0341037351444364,0.7569692911475896,-2.0486635908946393
1758972250555570200,4.269570068359375,-4.867909695486724,-1.5374989061027764,-1.4408290685512124
1758972250565528000,4.279528076171875,-9.43502851819396,-4.548150795125961,-0.8080858765311538
1758972250575486000,4.28948583984375,-13.9227187071383,-7.87502551933825,0.5472860917478799
1758972250585444000,4.299444091796875,-14.58764742797017,-10.677568910932541,1.6660304473392664
1758972250595402000,4.309402099609375,-10.875412034934758,-11.15993507900238,2.2797157415375113
1758972250605360000,4.319360107421875,-7.243429159265756,-8.302952241212129,3.086721275486052
1758972250615318000,4.329318115234375,-5.231199694538116,-4.590342169645428,2.991458235992491
1758972250625276200,4.339276123046875,-4.099586066631972,-1.8412188180714844,1.4848986580327153
1758972250635234000,4.349234130859375,-3.0143299930140373,0.44549277370274065,0.2190872798219323
1758972250645192200,4.359192138671875,-1.2571300591051577,2.156644949924946,-0.811135034968704
1758972250655150000,4.369150146484375,1.1170724768564104,1.6196137102097272,-2.939806666949391
1758972250665108000,4.37910791015625,3.7922660843446847,-0.7121633502155542,-5.165518723359703
1758972250675066000,4.389066162109375,6.179851833492517,-1.0916209324747324,-5.105701675778627
1758972250685024000,4.39902392578125,8.532377082914113,0.540206362619996,-4.248154872116446
1758972250694982100,4.408982177734375,8.672941153380274,2.7060066789031025,-4.294576139290631
1758972250704940000,4.41893994140625,6.867116304773091,4.377188663786649,-4.305871732547879
1758972250714898200,4.428898193359375,4.976133046579361,4.937124978271126,-4.310001964220405
1758972250724856000,4.43885595703125,3.27603242572546,4.806246435517072,-4.629553943832218
1758972250734814200,4.448814208984375,0.054035833831131454,4.129344952818751,-5.58558128772974
1758972250744771000,4.45877099609375,-4.775389524960517,2.846657843130827,-5.406384412008523
1758972250754729000,4.46872900390625,-1.1131833604633807,1.4409499184519052,-2.9738802014648913
1758972250764687000,4.47868701171875,2.2453318258985875,-0.14699322673082352,-1.841210342504084
1758972250774645000,4.48864501953125,4.377909671537578,-0.7437918296664953,-1.4053765007674692
1758972250784603100,4.49860302734375,6.198073134359717,-0.44597558878362176,-1.2916725263066589
1758972250794561000,4.50856103515625,6.290762523972988,-0.9500707735806703,-1.8147595579519866
1758972250804519000,4.518518798828125,5.764380688565969,-1.5953320863902567,-1.5346791725069284
1758972250814477000,4.52847705078125,4.797444704902172,-1.7099223421663046,-0.7984322052620351
1758972250824435000,4.53843505859375,3.984546605783701,-1.5556892273098228,0.031219460258632897
1758972250834393000,4.54839306640625,3.5646482920646667,-1.4511281981170177,0.8749446593172848
1758972250844351000,4.55835107421875,3.3981074842989445,-1.3629513174921273,1.5761767195433378
1758972250854309000,4.56830908203125,3.1007354800522324,-1.4083382731825111,1.8508137448906898
1758972250864267000,4.57826708984375,2.632222480767965,-1.4828987163871525,1.9349376968629657
1758972250874225200,4.58822509765625,2.3268869502961635,-1.5365566568166016,2.293082880371809
1758972250884183300,4.598183349609375,2.2788732993640006,-1.937873604184389,3.2457617906242606
1758972250894141000,4.608140869140625,1.7795593574941158,-2.0738263814628124,4.19363476189971
1758972250904099000,4.61809912109375,0.3965582815986126,-1.5776637432307004,4.309151777131855
1758972250914057000,4.628056884765625,-1.3150129237532615,-0.9039134180396795,4.226912177601457
1758972250924015000,4.63801513671875,-2.5939199303805824,-0.5229354943454265,3.7320606219679116
1758972250933973000,4.647972900390625,-2.944163108593225,-0.3293494432657957,2.8055630316764115
1758972250943931100,4.65793115234375,-2.7788077112197875,-0.025348960790038108,1.7616370395734906
1758972250953889000,4.667888916015625,-2.2424749751627444,0.582972906678915,0.9229206816527992
1758972250963847200,4.67784716796875,-1.4472177466750145,1.188094516801834,0.15613945993445813
1758972250973805000,4.68780517578125,-0.796100109052658,1.6637842758476733,-0.24486053043864667
1758972250983763000,4.697762939453125,-0.6070528704464435,2.054503256833553,-0.12686017395816743
1758972250993721000,4.70772119140625,-0.3283206847399473,2.1789882991582155,-0.20140278924517332
1758972251003679000,4.717678955078125,-0.17906126664280891,2.171964099609852,-0.3155715316735208
1758972251013637000,4.72763720703125,-0.21746201670765875,1.9106155949026344,-0.2080151931222528
1758972251023595000,4.737594970703125,-0.41051385131273416,1.4542501295298338,0.05970803424865007
1758972251033553200,4.74755322265625,-0.570251993326284,1.0535112743109465,0.2190752240579575
1758972251043510000,4.757510009765625,-0.7111649868279695,0.7603881596803664,0.40352001037001606
1758972251053468000,4.767468017578125,-0.7605242802154273,0.5382774403840304,0.47387167677320535
1758972251063426000,4.777426025390625,-0.7231020197939128,0.3950491191446781,0.48078605927154416
1758972251073384000,4.787384033203125,-0.6052717591833323,0.3646113107830286,0.5960723344877362
1758972251083342000,4.797342041015625,-0.4529489349275827,0.34251229169964786,0.6862496682148427
1758972251093300200,4.80730029296875,-0.3479022411096841,0.23825521388947962,0.6433801021728665
1758972251103258000,4.817258056640625,-0.3517665153224021,0.08154547978639602,0.5751210241347551
1758972251113216300,4.82721630859375,-0.5607429546922444,-0.18214754222035406,0.497319187856093
1758972251123174000,4.837173828125,-0.8582925074629485,-0.5732341874748468,0.46932818812467153
1758972251133132000,4.847132080078125,-1.1915174769878387,-0.981414590871334,0.5190886827241629
1758972251143090000,4.85708984375,-1.4421658701129256,-1.217617548406124,0.631912951740995
1758972251153048000,4.867048095703125,-1.590909155381471,-1.339965578702092,0.6281625862315297
1758972251163006000,4.877005859375,-1.6652473341375589,-1.3158242401361464,0.5430458238296211
1758972251172964000,4.886964111328125,-1.7630132963627576,-1.2640531363666057,0.4307182522885501
1758972251182922200,4.896922119140625,-1.952999423254281,-1.3207155193090439,0.5325510255612432
1758972251192880000,4.906880126953125,-2.382006926102191,-1.4427040686428545,0.8118969592519104
1758972251202838000,4.916838134765625,-2.973004003152251,-1.7372551702499388,1.3030408925391732
1758972251212796000,4.9267958984375,-3.6131665315181016,-2.1570167058467864,1.8934269980840384
1758972251222754000,4.936754150390625,-4.291853728589415,-2.4013842651367185,2.472190616504848
1758972251232712000,4.9467119140625,-4.760398876577615,-2.337460951280594,2.917043046477437
1758972251242670000,4.956670166015625,-4.996968329337239,-2.0610861423552036,3.299134192110598
1758972251252628000,4.9666279296875,-5.4440673691928385,-1.7815268581748007,3.531301318258047
1758972251262586000,4.976586181640625,-5.96158434562087,-2.431676527547836,3.509088901928067
1758972251272544300,4.986544189453125,-6.458914274066686,-4.688272967043519,3.4368867122873663
1758972251282502100,4.996502197265625,-6.17208938279748,-6.181565651673078,3.597210837495327
1758972251292460000,5.0064599609375,-4.741639231050014,-5.843445457452535,3.7214392747104164
1758972251302418000,5.01641796875,-3.7740222793847322,-4.149534923410416,3.2826854538738726
1758972251312376000,5.0263759765625,-4.090697534516454,-2.484953944227099,2.637112298636138
1758972251322333200,5.036333251953125,-5.531396108555794,-1.6086819818288087,1.8978170497365294
1758972251332291000,5.046291015625,-7.309709265381097,-0.8434697629928588,0.6279874488603323
1758972251342249200,5.056249267578125,-7.480387903603911,-0.13662614649534224,-0.9239028976231813
1758972251352206800,5.066206787109375,-5.046066999027133,0.15575930151045322,-1.9185282677233217
1758972251362165000,5.0761650390625,-1.4466156891286372,-0.16110007801651954,-1.8484528609782456
1758972251372123000,5.086122802734375,1.4742039532780646,-0.7144453236728906,-1.4861682395771145
1758972251382080300,5.096080322265625,2.9996202073991296,-1.2061398765802382,-1.2942258640512823
1758972251392038400,5.106038330078125,4.1074715591847895,-1.8238339680284261,-1.241187809085846
1758972251401996300,5.115996337890625,5.715104324221611,-2.938221443584561,-1.5405533252373338
1758972251411954400,5.125954345703125,7.879510555797815,-4.361235307851434,-2.0253275773622095
1758972251421912300,5.135912353515625,8.923452622252702,-5.104778131192922,-2.366979598970711
1758972251431870200,5.1458701171875,7.758345013284683,-4.815658991506695,-2.4145580733560026
1758972251441828400,5.155828369140625,5.572532421064376,-3.5502222918272017,-2.0707045961804686
1758972251451786200,5.1657861328125,2.1021314155794677,-2.3384201517015692,-2.4035130938589573
1758972251461744400,5.175744384765625,-6.755541597425937,-1.593757384419441,-3.0951109181687233
1758972251471702300,5.185702392578125,-7.495929756128787,-1.2021943538248538,-3.61906260381937
1758972251481660400,5.195660400390625,-2.33045604095459,-0.6859668326854705,-3.6071447870105504
1758972251491618300,5.205618408203125,1.3902362147808074,0.07136252394616603,-2.9456340579286215
1758972251501576400,5.215576416015625,2.9795363275304436,0.7090051784455775,-1.8823988235913216
1758972251511534300,5.225534423828125,3.386339889615774,1.2001637247800827,-0.9259291427537798
1758972251521492200,5.2354921875,3.7852936149835585,1.6732856791645287,-0.021077128689736126
1758972251531450400,5.245450439453125,4.2122909470528365,2.125627295848727,0.7656970797434449
1758972251541408300,5.255408203125,4.446209008520841,2.4431080221444366,1.2263912219703197
1758972251551366400,5.265366455078125,4.482380099837481,2.5399621302217246,1.4883702796660363
1758972251561324300,5.27532421875,4.609710594721138,2.397412438896298,1.1447523648120461
1758972251571282400,5.285282470703125,4.663649982440472,2.293149515867233,0.8231609883271157
1758972251581240300,5.295240234375,4.596218660463393,2.2808085052102802,0.5997161708828062
1758972251591198200,5.3051982421875,4.511014658169448,2.2937135794907806,0.4054319084059447
1758972251601155300,5.3151552734375,4.340063340485096,2.3890075986444947,0.2245642499282956
1758972251611113200,5.32511328125,4.201114304000139,2.5051550207346676,-0.024540055559948086
1758972251621071400,5.3350712890625,4.147737810860574,2.694738265913725,-0.5785955683775246
1758972251631029200,5.345029296875,4.1161110849753015,3.0876492039859293,-1.363535547120869
1758972251640987400,5.3549873046875,4.034833316214383,3.8198932191997765,-1.7595720698677002
1758972251650945500,5.364945556640625,3.7573312568247315,4.6176679834663865,-1.8338262236021459
1758972251660903200,5.374903076171875,3.3546380526676773,5.245189056923985,-1.9992359815113245
1758972251670861300,5.384861328125,2.941377569527924,5.588425571244954,-2.354846385845542
1758972251680819200,5.394819091796875,2.706717457520962,5.5217807234704495,-2.8552134900301693
1758972251690777300,5.40477734375,2.3907953588441013,5.025309457680582,-3.198784058611095
1758972251700735200,5.4147353515625,1.434905669851601,4.241125411871075,-3.2913536212369796
1758972251710693400,5.424693359375,-0.24337854825258254,3.3383670090854167,-3.1507381128445267
1758972251720651300,5.4346513671875,-1.199957973074913,2.321179094043374,-2.7058599639087912
1758972251730609400,5.444609375,-2.5574887268230317,1.157678335750103,-2.0829605589024722
1758972251740567300,5.4545673828125,-5.479544340765476,-0.7001853276520967,-1.3780940876968204
1758972251750525200,5.464525146484375,-10.41823992935419,-3.4983301920264958,-0.6199599905535579
1758972251760483300,5.4744833984375,-16.353796684271096,-7.082069553530216,1.0310330466516315
1758972251770441200,5.484441162109375,-16.30352780175805,-10.810433074545859,2.866595592527091
1758972251780399400,5.4943994140625,-10.403722743701934,-12.77571958631277,2.213901060976833
1758972251790357200,5.504357177734375,-6.182166540175676,-10.67585275466442,2.1051063397370275
1758972251800315400,5.5143154296875,-4.684159978766739,-6.087857440406084,2.5188205579936502
1758972251810273500,5.5242734375,-3.376143489772081,-2.4234651640415192,0.8839739150777458
1758972251820231200,5.534231201171875,-2.1686747026756406,0.877106659656763,-0.13538944430723784
1758972251830189300,5.544189208984375,-0.7027543013572692,3.082060590198636,-0.5649126415923238
1758972251840147200,5.554147216796875,2.1615113869175313,2.685290054088831,-2.7419468840733168
1758972251850105300,5.564105224609375,4.781947860562801,0.4951549224942922,-5.783515597146749
1758972251860063200,5.574063232421875,5.5835494896411895,-0.33139176274836063,-6.471152993392944
1758972251870021400,5.584021484375,6.633452510327101,0.22729484393596647,-5.1970063330352305
1758972251879979300,5.593979248046875,7.334094349575042,1.3759382248371839,-4.671576683786511
1758972251889937400,5.6039375,6.396947939497232,2.9940906303226944,-4.230423400592803
1758972251899894300,5.613894287109375,5.178335534834861,4.289465372148156,-3.2804698236510155
1758972251909852200,5.62385205078125,4.243351855748892,4.97829753113687,-2.665579975968599
1758972251919810300,5.633810302734375,3.0917350119948384,5.3185547373861075,-2.551154555365443
1758972251929768400,5.6437685546875,0.1898680534698069,5.152914093330502,-2.798803328283131
1758972251939726300,5.653726318359375,0.5475812753021717,3.7571184908568855,-2.669685365460813
1758972251949684500,5.6636845703125,4.143087939228117,2.042356891965866,-2.519608493500948
1758972251959642400,5.673642333984375,4.9777124247252935,0.8476631230294704,-2.716754575149715
1758972251969600300,5.683600341796875,4.940037066325545,-0.6788689833790064,-2.7553771512717007
1758972251979558100,5.69355810546875,5.030278478264808,-2.3280174156308173,-2.7374814290970564
1758972251989516300,5.703516357421875,4.637894778937101,-3.2392513858169316,-2.20130841364637
1758972251999474200,5.71347412109375,3.9751533390164373,-3.2999855482429266,-1.126114372902736
1758972252009432300,5.723432373046875,3.517598663859069,-3.098822924429178,-0.024875571124628185
1758972252019390500,5.733390380859375,3.347044528798759,-2.526055769944191,1.4513320501260458
1758972252029348400,5.743348388671875,2.964227406978607,-2.694047945562005,2.5142583646446464
1758972252039306500,5.753306396484375,2.5070225681722165,-2.935213493940234,3.727785428866744
1758972252049264000,5.76326416015625,1.9719687660098075,-2.6265245613873005,4.62452442523241
1758972252059222300,5.77322216796875,1.3027495083771645,-2.3576778098791835,4.6951063201949
1758972252069180200,5.78318017578125,0.7208664427615702,-2.1205945623785256,4.41432041682899
1758972252079138300,5.79313818359375,0.2646915315248072,-1.8781378051459787,3.9568057814210653
1758972252089096200,5.80309619140625,-0.28170696373358367,-1.3253040161430836,3.453239881195128
1758972252099054300,5.813054443359375,-0.6589758037768304,-0.623969518455863,2.8425565452918407
1758972252109012500,5.823012451171875,-0.7904232324600219,0.02330021156668663,1.9404820331171153
1758972252118970400,5.832970458984375,-0.6574960135478526,0.5095476049840449,1.0863780633851885
1758972252128928500,5.842928466796875,-0.3590109334927052,0.6427846935629844,0.4878591394629329
1758972252138886100,5.85288623046875,-0.18989355323724447,0.7926713036477565,0.0251875596832484
1758972252148844300,5.86284423828125,-0.16966690389700234,0.9951198756188153,-0.3064965370751917
1758972252158802200,5.87280224609375,0.0049742812812328336,1.2700813106149433,-0.2897844717271626
1758972252168760300,5.88276025390625,0.14013678496479987,1.6275836661756038,-0.1378348646979779
1758972252178718200,5.89271826171875,0.14501522292243316,1.9221096333414316,-0.052349853505566715
1758972252188676400,5.90267626953125,0.1105623337005265,2.0965531770557164,-0.06343143868595362
1758972252198633200,5.91263330078125,-0.04728431374430656,2.0787731902152298,-0.052444180725514884
1758972252208591000,5.922591064453125,-0.329054259711504,1.7733499814599751,-0.008436258303374052
1758972252218549200,5.93254931640625,-0.6897907748878002,1.3437901054263115,0.16077625288963318
1758972252228507400,5.94250732421875,-0.9809300222247839,0.9875631766289472,0.40962884863913057
1758972252238465300,5.95246533203125,-1.123546349045634,0.7479062792479991,0.6420813675992191
1758972252248423400,5.96242333984375,-1.11488892227225,0.657746700373292,0.8863026502862572
1758972252258381300,5.97238134765625,-1.0191992548644542,0.6302548823356628,1.139846910983324
1758972252268339500,5.98233935546875,-0.8372375906050205,0.6057996555149555,1.3032365612417458
1758972252278297300,5.99229736328125,-0.6459967144120484,0.5715513489544392,1.3585541054464876
1758972252288255200,6.002255126953125,-0.5610288589615374,0.399370489475131,1.3544032693773507
1758972252298213000,6.012213134765625,-0.5799854883659631,0.023971827217936514,1.253048196619004
1758972252308171300,6.022171142578125,-0.8460210549108683,-0.5188602077305317,1.0912060680635274
1758972252318129400,6.03212939453125,-1.1970831482909619,-1.208646890965104,0.9271940481230616
1758972252328087300,6.04208740234375,-1.5413760397970675,-1.7359768208771944,0.9126371149823069
1758972252338045400,6.05204541015625,-1.7597500567831097,-2.120558322021365,0.9137545747049153
1758972252348003300,6.06200341796875,-1.958198599332571,-2.1636147889375685,1.041533251747489
1758972252357961500,6.07196142578125,-2.266941307899356,-2.017486654603481,1.3336986272618174
1758972252367919000,6.081919189453125,-2.6846435728788376,-1.9639403578549621,1.794116144504398
1758972252377877200,6.091877197265625,-3.17039821434319,-2.0642624343037603,2.2786140639059242
1758972252387835100,6.101835205078125,-3.7308331259995695,-2.1404016711324454,2.695944134572148
1758972252397793000,6.11179296875,-4.503325564971566,-2.22901811221838,2.9832571016192433
1758972252407751200,6.121751220703125,-5.696770210629701,-2.2135861498087643,2.8987586172461506
1758972252417709000,6.131708984375,-7.60206256468296,-2.286355033421516,2.4440111084640024
1758972252427667000,6.1416669921875,-9.109553870534896,-3.349724269402027,2.100911810656637
1758972252437624800,6.151624755859375,-7.519410000437498,-5.237773227709532,2.7659102357238528
1758972252447583000,6.1615830078125,-4.4973447369962924,-6.173511524555087,4.015968164485693
1758972252457540900,6.171540771484375,-2.477913962587714,-5.801185109350085,4.7469168791919945
1758972252467499000,6.1814990234375,-2.5411697524458168,-4.707985383251309,3.788360601338744
1758972252477457200,6.19145703125,-3.960400006520748,-2.9170401238679884,3.0742654062777754
1758972252487415000,6.2014150390625,-7.299366150543094,-1.5087848527938126,2.040108090125769
1758972252497373200,6.211373291015625,-9.365859704899787,-0.4636380867242813,0.7035777465693652
1758972252507331000,6.2213310546875,-7.412628957107663,0.2176601696282625,-0.6577338408917188
1758972252517289000,6.2312890625,-4.131412406742572,0.18355682449638844,-1.3540440806761382
1758972252527246000,6.24124609375,-1.0393652600586414,-0.4742208555370569,-1.3921332805737852
1758972252537204000,6.251203857421875,1.5177777220666409,-1.3731173221975563,-1.1744899159498512
1758972252547162000,6.261162109375,3.25630013577342,-1.8731606012552975,-0.9055232643891126
1758972252557120000,6.2711201171875,4.279274233001471,-2.399439560809731,-1.0680787288457154
1758972252567078100,6.281078125,5.766979472887516,-3.3917098922163245,-1.4568693721175192
1758972252577035800,6.291035888671875,8.419302492398023,-4.681729829010367,-1.8771429488897322
1758972252586994000,6.300993896484375,9.998585945785045,-5.299883939185738,-1.7033492473863063
1758972252596952000,6.3109521484375,9.035608344358206,-4.702240702119469,-1.0785551877398043
1758972252606910000,6.320909912109375,6.4573559387087816,-3.042964259085059,-0.545694657837972
1758972252616868000,6.3308681640625,4.731037173014879,-1.6846721655756234,-1.3679638849571347
1758972252626826000,6.340825927734375,3.356938438564539,-0.746015350934863,-2.4614415512144565
1758972252636784000,6.3507841796875,-3.4933509423092004,-0.28203648794889447,-3.1900083392202854
1758972252646742000,6.360741943359375,-9.808543850922584,-0.2905839515417814,-3.2417861649915576
1758972252656700000,6.370699951171875,-4.2645510033831,-0.08937339693307876,-2.075738060303032
1758972252666658000,6.380657958984375,0.06947188789397478,0.1410199975401163,-1.1292379117507487
1758972252676616000,6.390615966796875,3.0382860381409524,0.5384095423310995,-0.05853928273022174
1758972252686574000,6.400573974609375,4.719868128746747,1.0148983428001404,1.6038428712345658
1758972252696532000,6.410531982421875,5.420015462476015,1.6257576197922228,2.7246844913661477
1758972252706490000,6.420489990234375,5.743171896320581,2.1140788968741893,3.231960059764981
1758972252716448000,6.430447998046875,5.545120682525634,2.1887346171468494,3.0251489086702463
1758972252726406100,6.44040625,5.093083017224073,1.978140732643008,2.188236896757781
1758972252736364000,6.450364013671875,4.566505074723064,1.848435325321555,1.0996799549635499
1758972252746322000,6.460322021484375,4.210766221703588,1.7858564118117093,0.12143800277896225
1758972252756280000,6.470280029296875,4.126489563387632,1.8820511791974306,-0.49951947437934574
1758972252766238000,6.480238037109375,4.096742659899592,2.189623090419173,-0.7881251115854829
1758972252776196000,6.490196044921875,4.3253640762642025,2.5130706161648035,-0.9645528148543089
1758972252786154000,6.500154052734375,4.509998759125173,2.841950103831291,-1.182687981583178
1758972252796112100,6.510112060546875,4.6011657614767545,3.2218530917704102,-1.6656505081109703
1758972252806070000,6.520070068359375,4.515161548715829,3.825096048539877,-1.9545744174860418
1758972252816028200,6.530028076171875,4.171862198291719,4.504467720744014,-2.101051072996855
1758972252825985800,6.53998583984375,3.5339129620611667,5.068426714873314,-2.3435391021505
1758972252835944000,6.54994384765625,3.053884004767239,5.366863133481145,-2.590489079149067
1758972252845902000,6.559902099609375,2.866247217480838,5.230940751340985,-2.833075015719235
1758972252855859000,6.56985888671875,2.5645804386496542,4.801798223936557,-2.842206124418974
1758972252865817000,6.579817138671875,1.6576128937363623,4.227448184174299,-2.674358617968857
1758972252875775000,6.58977490234375,0.021890052507817743,3.358569839158654,-2.605739547511935
1758972252885733000,6.599733154296875,-2.0804609971717,2.0330898819267746,-2.797513288472593
1758972252895691000,6.60969091796875,-3.1218869891524315,0.5502572165131568,-2.8303578657150266
1758972252905649000,6.61964892578125,-5.135763636565208,-1.2855331467688083,-2.228265686415881
1758972252915607000,6.62960693359375,-8.886185844653845,-3.7918133721411227,-1.0532254431068897
1758972252925565000,6.63956494140625,-12.970401615935563,-7.022995433270931,0.6510213376410305
1758972252935523000,6.649523193359375,-13.2093506573081,-9.966946944940089,1.5710329269140957
1758972252945481000,6.65948095703125,-10.547003087389468,-11.141950509500504,1.5639853464901445
1758972252955439000,6.669439208984375,-7.966961460235715,-9.351137352064251,2.4544646979391573
1758972252965397000,6.67939697265625,-5.215852487802505,-6.057355919158458,3.265047213591635
1758972252975355000,6.68935498046875,-2.4742893423497674,-3.1559190226137637,2.7811224179029463
1758972252985313000,6.69931298828125,-0.6399658367499709,-0.4532856195360422,0.5925678334981203
1758972252995271000,6.70927099609375,-0.17577157744765282,2.3168220678776503,-0.7653549883075058
1758972253005229000,6.71922900390625,0.28509850586801766,3.600758885365724,-2.538455817312002
1758972253015187000,6.72918701171875,2.6080381798431276,1.2617039428919552,-6.311695421886443
1758972253025145000,6.73914501953125,5.35450692525506,-1.0362696321308613,-8.577713769721985
1758972253035103000,6.74910302734375,6.676070001304149,-0.16122224309146405,-7.344134682074189
1758972253045061000,6.75906103515625,7.217997780889272,1.6046125404328107,-5.684727890658379
1758972253055019000,6.76901904296875,6.143877433791756,3.13335940028131,-4.715979012353718
1758972253064977000,6.778976806640625,4.879765260714292,3.966205477929115,-4.277788670618832
1758972253074935000,6.78893505859375,3.955710971921682,4.26364587123692,-3.7197400695770977
1758972253084893000,6.798892822265625,3.3192879223451017,4.117161178550124,-3.268828193435073
1758972253094851000,6.80885107421875,3.0869518693715334,3.554432602998614,-2.740130190040171
1758972253104809000,6.81880908203125,3.1511984238326547,3.1748639615803955,-1.8721148915946482
1758972253114767000,6.82876708984375,3.629707916474342,2.6165982106566426,-1.326564683728665
1758972253124725000,6.83872509765625,4.041005575108528,1.2904805400431156,-1.3885884475737809
1758972253134683100,6.84868310546875,4.118663984328508,-0.6326040758103132,-1.8191098621159791
1758972253144641000,6.85864111328125,3.9315363156080245,-2.1955974886536596,-1.7498869805470108
1758972253154599000,6.868598876953125,4.04754871314168,-3.227738058155775,-0.8993284283369779
1758972253164557000,6.87855712890625,3.8111762442588804,-3.790372525683045,0.012416413980722426
1758972253174515000,6.888514892578125,3.5370962682724,-3.3842683440387247,1.297287735839933
1758972253184472000,6.89847216796875,3.401856607699394,-2.735096579787135,2.5001278402224183
1758972253194430200,6.90843017578125,3.2988778792619704,-1.751124705648422,3.21380627117604
1758972253204387800,6.918387939453125,3.298015124952793,-1.4374538930296896,3.991642117002606
1758972253214346000,6.928345947265625,3.167199126040935,-1.9796061290204523,4.514348478767276
1758972253224303900,6.938303955078125,1.6785376083433627,-1.7257038486659526,4.301303693979978
1758972253234262000,6.948261962890625,-0.07755195317082107,-1.3530699749469757,4.004142409874499
1758972253244220000,6.958219970703125,-1.1375041472494603,-0.9504664948999881,3.5244577359735962
1758972253254178000,6.968177978515625,-1.739977873212099,-0.4292190997719764,2.6057670200407506
1758972253264136200,6.97813623046875,-1.7251953146219252,0.06807400379478931,1.5856535729408263
1758972253274094000,6.988093994140625,-1.3240496321678161,1.0004746806502343,0.7486522753097117
1758972253284052200,6.99805224609375,-1.0377087250232695,1.7456892365962267,0.17632395063340664
1758972253294009900,7.008009765625,-1.1604594909012318,1.9399322902798652,-0.07297828857973218
1758972253303968000,7.017968017578125,-1.3686954141020775,1.8933429730623959,-0.023325492138415574
1758972253313926000,7.02792578125,-1.0196201106250284,1.690488158378005,0.270386674426496
1758972253323884000,7.037884033203125,-0.5904921962678432,1.5301298386394977,0.42508302288055416
1758972253333842000,7.047842041015625,-0.2751239320814609,1.5481412961483,0.5448034811519086
1758972253343800000,7.057800048828125,-0.044013918338087384,1.5196061065375803,0.7838656275101006
1758972253353758200,7.06775830078125,-0.07401859141290187,1.185761689940095,0.9952746277891099
1758972253363716000,7.077716064453125,-0.3715951783210039,0.7511468686044216,1.2583300825446844
1758972253373674000,7.087674072265625,-0.8591419638991356,0.41032501420974726,1.4979985242329537
1758972253383634700,7.097634765625,-1.271962302055955,0.31180618779063224,1.7116069342523812
1758972253393592600,7.107592529296875,-1.453997616073489,0.2770470090985298,1.848843906122446
1758972253403550700,7.11755078125,-1.3766530951082705,0.23231413340270518,1.9134075637087224
1758972253413508600,7.127508544921875,-1.1320148291181773,0.21520283960402012,1.9356186648644507
1758972253423466500,7.137466552734375,-0.8129530441761016,0.2448182256668806,1.8660501847282052
1758972253433424400,7.14742431640625,-0.5196698436129837,0.224884275662899,1.716797780893743
1758972253443382500,7.157382568359375,-0.4873616382695734,0.101989717400074,1.482975142624229
1758972253453340400,7.16734033203125,-0.7617163395442068,-0.28785832597017286,1.2304105406142771
1758972253463298600,7.177298583984375,-1.2134168087806552,-0.8762789766609668,1.0634969540134072
1758972253473256700,7.187256591796875,-1.6378309194236993,-1.284338384026289,0.973020272013545
1758972253483214600,7.197214599609375,-1.8866719708658755,-1.3849486297667026,0.9278767696902155
1758972253493172700,7.2071728515625,-1.965587540540099,-1.2800199363052844,0.7385238261356949
1758972253503130600,7.217130615234375,-1.9315983233071863,-1.1598363905668259,0.49941564867869015
1758972253513088500,7.227088623046875,-1.9787189709223805,-0.9927087228238582,0.377717752854526
1758972253523045600,7.237045654296875,-2.2581541903316973,-0.9142588709652424,0.4439535814367234
1758972253533003500,7.24700341796875,-2.7838129721611735,-1.0868635088145733,0.6726743665225804
1758972253542961700,7.256961669921875,-3.4024376224577426,-1.468197990861535,0.8508769705094397
1758972253552919600,7.26691943359375,-3.966619319427013,-1.9027619587928055,1.0283215957358478
1758972253562877700,7.276877685546875,-4.454312235477566,-2.0125480291575193,1.2148569976516068
1758972253572835300,7.28683544921875,-4.898633042791485,-1.9164380174458027,1.3199588557228445
1758972253582793500,7.29679345703125,-5.696584917190671,-1.7670710473209619,1.574188906726986
1758972253592751600,7.306751708984375,-6.716584967043995,-2.0189719247251747,2.3387789020113647
1758972253602709500,7.31670947265625,-6.19161416747868,-3.6835084802448748,3.572351706048846
1758972253612667600,7.326667724609375,-4.018036787453293,-5.153005863267183,4.846045069681108
1758972253622625500,7.33662548828125,-2.710198869895935,-5.5476861490994684,5.0872804684251545
1758972253632583700,7.346583740234375,-2.5705589285373684,-4.259560063228011,4.521819545300304
1758972253642541600,7.35654150390625,-4.2723342046052215,-2.6999083620280024,3.529838844490051
1758972253652499500,7.36649951171875,-7.309221774125099,-2.1756050864607093,1.8144332486070691
1758972253662457300,7.376457275390625,-8.324926757133007,-1.6715373741924762,0.00015767477974295617
1758972253672415500,7.38641552734375,-6.474608686804771,-1.3090192362964153,-1.4916528084680438
1758972253682373600,7.39637353515625,-3.4444425344944,-1.5634633684426544,-2.5415619666337967
1758972253692331500,7.40633154296875,-0.24390808855202048,-1.9084896887898444,-2.549091777616739
1758972253702289700,7.41628955078125,2.523369307339191,-2.059589181795716,-2.0442947281606494
1758972253712247600,7.42624755859375,4.110017736536264,-2.1717975108712912,-1.8894874666780233
1758972253722205700,7.436205810546875,5.568595081615448,-2.8318764535844325,-2.321075195277482
1758972253732163600,7.44616357421875,8.483861766070127,-4.145362606161832,-3.0851831061333415
1758972253742121500,7.45612158203125,10.715151330351828,-4.978174781540036,-3.4162443217530845
1758972253752079400,7.466079345703125,10.291333212840556,-4.774576455011964,-3.391404771789908
1758972253762037500,7.47603759765625,7.620671403563022,-3.295583513891697,-2.645378899461031
1758972253771995600,7.48599560546875,4.458961814849078,-1.7649609232991932,-2.1126149618014693
1758972253781953500,7.49595361328125,-1.2780562350168823,-1.1110282282561064,-2.8372978941112756
1758972253791911700,7.50591162109375,-10.861792674905061,-1.4398130233764648,-4.686707032901048
1758972253801869600,7.51586962890625,-5.158309814894199,-0.993572646176815,-4.417425397107005
1758972253811827700,7.52582763671875,0.5644298265114426,-0.010202829584479331,-2.8392803001001474
1758972253821785300,7.535785400390625,2.4064614222705365,0.8088619754701852,-1.1556538441851734
1758972253831743500,7.545743408203125,3.448756013779342,1.2640063746154309,0.36003618488721545
1758972253841701600,7.55570166015625,4.232331280040741,1.6198551177501677,1.4271943648219108
1758972253851658500,7.565658447265625,4.812039047443866,1.9240806411534546,2.1060222855381667
1758972253861616600,7.57561669921875,5.194595764762163,2.0836130314618346,2.505889472489059
1758972253871574500,7.585574462890625,5.226974770319462,2.2437819661080836,2.439094402588904
1758972253881532700,7.59553271484375,5.036296715641021,2.1855343598008155,1.9290834178768097
1758972253891490600,7.605490478515625,4.764359304641187,2.0261679737091063,1.1726095820959657
1758972253901448400,7.615448486328125,4.514760566699505,2.0330174012124536,0.5548949593164026
1758972253911406600,7.625406494140625,4.218003771741688,2.1929718163251875,0.060068684254586696
1758972253921364500,7.635364501953125,4.103080923010409,2.422006781926751,-0.35916049803122874
1758972253931322600,7.645322509765625,4.089188591258227,2.681183203291893,-0.6055336249899119
1758972253941280500,7.655280517578125,4.264567369996011,2.7998376397669316,-0.8206210215207189
1758972253951238700,7.66523876953125,4.366600342015921,2.95489726857543,-1.157687030513212
1758972253961196500,7.675196533203125,4.289321872024238,3.260327491593361,-1.3689122717231512
1758972253971154400,7.685154541015625,3.9691342248573895,3.6668279790788887,-1.6275672995626926
1758972253981112600,7.695112548828125,3.3634315999761224,4.1928164312541485,-1.979693661173433
1758972253991070500,7.705070556640625,2.6636098449394106,4.616163424122333,-2.3556746533632276
1758972254001028600,7.715028564453125,2.314880578421056,4.817240123218298,-2.6749074840232727
1758972254010986500,7.724986572265625,2.2099194439947603,4.695120640981197,-2.93176159992069
1758972254020944600,7.734944580078125,1.9853265524938701,4.205977526122331,-3.066733841729164
1758972254030902500,7.744902587890625,1.1155825305595994,3.465708609884977,-2.9389778149098156
1758972254040860700,7.754860595703125,-0.753150901903212,2.3816151503056284,-2.731484234508872
1758972254050818600,7.764818603515625,-2.3899989477694032,0.9600076457053422,-2.487821024096012
1758972254060776400,7.7747763671875,-3.7190637777507303,-0.679289254617691,-1.7549530317649245
1758972254070734600,7.784734619140625,-6.8688289539098735,-2.8057921642571686,-0.8603701905198394
1758972254080692500,7.7946923828125,-12.005913609945774,-5.6008565982729195,0.3086228815793991
1758972254090650600,7.804650634765625,-15.047999332630633,-8.861083552101254,1.4640217280901968
1758972254100608500,7.8146083984375,-12.802417039102314,-10.960413208132982,1.6378770966529845
1758972254110566700,7.824566650390625,-8.918162699151038,-9.958345120811462,2.2589672602802513
1758972254120524500,7.834524658203125,-6.099298871874809,-7.054237543752789,2.9290365588709713
1758972254130482700,7.844482666015625,-4.180077068929374,-4.158181171202659,1.833688714827597
1758972254140440600,7.854440673828125,-2.1738608731418845,-1.401190154993534,-0.03342997591495514
1758972254150398500,7.8643984375,-0.5142950917720794,1.4017138866066932,-0.686154171951115
1758972254160355600,7.87435546875,0.787118345695734,4.0012551640003915,-0.932212899198383
1758972254170313500,7.8843134765625,2.587608263015747,5.638296394351125,-1.7489147745139897
1758972254180271600,7.894271728515625,5.52901593542099,5.083790288221836,-3.858386031462252
1758972254190229800,7.904229736328125,8.364613455355167,2.200412195459008,-6.575995177614688
1758972254200187400,7.9141875,8.82998406496048,0.24722587133049964,-7.002037400916218
1758972254210145500,7.9241455078125,7.297052028381824,0.1972644473314285,-6.2592708226442335
1758972254220103400,7.934103515625,5.6239539807438845,0.817795808032155,-5.873189438331127
1758972254230061600,7.9440615234375,3.7301413443431257,1.565381769284606,-5.018648246225714
1758972254240019500,7.95401953125,-0.07310761404782533,1.58767952581048,-3.1130858430594204
1758972254249977600,7.9639775390625,-4.518769217818975,0.5999994448035955,-1.5260243030168115
1758972254259935700,7.973935791015625,-2.3370726826153696,-0.23856267240345477,-1.6861251408629119
1758972254269893600,7.9838935546875,2.4061131933547557,0.13042436924576759,-1.4835557189911603
1758972254279851800,7.993851806640625,4.49069112432599,0.8527829502612352,-0.5658553292699158
1758972254289809400,8.003809326171876,5.231669650137424,1.460090672251582,0.28178689710199833
1758972254299767600,8.013767578125,5.785910967850684,1.3926830234110354,0.07695376808196305
1758972254309725400,8.023725341796874,5.648349586331844,0.5154927771240473,-0.45952407553419466
1758972254319683600,8.03368359375,4.997630592638254,-0.3557254090160131,-0.9575785188622772
1758972254329641500,8.043641357421874,4.419558317482471,-1.0149053570628166,-0.6974868823483585
1758972254339599600,8.053599609375,3.685430388218164,-1.2730875066936016,-0.08850684323161839
1758972254349557800,8.063557861328125,3.2015316037535664,-1.6493822410076855,0.24653657389208672
1758972254359515600,8.073515625,2.9347967298328874,-1.816152181354165,0.6004385668732225
1758972254369473500,8.0834736328125,2.852269253271818,-2.0944974135696888,0.6375891707465052
1758972254379431400,8.093431396484375,2.6508161220788953,-2.0133201825737954,0.8669055836379528
1758972254389387000,8.103386962890625,2.2564766125082967,-1.879079469910264,1.0811204351179302
1758972254399345200,8.11334521484375,1.4279533664956687,-2.0946873831838366,1.8435079519219695
1758972254409303000,8.123302978515625,0.26582053555473684,-1.611195425954461,2.701630363515019
1758972254419261000,8.133260986328125,-0.28439101518578824,-0.7878209410071373,3.114543056130409
1758972254429219000,8.143218994140625,-0.6819932528793812,-0.39786183847784995,2.9830355678230522
1758972254439177000,8.153177001953125,-1.0696423979658634,-0.10212824908792972,2.454305123463273
1758972254449135000,8.163135009765625,-1.3587842609405516,0.2821452090203762,2.0123669735021887
1758972254459093000,8.173093017578125,-1.296412268179655,0.5306394928514957,1.6183341917932033
1758972254469051100,8.183051025390625,-1.121599306631088,0.8064554988503455,1.2608857583768665
1758972254479008000,8.193008056640625,-0.9902502237558364,1.0277876349896191,1.0306374714627862
1758972254488966000,8.2029658203125,-0.8434311845481395,1.3072867134153843,0.8319808391205966
1758972254498924000,8.212924072265626,-0.7233826633661985,1.5563374620854853,0.5187114469096065
1758972254508882000,8.2228818359375,-0.5079220496088266,1.698074667984247,0.3604474691018462
1758972254518840000,8.232840087890626,-0.3564022853642702,1.780142710340023,0.23477657799348234
1758972254528798200,8.242798095703124,-0.3199742966771126,1.7107517787277697,0.15656711076200008
1758972254538756000,8.252756103515624,-0.3891576864859089,1.4689134456545114,0.12975582233443855
1758972254548714200,8.26271435546875,-0.6183499250084161,1.2300538361310958,0.05333513821586966
1758972254558672000,8.272671875,-0.8946499881971627,1.0007458988070488,0.07750511835440993
1758972254568630000,8.282630126953125,-1.0844119509439916,0.7459691737055778,0.14788739909157156
1758972254578588000,8.292587890625,-1.1194576184272766,0.6059715049505233,0.3429221876747906
1758972254588546000,8.302546142578125,-1.0595371104717255,0.4753349542587995,0.572873099077493
1758972254598504200,8.312504150390625,-0.865453558198735,0.35916473581492897,0.7409058989666402
1758972254608462000,8.322462158203125,-0.6876665492754429,0.10755728839933872,0.850826117105037
1758972254618420200,8.332420166015625,-0.6378308705478907,-0.274607214730978,0.8822780709452926
1758972254628378000,8.342378173828125,-0.7822627223581076,-0.6487111610025167,0.8305813475862145
1758972254638336000,8.3523359375,-1.0942663324169815,-1.106027058967948,0.8201365259394049
1758972254648294000,8.3622939453125,-1.4910101266503333,-1.5327192706108093,0.8711398602068424
1758972254658252000,8.372251953125,-1.8465186780452727,-1.6390338654726744,0.9717277479849755
1758972254668210000,8.3822099609375,-1.9859780021399258,-1.4676269129753112,1.030318176380545
1758972254678168000,8.39216796875,-1.9853619160681961,-1.197973521259427,1.0784703590005635
1758972254688126200,8.402126220703124,-1.9990753841221331,-0.9910299759566783,1.201094429758936
1758972254698084000,8.412083984375,-2.1498925530552864,-1.0393535696208476,1.4075873086847364
1758972254708042200,8.422042236328124,-2.4534300941944123,-1.3763263473719358,1.673179734572023
1758972254718000000,8.432000244140625,-2.860764109894633,-1.802614069867134,1.847477732335776
1758972254727958000,8.4419580078125,-3.1498855876684186,-2.1869576706022023,2.010781165615469
1758972254737916000,8.451916015625,-3.4605998885691163,-2.3377952978014944,2.0024182648092506
1758972254747874000,8.4618740234375,-3.789712600469589,-2.3162778779983517,1.7568059661552309
1758972254757832000,8.47183203125,-4.1337759210035205,-2.1189684224814176,1.3863511900410055
1758972254767790000,8.4817900390625,-5.2010839577376835,-1.7145628614485262,0.9462002157576381
1758972254777747200,8.491747314453125,-7.60418788627386,-1.7463514998972416,0.4891355160742998
1758972254787704800,8.501704833984375,-8.280150626817345,-3.29770357478559,0.8485461894743144
1758972254797663000,8.5116630859375,-5.763555343657732,-5.08428596278429,2.207871425423771
1758972254807621000,8.52162109375,-3.0947260105043646,-5.321785974392294,3.472441717532277
1758972254817579000,8.5315791015625,-2.162408920279145,-4.299627869722247,3.999484647196531
1758972254827537200,8.541537109375,-3.3006846364229916,-2.9077631769567724,3.556456217780709
1758972254837495000,8.5514951171875,-6.172641755983233,-1.8132973764449356,2.9710633904784918
1758972254847453200,8.561453125,-8.094282602769136,-1.0739777237564325,1.4935162642523645
1758972254857411000,8.5714111328125,-6.990636301457881,-0.2166191361427307,-0.05315240206010639
1758972254867369200,8.581369140625,-4.298877928137779,0.10823124213814735,-1.0778783844567834
1758972254877326800,8.591326904296874,-1.3294728262603281,-0.32810499616265293,-1.4529910693794488
1758972254887285000,8.601284912109374,1.1704793651342391,-1.0690116257816553,-1.4166886067681013
1758972254897243100,8.6112431640625,2.865505166941881,-1.700569991931319,-1.4091113033816218
1758972254907201000,8.621200927734375,4.124540767407417,-2.311736727437377,-1.5893882294245063
1758972254917159200,8.6311591796875,5.858911906653642,-3.400066801673174,-1.9175074002429842
1758972254927117000,8.641116943359375,8.052211055237054,-4.946389650222659,-2.217579311098158
1758972254937075200,8.6510751953125,9.842614462828635,-5.843813706243038,-2.2807890698574482
1758972254947033000,8.661033203125,9.350574457484484,-5.250591208228468,-2.0019576615601777
1758972254956991000,8.670990966796875,6.798390559071302,-3.408544707161188,-1.584258903712034
1758972254966948900,8.680948974609375,4.071007914662361,-1.5738269415467976,-1.8154548467397689
1758972254976907000,8.690906982421875,-2.695066182693839,-0.594556376966834,-2.8352742793291807
1758972254986865200,8.700865234375,-8.969248743265867,-0.5496352852225304,-3.4445731751367448
1758972254996823000,8.710822998046876,-4.561916577889025,-0.48299862075448036,-3.3729543383419514
1758972255006781200,8.72078125,-0.20518384215384722,-0.006771101570129394,-2.8555478365510703
1758972255016739000,8.730739013671876,2.304017239101231,0.531399955829978,-1.8532712210454045
1758972255026697200,8.740697265625,3.649637774825096,1.143401388594508,-0.5136239145122469
1758972255036654800,8.75065478515625,4.058419943507015,1.896920247027278,1.070502156600356
1758972255046613000,8.760613037109374,4.621103510873019,2.2462539091795684,1.8563858459345994
1758972255056571000,8.77057080078125,4.950010763329267,2.4052649059623477,2.1445127597130833
1758972255066528000,8.780528076171874,4.75317301697731,2.291262094685435,2.108789119902998
1758972255076486100,8.790486083984375,4.569212580116093,2.1564801147520543,1.798781359836459
1758972255086444000,8.800444091796875,4.325725310792029,2.019534234783053,1.3325383513107896
1758972255096402200,8.810402099609375,4.152913752193749,1.79685886734128,0.7482387260727584
1758972255106360000,8.820360107421875,4.060244820846617,1.7045400646060704,0.221292753976956
1758972255116318000,8.83031787109375,3.97843075325191,1.7924398818552494,-0.11809512209184467
1758972255126276000,8.840276123046875,3.9093262373656033,2.1229595379441975,-0.41071708226725456
1758972255136234000,8.85023388671875,3.8992020259752866,2.4631530313074586,-0.7105306344471871
1758972255146192100,8.860192138671875,3.904008257213235,2.868151882058382,-1.1597386292807756
1758972255156150000,8.87014990234375,3.8040123439788815,3.298517813777923,-1.568221961146593
1758972255166108200,8.880108154296876,3.533721531142294,3.9755817935615774,-1.8092083535656331
1758972255176066000,8.890066162109376,3.1143016485899686,4.717279865819216,-1.917292442318052
1758972255186024000,8.90002392578125,2.7622645726978776,5.150714537459612,-2.1819404269620777
1758972255195982000,8.909982177734374,2.562659991981089,5.274731377750635,-2.530623223990202
1758972255205940000,8.91993994140625,2.2199743895411492,5.2006806376338,-2.7351106083124876
1758972255215898000,8.929898193359374,1.3784338410452008,4.707400276839733,-2.829512354801595
1758972255225856000,8.93985595703125,-0.30526188071370125,3.7966988060951232,-2.8623279982104894
1758972255235814100,8.949814208984375,-1.5448729420021174,2.5575264284849166,-2.909250785166025
1758972255245772000,8.95977197265625,-2.376579494225979,1.0680974335461855,-2.320613276854157
1758972255255730200,8.969730224609375,-4.123634466217458,-0.7947118695646525,-1.44343092161268
1758972255265688000,8.97968798828125,-6.719194857281446,-3.1613457238376137,-0.6849705151244998
1758972255275646000,8.98964599609375,-9.958064550304412,-5.541124306365847,0.7474605813071131
1758972255285604000,8.99960400390625,-12.027158642548322,-7.573070278954505,2.2871743869803844
1758972255295562000,9.00956201171875,-10.880673900985718,-8.88207431768179,2.7430799797564744
1758972255305520000,9.01952001953125,-8.273897996163369,-8.585412507531046,2.831642060306668
1758972255315478000,9.02947802734375,-6.0111570625633,-6.7251751007348295,2.6385683426633477
1758972255325436200,9.039436279296876,-4.474173704767227,-4.511348127907515,1.4339492459096013
1758972255335393000,9.04939306640625,-3.0430782408535477,-2.2611598018884655,-0.7472364171624183
1758972255345351000,9.059350830078126,-1.6933198746725915,-0.09887947642505168,-2.114980960280448
1758972255355309000,9.06930908203125,-0.1891492376759648,0.3683662794023752,-3.316103154829144
1758972255365267000,9.079266845703126,3.5486502202048897,-1.566071505114436,-5.404166151437163
1758972255375225000,9.08922509765625,5.689422770476341,-1.934292823088169,-5.202202732634544
1758972255385183500,9.09918359375,7.023271327602863,-0.7885299660593271,-3.841571674783528
1758972255395141600,9.1091416015625,8.113747181695699,1.2288105580717323,-3.257227187490463
1758972255405099500,9.119099609375,7.003627884978055,3.355188380026817,-3.303262962478399
1758972255415057700,9.1290576171875,4.499731632132828,4.519125776171684,-3.522121109719574
1758972255425015800,9.139015869140625,2.6842919829621907,5.045370833456516,-4.126648261080682
1758972255434973700,9.1489736328125,1.6348013424694536,5.2548032729655505,-5.24428597060442
1758972255444931800,9.158931884765625,-3.3023359107613564,5.062061271494627,-5.470086192068457
1758972255454889700,9.1688896484375,-3.6370308067083355,3.701098497471213,-4.082055378377437
1758972255464847600,9.17884765625,1.9771496757790445,1.7051216638863085,-2.315424768300354
1758972255474805500,9.188805419921875,6.3449558864533895,0.32911154285669325,-1.3479524858027696
1758972255484763600,9.198763671875,8.073446735489368,0.10781038637757301,-1.168396421380341
1758972255494721500,9.208721435546876,7.251232526493072,-0.4299176034301519,-1.3794026860773563
1758972255504679700,9.2186796875,6.1248494927167885,-1.9300187990307807,-1.4337246433734894
1758972255514637800,9.228637939453124,5.0303684946358205,-2.7883739964663983,-1.0510834626421333
1758972255524595700,9.238595703125,3.996704661089182,-2.9898405716627834,-0.3874059109151363
1758972255534553900,9.248553955078124,3.3686043264389034,-2.7699434367626905,0.9295467487290501
1758972255544511700,9.25851171875,3.1347067232370374,-2.389210427740216,1.8419617453932762
1758972255554469600,9.2684697265625,3.1605297312796115,-1.7790134140491485,2.2110667143337426
1758972255564427500,9.278427490234375,3.2112674003481865,-1.093335335177183,2.4353933561138805
1758972255574385700,9.2883857421875,3.22951851183176,-0.6582891366869211,2.4293986457437273
1758972255584342800,9.2983427734375,3.120560124462843,-0.5809376014590263,2.132180955275893
1758972255594300700,9.30830078125,3.277933290910721,-0.8677771057754754,2.100984291370958
1758972255604258800,9.3182587890625,4.1784406998991965,-1.384138482427597,3.0261054787427186
1758972255614216400,9.328216552734375,1.0488766733128576,-0.719707774245739,3.4558775362223386
1758972255624174600,9.338174560546875,-1.6564415118694304,-0.7079454402595758,3.1504262704163786
1758972255634132700,9.3481328125,-3.135798610126972,-0.6648807900369167,2.526211837288737
1758972255644090600,9.358090576171875,-3.7956688785254955,-0.013467968860268593,1.9553120841108262
1758972255654048800,9.368048828125,-3.5654186919152733,0.4757534719318151,1.4339812484830616
1758972255664006700,9.378006591796876,-2.6772259900987145,0.9738011932581663,0.9881237331211566
1758972255673964800,9.38796484375,-1.3771370792329312,1.3234037354797124,0.6073370942153036
1758972255683922700,9.397922607421876,-0.4820154549360275,1.3756442103266715,0.6218545721285045
1758972255693880800,9.407880859375,-0.32608781112134455,1.2519757450819016,0.7458547535456717
1758972255703838500,9.41783837890625,-0.22207564798295495,1.133914013803005,0.8145442588903009
1758972255713796600,9.427796630859374,-0.2620756499379873,1.116793367654085,1.1412763592645525
1758972255723754800,9.437754638671874,-0.4480342748790979,1.0108137038350105,1.359326112732291
1758972255733712600,9.447712646484375,-0.757009623157978,0.7442483412623405,1.3674712791346013
1758972255743670800,9.4576708984375,-1.0690865176487714,0.5654202988535165,1.194952127611637
1758972255753628700,9.467628662109375,-1.3289911802232264,0.4938847564280033,1.2288944369629025
1758972255763586800,9.4775869140625,-1.5504899051010608,0.5527618928104638,1.428082691963762
1758972255773544700,9.487544677734375,-1.5369628995299338,0.6251514217168093,1.5755825530424714
1758972255783502600,9.497502685546875,-1.4263392092972993,0.7435954303115606,1.696742104206234
1758972255793460500,9.50746044921875,-1.195968611177802,0.7501298005163669,1.6681858718074858
1758972255803418600,9.517418701171875,-0.9510726440995931,0.5371393762648106,1.4402235038734972
1758972255813376800,9.527376708984375,-0.8647076352022588,0.19467150822877882,1.164095509316027
1758972255823334700,9.537334716796876,-1.049075337690115,-0.16059914275705814,1.046081270440668
1758972255833291800,9.547291748046876,-1.382885267496109,-0.5937766247659921,1.0434707956813276
1758972255843250000,9.55725,-1.731167667029798,-0.9947761767476796,1.0836360712006687
1758972255853207600,9.56720751953125,-1.9240652974538504,-1.3220289399951695,1.0489448431782424
1758972255863165700,9.577165771484376,-1.9190905777812004,-1.5161276167720554,1.0204909021101891
1758972255873123600,9.58712353515625,-1.9031134025789795,-1.4619243174195289,1.0719174302257597
1758972255883081700,9.597081787109374,-1.8807145237661897,-1.3180740648895501,1.1516413936734198
1758972255893039600,9.60703955078125,-1.9198925418138504,-1.2821131091922522,1.2967656116619706
1758972255902997800,9.616997802734375,-2.158886737502366,-1.4001619809895753,1.4561470491923392
1758972255912955600,9.62695556640625,-2.5902982327520845,-1.6465221754014492,1.608994701039791
1758972255922913800,9.636913818359375,-3.2061618939027188,-1.8433195897430181,1.6816927113734186
1758972255932871700,9.64687158203125,-3.9089547737047075,-1.980778095409274,1.814372896721959
1758972255942829600,9.65682958984375,-4.620889868122339,-2.280747714933753,1.9389250129334628
1758972255952787700,9.66678759765625,-5.235671871516108,-3.6422009028226134,1.8724296566322445
1758972255962745600,9.67674560546875,-5.391495470434427,-5.600764243814349,2.010449449443072
1758972255972703700,9.686703857421875,-4.56693382152915,-6.414754229822755,2.805662400397658
1758972255982661600,9.69666162109375,-3.4579216092705725,-6.038045654010772,3.446019866813719
1758972255992619800,9.706619873046876,-2.8678683889418837,-4.828484570810199,4.130643175935745
1758972256002577700,9.71657763671875,-3.7791508744448423,-3.7256338037908074,3.7740269555598496
1758972256012535600,9.72653564453125,-5.0734956887006755,-2.714886735451221,2.616556125080585
1758972256022493700,9.73649365234375,-6.3042801771938795,-1.3733406095594167,1.285146631669253
1758972256032451600,9.74645166015625,-7.54585084811747,-0.19644494764208792,-0.19695698881745338
1758972256042409700,9.75640966796875,-7.04036040956974,0.5596610046744346,-1.3174541794255374
1758972256052366800,9.766366943359374,-4.855775313317776,0.7304021867394447,-2.0746480731092394
1758972256062324700,9.77632470703125,-1.7809715623795985,0.19349603470861912,-2.3203924737103283
1758972256072283000,9.786282958984375,1.2131927177011965,-0.789958537557721,-2.0800427717596293
1758972256082240500,9.796240478515625,2.9872002862870692,-1.4712813438296317,-1.8532365881234407
1758972256092198700,9.80619873046875,3.8573663330256935,-2.058203864917159,-1.8112711313143373
1758972256102156500,9.816156494140625,5.155953022634983,-2.970608047926426,-1.719374937905371
1758972256112114700,9.82611474609375,7.110041264039277,-3.903627148941159,-1.7312337180033326
1758972256122072600,9.836072509765625,8.402855215466023,-4.1824253856211895,-1.6351915108308195
1758972256132030700,9.84603076171875,7.924511727041006,-3.823305073469877,-1.6480368177480995
1758972256141988900,9.85598876953125,6.060761343687773,-2.876575427010655,-1.772589226220548
1758972256151946800,9.86594677734375,3.782749775719642,-1.98076698949337,-2.142518517155945
1758972256161904600,9.875904541015625,-2.812531117123365,-1.502314779996872,-2.9980668404772874
1758972256171862500,9.885862548828126,-7.300704121148586,-1.3197726855009793,-3.185437378042936
1758972256181820700,9.895820556640626,-3.766355105757713,-1.0743319440215826,-2.894612603482604
1758972256191778600,9.905778564453126,0.11971125205159186,-0.7284487145841121,-2.4724463448315857
1758972256201736700,9.91573681640625,2.7089365948751567,-0.36752339883744717,-2.0655682562053204
1758972256211694600,9.925694580078124,4.205662468823791,0.44226504382789134,-1.254416123971343
1758972256221652700,9.93565283203125,4.605802189105749,1.4121253905057907,0.2705411343358457
1758972256231611000,9.94561083984375,4.505900383895636,2.2189064680486914,1.3115779808685182
1758972256241568500,9.955568603515625,4.488381970600783,2.5209885496824977,1.5699876556448638
1758972256251526700,9.965526611328125,4.330687024852633,2.431703415554762,1.3783984774708746
1758972256261484500,9.975484619140625,3.9992128445178268,2.4028408936858177,1.121645703056082
1758972256271442700,9.985442626953125,3.9960537959650155,2.232233567133546,0.6158971250288188
1758972256281399800,9.99539990234375,4.240705432893336,2.1563176176667214,0.07531060398481786
1758972256291357700,10.005357666015625,4.3410435836941,2.2211182988792655,-0.1605787575561553
1758972256301315800,10.01531591796875,4.295786391863227,2.3268963026463982,-0.4427471282564103
1758972256311273500,10.0252734375,4.257812050516903,2.518641694295406,-0.8089590061038732
1758972256321231600,10.035231689453125,4.286567020358145,2.746193143340945,-1.204345905835554
1758972256331189800,10.045189697265625,4.305994774405658,3.111834966215491,-1.6207602498963474
1758972256341147600,10.055147705078125,4.21524073676914,3.625890404012799,-1.8631112086668609
1758972256351105800,10.065105712890626,3.855466929145157,4.155609859409928,-2.020536105301976
1758972256361063700,10.075063720703126,3.357782488173246,4.658573994350433,-2.2153782939225435
1758972256371021800,10.085021728515626,2.705053031440079,4.968659349697828,-2.3076012350678443
1758972256380979700,10.094979736328124,2.331182893924415,4.968471133649349,-2.5731165040656925
1758972256390937900,10.104937744140624,2.3314473900794983,4.640405300453305,-2.9146608275160193
1758972256400895700,10.114895751953124,1.881130849482119,4.323067197498679,-2.7820114756971597
1758972256410854000,10.12485400390625,0.747035633893311,3.826790577498078,-2.5777973553583022
1758972256420811800,10.134811767578125,-0.683493136048317,2.9187054267317056,-2.5462264513134953
1758972256430769700,10.144769775390625,-1.8937933471783994,1.5912965472638607,-2.519412386406958
1758972256440727800,10.154727783203125,-3.667103288888931,-0.09061959760189056,-2.3017362885572017
1758972256450685700,10.164685791015625,-7.0034770783305165,-2.412733926668763,-1.6661216327540576
1758972256460643800,10.174643798828125,-12.21375556539297,-5.413152006447315,-0.25160072541385886
1758972256470601700,10.184601806640625,-16.03539007530212,-8.767627854290604,1.8532010784186421
1758972256480558800,10.194558837890625,-13.096096034049987,-11.31586915255785,2.480547233700752
1758972256490516700,10.204516845703125,-7.996204505854845,-11.647754836302996,2.2777947103470564
1758972256500474600,10.214474609375,-5.282936896038055,-8.72669787800908,2.970193329645693
1758972256510432800,10.224432861328125,-4.045174385225772,-4.876942019987106,2.6787854945003984
1758972256520390700,10.234390625,-2.2934701261237262,-1.193078150433302,0.4591054117307067
1758972256530348800,10.244348876953126,-0.8832996690779924,2.297713462781906,-0.24130408006608484
1758972256540306700,10.254306640625,0.6160866562515497,5.136481429445743,-0.2930997337549925
1758972256550264800,10.264264892578124,3.308628581164777,5.884816747760772,-1.9003449607789515
1758972256560223000,10.274222900390624,7.1197267917513845,3.6290988446652888,-5.127742827194929
1758972256570180600,10.2841806640625,9.193847772246599,1.3407079215019941,-7.163225157216191
1758972256580138800,10.294138671875,8.903152177023888,0.634887218311429,-7.590476171785593
1758972256590096600,10.3040966796875,6.990856081688404,0.29670038859546183,-7.910291478508711
1758972256600054800,10.3140546875,4.46280943018794,-0.18634031773507595,-8.264391916671395
1758972256610012700,10.3240126953125,-0.6893909619152545,-0.12663608287870884,-6.7747928258627645
1758972256619970800,10.333970703125,-5.935781211322546,0.07136018585860729,-3.564787116013467
1758972256629928700,10.3439287109375,-0.7558499317288399,0.428716410946846,-2.430513475117832
1758972256639886800,10.353886962890625,4.102447009021043,1.1657342164337634,-1.8412497977316378
1758972256649844700,10.3638447265625,4.9898202111482615,2.3300194031029937,-0.22533267701752482
1758972256659802600,10.373802734375,5.279388848167658,3.051754299262166,0.946172450967878
1758972256669760800,10.3837607421875,5.279270774745941,2.1641595633387563,0.9088824386239052
1758972256679718000,10.3937177734375,5.031648597574233,0.8335901740133762,0.25555370082333684
1758972256689675800,10.40367578125,4.499524711383879,-0.4191986410170793,-0.16833821257650852
1758972256699634000,10.413634033203126,4.221556203526259,-1.4111299497276544,0.28903073075041175
1758972256709591800,10.423591796875,3.9297044240057466,-2.251319375875592,0.9447766126953064
1758972256719549700,10.4335498046875,3.680324004989862,-2.7590573010891672,1.4690154447242616
1758972256729507600,10.443507568359376,3.5504409030139445,-2.6070272492349145,2.157610580086708
1758972256739465700,10.4534658203125,3.486531617683172,-2.036129980275035,2.8599373036816713
1758972256749423600,10.463423583984374,3.54364174439311,-1.7094015331625938,3.5108185021996494
1758972256759381800,10.4733818359375,3.2683471319198607,-1.9638883354067802,4.353245478141307
1758972256769340000,10.48333984375,1.5265573869802056,-1.7712533014416694,4.235182285557687
1758972256779297800,10.4932978515625,0.06170344584956765,-1.5567863748967647,3.603103402665257
1758972256789256000,10.503255859375,-0.8371325227953493,-1.1034691911786794,2.7823084128171205
1758972256799213600,10.513213623046875,-1.3594554382003843,-0.8120470352470874,1.5992942680194973
1758972256809171700,10.523171630859375,-1.4713514864563941,-0.4176812221914529,0.5182518665738404
1758972256819129600,10.533129638671875,-1.339371119940281,0.16559446682631968,-0.18650778325647113
1758972256829087700,10.543087646484375,-1.2114390789669007,0.7096931607097386,-0.5024271785195916
1758972256839046000,10.5530458984375,-1.2344237217783927,1.0295563982278109,-0.565640882801637
1758972256849003800,10.563003662109375,-1.394347741752863,1.0351263073146342,-0.6350283803477883
1758972256858962000,10.5729619140625,-1.3613994118750095,1.0091758735001086,-0.6537482783868909
1758972256868919800,10.582919921875,-1.016066217535734,1.088314876666665,-0.5667459944993257
1758972256878878000,10.5928779296875,-0.7162076571702957,1.2511316954731941,-0.4274857001081109
1758972256888834800,10.602834716796876,-0.4032914623111486,1.448585527896881,-0.10523322936594486
1758972256898792700,10.612792724609376,-0.1932353379458189,1.6032418366014956,0.15744973881542682
1758972256908750800,10.622750732421874,-0.136990303632617,1.542188525223732,0.2679559401482344
1758972256918708700,10.632708740234374,-0.1645346921076998,1.3796803339749575,0.33862478274181484
1758972256928667000,10.6426669921875,-0.44991526632010936,1.1590689133256673,0.5360517271585762
1758972256938624800,10.652624755859375,-0.7200684242516756,0.9176099349588155,0.7403995568796992
1758972256948582700,10.662582763671875,-0.8764584248811006,0.7426467512845992,0.9538631516009569
1758972256958540800,10.672540771484375,-0.830472334253788,0.7050766068249941,1.180894522295147
1758972256968498700,10.682498779296875,-0.6621084027141332,0.6745102036476135,1.2998543714575468
1758972256978456800,10.692456787109375,-0.40500228481702505,0.5214221671730279,1.2679796621605752
1758972256988414700,10.702414794921875,-0.22383805454559622,0.32614100261330603,1.256956163842976
1758972256998372900,10.712372802734375,-0.05318740030825138,0.18465397208333015,1.2083416244082152
1758972257008330800,10.722330810546875,-0.013435747091099619,0.05622808317840099,1.1250447709098457
1758972257018289000,10.732288818359375,-0.20003456963188945,-0.26999066084623335,1.0276344902545214
1758972257028246800,10.742246826171876,-0.5412390666685998,-0.7033359006375074,0.9924189460970461
1758972257038204700,10.75220458984375,-0.9151980515114962,-1.0182768793225287,0.9920378378249705
1758972257048162800,10.762162841796876,-1.2005280280478299,-1.234449440741539,1.0035416670054196
1758972257058120700,10.77212060546875,-1.3536825538873671,-1.3054495611160992,1.0212151247315109
1758972257068078800,10.782078857421874,-1.4780242422185836,-1.2987468486070632,1.14862906011492
1758972257078036700,10.79203662109375,-1.766647999603301,-1.4276234038889408,1.4273393262505532
1758972257087993900,10.801993896484374,-2.2530093747891486,-1.698951450818777,1.805846183656156
1758972257097951700,10.81195166015625,-2.9263012886881827,-2.191243969619274,2.245444346362352
1758972257107909600,10.82190966796875,-3.574640693768859,-2.562535196557641,2.618987443880737
1758972257117867800,10.83186767578125,-4.067432978785038,-2.769339625650644,2.9236268087819215
1758972257127825700,10.84182568359375,-5.051895851311087,-2.771556717178225,2.9251532876968382
1758972257137783800,10.85178369140625,-7.3653475659728045,-2.3858277995646,2.1764427063286305
1758972257147741700,10.86174169921875,-9.509375026386977,-2.3499060068339106,1.4794824782028793
1758972257157699800,10.871699951171875,-8.539539229628444,-3.85539649425745,1.873210285615921
1758972257167657700,10.88165771484375,-5.892442420333624,-5.551110862851143,3.0689632082164287
1758972257177616000,10.891615966796875,-3.77230963024795,-5.869530915823579,3.8408758014738558
1758972257187573800,10.90157373046875,-2.1594535776048898,-5.0773628855228425,4.160303277923166
1758972257197531600,10.91153173828125,-1.473455765259266,-3.9546453885167834,3.9974341444075105
1758972257207489800,10.92148974609375,-2.313513673982024,-3.1951275819301603,3.11906404068619
1758972257217447700,10.93144775390625,-4.883109310445189,-1.8858704452246426,2.1972060928940773
1758972257227405800,10.94140576171875,-7.836661009630561,-0.38893852730989453,0.4512093977838754
1758972257237363700,10.95136376953125,-7.281269352838397,0.5800625721901654,-1.074266915961355
1758972257247321900,10.96132177734375,-4.554230407300591,0.6829980460077524,-1.6852908819958567
1758972257257280000,10.971280029296874,-1.4383645781338215,0.23933014964461324,-1.7434218761861324
1758972257267237600,10.981237548828124,1.5446715742111206,-0.6162164201110601,-1.701756279106438
1758972257277195800,10.99119580078125,3.1589374936521053,-1.3883341805517673,-1.5624496613554655
1758972257287152600,11.001152587890624,4.099990848040581,-2.1428128239274025,-1.632041376236826
1758972257297110800,11.01111083984375,5.608700297510624,-3.1627450692415238,-1.6516837959483266
1758972257307069000,11.02106884765625,7.183315759086608,-4.327544050651788,-1.6401666688948868
1758972257317026800,11.03102685546875,8.695745105862617,-4.837921092197298,-1.5965508145302534
1758972257326985000,11.04098486328125,8.764588924986123,-4.49142002312243,-2.014363261885941
1758972257336942600,11.050942626953125,6.791619457501173,-3.1566917605519293,-2.138111806629598
1758972257346900700,11.060900634765625,3.847093653075397,-1.4919769258558748,-2.174861866877973
1758972257356858600,11.070858642578125,-4.186343728108704,-0.628822219184041,-2.9926006840258834
1758972257366816800,11.080816650390625,-7.776958528339862,-0.7699620437115431,-3.354645943713188
1758972257376775000,11.09077490234375,-2.7282641034185886,-0.8932476471185684,-3.1962013486415146
1758972257386732800,11.10073291015625,0.7950397863447666,-0.5319651884973049,-2.555465988823771
1758972257396690400,11.1106904296875,2.3994807696029543,-0.01670271299779415,-1.537911578556895
1758972257406648300,11.1206484375,3.4384383256435394,0.5330535682559013,-0.2820413102544844
1758972257416606200,11.130606201171876,4.131805497713387,1.1800947502195835,1.0728474045522511
1758972257426564000,11.140564208984374,4.58588109858334,1.6513298679441213,1.949040164234489
1758972257436522200,11.150522216796874,5.00912580012083,1.8566981267541647,2.2167716479770836
1758972257446480400,11.16048046875,5.115449162811041,1.9212211600691078,2.0018349119633436
1758972257456438300,11.170438232421875,4.9523979507267475,2.099094093710184,1.8583648909226058
1758972257466396400,11.180396484375,4.2771433584526175,2.095734846410155,1.6206917147047817
1758972257476353300,11.190353271484375,3.8600799758985636,2.038311415967345,0.9096239046409725
1758972257486311200,11.200311279296875,3.592387362861633,2.0448416945189236,0.2672109669998288
1758972257496269300,11.210269287109375,3.587321896165609,2.241342171740532,-0.3665142217949033
1758972257506227200,11.220227294921875,3.8232781854629514,2.5748802988678214,-0.6326280412077904
1758972257516185300,11.230185302734375,4.112279543988406,2.9475773009508845,-0.6869060862969607
1758972257526143200,11.240143310546875,4.357598120392859,3.325960531976819,-1.0639631102204323
1758972257536101400,11.250101318359375,4.454176918660104,3.7395010011017322,-1.367611856649071
1758972257546059300,11.260059326171875,4.35632853884846,3.940442675641179,-1.6543082992330194
1758972257556017400,11.270017333984375,3.7745825436159968,4.280239863163232,-1.7605942525222897
1758972257565975300,11.279975341796876,3.2849688886359334,4.526752617788315,-1.7784537343397735
1758972257575933200,11.28993310546875,3.229131266079843,4.48330744381547,-2.056258576068282
1758972257585891300,11.299891357421876,3.2494895789757368,4.30301692763865,-2.3906267242789268
1758972257595849200,11.30984912109375,2.6660174906030294,4.1356408380925656,-2.4823738646060227
1758972257605807400,11.319807373046874,1.3380769884765147,3.746955993282795,-2.538828742277622
1758972257615765200,11.32976513671875,-0.6851943870082498,2.8300153358876705,-2.7490105388492343
1758972257625723400,11.339723388671874,-2.376466389240324,1.5040987408041953,-2.909040357285738
1758972257635681300,11.349681396484375,-4.074391127359867,-0.06198679283559322,-2.5917455089509485
1758972257645639400,11.359639404296875,-7.634488331991434,-2.285143319544196,-1.8204660990305244
1758972257655597300,11.369597412109375,-13.051097200894356,-5.183611429411172,-0.33718042915239926
1758972257665555200,11.37955517578125,-16.33547659920454,-8.428530923992396,1.1866384727746249
1758972257675512300,11.38951220703125,-13.390930044251679,-10.703891100668907,1.3291440326973796
1758972257685470500,11.399470458984375,-8.594159877610206,-10.403764829277991,1.570511387258023
1758972257695428400,11.409428466796875,-5.715350992459059,-7.430558581551909,2.736359439329803
1758972257705386500,11.419386474609375,-4.65218400105238,-4.083866811713576,3.2630472719460726
1758972257715344100,11.42934423828125,-3.085258801718056,-1.8519880493670702,0.9999407199040055
1758972257725302300,11.43930224609375,-1.07692897477746,-1.3281354401767254,-1.7725468483835458
1758972257735260200,11.44926025390625,1.3640043336763976,-1.722702328762412,-3.648578036639094
1758972257745218300,11.45921826171875,3.5650907751351593,-0.9057973320901394,-4.7852781740292905
1758972257755176200,11.46917626953125,5.5665773120522495,0.5162099854826927,-4.908985509979725
1758972257765134300,11.47913427734375,7.584795788061618,2.1781261293709275,-4.148244006817043
1758972257775092500,11.489092529296874,7.359240481269359,3.569569381853938,-4.096431401993334
1758972257785050400,11.49905029296875,6.062644673216343,4.766142388665676,-4.240380730983615
1758972257795008500,11.509008544921874,4.78940139143914,5.68659076192081,-3.9535783438071608
1758972257804966100,11.518966064453124,3.604694763509929,6.055109601536393,-3.9379046815961596
1758972257814924300,11.52892431640625,2.843177307538688,5.905965334251523,-4.034219275969266
1758972257824882200,11.538882080078125,2.5062054065704342,5.15418718200624,-3.6250168360486623
1758972257834840300,11.54884033203125,2.860855587570369,3.651062839192152,-2.7528075930446385
1758972257844798200,11.558798095703125,3.212692172454297,2.025976835051179,-2.1238079714670777
1758972257854756400,11.56875634765625,4.019993474479019,0.3854121067494154,-2.2260845429845153
1758972257864714500,11.578714599609375,3.976926778429746,-1.5540315232306718,-2.4277236982688306
1758972257874671000,11.588671142578125,3.8747842085555195,-3.075520374774933,-1.9721625350162386
1758972257884629200,11.598629150390625,3.841276783490181,-3.8421313544929023,-1.05583109556064
1758972257894587400,11.60858740234375,3.7235692724764347,-4.0354210529744625,-0.03467442301809787
1758972257904545300,11.618545166015625,3.727608318734169,-3.6935540734410286,1.0174328297138213
1758972257914503400,11.62850341796875,3.656154024851322,-2.758260013231635,1.9351865570574998
1758972257924461300,11.63846142578125,3.537949670231342,-1.610594537451863,2.8015438591629267
1758972257934419500,11.64841943359375,3.5084628789842127,-1.1151268957465887,3.718193132396042
1758972257944377300,11.65837744140625,3.471703466385603,-1.7752479240357875,5.424192455899715
1758972257954335200,11.668335205078124,1.3087925879336892,-1.6885843705832957,5.316700049430132
1758972257964293000,11.678293212890624,-0.4774326571904123,-1.6237597239732742,4.48344685228616
1758972257974251300,11.688251220703124,-1.6823405077576636,-1.5697820500701665,3.528964692004025
1758972257984209400,11.69820947265625,-2.4222131181538105,-1.4656231719374655,2.4269646965950726
1758972257994167300,11.708167236328125,-2.4647651426792145,-0.8889660242766141,1.3951264710403979
1758972258004125400,11.71812548828125,-2.1023510496795175,0.1272737962603569,0.5541242672048509
1758972258014083300,11.728083251953125,-1.5492776067018508,1.0521464156985283,0.02601663091853261
1758972258024041500,11.73804150390625,-0.8481658118546008,1.5835247442185878,-0.33017858756631613
1758972258033999000,11.7479990234375,-0.3766320034444332,1.8653145639300346,-0.3675945643775165
1758972258043957200,11.757957275390625,-0.04925064538121223,1.935779262253642,-0.000291530292481184
1758972258053915100,11.7679150390625,0.19377247702982275,1.6158230857551097,0.08772796781361103
1758972258063872300,11.777872314453125,0.37183190968632696,1.4785779305785893,0.20852496927529574
1758972258073830400,11.787830322265625,0.47296358548495915,1.6475211233109235,0.4755291616566479
1758972258083788300,11.797788330078125,0.36736499340534207,1.6213117462992668,0.5709010683521628
1758972258093746400,11.807746337890626,0.1397960087031126,1.328397305983305,0.6167891054324806
1758972258103704300,11.817704345703126,-0.2926520082538016,0.9705687872081994,0.7017177979163826
1758972258113662200,11.827662109375,-0.7440081027656793,0.7272691494107246,0.9377522670164704
1758972258123620400,11.837620361328124,-0.9833587106764315,0.6799702226191758,1.190837678030133
1758972258133578200,11.847578125,-1.0156716652601956,0.6885124255150556,1.3961976074032485
1758972258143536400,11.857536376953124,-0.8968880494475364,0.7592033338099717,1.5933515800975262
1758972258153494300,11.867494384765624,-0.6684914548147469,0.6406167018741369,1.6214042468883096
1758972258163452400,11.877452392578125,-0.3713157768577337,0.42033027539551254,1.482647956496477
1758972258173410300,11.887410400390625,-0.12533910187073052,0.14836393056213854,1.3190382337465882
1758972258183368200,11.8973681640625,-0.0377718775767833,-0.2478372812271118,1.1380486293897032
1758972258193326300,11.907326416015625,-0.18414134638607502,-0.7069990993201732,1.041474653428048
1758972258203284200,11.9172841796875,-0.5188952790439129,-1.1766495782017707,1.1339034924089908
1758972258213242400,11.927242431640625,-0.8700677009306848,-1.506624459889531,1.1892907408490776
1758972258223200300,11.9372001953125,-1.1126361018441617,-1.660595708939433,1.035080422346294
1758972258233158400,11.947158447265625,-1.2607466421671212,-1.6267986532777547,0.7898375415265559
1758972258243116300,11.9571162109375,-1.4027432296544313,-1.350803199058771,0.7018309029020369
1758972258253074400,11.967074462890626,-1.6762088731348515,-1.100924182870984,0.8045650089286267
1758972258263031300,11.97703125,-2.198476258960366,-1.092302484998107,1.040013202573359
1758972258272989200,11.9869892578125,-2.9177368739604947,-1.3361468971967696,1.3186958500497041
1758972258282947300,11.996947265625,-3.7911440945774313,-1.7555238173902035,1.5220736656948923
1758972258292905200,12.0069052734375,-4.719173424480855,-2.084951586589217,1.485661751359701
1758972258302863400,12.01686328125,-6.252740544092655,-2.1777368377923962,1.1559294462561607
1758972258312821500,12.026821533203124,-8.410555706840753,-2.1787398773550986,0.662040744305402
1758972258322779400,12.036779296875,-8.42371037196815,-2.6112217783153056,0.834715086390078
1758972258332737300,12.0467373046875,-6.195323543390631,-4.378576318752765,1.9613696305841206
1758972258342695200,12.056695068359375,-4.107755636823177,-5.778234441873431,3.378849533860385
1758972258352653300,12.0666533203125,-2.5556086121648547,-6.053630176633596,4.2758521495983
1758972258362611200,12.076611083984375,-1.2823960177868603,-5.014599263095856,4.82113245448172
1758972258372569300,12.0865693359375,-1.1868015543818473,-3.501230005121231,4.687616256700456
1758972258382527200,12.09652734375,-3.0302292806744573,-2.513026192501187,3.5425293992370364
1758972258392486000,12.10648583984375,-6.8637436134696,-1.27383627923429,2.509917412830889
1758972258402443800,12.11644384765625,-8.980694850909709,-0.08069792304635047,0.9089530196420847
1758972258412402000,12.12640185546875,-6.946515420180559,0.6349158598840237,-0.5855230295531452
1758972258422360000,12.136360107421876,-3.83249375757575,0.5896218431740999,-1.6434433524779974
1758972258432318000,12.14631787109375,-0.7612906614780426,-0.04666179793179035,-2.1754266611538826
1758972258442276000,12.156276123046876,1.4559645322322845,-0.9793646726042031,-2.221591469348967
1758972258452233000,12.16623291015625,2.6431542091488835,-1.6049129846841097,-1.7315723023079335
1758972258462190800,12.17619091796875,3.9416438681244848,-2.1938334015905854,-1.548652752801776
1758972258472149000,12.18614892578125,5.731842693054675,-3.1784634473770854,-1.7357273761607706
1758972258482107000,12.19610693359375,7.751252424675226,-4.105071512305736,-1.9151300035871563
1758972258492065000,12.20606494140625,8.854822738140822,-4.408497994285821,-2.0787907258719205
1758972258502023000,12.21602294921875,8.036377526289224,-4.083863304582238,-2.061898627781868
1758972258511980800,12.225980712890625,5.515970575886964,-2.7531431086093185,-1.80120420306921
1758972258521938700,12.235938720703125,3.4972166778266427,-1.6194658261716366,-2.259505312679708
1758972258531896800,12.245896728515625,-2.3313611731007695,-0.9672112934738397,-3.0773066736698147
1758972258541855000,12.25585498046875,-7.479765387791395,-0.713124304202199,-3.144140906536579
1758972258551812900,12.265812744140625,-4.055901530945301,-0.5103723653703928,-2.6391061028018594
1758972258561771000,12.27577099609375,-0.31338468915373086,-0.2304956858038902,-2.1562645723052323
1758972258571729000,12.28572900390625,2.154481342150271,0.17829554296731948,-1.4638577697001396
1758972258581687000,12.29568701171875,3.591104629574716,0.6742588592350482,-0.24230142054036258
1758972258591645000,12.30564501953125,4.40152464814186,1.2728005064457655,0.9738013393886387
1758972258601602800,12.315602783203126,4.850805123689771,1.873359338697791,1.7611394653148948
1758972258611560700,12.325560791015626,4.920404729616641,2.1652496966630217,1.9144684709385036
1758972258621518800,12.335518798828126,4.7267368454724545,2.2383196090489625,1.6692879878304898
1758972258631476000,12.34547607421875,4.434606541271507,2.207801136666536,1.2977747887045143
1758972258641433900,12.355433837890626,4.233834670341015,2.1970541172027587,0.7487064897149801
1758972258651392000,12.36539208984375,4.162531475366651,2.2465666283905503,0.2659614053301513
1758972258661350000,12.375349853515624,4.100937773501872,2.2225421942025423,-0.11747180256173013
1758972258671307800,12.385307861328124,4.118933156658708,2.249581007775664,-0.5556972156099975
1758972258681266000,12.395265869140625,4.171044159907102,2.390008884641528,-1.0004974770039319
1758972258691223800,12.405223876953125,4.15292047419548,2.6185569435089824,-1.3474829685948788
1758972258701182000,12.415181884765625,4.035625927896797,2.960562454730272,-1.6417960236623883
1758972258711139800,12.425139892578125,3.759422968406975,3.361277344551682,-1.8169640822589397
1758972258721098000,12.435097900390625,3.3780212663426994,3.7853789551794526,-2.0263918455928565
1758972258731055900,12.445055908203125,2.926500318391621,4.164889144408702,-2.0910149782814083
1758972258741014000,12.455013916015625,2.4390219218745828,4.427984785044193,-2.266574374283105
1758972258750972000,12.464971923828125,2.07043615450263,4.446497762334347,-2.515102706514299
1758972258760929800,12.4749296875,1.7792223806247114,4.298215080314875,-2.558202135789394
1758972258770888000,12.484887939453126,1.270826283763349,3.869497500324249,-2.715363120791316
1758972258780845800,12.494845703125,-0.2618213829159736,3.182580235046148,-2.7608476916372773
1758972258790804000,12.504803955078126,-2.4529440642431375,2.256975794202089,-2.699792042171955
1758972258800761900,12.514761962890624,-3.3804721666261552,0.88078622495234,-2.4647289023220535
1758972258810718700,12.52471875,-4.60850384927988,-0.9090776689350605,-1.723120261913538
1758972258820676900,12.5346767578125,-6.871945624625682,-3.0883535528630017,-0.6877146992661058
1758972258830634800,12.544634765625,-9.7556586484313,-5.35322039257586,0.8699977044343948
1758972258840593000,12.554593017578124,-11.479771428513526,-7.2904510226815935,2.1641807522572574
1758972258850550800,12.56455078125,-10.924300276744365,-8.370689560398459,2.295949083457887
1758972258860509000,12.574509033203125,-8.93072875073552,-7.847524933472275,2.2759208792991936
1758972258870467000,12.584467041015625,-6.055927347660064,-5.535161598569155,2.6370769350618124
1758972258880425000,12.594425048828125,-3.3971617278814312,-2.940134583729505,2.297487837332487
1758972258890383000,12.604383056640625,-1.2050105802893638,-0.5929524489015341,0.6194819977782666
1758972258900340700,12.6143408203125,0.016910218268632888,0.8839490728974342,-1.1001229494906961
1758972258910299000,12.624298828125,1.8189730839937923,-0.1597597693234682,-3.459108480967581
1758972258920256800,12.6342568359375,4.110611610776186,-1.4589917710989713,-5.516179834723472
1758972258930215000,12.64421484375,5.211400769090652,-0.9240139567822218,-5.9386810244172805
1758972258940172800,12.6541728515625,6.601477993917465,0.07083762328922748,-5.433126288461684
