time,seconds_elapsed,z,y,x
1758972246343341000,0.057341064453125,9.54187678154111,2.2570313237816095,0.16963460906259714
1758972246353299200,0.06729931640625,9.510595508092642,2.366694352288544,0.3431045950369909
1758972246363257000,0.077257080078125,9.465985966515541,2.503639647735655,0.5452325932841747
1758972246373215200,0.08721533203125,9.403463167107105,2.6754373531162736,0.7663579548049718
1758972246383173600,0.097173583984375,9.317869288712739,2.888058651794493,1.003400066577643
1758972246393131800,0.1071318359375,9.206776811924577,3.140864369083941,1.241213820309937
1758972246403089700,0.117089599609375,9.071448304024338,3.424415937770903,1.4671677710309623
1758972246413047800,0.1270478515625,8.914725710439681,3.7207942548051474,1.6893023095943032
1758972246423005700,0.137005615234375,8.749821563965082,4.001614352701604,1.896863840664923
1758972246432963800,0.1469638671875,8.591231422942876,4.245311173123121,2.082897138277441
1758972246442922000,0.156921875,8.449571373933553,4.44232339925915,2.2451925635583696
1758972246452879600,0.166879638671875,8.338280159702897,4.577934815753996,2.3845307454913853
1758972246462837800,0.176837646484375,8.259860702982545,4.654809673380852,2.50556067892611
1758972246472795600,0.186795654296875,8.208099536085129,4.685834926241636,2.6154236139193174
1758972246482753800,0.19675390625,8.17530902711749,4.679783663378656,2.726597339250147
1758972246492711700,0.206711669921875,8.154471990793944,4.644386186783016,2.846866517445445
1758972246502669800,0.216669921875,8.140643956449628,4.614548974663019,2.933639668752253
1758972246512628000,0.2266279296875,8.130628173869848,4.615201885613799,2.960265809871256
1758972246522585900,0.2365859375,8.107567616277933,4.646818090105056,2.9740231170669196
1758972246532543700,0.246543701171875,8.062120454832911,4.688939906519651,3.030914048068225
1758972246542501600,0.256501708984375,8.011451759347318,4.7154491432607175,3.122748866678774
1758972246552459800,0.266459716796875,7.9885987070262425,4.695348019996286,3.21035583846122
1758972246562417700,0.276417724609375,7.997695036673545,4.594411903302372,3.3314608829587695
1758972246572375800,0.286375732421875,8.00225781454444,4.4153456682235,3.555133444744348
1758972246582333700,0.296333740234375,7.9881071241170165,4.186079816475511,3.851918004491925
1758972246592291800,0.306291748046875,7.944070998513698,3.95134196305722,4.1772023902758955
1758972246602250000,0.31625,7.855884181016683,3.7386268486157057,4.525277576799691
1758972246612207600,0.32620751953125,7.6958777434557675,3.5485961519300937,4.934705642169714
1758972246622165800,0.336165771484375,7.451264684972166,3.3852816127344965,5.402675036096572
1758972246632123600,0.34612353515625,7.126506661149859,3.2313530337825416,5.911146536281705
1758972246642081800,0.356081787109375,6.746571524506807,3.06764540361613,6.422127388939261
1758972246652039700,0.366039794921875,6.338755278247595,2.889312451247871,6.90235011523962
1758972246661997800,0.375997802734375,5.928040972459316,2.6841353310957548,7.336493811932206
1758972246671955700,0.385955810546875,5.540753719487786,2.4290669295713303,7.718164394065737
1758972246681913900,0.395913818359375,5.1957279836624854,2.1029044457785786,8.046899504825472
1758972246691872000,0.4058720703125,4.903038292013108,1.710389375156164,8.318965218380093
1758972246701829600,0.41582958984375,4.663552367284893,1.2677484837532043,8.533140468502044
1758972246711787800,0.425787841796875,4.453349527925253,0.787596996058151,8.701595000934601
1758972246721745700,0.43574560546875,4.249619683972001,0.28102181274732574,8.83358062814772
1758972246731703800,0.445703857421875,4.062966062504053,-0.23683751084497198,8.922253767856954
1758972246741661700,0.45566162109375,3.926688583315909,-0.7189659429024905,8.957376519164443
1758972246751619800,0.465619873046875,3.7678985358074306,-1.1581000682935119,8.979540420177578
1758972246761577700,0.47557763671875,3.607755027863383,-1.5712449622295797,8.98252089729309
1758972246771536000,0.485535888671875,3.4661139758154746,-1.9647358921468256,8.960817599529028
1758972246781493800,0.49549365234375,3.326106077927351,-2.3437387163758276,8.922684560489653
1758972246791451600,0.50545166015625,3.1792174806147813,-2.700537892103195,8.875251193663477
1758972246801409800,0.515409912109375,3.039590398737788,-3.0196108560264108,8.82118058077991
1758972246811367700,0.52536767578125,2.927301990163326,-3.2865777851372955,8.763543215325475
1758972246821325800,0.535325927734375,2.854804032446444,-3.4942668881103396,8.706926425090431
1758972246831283700,0.54528369140625,2.8153075960993763,-3.646522565414011,8.657211669328808
1758972246841241900,0.555241943359375,2.7875831383496523,-3.7494329047903414,8.622153799951075
1758972246851199700,0.56519970703125,2.7478607842922207,-3.8101600529536603,8.60827198959291
1758972246861157600,0.57515771484375,2.6833310289755463,-3.832426829819381,8.618736684983968
1758972246871115800,0.58511572265625,2.5909815388411284,-3.8189787347033617,8.652894975173473
1758972246881073700,0.59507373046875,2.4684885471165177,-3.785829621556401,8.703128786373139
1758972246891031800,0.60503173828125,2.3299545211732386,-3.7606104246258734,8.752113474294543
1758972246900989700,0.61498974609375,2.1890309697449206,-3.7538024981766935,8.791330216917395
1758972246910947800,0.62494775390625,2.0379348377399147,-3.7480917193144556,8.830006861314176
1758972246920905700,0.63490576171875,1.868757251729816,-3.736196406598389,8.872371254312991
1758972246930863900,0.64486376953125,1.6919883338078856,-3.731996616820991,8.909531064406037
1758972246940821800,0.65482177734375,1.5243658682852983,-3.738540631636977,8.937003008699417
1758972246950779600,0.664779541015625,1.3586081737212836,-3.7434549994245168,8.961648205134273
1758972246960737800,0.67473779296875,1.1885025861460714,-3.7437221259281035,8.985676730975507
1758972246970695700,0.68469580078125,1.0241977207388728,-3.7504146093040704,9.003100159463285
1758972246980653800,0.69465380859375,0.8726069370847195,-3.7644077710822224,9.013221740505099
1758972246990611700,0.70461181640625,0.741606959908083,-3.7884395117938516,9.014882367193698
1758972247000569900,0.71456982421875,0.6330098070669918,-3.818489197620749,9.010484424495697
1758972247010527700,0.72452783203125,0.6371119086235761,-3.8680157373338937,8.989044746103882
1758972247020486000,0.73448583984375,0.7994156633414328,-3.959466817323863,8.936104598554968
1758972247030443800,0.74444384765625,1.0095451452039181,-4.100579461583495,8.850788368058204
1758972247040401700,0.754401611328125,1.1292991404186934,-4.293178839713335,8.744352777165174
1758972247050359800,0.76435986328125,1.1308078644812107,-4.549471522335708,8.613591723310947
1758972247060317700,0.774317626953125,1.0334066439151763,-4.871696228288114,8.448020637360214
1758972247070275800,0.78427587890625,0.8797457029234618,-5.249294738677143,8.236586210379004
1758972247080233700,0.794233642578125,0.6860070916306227,-5.669537920311093,7.97220988228321
1758972247090192000,0.80419189453125,0.4703561064003035,-6.112686176714301,7.654032990416884
1758972247100149800,0.814149658203125,0.3163493841782212,-6.539227581709623,7.301288643038273
1758972247110107600,0.824107666015625,0.32209534395169465,-6.919950653859972,6.941247708910703
1758972247120065800,0.834065673828125,0.3642188408667221,-7.275029581665993,6.565948999896645
1758972247130023700,0.844023681640625,0.3745918393863365,-7.634183796086907,6.144046945139765
1758972247139981800,0.85398193359375,0.33445732433144,-7.99108409410119,5.674603387007117
1758972247149939700,0.863939697265625,0.2692346365808509,-8.321131456503272,5.182343016910552
1758972247159897900,0.87389794921875,0.21377983932988717,-8.620811737692355,4.669719657742977
1758972247169855700,0.883855712890625,0.1661785137919709,-8.898791059204935,4.117558361174166
1758972247179814000,0.89381396484375,0.12737483634888194,-9.159141200524568,3.502042490547895
1758972247189771800,0.903771728515625,0.08993030016347765,-9.392608011093735,2.8180139324486255
1758972247199729700,0.913729736328125,0.04845074087490793,-9.584697101613878,2.0740409009963274
1758972247209687800,0.923687744140625,0.013544669091980904,-9.721990772107244,1.2857387523435055
1758972247219645700,0.933645751953125,-0.003706786377231765,-9.795194540005921,0.47382283266279845
1758972247229603800,0.943603759765625,-0.016950630194123368,-9.79976433213949,-0.3670206734796986
1758972247239561700,0.953561767578125,-0.04566036580428481,-9.732310506069659,-1.20434174111709
1758972247249519900,0.963519775390625,-0.08042148985830135,-9.631683309194445,-1.8424444143436849
1758972247259477800,0.973477783203125,-0.08846842005052603,-9.599722236788272,-2.0019693519979715
1758972247269436000,0.983435791015625,-0.026352055151667445,-9.626222121179103,-1.8723083683401345
1758972247279393800,0.993393798828125,0.17024046600125728,-9.657088384085894,-1.6976555657893417
1758972247289351700,1.0033515625,0.45913281119428573,-9.67369348192811,-1.542480055516213
1758972247299309800,1.013309814453125,0.7640694054763764,-9.676645317471026,-1.3961027687266467
1758972247309267700,1.023267822265625,1.0473200184553861,-9.673121234998106,-1.2264616568580269
1758972247319225900,1.033225830078125,1.3008689553275703,-9.664043025529384,-1.041341236306727
1758972247329183700,1.043183837890625,1.5255394421093165,-9.645539400589465,-0.8981524433601648
1758972247339142000,1.053141845703125,1.7042523337058721,-9.620655719223619,-0.8419569472771138
1758972247349099800,1.063099853515625,1.8075950731500983,-9.599477906638384,-0.8677584010750055
1758972247359057700,1.0730576171875,1.8214282220609486,-9.591281156179308,-0.92742084261626
1758972247369015800,1.083015869140625,1.7680214799135923,-9.597054478883743,-0.970063321904093
1758972247378973700,1.0929736328125,1.6945326114632189,-9.608497079396248,-0.9877836144465952
1758972247388931800,1.102931884765625,1.6409136878699064,-9.617223406687378,-0.9933774158656596
1758972247398889700,1.1128896484375,1.6210357058368623,-9.621310383740067,-0.9864201440736651
1758972247408848000,1.122847900390625,1.6207690177246927,-9.623138183689116,-0.9688752080980688
1758972247418805800,1.1328056640625,1.6229147975817322,-9.624383215314149,-0.9527869737368077
1758972247428764000,1.142763916015625,1.6232171415291725,-9.6251454318583,-0.9445175233677029
1758972247438721500,1.152721435546875,1.621805667296052,-9.62527519571781,-0.9456311836980282
1758972247448679700,1.1626796875,1.6205596127577124,-9.624458618637918,-0.9560172608949243
1758972247458637800,1.172637939453125,1.6229280954547225,-9.621623687472939,-0.9802316646970808
1758972247468595700,1.182595703125,1.630556982897967,-9.616106385356188,-1.0208731794260442
1758972247478553900,1.192553955078125,1.6404346721813081,-9.608476036608218,-1.075426899651438
1758972247488511700,1.20251171875,1.6470150734849274,-9.599923896840215,-1.139826087391004
1758972247498470000,1.212469970703125,1.6458211875252424,-9.591579262343048,-1.209651245702058
1758972247508427800,1.222427734375,1.634915470368415,-9.58394832907319,-1.2827151667386292
1758972247518385700,1.2323857421875,1.6120986584044992,-9.577809680187702,-1.355391842023283
1758972247528343600,1.242343505859375,1.57499773889184,-9.573993921291828,-1.4242182716205716
1758972247538301700,1.2523017578125,1.519945567625016,-9.572247954407334,-1.4940617693059146
1758972247548259800,1.262259765625,1.4447478494301438,-9.571401566711067,-1.5720575937867163
1758972247558217700,1.2722177734375,1.3520729267336427,-9.572930675974488,-1.6435604029864073
1758972247568175900,1.28217578125,1.244199558122456,-9.577738953039049,-1.6997906781218945
1758972247578133800,1.2921337890625,1.1199314464841037,-9.585804186072945,-1.7402556672401726
1758972247588092000,1.302091796875,0.9819374457016586,-9.596132687863706,-1.766476004037261
1758972247598049800,1.3120498046875,0.8324640195276588,-9.607805590000748,-1.7797339834086596
1758972247608007700,1.322007568359375,0.6764821613077074,-9.61979354943633,-1.7811024952828882
1758972247617965800,1.3319658203125,0.5206964101817458,-9.630639937621355,-1.7748372974082827
1758972247627923700,1.341923828125,0.37311500829942523,-9.638639119681715,-1.7685661081843078
1758972247637881900,1.3518818359375,0.24083341208072379,-9.643434537264705,-1.7653847016692161
1758972247647839700,1.36183984375,0.12665760972392745,-9.646122168913482,-1.7625838189043104
1758972247657798000,1.3717978515625,0.028836355381226166,-9.647408117070794,-1.7598486948519945
1758972247667755800,1.381755859375,-0.05575811844593845,-9.646781509605049,-1.7626316035687923
1758972247677714000,1.3917138671875,-0.1289796959959436,-9.64452467058897,-1.7711203227117656
1758972247687671600,1.401671630859375,-0.1848853696864098,-9.641341364377736,-1.7834702473275363
1758972247697629700,1.411629638671875,-0.2051780517338775,-9.63831354098916,-1.797560732000321
1758972247707587800,1.421587890625,-0.16260492962151765,-9.635276949772239,-1.8180774503283201
1758972247717545700,1.431545654296875,-0.04016795153361745,-9.631439563566445,-1.845033700184524
1758972247727504000,1.44150390625,0.12227370468443259,-9.624743865320086,-1.876101769273728
1758972247737461800,1.451461669921875,0.2124798261146061,-9.614003275597096,-1.92254101049602
1758972247747420000,1.461419921875,0.18480591124203055,-9.60011912715137,-1.993479902202636
1758972247757377800,1.471377685546875,0.06406705600863788,-9.583848960351943,-2.077528743112087
1758972247767335700,1.481335693359375,-0.11263231750815175,-9.567486439093948,-2.1496238191165027
1758972247777293600,1.49129345703125,-0.31789317955411966,-9.553841360101103,-2.1893941039688882
1758972247787251700,1.501251708984375,-0.539591883983463,-9.544321836605668,-2.1874941155664622
1758972247797209900,1.5112099609375,-0.7735310613047331,-9.537262565743923,-2.147706295057386
1758972247807166700,1.521166748046875,-1.0247573273830115,-9.528217674022912,-2.0816629203073678
1758972247817124900,1.531124755859375,-1.3043360469162464,-9.508953586104512,-2.0121810955412687
1758972247827082800,1.541082763671875,-1.6003332556784151,-9.473324638840555,-1.9660705017514526
1758972247837040600,1.55104052734375,-1.868496262706071,-9.424998707088827,-1.9617625754244625
1758972247846998800,1.560998779296875,-2.072855490604043,-9.373790497899055,-2.0014282308585942
1758972247856956700,1.570956787109375,-2.2026664041265844,-9.330064168897271,-2.0660424495883283
1758972247866914800,1.580914794921875,-2.272274047229439,-9.298470760759711,-2.132044469414651
1758972247876872700,1.590872802734375,-2.3145365872889756,-9.27702757523656,-2.179461615758389
1758972247886830800,1.600830810546875,-2.3593879747979343,-9.26108006452024,-2.199102428034693
1758972247896788700,1.610788818359375,-2.418949001791328,-9.24720409938097,-2.1927808237977326
1758972247906747000,1.620746826171875,-2.4954098717898128,-9.232978005629777,-2.1668905957378444
1758972247916704800,1.630704833984375,-2.586588272318244,-9.216477537205815,-2.129897666644305
1758972247926662700,1.64066259765625,-2.685921337729692,-9.197560655289887,-2.0883286618068815
1758972247936620800,1.650620849609375,-2.7865564256504176,-9.17664938468635,-2.0480746850907803
1758972247946578700,1.66057861328125,-2.8820576578140256,-9.154485483673215,-2.014832925224304
1758972247956536800,1.670536865234375,-2.967792990505695,-9.13190774116218,-1.9926948893047869
1758972247966494700,1.68049462890625,-3.0412925264805555,-9.110231915926933,-1.9810693334408103
1758972247976452900,1.690452880859375,-3.1031133150994776,-9.090773182219266,-1.9745659428961573
1758972247986410800,1.70041064453125,-3.1577959224015473,-9.074002664682268,-1.964994543083012
1758972247996368600,1.71036865234375,-3.208487706501782,-9.059707597348094,-1.948761493423581
1758972248006326800,1.720326904296875,-3.2543098387390375,-9.048032357123494,-1.926903589619696
1758972248016284700,1.73028466796875,-3.291037979416549,-9.039988166877627,-1.9021176695398985
1758972248026242800,1.740242919921875,-3.313499986593425,-9.036726534733175,-1.8784724439278244
1758972248036200700,1.75020068359375,-3.3174174522981046,-9.039352207061647,-1.858822425431758
1758972248046158800,1.760158935546875,-3.2996067780584095,-9.048736706000566,-1.8448222493909299
1758972248056116700,1.77011669921875,-3.2600273396030066,-9.064729224902392,-1.8366604241147637
1758972248066075000,1.780074951171875,-3.200137519046664,-9.086742903789878,-1.833192455743253
1758972248076032800,1.79003271484375,-3.1226684949189423,-9.113701053342222,-1.832970629686117
1758972248085990700,1.79999072265625,-3.0317656964614987,-9.143720344030857,-1.836073418007046
1758972248095948800,1.80994873046875,-2.932685729028284,-9.174201991534233,-1.8449308243319391
1758972248105906700,1.81990673828125,-2.8338267108693715,-9.202600403022766,-1.8579339521594345
1758972248115864800,1.82986474609375,-2.7457956684559583,-9.225575035896897,-1.8761001618385313
1758972248125822700,1.83982275390625,-2.681893689648807,-9.238833745920658,-1.9030970359660684
1758972248135780900,1.84978076171875,-2.6607956643015145,-9.237706787717341,-1.9378734580539165
1758972248145738800,1.85973876953125,-2.69397341902107,-9.220359931597113,-1.974296916696429
1758972248155697000,1.86969677734375,-2.771139660809934,-9.190731686052679,-2.0054076558835803
1758972248165654800,1.87965478515625,-2.8612440023660657,-9.158924927425383,-2.024297065270692
1758972248175612700,1.88961279296875,-2.9335552053391933,-9.135910547062753,-2.0247994618348777
1758972248185570800,1.89957080078125,-2.9779902671322223,-9.126656396505236,-2.0015264305360616
1758972248195528700,1.90952880859375,-3.0001822251960633,-9.128779380008577,-1.9582346935592592
1758972248205486800,1.91948681640625,-3.004864537793398,-9.14002090499103,-1.8976770567439496
1758972248215444700,1.92944482421875,-2.992524988441169,-9.159601219251751,-1.8212364988811314
1758972248225403000,1.93940283203125,-2.964424975377321,-9.185776109471917,-1.7332313215613364
1758972248235360800,1.94936083984375,-2.926375230707228,-9.21525647097826,-1.6388349818997083
1758972248245318700,1.959318603515625,-2.888593489323556,-9.243028859522939,-1.5468858892597257
1758972248255276800,1.96927685546875,-2.84804111418277,-9.268002557259798,-1.4707755862645804
1758972248265234700,1.979234619140625,-2.799294034409523,-9.291354206752777,-1.4160111458979545
1758972248275192800,1.98919287109375,-2.7422312539726494,-9.315266997259855,-1.3697948997765779
1758972248285150700,1.999150634765625,-2.677283565504849,-9.341126830181478,-1.321319622682035
1758972248295108900,2.00910888671875,-2.603665956108272,-9.368169150885938,-1.276201254799962
1758972248305066800,2.019066650390625,-2.5189827628180383,-9.395364031803608,-1.2459046084746717
1758972248315025000,2.02902490234375,-2.419285101877898,-9.422211706718802,-1.2407196070522069
1758972248324982800,2.038982666015625,-2.2970566063083706,-9.44841640755534,-1.2733237996675073
1758972248334940700,2.048940673828125,-2.1393075922854243,-9.47620574723482,-1.3398909060306847
1758972248344898800,2.05889892578125,-1.9476165611721574,-9.506934647497534,-1.4125773720569907
1758972248354856700,2.068856689453125,-1.7409193918459116,-9.539054709857702,-1.4649316825419663
1758972248364814800,2.07881494140625,-1.5320516004823148,-9.571044423836469,-1.489408536672592
1758972248374772700,2.088772705078125,-1.333713094178587,-9.600116204541921,-1.4931127980180083
1758972248384731000,2.09873095703125,-1.1610516115754843,-9.62332113904059,-1.487962283387035
1758972248394688800,2.108688720703125,-1.0306317723743617,-9.639815762245654,-1.477201966050267
1758972248404647000,2.11864697265625,-0.9647300711173563,-9.649245853891967,-1.4600396727167069
1758972248414604800,2.128604736328125,-0.9779244106680154,-9.650635846945644,-1.4419810150653123
1758972248424563000,2.13856298828125,-1.0604327441371977,-9.6440015234977,-1.4279703176304697
1758972248434520800,2.148520751953125,-1.1891535243354736,-9.629905778127908,-1.421695767405629
1758972248444479000,2.15847900390625,-1.3226767363794147,-9.612265492019057,-1.423119078207016
1758972248454437000,2.16843701171875,-1.400764184666425,-9.600289223021269,-1.4292286471284925
1758972248464395000,2.17839501953125,-1.3775680179961025,-9.60222632856369,-1.4387294659234582
1758972248474353000,2.188352783203125,-1.2683669079124926,-9.616518473288416,-1.443674959501624
1758972248484310800,2.198310791015625,-1.1217464600168168,-9.635661565175653,-1.4373970482759177
1758972248494269000,2.20826904296875,-0.978625398544222,-9.65344038297236,-1.4225876016788184
1758972248504226800,2.218226806640625,-0.8598032773520797,-9.667198274689913,-1.4058350581899284
1758972248514185000,2.22818505859375,-0.7668002186797559,-9.676523736917972,-1.3954587717346847
1758972248524143000,2.23814306640625,-0.6884422828882932,-9.68232803928256,-1.3960476775385438
1758972248534101000,2.24810107421875,-0.6093350630994886,-9.686406248506904,-1.4045125774145126
1758972248544059100,2.25805908203125,-0.5182809830704703,-9.690413146060704,-1.4133943875283002
1758972248554016800,2.268016845703125,-0.4122713625045493,-9.694649176195263,-1.4192279159873724
1758972248563975000,2.277974853515625,-0.294554827934131,-9.69818085745275,-1.4244003501892089
1758972248573932800,2.287932861328125,-0.17206581826489417,-9.700091659510136,-1.4314252803899348
1758972248583891000,2.297890869140625,-0.05059921501253266,-9.700206810322403,-1.440072697225958
1758972248593848800,2.307848876953125,0.06657834014324471,-9.69879694352448,-1.4488989777602255
1758972248603807000,2.317806884765625,0.1786758475217968,-9.69633318375945,-1.4558876676037906
1758972248613765000,2.32776513671875,0.285604263433069,-9.693172673901914,-1.459878490805626
1758972248623723000,2.337722900390625,0.3869502761021256,-9.689556821492314,-1.4605207342319189
1758972248633681000,2.347680908203125,0.48207058265674857,-9.685472182527183,-1.4593245101846755
1758972248643638800,2.357638671875,0.5701071780281141,-9.6808351703763,-1.4583559574134648
1758972248653596000,2.367595947265625,0.6507459547657519,-9.675562782931328,-1.4595945592977106
1758972248663554000,2.377553955078125,0.7245158321145921,-9.669786537617444,-1.4631078281156717
1758972248673512000,2.387511962890625,0.7922775550898165,-9.663830259561538,-1.467333629117161
1758972248683470000,2.397469970703125,0.8563784174699336,-9.657924834910034,-1.470204946769774
1758972248693428000,2.407427978515625,0.9203798380635678,-9.65190893562138,-1.4710418359853326
1758972248703385900,2.4173857421875,0.9887792744204401,-9.645206807634233,-1.470610458830744
1758972248713343700,2.42734375,1.065453275712952,-9.637243281409145,-1.4692624052226542
1758972248723302000,2.437302001953125,1.153207620076835,-9.62745838497579,-1.467156226723641
1758972248733260000,2.447260009765625,1.2516079346828162,-9.61548620763123,-1.4650141001284123
1758972248743218000,2.457218017578125,1.3558670583195984,-9.601488077417015,-1.4640522693589328
1758972248753176000,2.467176025390625,1.4558200091950595,-9.586402151966094,-1.466926071229577
1758972248763134000,2.477134033203125,1.5396628061383961,-9.571782090461253,-1.4767603597626089
1758972248773092000,2.487092041015625,1.598992654724419,-9.559362169349193,-1.49406089252308
1758972248783049700,2.4970498046875,1.632068702635169,-9.550441196268796,-1.5152002727940677
1758972248793007900,2.5070078125,1.6437028801970184,-9.545463992378115,-1.5338745781257748
1758972248802965800,2.5169658203125,1.6426809898033736,-9.544045357751846,-1.5437563590623438
1758972248812924000,2.526923828125,1.6383488058179616,-9.545271684676408,-1.5407733977288007
1758972248822882000,2.536882080078125,1.6377068546526132,-9.54786287021339,-1.5253215615749358
1758972248832840000,2.54683984375,1.6437202697232365,-9.550718844166397,-1.5007839171677826
1758972248842798000,2.556798095703125,1.656514430975169,-9.553014261627197,-1.4718303560145198
1758972248852756000,2.566755859375,1.673461474122852,-9.554527588799596,-1.4425418638184666
1758972248862713900,2.5767138671875,1.6887774089373646,-9.556007598224282,-1.4146100469283758
1758972248872671700,2.586671630859375,1.6917381584390996,-9.559364507436753,-1.3881474258080124
1758972248882630000,2.5966298828125,1.6700675939008593,-9.567060907158256,-1.36110495897308
1758972248892587800,2.606587890625,1.618977312002331,-9.580002221795915,-1.3314862119093536
1758972248902546000,2.6165458984375,1.5460017999015747,-9.59625660650432,-1.3008208784021436
1758972248912504000,2.626504150390625,1.4503309102594852,-9.614830958592892,-1.2735536629006265
1758972248922462000,2.6364619140625,1.3059760692082345,-9.638123571375012,-1.253544455703348
1758972248932420000,2.646420166015625,1.0945598354708403,-9.665928108623623,-1.2418334135130047
1758972248942378000,2.6563779296875,0.8240792722158133,-9.693215343999862,-1.2380869204610585
1758972248952336000,2.6663359375,0.5185709789929911,-9.7139565187335,-1.241167058558762
1758972248962293800,2.676293701171875,0.20464684920031576,-9.72384429101944,-1.255145022767782
1758972248972252000,2.686251953125,-0.09782508113444782,-9.721725399169324,-1.2840936154849827
1758972248982210000,2.6962099609375,-0.3787079694682732,-9.709972417533397,-1.3203785424396395
1758972248992168000,2.70616796875,-0.6348848802238702,-9.692258481666444,-1.351826989148557
1758972249002126000,2.7161259765625,-0.8668070916995405,-9.671181791368126,-1.3737743248015641
1758972249012084000,2.726083984375,-1.0740325957488268,-9.648953592947125,-1.3836625354789196
1758972249022042000,2.7360419921875,-1.258209671035409,-9.62809142218232,-1.3737265401370822
1758972249031999700,2.745999755859375,-1.428963712581992,-9.60953519027233,-1.3361485046319663
1758972249041958000,2.7559580078125,-1.595889135751128,-9.591779168829321,-1.2733100634030996
1758972249051915800,2.765915771484375,-1.758213056474179,-9.571665186083317,-1.2092466834891586
1758972249061874000,2.7758740234375,-1.9194591188326477,-9.544513559785484,-1.1782808326654135
1758972249071832000,2.78583203125,-2.0840818180173635,-9.50714682894349,-1.2004905455816537
1758972249081790000,2.7957900390625,-2.2377194511987266,-9.46251682910025,-1.2742853381760417
1758972249091748000,2.805748046875,-2.369655101790279,-9.41503553147912,-1.3828252078719436
1758972249101706000,2.8157060546875,-2.4857930253997442,-9.366718367555738,-1.5019398092046379
1758972249111663900,2.825663818359375,-2.5971795166984197,-9.318722106149792,-1.6082446133248507
1758972249121621800,2.835621826171875,-2.7083807145580647,-9.273250394785403,-1.6857836339488625
1758972249131580000,2.845579833984375,-2.8119392887100574,-9.23466785841286,-1.7275053451299667
1758972249141537800,2.855537841796875,-2.9012594941511747,-9.205692523819208,-1.7344516571365296
1758972249151496000,2.865495849609375,-2.9809613918974995,-9.184026635456085,-1.7140427830971776
1758972249161454000,2.8754541015625,-3.055698945234716,-9.166617235493659,-1.675174561651051
1758972249171412000,2.885411865234375,-3.1231156541645526,-9.152593970838188,-1.626825102893263
1758972249181370000,2.8953701171875,-3.1787446024060246,-9.14242738161087,-1.5754446058765053
1758972249191328000,2.905327880859375,-3.221846077507734,-9.136088826239108,-1.5238120337948202
1758972249201286000,2.915285888671875,-3.254297856040299,-9.132778094255924,-1.4738646383211016
1758972249211243800,2.925243896484375,-3.279075154422223,-9.131056677290797,-1.4289344864875078
1758972249221201000,2.935200927734375,-3.298339826862514,-9.129951930919288,-1.3911466076239942
1758972249231159000,2.945158935546875,-3.3138907394766806,-9.12927739265859,-1.3582340797118841
1758972249241117000,2.955116943359375,-3.3277763492271304,-9.128573628303409,-1.3286942431032658
1758972249251075000,2.965074951171875,-3.3405642268687483,-9.127627287364005,-1.3028604214057327
1758972249261032700,2.97503271484375,-3.3506615502521395,-9.126960932409762,-1.2814355021916328
1758972249270990800,2.984990966796875,-3.3537031099051235,-9.128034699121118,-1.2657229692749679
1758972249280949000,2.994948974609375,-3.343969066876173,-9.132924224728345,-1.2561753887288272
1758972249290907000,3.004906982421875,-3.3181329070910808,-9.142652422538399,-1.2539144580595194
1758972249300865000,3.014864990234375,-3.2729537489324807,-9.158270847430824,-1.2586610680647194
1758972249310823000,3.024822998046875,-3.2048367827787994,-9.180605428835749,-1.2711727591134607
1758972249320781000,3.034781005859375,-3.11105404497087,-9.20995719552636,-1.2916725263066589
1758972249330739000,3.044739013671875,-2.9917005203157663,-9.245452287277578,-1.3197465281464158
1758972249340697000,3.054697021484375,-2.8527403779149054,-9.284364493995904,-1.3538260540112852
1758972249350654700,3.06465478515625,-2.7042911071568727,-9.322330944296716,-1.3969012256279587
1758972249360612900,3.07461279296875,-2.5638915796026587,-9.353233447560667,-1.4539191440097987
1758972249370571000,3.084571044921875,-2.469070730918646,-9.367669969192146,-1.523430341000855
1758972249380528600,3.094528564453125,-2.4904589713841676,-9.350738708135484,-1.5911349269613622
1758972249390486800,3.10448681640625,-2.652441385193169,-9.296867417216301,-1.6441497471816837
1758972249400444700,3.114444580078125,-2.858938063511252,-9.22362857800424,-1.7092530646026134
1758972249410402800,3.12440283203125,-3.0224601079776883,-9.157584618732333,-1.7815137064322828
1758972249420360700,3.134360595703125,-3.1291075880557297,-9.115841572502255,-1.8112150172129273
1758972249430318800,3.14431884765625,-3.1995942059502003,-9.097102969762682,-1.782051028179377
1758972249440276700,3.15427685546875,-3.2257118130251765,-9.100868459776043,-1.7144544326379894
1758972249450234600,3.164234619140625,-3.1919942523404954,-9.130599581173062,-1.6167052754171192
1758972249460192800,3.17419287109375,-3.1008585219100118,-9.182571760472655,-1.4951277911022305
1758972249470150700,3.184150634765625,-2.96815714764297,-9.246454157796501,-1.3651076187431812
1758972249480108800,3.19410888671875,-2.8198326723083853,-9.309925051710009,-1.242662119422108
1758972249490066700,3.204066650390625,-2.6660455476537344,-9.368716263374687,-1.1356734246909617
1758972249500024800,3.21402490234375,-2.514689741799235,-9.421306282311678,-1.0419752964265645
1758972249509982700,3.223982666015625,-2.3768556808188555,-9.466401561579108,-0.9529925793115049
1758972249519940900,3.23394091796875,-2.253364179576188,-9.504152323302627,-0.8739568903889506
1758972249529899000,3.24389892578125,-2.1394261040985585,-9.535068855091929,-0.8219972052447497
1758972249539856600,3.253856689453125,-2.0347911328867077,-9.559047696572541,-0.8090844591144472
1758972249549814800,3.263814697265625,-1.9405859318830072,-9.576481061932444,-0.8339701863069087
1758972249559772700,3.273772705078125,-1.8525068125441668,-9.589364508903026,-0.8846877624355256
1758972249569730800,3.283730712890625,-1.7588447785064576,-9.600759763142467,-0.9498677252892405
1758972249579688700,3.293688720703125,-1.6587021502777932,-9.611645898815988,-1.0175132014736532
1758972249589646800,3.303646728515625,-1.5571512626864015,-9.622117608469724,-1.0772620791893452
1758972249599604700,3.313604736328125,-1.4572608556531368,-9.63212462322116,-1.1264745845172555
1758972249609563000,3.32356298828125,-1.3587792925044893,-9.641363576209544,-1.1697085999574512
1758972249619520800,3.333520751953125,-1.2631458122633397,-9.649805825862288,-1.2066978027239441
1758972249629478700,3.343478759765625,-1.17406321497038,-9.657359017720818,-1.2358829806759952
1758972249639436800,3.353436767578125,-1.096677631342411,-9.663599373415112,-1.2579843378469346
1758972249649394700,3.363394775390625,-1.0419642635758966,-9.666925887489318,-1.2787747585497795
1758972249659352800,3.373352783203125,-1.0205703970871864,-9.666120416325331,-1.3018902611993253
1758972249669310700,3.383310791015625,-1.0191608956154434,-9.663717446836829,-1.3207087973073124
1758972249679267800,3.393267822265625,-0.9929409972097724,-9.665295071417093,-1.3291069155573845
1758972249689225700,3.403225830078125,-0.912201500044018,-9.672201197543739,-1.336708184341341
1758972249699183600,3.41318359375,-0.7872345924865454,-9.681939332225918,-1.3456246273770927
1758972249709141800,3.423141845703125,-0.6452045411210506,-9.692531453388929,-1.3449690860778092
1758972249719099600,3.433099609375,-0.5096636691117659,-9.702800333946943,-1.3290202601872383
1758972249729057800,3.443057861328125,-0.39527025108207015,-9.71190601594448,-1.3011537636183201
1758972249739016000,3.453015869140625,-0.30708599086832256,-9.71923533591926,-1.2698625532977281
1758972249748973800,3.462973876953125,-0.2429584596769884,-9.724218969550728,-1.2453554501593112
1758972249758932000,3.472931884765625,-0.1947523914452642,-9.726619016429781,-1.2350389310672878
1758972249768889600,3.4828896484375,-0.15384870038246734,-9.726645904436706,-1.2405977342382073
1758972249778847700,3.49284765625,-0.11236088928878307,-9.725058342984319,-1.2573736586026847
1758972249788805600,3.5028056640625,-0.06373536723570432,-9.72287281563878,-1.277527534967661
1758972249798763800,3.512763671875,-0.005635358413803623,-9.720892455476521,-1.2940689199239015
1758972249808721700,3.5227216796875,0.06171101266809273,-9.719177468252182,-1.305431440937519
1758972249818679800,3.5326796875,0.13718353378293105,-9.71735492900014,-1.313230716511607
1758972249828638000,3.542637939453125,0.21827190831843762,-9.715195120617746,-1.3182190263181923
1758972249838595800,3.552595947265625,0.30293142847213894,-9.712510411578416,-1.321275637409836
1758972249848553700,3.5625537109375,0.3901574015803635,-9.709206109336018,-1.3226765902489424
1758972249858511600,3.57251171875,0.4805658406496048,-9.70507938479483,-1.323205728689581
1758972249868469800,3.5824697265625,0.5765091540249064,-9.69965443713665,-1.3246570965416729
1758972249878427600,3.592427734375,0.682092329339683,-9.692353758734464,-1.327932903341949
1758972249888385800,3.6023857421875,0.7995735573168844,-9.682933019438385,-1.3311109488561748
1758972249898343700,3.61234375,0.925145591160655,-9.671731241944432,-1.3312031571842728
1758972249908301800,3.6223017578125,1.049412241494283,-9.65959130681753,-1.3271918757162988
1758972249918260000,3.632260009765625,1.161732141185552,-9.647533789277077,-1.321308224505186
1758972249928217600,3.642217529296875,1.253975686727464,-9.636462360164522,-1.3177755203343926
1758972249938175700,3.65217578125,1.3237798753157257,-9.626858665516972,-1.319696989916265
1758972249948133600,3.662133544921875,1.3765271306410432,-9.618405309948324,-1.327340636537224
1758972249958091800,3.672091796875,1.4236362339489161,-9.609693011182546,-1.340693016193807
1758972249968049700,3.682049560546875,1.4773293918222188,-9.598789924374222,-1.360567491095513
1758972249978007800,3.6920078125,1.5430930728480219,-9.584687749263644,-1.3867296679645775
1758972249987965700,3.701965576171875,1.6145212093763053,-9.568646715044975,-1.415878605559468
1758972249997923800,3.711923828125,1.6763823300056158,-9.553984567964076,-1.4427413319133222
1758972250007882000,3.721882080078125,1.7164609501548111,-9.544120761075614,-1.4607912217363714
1758972250017839600,3.731839599609375,1.7321639845907688,-9.540758006644248,-1.4642143280528486
1758972250027797800,3.7417978515625,1.7299163517944514,-9.542923660245537,-1.4527151750475167
1758972250037755600,3.751755615234375,1.7244079636365175,-9.547214635437726,-1.4309060788214205
1758972250047713800,3.7617138671875,1.7288877393990754,-9.550515430548787,-1.4032088013395667
1758972250057671700,3.771671630859375,1.7430024817302823,-9.552533784633875,-1.3716528026029466
1758972250067629800,3.7816298828125,1.7505621033295988,-9.556333761438728,-1.33506918496266
1758972250077588000,3.791587890625,1.7326958995103836,-9.565808276748657,-1.2897592400312423
1758972250087544600,3.801544677734375,1.6794732817582785,-9.582489946958422,-1.2351790701903402
1758972250097502700,3.811502685546875,1.590909593772888,-9.604833880713581,-1.1775173740122467
1758972250107460900,3.8214609375,1.4681364699326456,-9.630750996780394,-1.124092146360129
1758972250117418800,3.831418701171875,1.309878629604727,-9.658983988574146,-1.07638558861576
1758972250127377000,3.841376953125,1.1160706794027238,-9.687931266117095,-1.0338030958868563
1758972250137334800,3.851334716796875,0.8840115436743944,-9.71558090506494,-0.9981969449765979
1758972250147293000,3.86129296875,0.6127940444469452,-9.739001528140902,-0.973011650315672
1758972250157250800,3.871250732421875,0.31481673125084486,-9.754473238039017,-0.9599643910855055
1758972250167208700,3.881208740234375,0.011810453152429545,-9.759853177511692,-0.9568368336495011
1758972250177166600,3.89116650390625,-0.27867170595722274,-9.755680860263109,-0.9588542378865181
1758972250187124700,3.901124755859375,-0.5510767527351156,-9.74359353210628,-0.9638954469241201
1758972250197083000,3.911082763671875,-0.807258997252956,-9.725211487719417,-0.9690061410013586
1758972250207040800,3.921040771484375,-1.0461476136751473,-9.70204045549035,-0.9728196348749101
1758972250216999000,3.9309990234375,-1.2626730801850556,-9.67618997491896,-0.9733590755138546
1758972250226956800,3.940956787109375,-1.4567492528691888,-9.650275196939706,-0.959423269946128
1758972250236915000,3.9509150390625,-1.6382912304118276,-9.62520154595971,-0.9175589354239404
1758972250246872600,3.96087255859375,-1.8151482650086284,-9.599842648297548,-0.8477330464605242
1758972250256830700,3.970830810546875,-1.9810326546922326,-9.572638999551534,-0.7813261721603572
1758972250266788600,3.98078857421875,-2.1407899397976697,-9.539309561401605,-0.7674513760648667
1758972250276746800,3.990746826171875,-2.2857960843645033,-9.501054941809176,-0.8218866575423628
1758972250286705000,4.000704833984375,-2.4069058050371703,-9.461638877221942,-0.9244503023728727
1758972250296662800,4.010662841796875,-2.508298579457402,-9.422481755831837,-1.046746748612076
1758972250306621000,4.020620849609375,-2.605310508444905,-9.382291199740767,-1.1641982390381396
1758972250316578800,4.030578857421875,-2.7117306095078586,-9.339978829190134,-1.2576597820676862
1758972250326536700,4.04053662109375,-2.83092952812314,-9.296577494359015,-1.3152360649846493
1758972250336494600,4.05049462890625,-2.9511458070874212,-9.25611864272058,-1.3361809455968439
1758972250346452700,4.06045263671875,-3.051664575152099,-9.224154063183068,-1.3314182612396777
1758972250356410600,4.07041064453125,-3.121848118446767,-9.203273772239685,-1.3130819556906819
1758972250366368800,4.08036865234375,-3.1651603136897086,-9.191913589313625,-1.288758976947516
1758972250376327000,4.090326904296875,-3.188220286759734,-9.187493434783816,-1.2631779609672724
1758972250386285000,4.10028515625,-3.1989918561428783,-9.18755890123546,-1.2351514515310524
1758972250396243200,4.1102431640625,-3.203621561770141,-9.190017984825372,-1.2044768387388438
1758972250406201000,4.120201171875,-3.203921713760495,-9.193898041129112,-1.1736715122390537
1758972250416159200,4.1301591796875,-3.2004014306798574,-9.198672415924072,-1.1455317516867072
1758972250426116900,4.140116943359375,-3.1952520850926636,-9.203181417781114,-1.1234639314591883
1758972250436074000,4.150073974609375,-3.190835437694192,-9.20684344742,-1.1058887464758007
1758972250446032100,4.1600322265625,-3.1890935624629257,-9.209419435387849,-1.0893359633427113
1758972250455990000,4.169989990234375,-3.191262138673663,-9.210731102508307,-1.0717503300305455
1758972250465948200,4.1799482421875,-3.1979771261423826,-9.210488525924086,-1.0536899188134818
1758972250475906000,4.189906005859375,-3.2097175405576825,-9.208254483261705,-1.0373787624165416
1758972250485864200,4.1998642578125,-3.2258339781001206,-9.2039360355407,-1.025629872433841
1758972250495822000,4.209822021484375,-3.2410672030672427,-9.198310012352467,-1.0280992582220583
1758972250505780000,4.219780029296875,-3.2418145143032073,-9.194744428825377,-1.0572050873275847
1758972250515738000,4.229738037109375,-3.209108176487684,-9.198932528164983,-1.118772266511619
1758972250525696000,4.239696044921875,-3.134135645350814,-9.21378289129436,-1.2057324648231267
1758972250535654100,4.249654052734375,-3.0231194486692545,-9.237399913725257,-1.3044408224649726
1758972250545612000,4.259612060546875,-2.9006445771232245,-9.263568958726525,-1.3938992673330008
1758972250555570200,4.269570068359375,-2.8050577125027774,-9.282795637243986,-1.460045225674659
1758972250565528000,4.279528076171875,-2.7816850202217696,-9.283300664156675,-1.500971840955317
1758972250575486000,4.28948583984375,-2.8510578316554427,-9.259825680544973,-1.5157405171506106
1758972250585444000,4.299444091796875,-2.9637960298240182,-9.223933113908767,-1.5183381324283778
1758972250595402000,4.309402099609375,-3.0610856067091223,-9.192125186237693,-1.518209976004064
1758972250605360000,4.319360107421875,-3.1212191728934644,-9.174270965117216,-1.5037047730505466
1758972250615318000,4.329318115234375,-3.145513656194508,-9.172427967599035,-1.4638080853395163
1758972250625276200,4.339276123046875,-3.1312025145083666,-9.186623081690072,-1.4042439896062016
1758972250635234000,4.349234130859375,-3.0706825793549415,-9.217398159182071,-1.3344859782472251
1758972250645192200,4.359192138671875,-2.966092324067652,-9.262186564457416,-1.2588017917096614
1758972250655150000,4.369150146484375,-2.841496514844894,-9.311586262920498,-1.1792677978761494
1758972250665108000,4.37910791015625,-2.7222075798586007,-9.356501509445906,-1.1026504952069371
1758972250675066000,4.389066162109375,-2.6108447616964576,-9.396479884091018,-1.029589715975523
1758972250685024000,4.39902392578125,-2.4939015130534767,-9.435562186679244,-0.9596825054042041
1758972250694982100,4.408982177734375,-2.3684090472519395,-9.474413018599153,-0.8924615382421761
1758972250704940000,4.41893994140625,-2.243463547808677,-9.510954989054799,-0.8240045264791697
1758972250714898200,4.428898193359375,-2.125686478690058,-9.542970421996712,-0.7639099040657281
1758972250724856000,4.43885595703125,-2.021321702721715,-9.568163315442204,-0.7313627753999083
1758972250734814200,4.448814208984375,-1.972389037248492,-9.577049801731109,-0.7484286226216703
1758972250744771000,4.45877099609375,-2.0088807388216257,-9.564637479403615,-0.8077661430574953
1758972250754729000,4.46872900390625,-2.07230136385262,-9.544723987665773,-0.8798867188293487
1758972250764687000,4.47868701171875,-2.0997350219622253,-9.531268878287076,-0.957312269141525
1758972250774645000,4.48864501953125,-2.0764839102342725,-9.528980475088954,-1.0281801414385436
1758972250784603100,4.49860302734375,-2.0122604443877936,-9.5370994841367,-1.0793356705930084
1758972250794561000,4.50856103515625,-1.915508335380256,-9.552992049795389,-1.1142468249764292
1758972250804519000,4.518518798828125,-1.7910539804548025,-9.574366846257448,-1.1375492285002022
1758972250814477000,4.52847705078125,-1.6489203225843607,-9.598041151833534,-1.1528419285695999
1758972250824435000,4.53843505859375,-1.5004124535068868,-9.62134194792211,-1.1614322814561426
1758972250834393000,4.54839306640625,-1.3574937827385962,-9.642553662776946,-1.1613507406525314
1758972250844351000,4.55835107421875,-1.232103169876337,-9.660251232030987,-1.1540488932065665
1758972250854309000,4.56830908203125,-1.1361433072250335,-9.672625560435652,-1.148863672588393
1758972250864267000,4.57826708984375,-1.078086108923331,-9.678570148053765,-1.1547272308595478
1758972250874225200,4.58822509765625,-1.0530226140111685,-9.679380295392871,-1.1709504167120903
1758972250884183300,4.598183349609375,-1.0267064156241714,-9.679988782680034,-1.1891423453543335
1758972250894141000,4.608140869140625,-0.9573013824213296,-9.685743985205889,-1.2001345717508345
1758972250904099000,4.61809912109375,-0.8225770509593189,-9.698578332337737,-1.1963906359821557
1758972250914057000,4.628056884765625,-0.644342006007582,-9.714670219960809,-1.1749036113172768
1758972250924015000,4.63801513671875,-0.4609318234402686,-9.729037183487415,-1.141833773951605
1758972250933973000,4.647972900390625,-0.3038701340943575,-9.739465638521313,-1.1049317380119115
1758972250943931100,4.65793115234375,-0.18910492361020295,-9.745986564722656,-1.0725560203902422
1758972250953889000,4.667888916015625,-0.11671109298807568,-9.749323600190877,-1.0523571358397603
1758972250963847200,4.67784716796875,-0.07429753165186848,-9.749760822564363,-1.0521697235088794
1758972250973805000,4.68780517578125,-0.04321747986392584,-9.74795523444712,-1.0704540796749293
1758972250983763000,4.697762939453125,-0.004515947335648525,-9.744978264462947,-1.0980731042888014
1758972250993721000,4.70772119140625,0.055082694269251074,-9.74137410249114,-1.1282770308293402
1758972251003679000,4.717678955078125,0.13835965575706213,-9.737192432892321,-1.1568626354530454
1758972251013637000,4.72763720703125,0.23781273081898688,-9.732472418633103,-1.1801727838918565
1758972251023595000,4.737594970703125,0.3418300815891474,-9.727563019281625,-1.195008314778283
1758972251033553200,4.74755322265625,0.43961873057018963,-9.722914901214837,-1.2008473961953072
1758972251043510000,4.757510009765625,0.5239680157309398,-9.718742583966254,-1.2007891632020473
1758972251053468000,4.767468017578125,0.592481762649864,-9.714804659995437,-1.2008115211643278
1758972251063426000,4.777426025390625,0.6473853922914713,-9.710888363334536,-1.2041343089114873
1758972251073384000,4.787384033203125,0.6947550462316722,-9.706936995360255,-1.2095866560332476
1758972251083342000,4.797342041015625,0.7429468302097171,-9.702793319684266,-1.2141712073445319
1758972251093300200,4.80730029296875,0.8013039613060653,-9.697894441726802,-1.2161927032347768
1758972251103258000,4.817258056640625,0.8769942122582346,-9.691420861798525,-1.2155697490308432
1758972251113216300,4.82721630859375,0.971049337266758,-9.682711485642194,-1.2134847594503313
1758972251123174000,4.837173828125,1.0773618863020091,-9.671705522981286,-1.2115309219688177
1758972251133132000,4.847132080078125,1.1864297253947704,-9.659016721799969,-1.2108633249055594
1758972251143090000,4.85708984375,1.2895347836256026,-9.64577262482345,-1.2110102590955794
1758972251153048000,4.867048095703125,1.3829124477639794,-9.632660045272111,-1.2123477182444184
1758972251163006000,4.877005859375,1.4680246801212429,-9.619392567420006,-1.2176121415786445
1758972251172964000,4.886964111328125,1.5493307981938123,-9.60502385032773,-1.2302318230465055
1758972251182922200,4.896922119140625,1.6291837948486207,-9.589061726564168,-1.2514100740231573
1758972251192880000,4.906880126953125,1.7045973477512597,-9.572268997195362,-1.2792149035327136
1758972251202838000,4.916838134765625,1.7679723800748586,-9.556792026600242,-1.3085771916173399
1758972251212796000,4.9267958984375,1.8139242761716246,-9.544792961248755,-1.3330338797427712
1758972251222754000,4.936754150390625,1.8427352139838038,-9.537302313232422,-1.3470656199656426
1758972251232712000,4.9467119140625,1.8617690002776681,-9.533290154981612,-1.349290018016845
1758972251242670000,4.956670166015625,1.8818128403969108,-9.53059083289504,-1.3405275964990258
1758972251252628000,4.9666279296875,1.9030429676912723,-9.528831422007084,-1.3229497081018984
1758972251262586000,4.976586181640625,1.9044598487518727,-9.531851062089205,-1.298941932787746
1758972251272544300,4.986544189453125,1.8554628858707845,-9.545704230874776,-1.2677398620553313
1758972251282502100,4.996502197265625,1.7486523241855203,-9.570933364677428,-1.2287466990552842
1758972251292460000,5.0064599609375,1.6089761424697935,-9.600800095152854,-1.1858300790011882
1758972251302418000,5.01641796875,1.4646651405602693,-9.628945408663153,-1.143914964139834
1758972251312376000,5.0263759765625,1.3162664309456944,-9.655144264280796,-1.1027281635530293
1758972251322333200,5.036333251953125,1.139233089933917,-9.682223409864307,-1.0616422660574316
1758972251332291000,5.046291015625,0.9067157621093094,-9.71062006778717,-1.0257243457842617
1758972251342249200,5.056249267578125,0.6177078277125955,-9.735864399158954,-1.0008855995386838
1758972251352206800,5.066206787109375,0.3004604717813432,-9.752167299184203,-0.9875832695689052
1758972251362165000,5.0761650390625,-0.011153281585063086,-9.757478265073894,-0.9807453863728791
1758972251372123000,5.086122802734375,-0.30059609912605956,-9.753304778781533,-0.9762683140240609
1758972251382080300,5.096080322265625,-0.5672613966755569,-9.741797296339273,-0.9726342683706432
1758972251392038400,5.106038330078125,-0.8129007294669747,-9.724598908779024,-0.9704560475487262
1758972251401996300,5.115996337890625,-1.035038555965945,-9.703462012726067,-0.9705152303900569
1758972251411954400,5.125954345703125,-1.2284176132313906,-9.681055535128712,-0.9687711632017045
1758972251421912300,5.135912353515625,-1.3963811472766101,-9.659514149928093,-0.9561721591956913
1758972251431870200,5.1458701171875,-1.5504789453156291,-9.639332362642884,-0.921761647810787
1758972251441828400,5.155828369140625,-1.6997613058969379,-9.619832712402939,-0.8602473678577691
1758972251451786200,5.1657861328125,-1.8419113303802905,-9.599368016523123,-0.7936436558112502
1758972251461744400,5.175744384765625,-1.987483876658231,-9.572649520945548,-0.7646416524063795
1758972251471702300,5.185702392578125,-2.129358883592486,-9.53984030727744,-0.7922536627575755
1758972251481660400,5.195660400390625,-2.253991663824767,-9.504503620958328,-0.8685160145092755
1758972251491618300,5.205618408203125,-2.3594394127242264,-9.469052952870726,-0.9697833359189331
1758972251501576400,5.215576416015625,-2.458198623770475,-9.433325805929302,-1.0677064614672214
1758972251511534300,5.225534423828125,-2.562435535575449,-9.396862745928765,-1.1416136283949017
1758972251521492200,5.2354921875,-2.6707921576589344,-9.361516122737527,-1.1829069580961018
1758972251531450400,5.245450439453125,-2.7735262636855245,-9.33038039523959,-1.1924640371229498
1758972251541408300,5.255408203125,-2.86049902921766,-9.305937443378568,-1.1779087114173918
1758972251551366400,5.265366455078125,-2.927346413826942,-9.288768866434692,-1.1488427028656005
1758972251561324300,5.27532421875,-2.9744708608344195,-9.277898512852191,-1.1151241923328488
1758972251571282400,5.285282470703125,-3.004168372222781,-9.272247355222701,-1.082033969766274
1758972251581240300,5.295240234375,-3.020533816090226,-9.270529445388913,-1.050723689419031
1758972251591198200,5.3051982421875,-3.02870455532521,-9.271167158770561,-1.0211910132035613
1758972251601155300,5.3151552734375,-3.0322300991028546,-9.272935922008752,-0.9943000106032938
1758972251611113200,5.32511328125,-3.0324446186363696,-9.275209127637744,-0.9721959500186145
1758972251621071400,5.3350712890625,-3.0312916492089625,-9.276998349142074,-0.9586317542422562
1758972251631029200,5.345029296875,-3.0322853364214297,-9.276959186175466,-0.9558470919597893
1758972251640987400,5.3549873046875,-3.0376483247593042,-9.274781842136383,-0.9599417408622801
1758972251650945500,5.364945556640625,-3.0474504645884037,-9.270947963061928,-0.9658934158083051
1758972251660903200,5.374903076171875,-3.062095952795446,-9.2652026974082,-0.9746615364145487
1758972251670861300,5.384861328125,-3.0814383666470646,-9.257239171183109,-0.989254709912464
1758972251680819200,5.394819091796875,-3.1028079024121165,-9.247308144277333,-1.0150137128081171
1758972251690777300,5.40477734375,-3.1196798344969747,-9.236709593373536,-1.05885460810028
1758972251700735200,5.4147353515625,-3.119225953249633,-9.228246885454654,-1.1314850330904125
1758972251710693400,5.424693359375,-3.083813279084861,-9.226457079428434,-1.2381329515598714
1758972251720651300,5.4346513671875,-3.0097964412376284,-9.232640736499429,-1.3674249557748437
1758972251730609400,5.444609375,-2.9114667076498266,-9.244093858405947,-1.4968198358424007
1758972251740567300,5.4545673828125,-2.820554556842148,-9.254007349655032,-1.6056798774033785
1758972251750525200,5.464525146484375,-2.7914690398722883,-9.249447494393587,-1.6810174424603581
1758972251760483300,5.4744833984375,-2.8631135956302285,-9.221846370762586,-1.7118842898890374
1758972251770441200,5.484441162109375,-2.989548602978885,-9.182647748318313,-1.7064555428385733
1758972251780399400,5.4943994140625,-3.0908953463003037,-9.150530608567594,-1.6983998082853853
1758972251790357200,5.504357177734375,-3.1439971141517162,-9.13392258811593,-1.69031104824543
1758972251800315400,5.5143154296875,-3.1692703793570396,-9.130437668609618,-1.6616966559186577
1758972251810273500,5.5242734375,-3.1796292762860654,-9.136039726400375,-1.6103146975971758
1758972251820231200,5.534231201171875,-3.1623154456526037,-9.154012605464457,-1.540851139140129
1758972251830189300,5.544189208984375,-3.103876700687408,-9.187873374012112,-1.455793559579551
1758972251840147200,5.554147216796875,-3.013547902725637,-9.232086025226115,-1.362912008395046
1758972251850105300,5.564105224609375,-2.910130782870948,-9.277086611947416,-1.2795287917874754
1758972251860063200,5.574063232421875,-2.8089687484666706,-9.317990284743905,-1.2063039080355316
1758972251870021400,5.584021484375,-2.7032211398378014,-9.358331062960625,-1.1334123478911817
1758972251879979300,5.593979248046875,-2.5854952163845297,-9.399955451247095,-1.0613391914576291
1758972251889937400,5.6039375,-2.4605814272537825,-9.440926928582787,-0.9923778834342956
1758972251899894300,5.613894287109375,-2.3338746172264218,-9.479047108140588,-0.9333249520935117
1758972251909852200,5.62385205078125,-2.212320367656648,-9.512167287454009,-0.8914554299395531
1758972251919810300,5.633810302734375,-2.1138532714247704,-9.53624023695886,-0.8730026584040373
1758972251929768400,5.6437685546875,-2.072159325033426,-9.544477903950213,-0.8828801284916699
1758972251939726300,5.653726318359375,-2.0732868677586316,-9.541060788983106,-0.9165293001152575
1758972251949684500,5.6636845703125,-2.078986686835438,-9.53515945598483,-0.963805284422636
1758972251959642400,5.673642333984375,-2.0763886331662533,-9.53053588783741,-1.0138608164459466
1758972251969600300,5.683600341796875,-2.0638523921981453,-9.528359128320217,-1.0588853685647248
1758972251979558100,5.69355810546875,-2.0384242286920546,-9.52926630629301,-1.099227023564279
1758972251989516300,5.703516357421875,-1.9994846955753862,-9.532767007890342,-1.1396504385631532
1758972251999474200,5.71347412109375,-1.9535491660915314,-9.537424478307365,-1.1796514634314923
1758972252009432300,5.723432373046875,-1.9070492807231842,-9.54241337263584,-1.2148721952207386
1758972252019390500,5.733390380859375,-1.856504503878206,-9.549101472097634,-1.2403431749552487
1758972252029348400,5.743348388671875,-1.7876272208765147,-9.559626957765222,-1.260295391268283
1758972252039306500,5.753306396484375,-1.6925456754297017,-9.57553764360249,-1.27073582900092
1758972252049264000,5.76326416015625,-1.579170202270895,-9.595426585420965,-1.266656742993742
1758972252059222300,5.77322216796875,-1.4622633401155471,-9.616174774417281,-1.2495508560225366
1758972252069180200,5.78318017578125,-1.3526362597048283,-9.635383332756161,-1.2247948926895855
1758972252079138300,5.79313818359375,-1.2539457299806176,-9.65233680564463,-1.1959917728576808
1758972252089096200,5.80309619140625,-1.1618467074759304,-9.667823128589987,-1.1634852684631942
1758972252099054300,5.813054443359375,-1.0645499701976775,-9.683217097076772,-1.128008735281974
1758972252109012500,5.823012451171875,-0.9533037641525268,-9.69871803306937,-1.0938323979791253
1758972252118970400,5.832970458984375,-0.8309490849200636,-9.713009593272208,-1.0664765543460846
1758972252128928500,5.842928466796875,-0.7086534423984587,-9.72429028122127,-1.0518431949682534
1758972252138886100,5.85288623046875,-0.5997442644661292,-9.731272395193576,-1.054993402627483
1758972252148844300,5.86284423828125,-0.5122322409581392,-9.733808051151037,-1.0775018062293529
1758972252158802200,5.87280224609375,-0.44221550559774037,-9.733135266456008,-1.1139658160779624
1758972252168760300,5.88276025390625,-0.37806064800806344,-9.730908822578192,-1.1562312787469475
1758972252178718200,5.89271826171875,-0.30542691681599243,-9.728403561758995,-1.1980218904457987
1758972252188676400,5.90267626953125,-0.21067045687139033,-9.726125095432996,-1.236320641440898
1758972252198633200,5.91263330078125,-0.08963481521508655,-9.723608728697895,-1.2703523826412857
1758972252208591000,5.922591064453125,0.04773562857522629,-9.719705291518569,-1.3020900215551257
1758972252218549200,5.93254931640625,0.18461400539912282,-9.713769471728801,-1.3337852826319634
1758972252228507400,5.94250732421875,0.30636339394850653,-9.706198159691692,-1.3661124118715524
1758972252238465300,5.95246533203125,0.4049861739324406,-9.69788216676712,-1.3990981511503457
1758972252248423400,5.96242333984375,0.48027621005326504,-9.689723994752764,-1.4314325869135558
1758972252258381300,5.97238134765625,0.5375161006227135,-9.682281862053275,-1.461118553994596
1758972252268339500,5.98233935546875,0.5861456549635157,-9.67563351007998,-1.486243204509467
1758972252278297300,5.99229736328125,0.6388140363663435,-9.669367435422538,-1.5051989571310578
1758972252288255200,6.002255126953125,0.708422044795379,-9.662685181179642,-1.5169095609299839
1758972252298213000,6.012213134765625,0.8029452987723052,-9.654497783070802,-1.5219468244448304
1758972252308171300,6.022171142578125,0.920989859720692,-9.64377882065773,-1.5230604847751557
1758972252318129400,6.03212939453125,1.0535809785462915,-9.630054831209778,-1.5239489580474792
1758972252328087300,6.04208740234375,1.1903261483114211,-9.613736149093508,-1.5263009280011057
1758972252338045400,6.05204541015625,1.3222097033895552,-9.595617139557003,-1.5317577321022748
1758972252348003300,6.06200341796875,1.4423979253031312,-9.576801964449881,-1.541023719228059
1758972252357961500,6.07196142578125,1.545688203907758,-9.558628009855747,-1.5536659047886727
1758972252367919000,6.081919189453125,1.6293994834259151,-9.542294130170344,-1.5684626380346716
1758972252377877200,6.091877197265625,1.6955698455564676,-9.528463173216581,-1.582350293611735
1758972252387835100,6.101835205078125,1.7509779906541107,-9.517117018815874,-1.590272172652185
1758972252397793000,6.11179296875,1.8028154376581311,-9.507957560804485,-1.5871381124101578
1758972252407751200,6.121751220703125,1.846295536813885,-9.501990761354564,-1.5728196642003953
1758972252417709000,6.131708984375,1.8493945257425306,-9.504489592432975,-1.5539666413009166
1758972252427667000,6.1416669921875,1.7764137529447674,-9.521503271076083,-1.5348327556334436
1758972252437624800,6.151624755859375,1.6361081872843204,-9.550762683308124,-1.5088050187990067
1758972252447583000,6.1615830078125,1.4773587640471755,-9.583477788951992,-1.4644973827779293
1758972252457540900,6.171540771484375,1.341266870559007,-9.612237434968351,-1.4058083163134754
1758972252467499000,6.1814990234375,1.2295960093609988,-9.635078212329745,-1.3504647608846425
1758972252477457200,6.19145703125,1.110252859969437,-9.655960256838798,-1.3039029161959885
1758972252487415000,6.2014150390625,0.9279464739255606,-9.68036696834266,-1.264835811176896
1758972252497373200,6.211373291015625,0.661889280070737,-9.706780343493818,-1.2291048648431897
1758972252507331000,6.2213310546875,0.3453943134093657,-9.727428579246997,-1.1950787496659905
1758972252517289000,6.2312890625,0.023111972685321232,-9.737468327224255,-1.1625609201598912
1758972252527246000,6.24124609375,-0.2793907957457006,-9.737197693589328,-1.1310559940233826
1758972252537204000,6.251203857421875,-0.557552963011898,-9.728646138343214,-1.1013484726976603
1758972252547162000,6.261162109375,-0.8191529217295348,-9.712831314095855,-1.0771752776887267
1758972252557120000,6.2711201171875,-1.0708943707883358,-9.689782446941733,-1.0638082119196652
1758972252567078100,6.281078125,-1.3092721881441771,-9.660578564289212,-1.062728599989414
1758972252577035800,6.291035888671875,-1.5241514948822557,-9.628712768951058,-1.0654804559808224
1758972252586994000,6.300993896484375,-1.7124037837184964,-9.598336335387826,-1.0535740373488516
1758972252596952000,6.3109521484375,-1.882033351279795,-9.571241407713293,-1.0097872833967207
1758972252606910000,6.320909912109375,-2.0412508304201067,-9.546644726595282,-0.9301808819141238
1758972252616868000,6.3308681640625,-2.194530443944037,-9.521537757867574,-0.8335044684913009
1758972252626826000,6.340825927734375,-2.329526651149988,-9.496229713609814,-0.7518764249879867
1758972252636784000,6.3507841796875,-2.42930526837185,-9.472091882175206,-0.7405225987374782
1758972252646742000,6.360741943359375,-2.514113403216004,-9.443940138924122,-0.8133928968980908
1758972252656700000,6.370699951171875,-2.5933397924050685,-9.410817621523142,-0.9388609589107334
1758972252666658000,6.380657958984375,-2.668676480679214,-9.374407753014564,-1.0812085517928003
1758972252676616000,6.390615966796875,-2.742452203246951,-9.337700362864137,-1.2069461514618247
1758972252686574000,6.400573974609375,-2.8200691114127636,-9.303923765468596,-1.2863118760563432
1758972252696532000,6.410531982421875,-2.901764521063864,-9.27598011201024,-1.3062696453273295
1758972252706490000,6.420489990234375,-2.978317891651392,-9.256580415013431,-1.27110875396654
1758972252716448000,6.430447998046875,-3.037343788854778,-9.246690889161824,-1.201515504715219
1758972252726406100,6.44040625,-3.0743215203791854,-9.244541602173447,-1.1213206358201802
1758972252736364000,6.450364013671875,-3.0916768520668145,-9.247266058701276,-1.0488030235547572
1758972252746322000,6.460322021484375,-3.09312237470001,-9.252772254902125,-0.9945732745867222
1758972252756280000,6.470280029296875,-3.0826173472985623,-9.259784179490804,-0.9613925241924822
1758972252766238000,6.480238037109375,-3.0645415923818944,-9.267330357086658,-0.9463242074634879
1758972252776196000,6.490196044921875,-3.0413237984016535,-9.275342398628592,-0.942727863471955
1758972252786154000,6.500154052734375,-3.014970336744189,-9.28385011473298,-0.9436626601040363
1758972252796112100,6.510112060546875,-2.9894188391193746,-9.291902488285302,-0.9456753151006996
1758972252806070000,6.520070068359375,-2.967310467685759,-9.299288506883382,-0.9427087203800678
1758972252816028200,6.530028076171875,-2.950670298530161,-9.305591406419873,-0.9327018517591059
1758972252825985800,6.53998583984375,-2.942246169055998,-9.30945568063259,-0.9206555862650274
1758972252835944000,6.54994384765625,-2.9419547848939893,-9.31011209871471,-0.9149211342662572
1758972252845902000,6.559902099609375,-2.94480783623755,-9.308416985234617,-0.922978841580823
1758972252855859000,6.56985888671875,-2.9464547266617416,-9.305291546690464,-0.9488624207042157
1758972252865817000,6.579817138671875,-2.9447952690169212,-9.300911139649152,-0.9958030355773866
1758972252875775000,6.58977490234375,-2.9300968815788626,-9.296939313408732,-1.0732508707866073
1758972252885733000,6.599733154296875,-2.8840654905050993,-9.297098887884616,-1.1901794333171098
1758972252895691000,6.60969091796875,-2.808850090523064,-9.30061537157297,-1.3339068631850182
1758972252905649000,6.61964892578125,-2.732330914466083,-9.301777401089668,-1.4770609501443803
1758972252915607000,6.62960693359375,-2.708633812536299,-9.290853271493315,-1.585484353853762
1758972252925565000,6.63956494140625,-2.77746038826406,-9.262214036986231,-1.633242568720132
1758972252935523000,6.649523193359375,-2.893002830198407,-9.226320885828137,-1.6358261554725466
1758972252945481000,6.65948095703125,-2.9896637537911532,-9.19649214927554,-1.6299753836177289
1758972252955439000,6.669439208984375,-3.045467474077642,-9.178934280753134,-1.6256217184528707
1758972252965397000,6.67939697265625,-3.060005117996037,-9.17694807537198,-1.6094564733326435
1758972252975355000,6.68935498046875,-3.032225130666792,-9.192026402038335,-1.575642028144747
1758972252985313000,6.69931298828125,-2.9677959131151437,-9.220933932092786,-1.5287003903582692
1758972252995271000,6.70927099609375,-2.878481845153868,-9.259557969519495,-1.4646940743938088
1758972253005229000,6.71922900390625,-2.7782103298485277,-9.302698607587814,-1.3826476593479513
1758972253015187000,6.72918701171875,-2.676422857022285,-9.344230641415715,-1.3009680317878722
1758972253025145000,6.73914501953125,-2.571546478269994,-9.38299671766162,-1.2316298532761634
1758972253035103000,6.74910302734375,-2.460479428184032,-9.420672076061367,-1.1693469270382075
1758972253045061000,6.75906103515625,-2.3440017512261866,-9.457143903890252,-1.1128595353364943
1758972253055019000,6.76901904296875,-2.230105030672252,-9.490411967241764,-1.0625760397762058
1758972253064977000,6.778976806640625,-2.1208963218040764,-9.519705866265296,-1.0234227908436209
1758972253074935000,6.78893505859375,-2.0182028400488194,-9.544207270315288,-1.0026731405425817
1758972253084893000,6.798892822265625,-1.9266116209357975,-9.562923661223053,-1.0045224216710775
1758972253094851000,6.80885107421875,-1.8481028784967959,-9.57615080706477,-1.025799602977559
1758972253104809000,6.81880908203125,-1.7802191365770994,-9.585936288020013,-1.0540481576666236
1758972253114767000,6.82876708984375,-1.7170405036084353,-9.594799393433332,-1.0779621902827172
1758972253124725000,6.83872509765625,-1.6535381916433571,-9.603597032395005,-1.0986878021210431
1758972253134683100,6.84868310546875,-1.586645652718097,-9.611285833331943,-1.1296486114434898
1758972253144641000,6.85864111328125,-1.5157862559884785,-9.616945758789777,-1.1777729562085122
1758972253154599000,6.868598876953125,-1.4452020229384301,-9.62044529134333,-1.2364490901261567
1758972253164557000,6.87855712890625,-1.384653153951466,-9.621048517933488,-1.299449590048939
1758972253174515000,6.888514892578125,-1.345354432133585,-9.618193128502368,-1.3604349507570266
1758972253184472000,6.89847216796875,-1.3317699972867965,-9.611951019242404,-1.416751589001715
1758972253194430200,6.90843017578125,-1.3414677999585867,-9.603526305246353,-1.4639442789398134
1758972253204387800,6.918387939453125,-1.3400076642781495,-9.598767712542415,-1.4961356529705225
1758972253214346000,6.928345947265625,-1.2739844555333255,-9.605336569538713,-1.511570684120059
1758972253224303900,6.938303955078125,-1.139692378008738,-9.622213470059632,-1.5114600633524358
1758972253234262000,6.948261962890625,-0.9705101888887584,-9.64409621604383,-1.4899309531114995
1758972253244220000,6.958219970703125,-0.8000029617100953,-9.666321491855383,-1.446589970165491
1758972253254178000,6.968177978515625,-0.6497348049618303,-9.685685533016919,-1.3913085201874376
1758972253264136200,6.97813623046875,-0.5262524734063073,-9.700845108225941,-1.3368060917578637
1758972253274094000,6.988093994140625,-0.42521432111002505,-9.7116271990031,-1.2937820658065378
1758972253284052200,6.99805224609375,-0.34179979604873806,-9.71823054279089,-1.2686783119492233
1758972253294009900,7.008009765625,-0.2756120991908945,-9.720938048183918,-1.2640337010137737
1758972253303968000,7.017968017578125,-0.22449646365540102,-9.720435943880677,-1.277922964026034
1758972253313926000,7.02792578125,-0.1773306982568465,-9.717797996592521,-1.3051309966862201
1758972253323884000,7.037884033203125,-0.1214837324836757,-9.713810388261079,-1.3407152280256152
1758972253333842000,7.047842041015625,-0.04524977570939809,-9.709226567602157,-1.3781354426205157
1758972253343800000,7.057800048828125,0.05763089004787616,-9.70448317246735,-1.4106974035292863
1758972253353758200,7.06775830078125,0.18220635973550378,-9.69939315585196,-1.4349099076353014
1758972253363716000,7.077716064453125,0.3139851392649114,-9.693639706891775,-1.4509136785835026
1758972253373674000,7.087674072265625,0.4362660956740379,-9.687406949982046,-1.4608882523700595
1758972253383634700,7.097634765625,0.5369427211815491,-9.681364747208356,-1.4673983649164437
1758972253393592600,7.107592529296875,0.6107894996915012,-9.676233814060687,-1.4723556950628756
1758972253403550700,7.11755078125,0.660337666714564,-9.67235141966939,-1.476465468469262
1758972253413508600,7.127508544921875,0.6940257090438157,-9.669457451793551,-1.4799724536769092
1758972253423466500,7.137466552734375,0.7252653353076428,-9.666750530922412,-1.482678790026158
1758972253433424400,7.14742431640625,0.7694150773532689,-9.663275548288226,-1.483063843820989
1758972253443382500,7.157382568359375,0.8372137713380158,-9.657994977536797,-1.4807302863068879
1758972253453340400,7.16734033203125,0.9293108210813253,-9.650321958690881,-1.4758160646498202
1758972253463298600,7.177298583984375,1.0368442171484231,-9.64040028413534,-1.4690144218109547
1758972253473256700,7.187256591796875,1.1471693628259003,-9.629479661670327,-1.458594150083512
1758972253483214600,7.197214599609375,1.2496645455300808,-9.619100306475161,-1.4427796180970966
1758972253493172700,7.2071728515625,1.338755326129496,-9.6097070397079,-1.4253604273930192
1758972253503130600,7.217130615234375,1.414899823655188,-9.60060311127603,-1.4131027111053467
1758972253513088500,7.227088623046875,1.481173646160215,-9.591157822060584,-1.4093191009134054
1758972253523045600,7.237045654296875,1.540043329888582,-9.581472294348478,-1.4121087316319345
1758972253533003500,7.24700341796875,1.5919494582146405,-9.57242214193046,-1.4159244905278086
1758972253542961700,7.256961669921875,1.635517089523375,-9.565032616201043,-1.416208129774779
1758972253552919600,7.26691943359375,1.6698314470574258,-9.56007820866406,-1.4095985023766755
1758972253562877700,7.276877685546875,1.6952939512245355,-9.557580546629428,-1.3960678435437381
1758972253572835300,7.28683544921875,1.711052661370486,-9.557024666312337,-1.3805619391150772
1758972253582793500,7.29679345703125,1.703655098465085,-9.559746784752607,-1.3708312570869923
1758972253592751600,7.306751708984375,1.645815780697763,-9.570311433386802,-1.3677804912142455
1758972253602709500,7.31670947265625,1.5308517231732606,-9.590992986887693,-1.3563682858400046
1758972253612667600,7.326667724609375,1.3853126407735048,-9.61831938523054,-1.3187871815949677
1758972253622625500,7.33662548828125,1.230582390049845,-9.646964464956522,-1.261794982176274
1758972253632583700,7.346583740234375,1.078372816910222,-9.672896778592467,-1.2010615504026412
1758972253642541600,7.35654150390625,0.9101273241184651,-9.696668114802241,-1.1474581897046416
1758972253652499500,7.36649951171875,0.6877578808207064,-9.720283968189358,-1.1015596312303095
1758972253662457300,7.376457275390625,0.404159404252097,-9.740873751753568,-1.0594421256646513
1758972253672415500,7.38641552734375,0.0910684190816246,-9.752641346436738,-1.0237553837988524
1758972253682373600,7.39637353515625,-0.2138975108928047,-9.75317910657525,-1.000060473826155
1758972253692331500,7.40633154296875,-0.49126182404588903,-9.744388481876253,-0.9878921893876046
1758972253702289700,7.41628955078125,-0.7428313140712678,-9.72871102027297,-0.9852681975595653
1758972253712247600,7.42624755859375,-0.9784012343995273,-9.707034025993943,-0.9932809697538614
1758972253722205700,7.436205810546875,-1.1999255321100353,-9.680072953832148,-1.01329982156232
1758972253732163600,7.44616357421875,-1.4001669494256377,-9.650477441513537,-1.038380559870228
1758972253742121500,7.45612158203125,-1.578429174645245,-9.621666357570886,-1.0499892376646398
1758972253752079400,7.466079345703125,-1.7431354604601859,-9.595721184453367,-1.026645260021463
1758972253762037500,7.47603759765625,-1.904215956993401,-9.572653028076887,-0.953255979488045
1758972253771995600,7.48599560546875,-2.0629646495781837,-9.550336566850543,-0.8400343817166983
1758972253781953500,7.49595361328125,-2.213138990563154,-9.524166352805494,-0.750114237621054
1758972253791911700,7.50591162109375,-2.365871929989755,-9.487324522620439,-0.7508241394560784
1758972253801869600,7.51586962890625,-2.503134913083911,-9.444996954500674,-0.8347051495179534
1758972253811827700,7.52582763671875,-2.614913618570566,-9.402450775194168,-0.9625622255589812
1758972253821785300,7.535785400390625,-2.712321268877387,-9.36065103034079,-1.09175325361751
1758972253831743500,7.545743408203125,-2.80800867126286,-9.320345907959341,-1.1902259028073399
1758972253841701600,7.55570166015625,-2.9031001535817977,-9.283993907117843,-1.2449357634425162
1758972253851658500,7.565658447265625,-2.9894524491280317,-9.254677211740612,-1.2587740269199013
1758972253861616600,7.57561669921875,-3.06061418980509,-9.234195564725994,-1.2380099097020922
1758972253871574500,7.585574462890625,-3.1148402855113146,-9.222282424092292,-1.1906682397473602
1758972253881532700,7.59553271484375,-3.1528081971168516,-9.217153829032181,-1.128821439904347
1758972253891490600,7.605490478515625,-3.1759567252531644,-9.216854553824662,-1.0645713783118873
1758972253901448400,7.615448486328125,-3.186277335998416,-9.219961872190236,-1.0051544359643012
1758972253911406600,7.625406494140625,-3.1872996647834775,-9.225040782889723,-0.954003582984954
1758972253921364500,7.635364501953125,-3.1819118342652914,-9.231115718889235,-0.9123100749850273
1758972253931322600,7.645322509765625,-3.1701141367048025,-9.238304169088602,-0.8800686512675135
1758972253941280500,7.655280517578125,-3.15111425268054,-9.247124604403972,-0.855320140588656
1758972253951238700,7.66523876953125,-3.127003016991913,-9.257185395169257,-0.834737955809012
1758972253961196500,7.675196533203125,-3.0988048042505976,-9.26842808919549,-0.8148992098078132
1758972253971154400,7.685154541015625,-3.0680162827551363,-9.280331877478957,-0.795664128788188
1758972253981112600,7.695112548828125,-3.039465895575285,-9.290969006827472,-0.7809703444600105
1758972253991070500,7.705070556640625,-3.017652415435016,-9.298325214809179,-0.7780364098999649
1758972254001028600,7.715028564453125,-3.0021663847506046,-9.302179552149772,-0.7917469553444534
1758972254010986500,7.724986572265625,-2.990279839862883,-9.30306101115942,-0.8256385574217885
1758972254020944600,7.734944580078125,-2.9786209662511944,-9.30173531551361,-0.8808556369267404
1758972254030902500,7.744902587890625,-2.961213027593493,-9.29947906101942,-0.9598295857246965
1758972254040860700,7.754860595703125,-2.9240441574111578,-9.299213103559612,-1.0700591620732098
1758972254050818600,7.764818603515625,-2.8583909510225056,-9.303201880934834,-1.2043372841376812
1758972254060776400,7.7747763671875,-2.782241485060751,-9.308272608327865,-1.3362604405738412
1758972254070734600,7.784734619140625,-2.744638022853434,-9.304377938976883,-1.4373149229504167
1758972254080692500,7.7946923828125,-2.8097055383086205,-9.277608005473017,-1.483876183117181
1758972254090650600,7.804650634765625,-2.961185262803733,-9.230849761429429,-1.4809306311845778
1758972254100608500,7.8146083984375,-3.1128882746607065,-9.183350928151606,-1.4650453720495105
1758972254110566700,7.824566650390625,-3.2153514547914264,-9.149780082461238,-1.453767460579425
1758972254120524500,7.834524658203125,-3.267117005603015,-9.133558430978656,-1.4402921851955353
1758972254130482700,7.844482666015625,-3.27756211951077,-9.132630210217833,-1.4223346498310565
1758972254140440600,7.854440673828125,-3.2493039932757615,-9.146014592447877,-1.4009956553347407
1758972254150398500,7.8643984375,-3.1896848063543435,-9.171347186625002,-1.372111067764461
1758972254160355600,7.87435546875,-3.1166771455496547,-9.202358995482324,-1.331654408083111
1758972254170313500,7.8843134765625,-3.043255058725178,-9.234387287905811,-1.2787027162268758
1758972254180271600,7.894271728515625,-2.971110736751556,-9.266163066872954,-1.2170223589919507
1758972254190229800,7.904229736328125,-2.8895240481719373,-9.29951880850792,-1.157575459897518
1758972254200187400,7.9141875,-2.7823808935314416,-9.33830826562941,-1.106674782286957
1758972254210145500,7.9241455078125,-2.643323135975003,-9.383217082414031,-1.0669858921077102
1758972254220103400,7.934103515625,-2.4821634367257355,-9.430186923381685,-1.0396190886892378
1758972254230061600,7.9440615234375,-2.319658021955937,-9.47283247140944,-1.0271600046105682
1758972254240019500,7.95401953125,-2.206920700570196,-9.499768993651866,-1.0267882486887276
1758972254249977600,7.9639775390625,-2.184845208492875,-9.503436868509649,-1.0399613993208854
1758972254259935700,7.973935791015625,-2.2216370620563626,-9.491322652345895,-1.0721447361756116
1758972254269893600,7.9838935546875,-2.2557263786628843,-9.477835978785157,-1.1192406146757303
1758972254279851800,7.993851806640625,-2.2501671371005476,-9.473255665257573,-1.1681450769677757
1758972254289809400,8.003809326171876,-2.1994131014190614,-9.480814702335,-1.2029556935861705
1758972254299767600,8.013767578125,-2.1102135997481644,-9.498850709763168,-1.2203347714755683
1758972254309725400,8.023725341796874,-1.9924039435341954,-9.523377248254418,-1.2271911401763558
1758972254319683600,8.03368359375,-1.8532957709647715,-9.55058323508799,-1.2337144044652582
1758972254329641500,8.043641357421874,-1.70064305716753,-9.578090250694752,-1.240320086340606
1758972254339599600,8.053599609375,-1.5471082998387515,-9.603470775666832,-1.245063189214468
1758972254349557800,8.063557861328125,-1.4058807970277964,-9.625062429749965,-1.2458164917998016
1758972254359515600,8.073515625,-1.28758613377586,-9.641599138531088,-1.2458255518890917
1758972254369473500,8.0834736328125,-1.200419599237293,-9.651457100200652,-1.2564904460273683
1758972254379431400,8.093431396484375,-1.1503994307883083,-9.65407342017889,-1.2828981220901012
1758972254389387000,8.103386962890625,-1.1292565433859825,-9.650797759509086,-1.3256282796613872
1758972254399345200,8.11334521484375,-1.0968046917881815,-9.647672905486822,-1.3746929009512066
1758972254409303000,8.123302978515625,-1.0207423195879906,-9.651130352464317,-1.4086118294268846
1758972254419261000,8.133260986328125,-0.8922090247858315,-9.663020112222432,-1.414360894472897
1758972254429219000,8.143218994140625,-0.728341235621646,-9.679332949119805,-1.3965776927620173
1758972254439177000,8.153177001953125,-0.5527279540082439,-9.695095750918984,-1.3674873534865677
1758972254449135000,8.163135009765625,-0.3865886031828821,-9.707668232244252,-1.3349575412817298
1758972254459093000,8.173093017578125,-0.24350798331853002,-9.716443074852227,-1.3045441367089747
1758972254469051100,8.183051025390625,-0.13011913008834233,-9.72156582469344,-1.2824338655792176
1758972254479008000,8.193008056640625,-0.04584007888589985,-9.72367770228088,-1.2721524178005754
1758972254488966000,8.2029658203125,0.015636019914620554,-9.723354461675882,-1.2753569129303097
1758972254498924000,8.212924072265626,0.06527612127114553,-9.721164258155227,-1.2903925694987177
1758972254508882000,8.2228818359375,0.11647024257006124,-9.717752403885125,-1.3122924127481876
1758972254518840000,8.232840087890626,0.18087737615406513,-9.713478964349626,-1.3364084707424044
1758972254528798200,8.242798095703124,0.2631120620473288,-9.708582424479722,-1.3581569228224455
1758972254538756000,8.252756103515624,0.35967915161047126,-9.703023036786913,-1.3756386573687196
1758972254548714200,8.26271435546875,0.46063181758038696,-9.696698509940504,-1.3900477064713834
1758972254558672000,8.272671875,0.5551222287336364,-9.68975146728158,-1.4038925458200275
1758972254568630000,8.282630126953125,0.6360976170144975,-9.68247767688632,-1.419657539576292
1758972254578588000,8.292587890625,0.7015197911262512,-9.675206809100509,-1.438269447196275
1758972254588546000,8.302546142578125,0.7548749492168426,-9.66817208815813,-1.4584284381277859
1758972254598504200,8.312504150390625,0.8039525761187076,-9.661237904980778,-1.4780210273481904
1758972254608462000,8.322462158203125,0.8597497205339372,-9.653839026901124,-1.494866363687068
1758972254618420200,8.332420166015625,0.9320183995395899,-9.645168229189515,-1.5074641255840657
1758972254628378000,8.342378173828125,1.0237782532177866,-9.634534606972336,-1.515921572805941
1758972254638336000,8.3523359375,1.128982256489247,-9.621942836424708,-1.5211889918148516
1758972254648294000,8.3622939453125,1.2364767087854445,-9.60824924211502,-1.5241583630144595
1758972254658252000,8.372251953125,1.3362545953549443,-9.59470996158421,-1.5252372442923485
1758972254668210000,8.3822099609375,1.4242385837562381,-9.581913023853302,-1.5260674115061759
1758972254678168000,8.39216796875,1.5020327481850981,-9.569649754607678,-1.5284306335061788
1758972254688126200,8.402126220703124,1.572159008334577,-9.557672901087999,-1.5328409972943364
1758972254698084000,8.412083984375,1.634839920914173,-9.546310380074381,-1.5380714452937245
1758972254708042200,8.422042236328124,1.6877346218861637,-9.53659562626779,-1.5411996603168545
1758972254718000000,8.432000244140625,1.729803246808797,-9.529591884985566,-1.5378775301568208
1758972254727958000,8.4419580078125,1.7643908683262763,-9.525476850882171,-1.524009894454479
1758972254737916000,8.451916015625,1.7979764731943606,-9.523229364216327,-1.4985884529501199
1758972254747874000,8.4618740234375,1.836792233800888,-9.520954989543556,-1.465611189238727
1758972254757832000,8.47183203125,1.8815804929457605,-9.517301727733015,-1.4321405890524386
1758972254767790000,8.4817900390625,1.910403267326206,-9.515141919350624,-1.4081317908249795
1758972254777747200,8.491747314453125,1.873067516144365,-9.523456158709525,-1.4020748288735747
1758972254787704800,8.501704833984375,1.7486185680463908,-9.546740588185191,-1.404450033572316
1758972254797663000,8.5116630859375,1.5701109897635877,-9.578852467238903,-1.3966859754420815
1758972254807621000,8.52162109375,1.392299138659984,-9.610551673838495,-1.3671904163666069
1758972254817579000,8.5315791015625,1.2406412811189889,-9.637319269254803,-1.324114075706154
1758972254827537200,8.541537109375,1.0893400549959391,-9.66149567913413,-1.280318188599497
1758972254837495000,8.5514951171875,0.8854963023394345,-9.687698626405,-1.2388586354859172
1758972254847453200,8.561453125,0.6091103509655222,-9.71399568170011,-1.1990296061836183
1758972254857411000,8.5714111328125,0.2888169601355679,-9.733682378944755,-1.1586129131864755
1758972254867369200,8.581369140625,-0.033878916125698016,-9.742648360210657,-1.1180533776525408
1758972254877326800,8.591326904296874,-0.33374866460543123,-9.741308636039495,-1.0797749387931077
1758972254887285000,8.601284912109374,-0.6058970880074426,-9.731680975994466,-1.0476930895514787
1758972254897243100,8.6112431640625,-0.8564709911242127,-9.71498469273746,-1.0275875093076376
1758972254907201000,8.621200927734375,-1.0901892922364174,-9.692041624045372,-1.0228352002140133
1758972254917159200,8.6311591796875,-1.3054393319830297,-9.664491938340664,-1.0314007109202443
1758972254927117000,8.641116943359375,-1.4970364012025297,-9.635196285751462,-1.0451190012797713
1758972254937075200,8.6510751953125,-1.6644712351985276,-9.60746481373906,-1.0471509454987942
1758972254947033000,8.661033203125,-1.818266981551051,-9.582385902062057,-1.0208715719908474
1758972254956991000,8.670990966796875,-1.9697348694778978,-9.55860112184882,-0.9610766631763428
1758972254966948900,8.680948974609375,-2.1138976950883865,-9.535119123974441,-0.8850548421822487
1758972254976907000,8.690906982421875,-2.2390840175502,-9.51046925136447,-0.841321425852552
1758972254986865200,8.700865234375,-2.3551762023217973,-9.480424826234579,-0.8631943080298602
1758972254996823000,8.710822998046876,-2.4623718178018925,-9.445307920145988,-0.9451383586797862
1758972255006781200,8.72078125,-2.563710377816856,-9.405884256774186,-1.061665573867783
1758972255016739000,8.730739013671876,-2.6662898778036235,-9.363010745209454,-1.1812295994684099
1758972255026697200,8.740697265625,-2.773510189333558,-9.319300782820582,-1.2761916101887822
1758972255036654800,8.75065478515625,-2.879575193348527,-9.279589534679054,-1.3295245564475655
1758972255046613000,8.760613037109374,-2.9711992918178436,-9.248696383765338,-1.343129011169076
1758972255056571000,8.77057080078125,-3.039886459074914,-9.22888927501142,-1.3255460082054138
1758972255066528000,8.780528076171874,-3.086209818832576,-9.218884598347545,-1.2875780965998769
1758972255076486100,8.790486083984375,-3.1163810852125287,-9.215632903075218,-1.2371912867955863
1758972255086444000,8.800444091796875,-3.1344594704777,-9.21680253137648,-1.181553716856241
1758972255096402200,8.810402099609375,-3.142710581472516,-9.220828718152642,-1.1269715011887251
1758972255106360000,8.820360107421875,-3.1425171047270295,-9.226822405609488,-1.0773695581518112
1758972255116318000,8.83031787109375,-3.1353716168865557,-9.234365660595893,-1.0326179046902806
1758972255126276000,8.840276123046875,-3.1229797528252004,-9.243014246475695,-0.9919855961810797
1758972255136234000,8.85023388671875,-3.1071701892748473,-9.252210529366135,-0.9552350244760512
1758972255146192100,8.860192138671875,-3.0901290381029245,-9.261118058443069,-0.9236655086707323
1758972255156150000,8.87014990234375,-3.0746789555147287,-9.268758928585052,-0.8982547346908598
1758972255166108200,8.880108154296876,-3.062812284371257,-9.274697086462378,-0.8772356928639113
1758972255176066000,8.890066162109376,-3.0562419660702345,-9.278381327933072,-0.8610288005590438
1758972255186024000,8.90002392578125,-3.05480550352633,-9.279515300399064,-0.8539072781160474
1758972255195982000,8.909982177734374,-3.0558649494513865,-9.278433934903145,-0.8618109639126807
1758972255205940000,8.91993994140625,-3.0554005468100307,-9.275911138427256,-0.8901596910405903
1758972255215898000,8.929898193359374,-3.0456957298755643,-9.2735905865252,-0.9458441688615828
1758972255225856000,8.93985595703125,-3.0128029295772314,-9.274482566928864,-1.0379762168530373
1758972255235814100,8.949814208984375,-2.949791762129962,-9.280146584039926,-1.1610420400295407
1758972255245772000,8.95977197265625,-2.8715114216193554,-9.28754137046635,-1.2908902898877859
1758972255255730200,8.969730224609375,-2.802939989696443,-9.292208777755498,-1.403125068578869
1758972255265688000,8.97968798828125,-2.7742639303103087,-9.288652546578644,-1.4814827121093868
1758972255275646000,8.98964599609375,-2.808566597406566,-9.273298910102248,-1.512707433065027
1758972255285604000,8.99960400390625,-2.888567478099465,-9.250236598944664,-1.5032228347525
1758972255295562000,9.00956201171875,-2.9688854619175196,-9.228865309613942,-1.4778941860981285
1758972255305520000,9.01952001953125,-3.0205981134980915,-9.216822989642619,-1.447943284470588
1758972255315478000,9.02947802734375,-3.036381958085298,-9.217217541918158,-1.411989343035966
1758972255325436200,9.039436279296876,-3.019228578710556,-9.228526286917925,-1.3743933334827423
1758972255335393000,9.04939306640625,-2.9766923362761735,-9.24657106217444,-1.345595255152136
1758972255345351000,9.059350830078126,-2.9159675262004137,-9.268883431747556,-1.3248881288185714
1758972255355309000,9.06930908203125,-2.8463991921946405,-9.293801599904894,-1.3014141681201756
1758972255365267000,9.079266845703126,-2.783103654848039,-9.317819019830226,-1.266079673758149
1758972255375225000,9.08922509765625,-2.7384192944690584,-9.338205974298715,-1.2121622056096792
1758972255385183500,9.09918359375,-2.7015885701999065,-9.35794761660099,-1.1404626317288726
1758972255395141600,9.1091416015625,-2.6575112358033657,-9.379870110073686,-1.0611646386083216
1758972255405099500,9.119099609375,-2.608921684679389,-9.402193585562705,-0.9811610545016825
1758972255415057700,9.1290576171875,-2.5710528495341536,-9.420355265197157,-0.9038598612215369
1758972255425015800,9.139015869140625,-2.548271401144564,-9.431996018630265,-0.8450609046418219
1758972255434973700,9.1489736328125,-2.535320734156668,-9.43702466044724,-0.8277084224984049
1758972255444931800,9.158931884765625,-2.5188655661791564,-9.437165530222654,-0.8749972662873565
1758972255454889700,9.1688896484375,-2.463544076451659,-9.442094803318382,-0.9737504129189998
1758972255464847600,9.17884765625,-2.3452587655499575,-9.459492512843012,-1.0900281103253364
1758972255474805500,9.188805419921875,-2.169768050870299,-9.489178626054525,-1.1907990995854139
1758972255484763600,9.198763671875,-1.9632947534278034,-9.525701307287811,-1.2557324672669172
1758972255494721500,9.208721435546876,-1.7459154465675353,-9.564078676477074,-1.2847453573919831
1758972255504679700,9.2186796875,-1.5309752034224569,-9.60000631442666,-1.2908765536233782
1758972255514637800,9.228637939453124,-1.3358162039376795,-9.629901101952791,-1.2849091696515678
1758972255524595700,9.238595703125,-1.1782800289478153,-9.652142744377255,-1.2720751147806644
1758972255534553900,9.248553955078124,-1.07226624366343,-9.66703519308269,-1.252614335246384
1758972255544511700,9.25851171875,-1.0267612145513296,-9.674275081208348,-1.2347323493361473
1758972255554469600,9.2684697265625,-1.0361251090936363,-9.673950671559572,-1.2294443259306251
1758972255564427500,9.278427490234375,-1.0868619013793765,-9.666655838376283,-1.2429312917523085
1758972255574385700,9.2883857421875,-1.1661653743926435,-9.652938863191007,-1.2771889506630598
1758972255584342800,9.2983427734375,-1.261761372167617,-9.633625675433873,-1.3310215170070527
1758972255594300700,9.30830078125,-1.308552641697973,-9.619576107293367,-1.3863152419447897
1758972255604258800,9.3182587890625,-1.1877835511565207,-9.632031684240697,-1.4083729061044752
1758972255614216400,9.328216552734375,-0.9406888319250196,-9.66169967727363,-1.3917761376991866
1758972255624174600,9.338174560546875,-0.6583026537556201,-9.690222007402777,-1.3552239381104707
1758972255634132700,9.3481328125,-0.406124128453806,-9.709346979111432,-1.3168410159632562
1758972255644090600,9.358090576171875,-0.220604461185541,-9.719859605297446,-1.2829901842877267
1758972255654048800,9.368048828125,-0.11132658693813718,-9.724853175801039,-1.259054597426951
1758972255664006700,9.378006591796876,-0.06144142021278385,-9.726254274770618,-1.251635553342104
1758972255673964800,9.38796484375,-0.03843430527457967,-9.724507138842343,-1.2660416798353193
1758972255683922700,9.397922607421876,-0.010591503533435753,-9.72033540611565,-1.29821683338359
1758972255693880800,9.407880859375,0.04282363084128592,-9.714730425715446,-1.3388685772456228
1758972255703838500,9.41783837890625,0.13004865866801701,-9.708447399923205,-1.3782289661228655
1758972255713796600,9.427796630859374,0.24711172516522928,-9.701801970559359,-1.4086789033137261
1758972255723754800,9.437754638671874,0.38174448761995877,-9.69443348761797,-1.4292068736881016
1758972255733712600,9.447712646484375,0.5190855409190058,-9.685843353927135,-1.4440857322596012
1758972255743670800,9.4576708984375,0.6460607926242053,-9.675955581641198,-1.4590623521171509
1758972255753628700,9.467628662109375,0.7525869113449006,-9.665621819153428,-1.4763948874510824
1758972255763586800,9.4775869140625,0.8337255638960749,-9.655964348492025,-1.4958683803364634
1758972255773544700,9.487544677734375,0.8917253329221159,-9.647401102808118,-1.5175231627836823
1758972255783502600,9.497502685546875,0.9337321446549147,-9.639849664515257,-1.5400712408088146
1758972255793460500,9.50746044921875,0.9703152508385479,-9.632617959696054,-1.5625417235530912
1758972255803418600,9.517418701171875,1.0133217411331832,-9.624481414991617,-1.58522234191671
1758972255813376800,9.527376708984375,1.0719557894747704,-9.614509471553564,-1.6070229625754058
1758972255823334700,9.537334716796876,1.1491829676706342,-9.60265595215261,-1.6244309012331068
1758972255833291800,9.547291748046876,1.2405797601900994,-9.589660276979208,-1.6339407801173627
1758972255843250000,9.55725,1.3368725811228155,-9.576520809420943,-1.6350500565335153
1758972255853207600,9.56720751953125,1.4290639580860733,-9.56380804284215,-1.6314841807454823
1758972255863165700,9.577165771484376,1.511028686197847,-9.551817745319008,-1.6278699357710777
1758972255873123600,9.58712353515625,1.5806439280852675,-9.540628827306628,-1.6273720692515372
1758972255883081700,9.597081787109374,1.6400971107900142,-9.529903435152768,-1.6313792590662837
1758972255893039600,9.60703955078125,1.694089397740364,-9.51932768060267,-1.6379393482342361
1758972255902997800,9.616997802734375,1.7466351391442119,-9.508867661386727,-1.6434933290995657
1758972255912955600,9.62695556640625,1.798715162732452,-9.498936634480952,-1.6447583805993198
1758972255922913800,9.636913818359375,1.8480514405705033,-9.490682600876688,-1.6376996942594646
1758972255932871700,9.64687158203125,1.8876501682482658,-9.485952649745345,-1.619844157964736
1758972255942829600,9.65682958984375,1.902423520618677,-9.487501632753014,-1.5932621482484042
1758972255952787700,9.66678759765625,1.8718189773879945,-9.498225271341203,-1.5653732937172053
1758972255962745600,9.67674560546875,1.7889700137875972,-9.51831996486485,-1.5399888232223689
1758972255972703700,9.686703857421875,1.6750377835288643,-9.54349707621932,-1.5120450236335397
1758972255982661600,9.69666162109375,1.5645567166373133,-9.568407645592092,-1.472449364695698
1758972255992619800,9.706619873046876,1.4705522989027202,-9.592240941122174,-1.4130743617936967
1758972256002577700,9.71657763671875,1.3641495873659848,-9.617700376549363,-1.3451089329399168
1758972256012535600,9.72653564453125,1.2128454386334866,-9.646077160727977,-1.2855296396374702
1758972256022493700,9.73649365234375,0.9972332875762134,-9.676348964872956,-1.242649698331952
1758972256032451600,9.74645166015625,0.7189343056552112,-9.705075293141602,-1.2103846745431424
1758972256042409700,9.75640966796875,0.4052792020622641,-9.726759301683305,-1.1816433679010718
1758972256052366800,9.766366943359374,0.08951808436708525,-9.737987967184186,-1.154980328837782
1758972256062324700,9.77632470703125,-0.20546804765639826,-9.739028416147827,-1.1311485676776618
1758972256072283000,9.786282958984375,-0.4733845143107697,-9.731959208413958,-1.1114278950981795
1758972256082240500,9.796240478515625,-0.7221361704364418,-9.718169167992473,-1.0982153623037039
1758972256092198700,9.80619873046875,-0.9602329058285802,-9.698222943028806,-1.0921470752406865
1758972256102156500,9.816156494140625,-1.1875634055998177,-9.673318803396821,-1.0894721569430081
1758972256112114700,9.82611474609375,-1.3991222626782953,-9.646057871505617,-1.0800081630270928
1758972256122072600,9.836072509765625,-1.5931480203494428,-9.619250528600812,-1.0499058702301234
1758972256132030700,9.84603076171875,-1.77365802449584,-9.593800445523858,-0.9917200040474533
1758972256141988900,9.85598876953125,-1.9448294146716594,-9.56878407768905,-0.9090661246277392
1758972256151946800,9.86594677734375,-2.0915463086791335,-9.545368715310095,-0.825693137153238
1758972256161904600,9.875904541015625,-2.205116866018623,-9.523283140230179,-0.7841732321545481
1758972256171862500,9.885862548828126,-2.303935406036675,-9.498575984475016,-0.7995615746181458
1758972256181820700,9.895820556640626,-2.3996112641148266,-9.469731582784652,-0.8581489342737942
1758972256191778600,9.905778564453126,-2.496555242432654,-9.437032259231806,-0.9380939931262284
1758972256201736700,9.91573681640625,-2.5986530963823196,-9.401118065285683,-1.0180139906026422
1758972256211694600,9.925694580078124,-2.7058447663396596,-9.364255776834487,-1.0767879588715732
1758972256221652700,9.93565283203125,-2.8138921763435003,-9.329600643038749,-1.100431357852742
1758972256231611000,9.94561083984375,-2.913756572152674,-9.30035642837584,-1.088019546981901
1758972256241568500,9.955568603515625,-2.9963460080340503,-9.278325213831662,-1.0511942295402288
1758972256251526700,9.965526611328125,-3.0592165979668495,-9.26281200287938,-1.0059509201042354
1758972256261484500,9.975484619140625,-3.10692293651551,-9.251452988997102,-0.9633290452130139
1758972256271442700,9.985442626953125,-3.143118577751517,-9.242604496631026,-0.9302854382671415
1758972256281399800,9.99539990234375,-3.1684017798289656,-9.236270032912492,-0.9071458971548825
1758972256291357700,10.005357666015625,-3.183146929018199,-9.232835382288695,-0.8903261336486786
1758972256301315800,10.01531591796875,-3.1895152950063346,-9.231922359097004,-0.8769068262357265
1758972256311273500,10.0252734375,-3.19029767755568,-9.23273016834855,-0.865485779967904
1758972256321231600,10.035231689453125,-3.1874791130036115,-9.234628110924362,-0.8555651283256709
1758972256331189800,10.045189697265625,-3.1826652829810973,-9.237101807561515,-0.8467639091674238
1758972256341147600,10.055147705078125,-3.177054165101051,-9.239842046180367,-0.8378471738707274
1758972256351105800,10.065105712890626,-3.1719220629096028,-9.242389392575621,-0.8291623476337641
1758972256361063700,10.075063720703126,-3.1686399724990126,-9.24391908636093,-0.8246594832565635
1758972256371021800,10.085021728515626,-3.1669837297245857,-9.243954742196202,-0.8305983717862516
1758972256380979700,10.094979736328124,-3.163766813504696,-9.243019507172702,-0.8529862177483737
1758972256390937900,10.104937744140624,-3.1522099389627574,-9.242809079292416,-0.8969082154527306
1758972256400895700,10.114895751953124,-3.125367232483625,-9.245245951050519,-0.9632676704145967
1758972256410854000,10.12485400390625,-3.0756960236027835,-9.25220059249401,-1.052261347315088
1758972256420811800,10.134811767578125,-2.9990885847404596,-9.264237651768326,-1.1617933698534966
1758972256430769700,10.144769775390625,-2.9028391645580527,-9.27892785589993,-1.2827291952639817
1758972256440727800,10.154727783203125,-2.8030776446014642,-9.292256708550452,-1.4025427386462688
1758972256450685700,10.164685791015625,-2.7374823058798907,-9.295659794992208,-1.5057466541416942
1758972256460643800,10.174643798828125,-2.766615169122815,-9.276473448485136,-1.569489058472961
1758972256470601700,10.184601806640625,-2.8898762226104733,-9.235721166858076,-1.5875943317450583
1758972256480558800,10.194558837890625,-3.0272055489391088,-9.192412771007419,-1.5830210324801504
1758972256490516700,10.204516845703125,-3.120672352665663,-9.162496356171369,-1.574946885487437
1758972256500474600,10.214474609375,-3.165901487445831,-9.149909261798857,-1.5577642800182103
1758972256510432800,10.224432861328125,-3.1809748456761238,-9.150386816182731,-1.5238826148129998
1758972256520390700,10.234390625,-3.1715953151732683,-9.16094795768559,-1.479334740295261
1758972256530348800,10.244348876953126,-3.1328231014475225,-9.182537858203053,-1.427154909594357
1758972256540306700,10.254306640625,-3.066401833295822,-9.214104378333687,-1.366680274887383
1758972256550264800,10.264264892578124,-2.975385637591779,-9.254357478266954,-1.29396925894171
1758972256560223000,10.274222900390624,-2.8628371167764066,-9.300514833807945,-1.214497735885158
1758972256570180600,10.2841806640625,-2.7290540847524998,-9.350211469390988,-1.138519607902318
1758972256580138800,10.294138671875,-2.5755758799165487,-9.401856316432356,-1.0686033372417092
1758972256590096600,10.3040966796875,-2.4114966399587687,-9.45212870607674,-1.0061643436592071
1758972256600054800,10.3140546875,-2.25251223892197,-9.496259524226188,-0.957923313711956
1758972256610012700,10.3240126953125,-2.1573145197495815,-9.521249004054068,-0.9285512348856776
1758972256619970800,10.333970703125,-2.1621568452142177,-9.520676757124066,-0.9231441151451318
1758972256629928700,10.3439287109375,-2.2081712851531803,-9.507529106259346,-0.9493511540692299
1758972256639886800,10.353886962890625,-2.237214132025093,-9.495311429721117,-1.0021639489114285
1758972256649844700,10.3638447265625,-2.229754755929857,-9.490627655819058,-1.061401150777936
1758972256659802600,10.373802734375,-2.186978274998814,-9.494999295032024,-1.1101751185581088
1758972256669760800,10.3837607421875,-2.1157823397912083,-9.506427282497286,-1.1496494892038405
1758972256679718000,10.3937177734375,-2.0252793543063103,-9.521400979745387,-1.1880954666499048
1758972256689675800,10.40367578125,-1.9251590840399264,-9.536639465409516,-1.231521278335154
1758972256699634000,10.413634033203126,-1.822266426450759,-9.550870819857716,-1.2769378985114395
1758972256709591800,10.423591796875,-1.7285358572214842,-9.562570610001682,-1.3190205519594251
1758972256719549700,10.4335498046875,-1.6545302714206278,-9.57003320096731,-1.3591814435645937
1758972256729507600,10.443507568359376,-1.607247565111518,-9.572425064539908,-1.3984987239524722
1758972256739465700,10.4534658203125,-1.5874810806289315,-9.570510170829296,-1.433741156116873
1758972256749423600,10.463423583984374,-1.5663304483115672,-9.57042950680852,-1.4573415196739137
1758972256759381800,10.4733818359375,-1.5050176092147827,-9.579905775684118,-1.4597032803691923
1758972256769340000,10.48333984375,-1.3980183930896222,-9.5991084888041,-1.4398020635910331
1758972256779297800,10.4932978515625,-1.2574576836243272,-9.62473334392607,-1.397744544584304
1758972256789256000,10.503255859375,-1.1021708219312132,-9.652034023305774,-1.3393529997617006
1758972256799213600,10.513213623046875,-0.9458610469311475,-9.676801969337463,-1.2787706668965517
1758972256809171700,10.523171630859375,-0.7941616883359849,-9.697072019428013,-1.227384324660897
1758972256819129600,10.533129638671875,-0.6469179939754307,-9.712622055259347,-1.1903075897414237
1758972256829087700,10.543087646484375,-0.50490387083143,-9.72371160455048,-1.1682763021320104
1758972256839046000,10.5530458984375,-0.3741802629107609,-9.730683197128773,-1.1593813402757047
1758972256849003800,10.563003662109375,-0.26348706937218086,-9.73385890455544,-1.1631667040333151
1758972256858962000,10.5729619140625,-0.17597742048436774,-9.733945413795112,-1.1788633817937224
1758972256868919800,10.582919921875,-0.10831070058252662,-9.731682145038247,-1.2054121468275785
1758972256878878000,10.5928779296875,-0.053228714132751334,-9.727802673256397,-1.2399261185869574
1758972256888834800,10.602834716796876,0.0004668470088652611,-9.72309668752253,-1.277418375504762
1758972256898792700,10.612792724609376,0.06409815439980011,-9.718090257537364,-1.313400520120561
1758972256908750800,10.622750732421874,0.1434249580563046,-9.712850603318214,-1.345496470952779
1758972256918708700,10.632708740234374,0.23501414960902184,-9.707163789853453,-1.373368812740594
1758972256928667000,10.6426669921875,0.32781090858690437,-9.700981886348128,-1.3978148333415388
1758972256938624800,10.652624755859375,0.41091680609043685,-9.694453945884108,-1.4209513787791133
1758972256948582700,10.662582763671875,0.47797341300360857,-9.687982119521498,-1.4439263039141892
1758972256958540800,10.672540771484375,0.5288028520088642,-9.681985509455204,-1.46625343266502
1758972256968498700,10.682498779296875,0.5679864595470949,-9.676408586105703,-1.4882479684606194
1758972256978456800,10.692456787109375,0.6026735593836754,-9.670715342900156,-1.5114401896081864
1758972256988414700,10.702414794921875,0.642374213065952,-9.66442471832335,-1.5351323231019078
1758972256998372900,10.712372802734375,0.6976767788972705,-9.657163202887773,-1.5565483283571897
1758972257008330800,10.722330810546875,0.7764377425316721,-9.648448566034435,-1.5732095403008162
1758972257018289000,10.732288818359375,0.8786408834867179,-9.637813774773479,-1.5845855053178965
1758972257028246800,10.742246826171876,0.9968854970518499,-9.625101592716574,-1.5918673328891395
1758972257038204700,10.75220458984375,1.1218475092384963,-9.610483284777402,-1.5970228159561752
1758972257048162800,10.762162841796876,1.2466161177448927,-9.59422480841577,-1.6022414273872971
1758972257058120700,10.77212060546875,1.3686460220023988,-9.576346621897816,-1.6095903288453817
1758972257068078800,10.782078857421874,1.4880501078009605,-9.556714285188912,-1.6202870794266462
1758972257078036700,10.79203662109375,1.6027946773558854,-9.535724688652158,-1.6344376237235962
1758972257087993900,10.801993896484374,1.7056350202359258,-9.515039043498039,-1.6508214800305663
1758972257097951700,10.81195166015625,1.787858107022941,-9.497249704307317,-1.6661974744692445
1758972257107909600,10.82190966796875,1.8479723839849234,-9.48404009412229,-1.6758217735134064
1758972257117867800,10.83186767578125,1.8951438850045204,-9.474757301992177,-1.6756493395559489
1758972257127825700,10.84182568359375,1.9349444188646971,-9.468051666873693,-1.6680477785110472
1758972257137783800,10.85178369140625,1.942480513457954,-9.467415707057715,-1.6628864502251148
1758972257147741700,10.86174169921875,1.886685707130283,-9.478947154897451,-1.6614418043747543
1758972257157699800,10.871699951171875,1.7703833867393433,-9.503200721666216,-1.6508486602984367
1758972257167657700,10.88165771484375,1.6214860799528656,-9.535202126082778,-1.6189746816538273
1758972257177616000,10.891615966796875,1.4713319049730895,-9.56828080434203,-1.5663842243254185
1758972257187573800,10.90157373046875,1.3520090677171945,-9.596848727178573,-1.4976517566218972
1758972257197531600,10.91153173828125,1.2621674687504767,-9.620029111757875,-1.4256127947188912
1758972257207489800,10.92148974609375,1.1648956467177718,-9.641234981393813,-1.3638149485841393
1758972257217447700,10.93144775390625,1.0030061718892305,-9.665703067696095,-1.318533937486261
1758972257227405800,10.94140576171875,0.7457839533317834,-9.692894441482425,-1.2891798327080906
1758972257237363700,10.95136376953125,0.4241259413514286,-9.714839731308818,-1.2698064391963184
1758972257247321900,10.96132177734375,0.08934373244717717,-9.725748078814147,-1.253891077183932
1758972257257280000,10.971280029296874,-0.22291229973649604,-9.725607209038733,-1.2382571624614298
1758972257267237600,10.981237548828124,-0.5016970376141369,-9.717008307519555,-1.224107787208259
1758972257277195800,10.99119580078125,-0.7553088836546987,-9.701756377851963,-1.2148242644257843
1758972257287152600,11.001152587890624,-0.9915686128780246,-9.680652215024828,-1.2133175861898808
1758972257297110800,11.01111083984375,-1.2117485833074897,-9.65536170642376,-1.2149237792775034
1758972257307069000,11.02106884765625,-1.414636788804829,-9.628405894958972,-1.2095317109756172
1758972257317026800,11.03102685546875,-1.599481315024197,-9.602556583431362,-1.184464197475463
1758972257326985000,11.04098486328125,-1.7699284825786947,-9.578554945597052,-1.1353587327186017
1758972257336942600,11.050942626953125,-1.9328863172911106,-9.555170562878251,-1.0644320429064333
1758972257346900700,11.060900634765625,-2.085260798668861,-9.53107832415104,-0.9902727278485893
1758972257356858600,11.070858642578125,-2.2208403587207197,-9.503440375640988,-0.960675388899073
1758972257366816800,11.080816650390625,-2.3427336309865114,-9.470188094380497,-0.9987610086001455
1758972257376775000,11.09077490234375,-2.448299014916271,-9.432794475531578,-1.094806503708288
1758972257386732800,11.10073291015625,-2.542208155582845,-9.392150330454111,-1.2227339415717868
1758972257396690400,11.1106904296875,-2.6366563715621827,-9.348068027621506,-1.3535359850235282
1758972257406648300,11.1206484375,-2.7417256425380705,-9.301817148578166,-1.4592914846979081
1758972257416606200,11.130606201171876,-2.855396445381641,-9.257082519316672,-1.5243039089649915
1758972257426564000,11.140564208984374,-2.9663530208304523,-9.21850232103169,-1.5460658050484954
1758972257436522200,11.150522216796874,-3.060844199168682,-9.190137811812757,-1.5306833808690308
1758972257446480400,11.16048046875,-3.1300571438655256,-9.173557848411798,-1.4896256865546107
1758972257456438300,11.170438232421875,-3.173356479626894,-9.167825442239641,-1.4321972876757383
1758972257466396400,11.180396484375,-3.19376681497097,-9.170300892442464,-1.3695996694654224
1758972257476353300,11.190353271484375,-3.1962875656202434,-9.177819597509503,-1.3121487664937972
1758972257486311200,11.200311279296875,-3.1874674225658177,-9.187193575054406,-1.267239219056815
1758972257496269300,11.210269287109375,-3.173723851634562,-9.196049081683158,-1.2371521238289773
1758972257506227200,11.220227294921875,-3.1581390367507933,-9.203975783029199,-1.2179402044892311
1758972257516185300,11.230185302734375,-3.1436753348514435,-9.210810012963414,-1.2036154726691544
1758972257526143200,11.240143310546875,-3.132963971222937,-9.216144944250583,-1.1906265194974839
1758972257536101400,11.250101318359375,-3.1264427527606484,-9.219979407846926,-1.1780232046425343
1758972257546059300,11.260059326171875,-3.123314683867991,-9.222349644109606,-1.167707123941928
1758972257556017400,11.270017333984375,-3.122610919512808,-9.22336963480711,-1.1615289467636496
1758972257565975300,11.279975341796876,-3.1220138304024934,-9.223576555556058,-1.161476047532633
1758972257575933200,11.28993310546875,-3.116455027231574,-9.224276812779904,-1.1708263519410043
1758972257585891300,11.299891357421876,-3.100001028297841,-9.226990747913717,-1.1928942452337592
1758972257595849200,11.30984912109375,-3.068990973006189,-9.232446675232053,-1.2302842838861048
1758972257605807400,11.319807373046874,-3.019405688843131,-9.24090061532259,-1.2881529738783835
1758972257615765200,11.32976513671875,-2.9433678665623066,-9.25291137111187,-1.3750021130308507
1758972257625723400,11.339723388671874,-2.8424443170890212,-9.267298792904615,-1.4859659950032829
1758972257635681300,11.349681396484375,-2.7348674472063776,-9.279888809886573,-1.604541959414631
1758972257645639400,11.359639404296875,-2.665367794522643,-9.282142726293205,-1.705295120757073
1758972257655597300,11.369597412109375,-2.6966148734405637,-9.26300080344975,-1.7593918909952044
1758972257665555200,11.37955517578125,-2.816341323061287,-9.225865543276072,-1.766933538546413
1758972257675512300,11.38951220703125,-2.937674915617704,-9.189231218361854,-1.7602501152597367
1758972257685470500,11.399470458984375,-3.0058973879724737,-9.167487588587402,-1.7584565098412335
1758972257695428400,11.409428466796875,-3.0240833252653476,-9.163503487387299,-1.7480032126270233
1758972257705386500,11.419386474609375,-3.0124031166046854,-9.174773069420457,-1.7086116979591548
1758972257715344100,11.42934423828125,-2.9749153897315264,-9.19830124452412,-1.6466748817451298
1758972257725302300,11.43930224609375,-2.9083690338954327,-9.232837720376253,-1.5705070033438502
1758972257735260200,11.44926025390625,-2.8243177087679503,-9.272817848587035,-1.4860866987735033
1758972257745218300,11.45921826171875,-2.740885976843536,-9.311755774268507,-1.3961011612914502
1758972257755176200,11.46917626953125,-2.662111715336144,-9.348421078842877,-1.3002274425536393
1758972257765134300,11.47913427734375,-2.575975985150039,-9.385272845900058,-1.2047421386115251
1758972257775092500,11.489092529296874,-2.482999887549877,-9.420999408319592,-1.117990395418927
1758972257785050400,11.49905029296875,-2.3893404838606713,-9.453989239251612,-1.040928929178789
1758972257795008500,11.509008544921874,-2.2968885562650856,-9.483496488764882,-0.978776497452706
1758972257804966100,11.518966064453124,-2.207528311074525,-9.508447390148042,-0.9416279394060373
1758972257814924300,11.52892431640625,-2.1253654300421476,-9.52764542709291,-0.9365923563916235
1758972257824882200,11.538882080078125,-2.0523547004975375,-9.541112811431288,-0.9619741234727204
1758972257834840300,11.54884033203125,-1.9841285748809574,-9.55097544927597,-1.0062386510044337
1758972257844798200,11.558798095703125,-1.9139878478147088,-9.559483165380358,-1.0598821245171128
1758972257854756400,11.56875634765625,-1.8411195954807102,-9.567323942008613,-1.1166696682091801
1758972257864714500,11.578714599609375,-1.7664800956904887,-9.573918517968059,-1.1789914651528
1758972257874671000,11.588671142578125,-1.691123095280677,-9.579180384019017,-1.2448960159540177
1758972257884629200,11.598629150390625,-1.6227495240174232,-9.58245546016693,-1.309041301997751
1758972257894587400,11.60858740234375,-1.5677400228485465,-9.583246902805566,-1.3689263002485037
1758972257904545300,11.618545166015625,-1.5324248177088797,-9.58019920567274,-1.4289360939227043
1758972257914503400,11.62850341796875,-1.5194786807656286,-9.572625555548072,-1.4921094661943615
1758972257924461300,11.63846142578125,-1.5269696210429071,-9.561797872063517,-1.5526685643143951
1758972257934419500,11.64841943359375,-1.523519772849977,-9.555530043840408,-1.5940873470261692
1758972257944377300,11.65837744140625,-1.4474056704625486,-9.566384030809997,-1.5999042166113853
1758972257954335200,11.668335205078124,-1.2941279566347599,-9.592294132614136,-1.5759091546483337
1758972257964293000,11.678293212890624,-1.094509858849272,-9.624946694415808,-1.5273556977510452
1758972257974251300,11.688251220703124,-0.8882843256227672,-9.65632967467308,-1.4617209038019179
1758972257984209400,11.69820947265625,-0.7061110644392669,-9.681929395353794,-1.389976102539897
1758972257994167300,11.708167236328125,-0.5655457518640905,-9.7005867495507,-1.3225519409559667
1758972258004125400,11.71812548828125,-0.46737566581740975,-9.712909055507183,-1.2693920131765306
1758972258014083300,11.728083251953125,-0.40394130452200766,-9.719753806835412,-1.2383803504496813
1758972258024041500,11.73804150390625,-0.3641973231546581,-9.72186509990096,-1.2341330682687461
1758972258033999000,11.7479990234375,-0.33549375470709053,-9.720390935695171,-1.2537288723595439
1758972258043957200,11.757957275390625,-0.30494158098446206,-9.716784435635805,-1.2889862098321319
1758972258053915100,11.7679150390625,-0.2652995438879356,-9.711966806221008,-1.3333113815099
1758972258063872300,11.777872314453125,-0.20917601706255226,-9.70700012372434,-1.3786911768071353
1758972258073830400,11.787830322265625,-0.12849725537439807,-9.702810855340957,-1.4174975850634277
1758972258083788300,11.797788330078125,-0.020804620474844705,-9.699348147666454,-1.4465801794238389
1758972258093746400,11.807746337890626,0.10516066645323298,-9.69568319541812,-1.4673293913334606
1758972258103704300,11.817704345703126,0.23369490197030826,-9.69084919939041,-1.4843223194494843
1758972258113662200,11.827662109375,0.35016211233306677,-9.684725163552164,-1.5012871905148029
1758972258123620400,11.837620361328124,0.44645884225592014,-9.677978611901402,-1.5191425806790588
1758972258133578200,11.847578125,0.521418696574308,-9.671407416817546,-1.5370067386716604
1758972258143536400,11.857536376953124,0.5793570177366957,-9.665632925069332,-1.5525002220101654
1758972258153494300,11.867494384765624,0.6285381415456534,-9.660471012261509,-1.5654396369516848
1758972258163452400,11.877452392578125,0.6800183726098388,-9.655214991429448,-1.5763210964500902
1758972258173410300,11.887410400390625,0.744688997701928,-9.649004446351528,-1.585093747100979
1758972258183368200,11.8973681640625,0.8289058886546641,-9.641112816318868,-1.5913009311780333
1758972258193326300,11.907326416015625,0.9314316856928169,-9.631313306838273,-1.59393654037863
1758972258203284200,11.9172841796875,1.0441234143711626,-9.620152445876597,-1.5914951385758815
1758972258213242400,11.927242431640625,1.1576712484221905,-9.608457331907749,-1.5835861190170049
1758972258223200300,11.9372001953125,1.2666131961129605,-9.596343115743995,-1.5736263044081626
1758972258233158400,11.947158447265625,1.3707301348000764,-9.583001988133788,-1.5676536597393451
1758972258243116300,11.9571162109375,1.4723244231417774,-9.567654196876287,-1.5692800918973981
1758972258253074400,11.967074462890626,1.5719114633142948,-9.550280452749133,-1.5784906955741345
1758972258263031300,11.97703125,1.66456914261505,-9.532266657152771,-1.5923255980506539
1758972258272989200,11.9869892578125,1.743381251914799,-9.516020455750823,-1.6051019313849508
1758972258282947300,11.996947265625,1.80500403374359,-9.50350818018019,-1.611107747671008
1758972258292905200,12.0069052734375,1.850321723590046,-9.495204462215304,-1.6086641539111732
1758972258302863400,12.01686328125,1.8691065035589038,-9.492498710387945,-1.6028968225561082
1758972258312821500,12.026821533203124,1.8390711385183036,-9.49853039176762,-1.6019148257814346
1758972258322779400,12.036779296875,1.7542128809221087,-9.513913254338503,-1.6057975124336779
1758972258332737300,12.0467373046875,1.6291319185309112,-9.536375261515378,-1.6043346002742647
1758972258342695200,12.056695068359375,1.486404094159603,-9.56261269557774,-1.5866399536296725
1758972258352653300,12.0666533203125,1.3520732189945877,-9.588586510267854,-1.5496043544381857
1758972258362611200,12.076611083984375,1.2524683509044348,-9.610830490779875,-1.4945387391678988
1758972258372569300,12.0865693359375,1.176027281584963,-9.629619362401963,-1.4344947509631514
1758972258382527200,12.09652734375,1.0704253650370985,-9.648919690677523,-1.3867004418700932
1758972258392486000,12.10648583984375,0.871655408513546,-9.673350952100753,-1.3553133699595927
1758972258402443800,12.11644384765625,0.5759995240023359,-9.698867086151242,-1.3306314947761595
1758972258412402000,12.12640185546875,0.23945892712343483,-9.716422032064198,-1.305447369159013
1758972258422360000,12.136360107421876,-0.0824752166508697,-9.722305244883895,-1.2807748463258146
1758972258432318000,12.14631787109375,-0.36458248654734343,-9.718538585826755,-1.2599534459628163
1758972258442276000,12.156276123046876,-0.6118592112822457,-9.708200731685757,-1.2437158662587404
1758972258452233000,12.16623291015625,-0.8401709406431764,-9.692875736781954,-1.2299053675711153
1758972258462190800,12.17619091796875,-1.0588757970187812,-9.672878658413886,-1.2184459620542825
1758972258472149000,12.18614892578125,-1.2675548608772456,-9.649220134928822,-1.206746244975552
1758972258482107000,12.19610693359375,-1.461085966899246,-9.62432827025652,-1.1865583202105014
1758972258492065000,12.20606494140625,-1.6382495832271873,-9.600574469703435,-1.1469470983773469
1758972258502023000,12.21602294921875,-1.8035219784922896,-9.578498246973753,-1.0816880058728158
1758972258511980800,12.225980712890625,-1.9641727053061127,-9.55634545187652,-0.9943256565012037
1758972258521938700,12.235938720703125,-2.1102254363164303,-9.533772970062493,-0.9080236298374831
1758972258531896800,12.245896728515625,-2.223009519453347,-9.511911266866326,-0.8672901990413665
1758972258541855000,12.25585498046875,-2.3153625167191025,-9.487671144101023,-0.8908369327150285
1758972258551812900,12.265812744140625,-2.3988664370968937,-9.4595328448534,-0.9659631200436503
1758972258561771000,12.27577099609375,-2.4810987301036715,-9.427266067498921,-1.0682765164401382
1758972258571729000,12.28572900390625,-2.5689772123038765,-9.391482221934199,-1.1708113735675811
1758972258581687000,12.29568701171875,-2.665297359634936,-9.354438147175312,-1.2494358513407409
1758972258591645000,12.30564501953125,-2.765386504110694,-9.31971228623092,-1.2907336380213499
1758972258601602800,12.315602783203126,-2.858530067232251,-9.29134660796821,-1.2923252911269665
1758972258611560700,12.325560791015626,-2.935462208004296,-9.271090586403012,-1.2650411244906485
1758972258621518800,12.335518798828126,-2.9922870880320667,-9.258566035872697,-1.2229187966194004
1758972258631476000,12.34547607421875,-3.0293598043635486,-9.252439661946893,-1.1771669531393796
1758972258641433900,12.355433837890626,-3.0496020896643397,-9.25127003364563,-1.1332752775080501
1758972258651392000,12.36539208984375,-3.0559608110412952,-9.253945390334724,-1.093606991725415
1758972258661350000,12.375349853515624,-3.0512291063442825,-9.25954978621304,-1.0588294005937873
1758972258671307800,12.385307861328124,-3.0389985703244804,-9.266984904649853,-1.0285158031336963
1758972258681266000,12.395265869140625,-3.022725188654661,-9.275134308835863,-1.0027012706585228
1758972258691223800,12.405223876953125,-3.0046017952039836,-9.283416399490832,-0.9802795224267988
1758972258701182000,12.415181884765625,-2.986367050333321,-9.291279972472786,-0.9612996582772583
1758972258711139800,12.425139892578125,-2.9708325043320656,-9.297849413990974,-0.9457947036966681
1758972258721098000,12.435097900390625,-2.9605317673310636,-9.302366599154471,-0.9335893751833587
1758972258731055900,12.445055908203125,-2.9556790666028854,-9.304640973827242,-0.9262776639305055
1758972258741014000,12.455013916015625,-2.9567680308833717,-9.304075156638026,-0.9284878142606466
1758972258750972000,12.464971923828125,-2.9619772899642585,-9.300591406175494,-0.946613618864119
1758972258760929800,12.4749296875,-2.9679432126313445,-9.294615838897228,-0.985815017787367
1758972258770888000,12.484887939453126,-2.971607288096845,-9.286230287867784,-1.05161398932226
1758972258780845800,12.494845703125,-2.9640660789370536,-9.276571648162603,-1.1532233291026204
1758972258790804000,12.504803955078126,-2.923385693502426,-9.270341813862323,-1.298075817477703
1758972258800761900,12.514761962890624,-2.846696421575546,-9.268871156787872,-1.4678969620883464
1758972258810718700,12.52471875,-2.757556833398342,-9.269421776407956,-1.626068585437536
1758972258820676900,12.5346767578125,-2.698576528902352,-9.266177095398307,-1.739557163581997
1758972258830634800,12.544634765625,-2.7121464968323705,-9.253355023226142,-1.78607911465168
1758972258840593000,12.554593017578124,-2.78518133790493,-9.233430425572395,-1.7767688499927519
1758972258850550800,12.56455078125,-2.8682462823435664,-9.213673001179098,-1.746928423002362
1758972258860509000,12.574509033203125,-2.931493596634269,-9.199489577525853,-1.7164257327109573
1758972258870467000,12.584467041015625,-2.9637787864282727,-9.196361216372251,-1.6773011984162032
1758972258880425000,12.594425048828125,-2.9571985312551257,-9.208044639903306,-1.6239689828097819
