time,seconds_elapsed,z,y,x
1758972246343341000,0.057341064453125,1.2595922946929932,-1.329314947128296,1.0623112916946411
1758972246353299200,0.06729931640625,1.0048439502716064,-1.7640395164489746,1.3225886821746826
1758972246363257000,0.077257080078125,0.6466405391693115,-2.077364206314087,1.6610815525054932
1758972246373215200,0.08721533203125,0.31237736344337463,-2.3709869384765625,2.0695059299468994
1758972246383173600,0.097173583984375,0.10671631991863251,-2.572718858718872,2.5302677154541016
1758972246393131800,0.1071318359375,0.025594042614102364,-2.5096724033355713,2.954280138015747
1758972246403089700,0.117089599609375,0.011869655922055244,-2.4723265171051025,3.2619080543518066
1758972246413047800,0.1270478515625,0.06456828862428665,-2.426009178161621,3.3280229568481445
1758972246423005700,0.137005615234375,0.19727745652198792,-2.1612942218780518,3.0724847316741943
1758972246432963800,0.1469638671875,0.44062912464141846,-1.8241814374923706,2.707791328430176
1758972246442922000,0.156921875,0.5596508979797363,-1.4900752305984497,2.1554758548736572
1758972246452879600,0.166879638671875,0.3041890561580658,-1.3967567682266235,1.3289686441421509
1758972246462837800,0.176837646484375,-0.154541477560997,-1.4613637924194336,0.58814537525177
1758972246472795600,0.186795654296875,-0.48900067806243896,-1.6050083637237549,-0.01888490840792656
1758972246482753800,0.19675390625,-0.6327403783798218,-1.7723685503005981,-0.48932555317878723
1758972246492711700,0.206711669921875,-0.6099998950958252,-1.8727343082427979,-0.7690266966819763
1758972246502669800,0.216669921875,-0.24458464980125427,-0.755541980266571,-0.2708664536476135
1758972246512628000,0.2266279296875,-0.025519931688904762,-0.039528220891952515,0.23218122124671936
1758972246522585900,0.2365859375,0.14326876401901245,-0.29854315519332886,0.5756479501724243
1758972246532543700,0.246543701171875,0.3835306465625763,-0.7595954537391663,0.6308712959289551
1758972246542501600,0.256501708984375,0.875960648059845,-0.718300998210907,0.47751715779304504
1758972246552459800,0.266459716796875,1.711126685142517,-0.009014125913381577,-0.033793240785598755
1758972246562417700,0.276417724609375,2.6640374660491943,-0.6255025863647461,-0.695341169834137
1758972246572375800,0.286375732421875,3.4988179206848145,-1.4648500680923462,-1.09835946559906
1758972246582333700,0.296333740234375,4.030457973480225,-1.873062252998352,-1.0864417552947998
1758972246592291800,0.306291748046875,4.01618766784668,-2.1720492839813232,-0.721567690372467
1758972246602250000,0.31625,4.1450581550598145,-2.8446242809295654,-0.2005006968975067
1758972246612207600,0.32620751953125,4.14732551574707,-3.824213743209839,0.36041003465652466
1758972246622165800,0.336165771484375,4.111442565917969,-4.790213108062744,0.9124719500541687
1758972246632123600,0.34612353515625,4.15562629699707,-5.407638072967529,1.2242900133132935
1758972246642081800,0.356081787109375,4.010866165161133,-5.613232612609863,1.2962039709091187
1758972246652039700,0.366039794921875,3.802194356918335,-5.543907165527344,1.1537275314331055
1758972246661997800,0.375997802734375,3.7426159381866455,-5.220557689666748,0.8317321538925171
1758972246671955700,0.385955810546875,4.070797920227051,-4.655296325683594,0.4313695430755615
1758972246681913900,0.395913818359375,4.56318473815918,-3.987509250640869,0.07055407017469406
1758972246691872000,0.4058720703125,4.888845920562744,-3.2440648078918457,-0.3194391429424286
1758972246701829600,0.41582958984375,5.0051469802856445,-2.7037911415100098,-0.8175099492073059
1758972246711787800,0.425787841796875,5.043580055236816,-2.4768970012664795,-1.3187545537948608
1758972246721745700,0.43574560546875,5.055128574371338,-2.370983362197876,-1.6882604360580444
1758972246731703800,0.445703857421875,5.054123878479004,-1.715060830116272,-1.562482476234436
1758972246741661700,0.45566162109375,4.861520767211914,-1.5183833837509155,-0.5250434875488281
1758972246751619800,0.465619873046875,4.853920936584473,-1.9196863174438477,0.23593083024024963
1758972246761577700,0.47557763671875,4.970897197723389,-1.8766223192214966,1.189115285873413
1758972246771536000,0.485535888671875,5.048619747161865,-1.934533715248108,1.8587064743041992
1758972246781493800,0.49549365234375,4.9299635887146,-2.1694328784942627,2.0395236015319824
1758972246791451600,0.50545166015625,4.596935272216797,-2.28214168548584,2.064113140106201
1758972246801409800,0.515409912109375,4.0976128578186035,-2.2140157222747803,2.1279568672180176
1758972246811367700,0.52536767578125,3.5052926540374756,-1.9403489828109741,2.351881265640259
1758972246821325800,0.535325927734375,2.940796375274658,-1.6861999034881592,2.6736652851104736
1758972246831283700,0.54528369140625,2.4440958499908447,-1.6003385782241821,3.005061626434326
1758972246841241900,0.555241943359375,1.9994242191314697,-1.7775636911392212,3.288525104522705
1758972246851199700,0.56519970703125,1.577352523803711,-2.1256189346313477,3.439988613128662
1758972246861157600,0.57515771484375,1.0818240642547607,-2.3890061378479004,3.347773551940918
1758972246871115800,0.58511572265625,0.5608789324760437,-2.5640437602996826,2.9665064811706543
1758972246881073700,0.59507373046875,0.28878283500671387,-2.5984346866607666,2.403578042984009
1758972246891031800,0.60503173828125,0.3041522204875946,-2.3744125366210938,1.7720317840576172
1758972246900989700,0.61498974609375,0.26676666736602783,-2.1317551136016846,1.1677347421646118
1758972246910947800,0.62494775390625,0.0437447763979435,-2.1309921741485596,0.7255048751831055
1758972246920905700,0.63490576171875,-0.042308200150728226,-2.150160312652588,0.3528020977973938
1758972246930863900,0.64486376953125,0.004857714753597975,-1.906866431236267,-0.11591052263975143
1758972246940821800,0.65482177734375,-0.011069689877331257,-1.566956877708435,-0.6332966685295105
1758972246950779600,0.664779541015625,-0.171362966299057,-1.4207026958465576,-1.1600744724273682
1758972246960737800,0.67473779296875,-0.18591716885566711,-1.2047889232635498,-1.6069689989089966
1758972246970695700,0.68469580078125,-0.09289293736219406,-1.053684949874878,-1.7894041538238525
1758972246980653800,0.69465380859375,0.05968621373176575,-0.8273335099220276,-1.6994632482528687
1758972246990611700,0.70461181640625,0.18282625079154968,-0.8312387466430664,-1.3804160356521606
1758972247000569900,0.71456982421875,0.32957547903060913,-0.45736727118492126,-0.8954442143440247
1758972247010527700,0.72452783203125,0.7091432809829712,1.2692344188690186,-0.5887148976325989
1758972247020486000,0.73448583984375,1.2460298538208008,2.7427690029144287,-0.6744219660758972
1758972247030443800,0.74444384765625,1.734217643737793,2.6504526138305664,-1.2929434776306152
1758972247040401700,0.754401611328125,2.3161709308624268,1.528620719909668,-1.7250092029571533
1758972247050359800,0.76435986328125,3.178579330444336,0.2578828036785126,-1.7173547744750977
1758972247060317700,0.774317626953125,3.966186761856079,-0.5600447654724121,-1.720615267753601
1758972247070275800,0.78427587890625,4.73239278793335,-1.1625282764434814,-1.5453369617462158
1758972247080233700,0.794233642578125,5.410129547119141,-1.784883737564087,-1.1719127893447876
1758972247090192000,0.80419189453125,5.803267478942871,-2.6044809818267822,-0.30482932925224304
1758972247100149800,0.814149658203125,5.611517906188965,-1.9525057077407837,1.221240520477295
1758972247110107600,0.824107666015625,5.320517539978027,-1.24708092212677,1.94242525100708
1758972247120065800,0.834065673828125,5.489307880401611,-1.2803730964660645,1.5595110654830933
1758972247130023700,0.844023681640625,5.986440181732178,-1.2867237329483032,0.8735321760177612
1758972247139981800,0.85398193359375,6.162500858306885,-2.0716440677642822,0.6684179902076721
1758972247149939700,0.863939697265625,6.096761226654053,-1.5720714330673218,0.22926515340805054
1758972247159897900,0.87389794921875,6.1581549644470215,-0.8668120503425598,-0.1266835480928421
1758972247169855700,0.883855712890625,6.568951606750488,-0.6038813591003418,-0.20613469183444977
1758972247179814000,0.89381396484375,7.138814449310303,-0.29444533586502075,-0.28417059779167175
1758972247189771800,0.903771728515625,7.655834197998047,-0.007073730230331421,-0.42377403378486633
1758972247199729700,0.913729736328125,8.066080093383789,0.08940045535564423,-0.4595896005630493
1758972247209687800,0.923687744140625,8.295242309570312,-0.3830706775188446,-0.19433501362800598
1758972247219645700,0.933645751953125,8.45356273651123,-1.5644500255584717,-0.04629575461149216
1758972247229603800,0.943603759765625,8.702970504760742,-3.0560996532440186,-0.28644153475761414
1758972247239561700,0.953561767578125,8.311009407043457,-4.203605651855469,-0.9014490842819214
1758972247249519900,0.963519775390625,4.265144348144531,-3.9025869369506836,-1.038430094718933
1758972247259477800,0.973477783203125,-0.6014506220817566,-4.485871315002441,-0.8047826886177063
1758972247269436000,0.983435791015625,-1.8341877460479736,-6.790153503417969,-0.009534860029816628
1758972247279393800,0.993393798828125,-1.5954097509384155,-8.647947311401367,1.1773258447647095
1758972247289351700,1.0033515625,-1.0719212293624878,-9.021145820617676,1.7553870677947998
1758972247299309800,1.013309814453125,-0.9421437382698059,-8.175490379333496,1.9127010107040405
1758972247309267700,1.023267822265625,-1.2136049270629883,-6.512748718261719,1.9576791524887085
1758972247319225900,1.033225830078125,-1.2267093658447266,-4.441216945648193,2.014622926712036
1758972247329183700,1.043183837890625,-0.7211426496505737,-2.2757489681243896,1.9451760053634644
1758972247339142000,1.053141845703125,0.017037203535437584,-0.6260921955108643,1.4749066829681396
1758972247349099800,1.063099853515625,0.5500558018684387,0.09831741452217102,0.6189858913421631
1758972247359057700,1.0730576171875,0.5767034292221069,0.14301379024982452,-0.2709410488605499
1758972247369015800,1.083015869140625,0.3029576241970062,-0.07629354298114777,-0.7651753425598145
1758972247378973700,1.0929736328125,0.1645033061504364,-0.3211577832698822,-0.7533612847328186
1758972247388931800,1.102931884765625,0.10003909468650818,-0.5418928265571594,-0.432527095079422
1758972247398889700,1.1128896484375,-0.054344505071640015,-0.569611132144928,-0.11893609166145325
1758972247408848000,1.122847900390625,-0.14012545347213745,-0.3235078752040863,-0.0020709943491965532
1758972247418805800,1.1328056640625,-0.14315149188041687,0.062712661921978,0.02003142237663269
1758972247428764000,1.142763916015625,-0.08483412116765976,0.2843499779701233,0.020799478515982628
1758972247438721500,1.152721435546875,-0.01488948892802,0.43430620431900024,0.023604143410921097
1758972247448679700,1.1626796875,0.06211820989847183,0.6177181601524353,0.06017147749662399
1758972247458637800,1.172637939453125,0.19490939378738403,0.8619104027748108,0.14281250536441803
1758972247468595700,1.182595703125,0.30861249566078186,1.1548584699630737,0.2243020385503769
1758972247478553900,1.192553955078125,0.38209885358810425,1.4556792974472046,0.26034602522850037
1758972247488511700,1.20251171875,0.4123094975948334,1.728605031967163,0.24015526473522186
1758972247498470000,1.212469970703125,0.4098040759563446,1.9924851655960083,0.19151516258716583
1758972247508427800,1.222427734375,0.39381125569343567,2.217897415161133,0.12562428414821625
1758972247518385700,1.2323857421875,0.32556766271591187,2.4831295013427734,0.043046992272138596
1758972247528343600,1.242343505859375,0.25112831592559814,2.768203020095825,-0.06294362246990204
1758972247538301700,1.2523017578125,0.2937382757663727,3.108231782913208,-0.19572879374027252
1758972247548259800,1.262259765625,0.3051144778728485,3.4023213386535645,-0.3334733247756958
1758972247558217700,1.2722177734375,0.13118575513362885,3.8291709423065186,-0.388448566198349
1758972247568175900,1.28217578125,-0.08195900171995163,4.532246112823486,-0.4166370630264282
1758972247578133800,1.2921337890625,-0.2429507076740265,5.019949913024902,-0.46413740515708923
1758972247588092000,1.302091796875,-0.30087581276893616,4.968525409698486,-0.5968701839447021
1758972247598049800,1.3120498046875,-0.3039052486419678,4.360137939453125,-0.7994999885559082
1758972247608007700,1.322007568359375,-0.26516610383987427,3.2405998706817627,-1.0412484407424927
1758972247617965800,1.3319658203125,-0.1742524653673172,1.8130139112472534,-1.2637559175491333
1758972247627923700,1.341923828125,-0.06078129634261131,0.32574814558029175,-1.4079532623291016
1758972247637881900,1.3518818359375,0.0055400291457772255,-1.0005558729171753,-1.466525912284851
1758972247647839700,1.36183984375,-0.012400356121361256,-1.9438872337341309,-1.4522631168365479
1758972247657798000,1.3717978515625,0.0008244439377449453,-2.6244544982910156,-1.4217969179153442
1758972247667755800,1.381755859375,0.04620470851659775,-3.1718451976776123,-1.4017671346664429
1758972247677714000,1.3917138671875,0.06443393975496292,-3.638859510421753,-1.3624708652496338
1758972247687671600,1.401671630859375,0.056506507098674774,-4.246262550354004,-1.228932499885559
1758972247697629700,1.411629638671875,0.053541332483291626,-5.317203044891357,-0.9316093921661377
1758972247707587800,1.421587890625,0.14479535818099976,-6.7334089279174805,-0.4145737290382385
1758972247717545700,1.431545654296875,0.26186925172805786,-7.875675201416016,0.1656169444322586
1758972247727504000,1.44150390625,0.4765283167362213,-7.908919811248779,-0.0317993201315403
1758972247737461800,1.451461669921875,0.7447550892829895,-5.969344139099121,-0.8831441402435303
1758972247747420000,1.461419921875,0.9107272624969482,-2.941504955291748,-1.4625332355499268
1758972247757377800,1.471377685546875,0.8658229112625122,0.03299126401543617,-1.6229411363601685
1758972247767335700,1.481335693359375,0.6413357257843018,2.0953893661499023,-1.569273591041565
1758972247777293600,1.49129345703125,0.31049689650535583,3.291980266571045,-1.5046195983886719
1758972247787251700,1.501251708984375,-0.01394563727080822,3.9209227561950684,-1.5005539655685425
1758972247797209900,1.5112099609375,-0.2506502568721771,4.179708957672119,-1.5900121927261353
1758972247807166700,1.521166748046875,-0.32766062021255493,4.093400478363037,-1.8867067098617554
1758972247817124900,1.531124755859375,-0.17719142138957977,3.4982171058654785,-2.3636672496795654
1758972247827082800,1.541082763671875,0.10487408936023712,2.3311054706573486,-2.6061246395111084
1758972247837040600,1.55104052734375,0.3616681396961212,0.7737807035446167,-2.3957571983337402
1758972247846998800,1.560998779296875,0.4947763979434967,-0.5302305221557617,-1.905037522315979
1758972247856956700,1.570956787109375,0.4306069612503052,-1.3439223766326904,-1.3129056692123413
1758972247866914800,1.580914794921875,0.2763468325138092,-1.5098040103912354,-0.8777060508728027
1758972247876872700,1.590872802734375,0.09425786882638931,-1.0949938297271729,-0.6852948069572449
1758972247886830800,1.600830810546875,-0.03367799520492554,-0.37840989232063293,-0.6462646126747131
1758972247896788700,1.610788818359375,-0.12554393708705902,0.25133660435676575,-0.6792299747467041
1758972247906747000,1.620746826171875,-0.1788977086544037,0.6570851802825928,-0.7665662169456482
1758972247916704800,1.630704833984375,-0.2024460732936859,0.847644031047821,-0.8578584790229797
1758972247926662700,1.64066259765625,-0.20307858288288116,0.865949273109436,-0.9073914289474487
1758972247936620800,1.650620849609375,-0.1890166699886322,0.7483034133911133,-0.9177533984184265
1758972247946578700,1.66057861328125,-0.1666778177022934,0.44029495120048523,-0.9033994674682617
1758972247956536800,1.670536865234375,-0.16946139931678772,0.03463856503367424,-0.8695772886276245
1758972247966494700,1.68049462890625,-0.1998283565044403,-0.35448575019836426,-0.8179562091827393
1758972247976452900,1.690452880859375,-0.2681596577167511,-0.5697654485702515,-0.755541980266571
1758972247986410800,1.70041064453125,-0.33813315629959106,-0.5659555196762085,-0.7021166086196899
1758972247996368600,1.71036865234375,-0.3765556514263153,-0.45469820499420166,-0.6383204460144043
1758972248006326800,1.720326904296875,-0.39464330673217773,-0.35658231377601624,-0.5425539612770081
1758972248016284700,1.73028466796875,-0.3908856213092804,-0.3108229339122772,-0.40473711490631104
1758972248026242800,1.740242919921875,-0.3699531555175781,-0.3464949131011963,-0.22388878464698792
1758972248036200700,1.75020068359375,-0.3433004915714264,-0.4324299395084381,-0.009609907865524292
1758972248046158800,1.760158935546875,-0.3103867471218109,-0.5233542919158936,0.21581736207008362
1758972248056116700,1.77011669921875,-0.27748334407806396,-0.6021817326545715,0.4344363510608673
1758972248066075000,1.780074951171875,-0.2530547082424164,-0.6676390171051025,0.6320183873176575
1758972248076032800,1.79003271484375,-0.23214159905910492,-0.7144439220428467,0.7934635281562805
1758972248085990700,1.79999072265625,-0.18735894560813904,-0.7529441714286804,0.9065368175506592
1758972248095948800,1.80994873046875,-0.13309277594089508,-0.8065730333328247,0.942836582660675
1758972248105906700,1.81990673828125,-0.10528511554002762,-0.8633617758750916,0.8683109879493713
1758972248115864800,1.82986474609375,-0.062357936054468155,-1.0202971696853638,0.6537519693374634
1758972248125822700,1.83982275390625,-0.03898683190345764,-1.3204705715179443,0.23123696446418762
1758972248135780900,1.84978076171875,-0.07378439605236053,-1.6597142219543457,-0.40898197889328003
1758972248145738800,1.85973876953125,-0.15851420164108276,-1.853307843208313,-1.0421333312988281
1758972248155697000,1.86969677734375,-0.2546137273311615,-1.7773410081863403,-1.3737983703613281
1758972248165654800,1.87965478515625,-0.33471283316612244,-1.4689311981201172,-1.2591063976287842
1758972248175612700,1.88961279296875,-0.495697945356369,-1.162888526916504,-0.8967580795288086
1758972248185570800,1.89957080078125,-0.6930387020111084,-0.9619251489639282,-0.5596505999565125
1758972248195528700,1.90952880859375,-0.8340702056884766,-0.8051049709320068,-0.3179379105567932
1758972248205486800,1.91948681640625,-0.9365630149841309,-0.5348684787750244,-0.06657944619655609
1758972248215444700,1.92944482421875,-0.8657878041267395,0.13556890189647675,0.2535296380519867
1758972248225403000,1.93940283203125,-0.6840206980705261,1.0068098306655884,0.5748615860939026
1758972248235360800,1.94936083984375,-0.5487284660339355,1.5435543060302734,0.7007330656051636
1758972248245318700,1.959318603515625,-0.46269986033439636,1.5335557460784912,0.6604463458061218
1758972248255276800,1.96927685546875,-0.2987246811389923,1.2994848489761353,0.6895353198051453
1758972248265234700,1.979234619140625,-0.15426547825336456,1.175610065460205,0.7518018484115601
1758972248275192800,1.98919287109375,-0.10650903731584549,1.3565049171447754,0.8601248860359192
1758972248285150700,1.999150634765625,-0.045944493263959885,1.6684540510177612,0.977958083152771
1758972248295108900,2.00910888671875,0.10361235588788986,1.907076358795166,1.1026101112365723
1758972248305066800,2.019066650390625,0.2820262908935547,1.8408901691436768,1.2199429273605347
1758972248315025000,2.02902490234375,0.447167307138443,1.2717913389205933,1.3307067155838013
1758972248324982800,2.038982666015625,0.6596928834915161,0.3911343812942505,1.5280197858810425
1758972248334940700,2.048940673828125,0.8269433975219727,0.08572345227003098,1.8973737955093384
1758972248344898800,2.05889892578125,0.7623151540756226,0.31387194991111755,2.1946589946746826
1758972248354856700,2.068856689453125,0.4990549087524414,0.5318433046340942,2.297527313232422
1758972248364814800,2.07881494140625,0.21144363284111023,0.5596091151237488,2.2563841342926025
1758972248374772700,2.088772705078125,0.021311942487955093,0.3518444895744324,2.0313937664031982
1758972248384731000,2.09873095703125,-0.06627729535102844,0.07962895929813385,1.637489676475525
1758972248394688800,2.108688720703125,-0.16568218171596527,-0.11318177729845047,1.0537488460540771
1758972248404647000,2.11864697265625,-0.19483207166194916,-0.01869788020849228,0.27695077657699585
1758972248414604800,2.128604736328125,-0.1447063684463501,0.30472293496131897,-0.48910558223724365
1758972248424563000,2.13856298828125,-0.05855950340628624,0.4878599941730499,-1.079054594039917
1758972248434520800,2.148520751953125,0.0654299408197403,0.63675457239151,-1.3891855478286743
1758972248444479000,2.15847900390625,0.2431591898202896,1.494077444076538,-1.0064034461975098
1758972248454437000,2.16843701171875,0.37091293931007385,1.9231164455413818,-0.03271909058094025
1758972248464395000,2.17839501953125,0.32491350173950195,1.5629305839538574,1.0122406482696533
1758972248474353000,2.188352783203125,0.10342003405094147,0.8541607856750488,1.5637433528900146
1758972248484310800,2.198310791015625,-0.10894601792097092,0.07065266370773315,1.582621455192566
1758972248494269000,2.20826904296875,-0.2352467030286789,-0.5225213170051575,1.3061933517456055
1758972248504226800,2.218226806640625,-0.23547308146953583,-0.9045600295066833,0.9564396739006042
1758972248514185000,2.22818505859375,-0.13615292310714722,-1.0506703853607178,0.7092962861061096
1758972248524143000,2.23814306640625,-0.012141489423811436,-1.025160551071167,0.6400130987167358
1758972248534101000,2.24810107421875,0.04495483636856079,-0.9508494138717651,0.7301564812660217
1758972248544059100,2.25805908203125,0.026860252022743225,-0.9087378978729248,0.8911235332489014
1758972248554016800,2.268016845703125,0.01331122312694788,-0.9008280038833618,1.0379054546356201
1758972248563975000,2.277974853515625,0.03280156850814819,-0.9276044964790344,1.122067928314209
1758972248573932800,2.287932861328125,0.06713612377643585,-0.922003448009491,1.136554479598999
1758972248583891000,2.297890869140625,0.09052293747663498,-0.8929124474525452,1.1057746410369873
1758972248593848800,2.307848876953125,0.09209039062261581,-0.8208714723587036,1.0655393600463867
1758972248603807000,2.317806884765625,0.07248818874359131,-0.7142885327339172,1.0278366804122925
1758972248613765000,2.32776513671875,0.04062523692846298,-0.5857396125793457,0.9936566352844238
1758972248623723000,2.337722900390625,0.012140863575041294,-0.4544591009616852,0.9532495737075806
1758972248633681000,2.347680908203125,0.003941156901419163,-0.33824247121810913,0.9034356474876404
1758972248643638800,2.357638671875,0.017219677567481995,-0.2519563138484955,0.8421829342842102
1758972248653596000,2.367595947265625,0.0428711473941803,-0.206957146525383,0.7727792263031006
1758972248663554000,2.377553955078125,0.06301050633192062,-0.2110549509525299,0.7040254473686218
1758972248673512000,2.387511962890625,0.06209547445178032,-0.24220938980579376,0.6456465125083923
1758972248683470000,2.397469970703125,0.04555831104516983,-0.2887483835220337,0.6161583662033081
1758972248693428000,2.407427978515625,0.0318826287984848,-0.3177833557128906,0.6341193914413452
1758972248703385900,2.4173857421875,0.023061705753207207,-0.31126606464385986,0.7032331824302673
1758972248713343700,2.42734375,0.010816523805260658,-0.2505907416343689,0.8168763518333435
1758972248723302000,2.437302001953125,-0.009261047467589378,-0.11347924172878265,0.9587863683700562
1758972248733260000,2.447260009765625,-0.0310361348092556,0.09744296967983246,1.0913418531417847
1758972248743218000,2.457218017578125,-0.04608698934316635,0.3652810752391815,1.150782585144043
1758972248753176000,2.467176025390625,-0.03262660652399063,0.6384990215301514,1.086858868598938
1758972248763134000,2.477134033203125,0.011845783330500126,0.8597291707992554,0.8983132243156433
1758972248773092000,2.487092041015625,0.04778547212481499,0.9915689826011658,0.6389626860618591
1758972248783049700,2.4970498046875,0.04592738673090935,1.0428121089935303,0.38759782910346985
1758972248793007900,2.5070078125,-0.009282919578254223,0.9926255345344543,0.19807806611061096
1758972248802965800,2.5169658203125,-0.0991707295179367,0.8110173940658569,0.0865773856639862
1758972248812924000,2.526923828125,-0.19897174835205078,0.5664696097373962,0.0573420524597168
1758972248822882000,2.536882080078125,-0.2711852192878723,0.31950080394744873,0.07783401012420654
1758972248832840000,2.54683984375,-0.30727311968803406,0.09644389152526855,0.11718456447124481
1758972248842798000,2.556798095703125,-0.3006461262702942,-0.06369145214557648,0.15661746263504028
1758972248852756000,2.566755859375,-0.2738737165927887,-0.1582401841878891,0.16283953189849854
1758972248862713900,2.5767138671875,-0.2488461136817932,-0.19283385574817657,0.09417232125997543
1758972248872671700,2.586671630859375,-0.2346193790435791,-0.2243206650018692,-0.10800589621067047
1758972248882630000,2.5966298828125,-0.25003641843795776,-0.25710389018058777,-0.42109882831573486
1758972248892587800,2.606587890625,-0.2904777228832245,-0.18880592286586761,-0.6980813145637512
1758972248902546000,2.6165458984375,-0.330715149641037,0.11420269310474396,-0.8358573317527771
1758972248912504000,2.626504150390625,-0.3381514549255371,0.5788534283638,-1.116928219795227
1758972248922462000,2.6364619140625,-0.2852461636066437,0.8834354281425476,-1.7287425994873047
1758972248932420000,2.646420166015625,-0.17080749571323395,0.8227795362472534,-2.434784412384033
1758972248942378000,2.6563779296875,-0.038482218980789185,0.44474223256111145,-2.9791018962860107
1758972248952336000,2.6663359375,0.07222019881010056,0.04304378852248192,-3.2449328899383545
1758972248962293800,2.676293701171875,0.22461000084877014,-0.13593129813671112,-3.2284023761749268
1758972248972252000,2.686251953125,0.3629871606826782,-0.18812844157218933,-3.0478689670562744
1758972248982210000,2.6962099609375,0.3572975695133209,-0.21937984228134155,-2.807755947113037
1758972248992168000,2.70616796875,0.2776215374469757,-0.03669752553105354,-2.532691717147827
1758972249002126000,2.7161259765625,0.2200447916984558,0.5583323240280151,-2.203392744064331
1758972249012084000,2.726083984375,0.1924123466014862,1.521490454673767,-1.805952548980713
1758972249022042000,2.7360419921875,0.058223921805620193,2.312343120574951,-1.4956711530685425
1758972249031999700,2.745999755859375,-0.169540137052536,2.5286855697631836,-1.4019328355789185
1758972249041958000,2.7559580078125,-0.37038618326187134,2.165925979614258,-1.44696044921875
1758972249051915800,2.765915771484375,-0.32360923290252686,1.2874611616134644,-1.5035231113433838
1758972249061874000,2.7758740234375,-0.10382547229528427,-0.20200617611408234,-1.7584742307662964
1758972249071832000,2.78583203125,0.20704777538776398,-1.4889477491378784,-1.9037443399429321
1758972249081790000,2.7957900390625,0.5142415165901184,-2.089486598968506,-1.800064206123352
1758972249091748000,2.805748046875,0.7592507004737854,-2.018141746520996,-1.5977139472961426
1758972249101706000,2.8157060546875,0.8575154542922974,-1.4780268669128418,-1.4333982467651367
1758972249111663900,2.825663818359375,0.8175387978553772,-0.69553142786026,-1.3258566856384277
1758972249121621800,2.835621826171875,0.6421970725059509,-0.022572509944438934,-1.1910983324050903
1758972249131580000,2.845579833984375,0.3576815724372864,0.33256909251213074,-0.9846363067626953
1758972249141537800,2.855537841796875,0.05429612472653389,0.4649580121040344,-0.8173413276672363
1758972249151496000,2.865495849609375,-0.15716125071048737,0.5665326714515686,-0.7363596558570862
1758972249161454000,2.8754541015625,-0.2984323501586914,0.5886707305908203,-0.6800127625465393
1758972249171412000,2.885411865234375,-0.39331546425819397,0.47492876648902893,-0.5961858034133911
1758972249181370000,2.8953701171875,-0.46866267919540405,0.28925690054893494,-0.4898228645324707
1758972249191328000,2.905327880859375,-0.5240827798843384,0.10577145963907242,-0.3905455470085144
1758972249201286000,2.915285888671875,-0.5688910484313965,-0.10636396706104279,-0.32658547163009644
1758972249211243800,2.925243896484375,-0.5788718461990356,-0.3468756079673767,-0.29200172424316406
1758972249221201000,2.935200927734375,-0.5821627378463745,-0.5593692064285278,-0.2727486789226532
1758972249231159000,2.945158935546875,-0.6075024008750916,-0.7188404202461243,-0.26423171162605286
1758972249241117000,2.955116943359375,-0.6026957035064697,-0.82638019323349,-0.267469584941864
1758972249251075000,2.965074951171875,-0.57464998960495,-0.8464275002479553,-0.25171685218811035
1758972249261032700,2.97503271484375,-0.5211383104324341,-0.8725650906562805,-0.20290297269821167
1758972249270990800,2.984990966796875,-0.4775542616844177,-0.925388753414154,-0.09614720195531845
1758972249280949000,2.994948974609375,-0.4355607330799103,-1.0123343467712402,0.05134771391749382
1758972249290907000,3.004906982421875,-0.38602691888809204,-1.1026756763458252,0.23240086436271667
1758972249300865000,3.014864990234375,-0.321059912443161,-1.1602702140808105,0.45431435108184814
1758972249310823000,3.024822998046875,-0.2255437821149826,-1.1628427505493164,0.7207179665565491
1758972249320781000,3.034781005859375,-0.10525944828987122,-1.1008321046829224,1.0142850875854492
1758972249330739000,3.044739013671875,0.019138751551508904,-0.989267885684967,1.2788794040679932
1758972249340697000,3.054697021484375,0.1409999430179596,-0.8590728640556335,1.4529327154159546
1758972249350654700,3.06465478515625,0.2927089035511017,-0.8307194709777832,1.4799226522445679
1758972249360612900,3.07461279296875,0.4178103506565094,-1.0026777982711792,1.2152087688446045
1758972249370571000,3.084571044921875,0.44095104932785034,-1.3094841241836548,0.3467083275318146
1758972249380528600,3.094528564453125,0.22702358663082123,-1.5078102350234985,-1.3385725021362305
1758972249390486800,3.10448681640625,0.07037166506052017,-1.7712831497192383,-2.5446293354034424
1758972249400444700,3.114444580078125,0.2648428678512573,-1.8425886631011963,-2.4630208015441895
1758972249410402800,3.12440283203125,0.13147088885307312,-1.5871332883834839,-1.7424685955047607
1758972249420360700,3.134360595703125,-0.3887389898300171,-1.0449774265289307,-1.159639596939087
1758972249430318800,3.14431884765625,-0.7834295630455017,-0.5987187623977661,-0.6999284029006958
1758972249440276700,3.15427685546875,-1.0637754201889038,-0.42278608679771423,-0.04402247071266174
1758972249450234600,3.164234619140625,-1.1555938720703125,0.20739732682704926,0.7378962635993958
1758972249460192800,3.17419287109375,-1.0132259130477905,1.1950918436050415,1.4739608764648438
1758972249470150700,3.184150634765625,-0.7787365317344666,1.9083341360092163,1.851925015449524
1758972249480108800,3.19410888671875,-0.5595525503158569,2.260775089263916,1.9342182874679565
1758972249490066700,3.204066650390625,-0.417553186416626,2.2577481269836426,1.9370931386947632
1758972249500024800,3.21402490234375,-0.3863758444786072,2.1469058990478516,1.7928168773651123
1758972249509982700,3.223982666015625,-0.40074631571769714,2.0868475437164307,1.5873700380325317
1758972249519940900,3.23394091796875,-0.25927653908729553,1.95392906665802,1.4270384311676025
1758972249529899000,3.24389892578125,0.0472821369767189,1.7943484783172607,1.311282992362976
1758972249539856600,3.253856689453125,0.4517292082309723,1.7471543550491333,1.1922143697738647
1758972249549814800,3.263814697265625,0.8079028725624084,1.9028987884521484,1.1048482656478882
1758972249559772700,3.273772705078125,1.01713228225708,2.0111758708953857,1.1214640140533447
1758972249569730800,3.283730712890625,1.0867011547088623,2.017612934112549,1.2288541793823242
1758972249579688700,3.293688720703125,1.024116039276123,1.9545186758041382,1.2723209857940674
1758972249589646800,3.303646728515625,0.8180986642837524,1.6240315437316895,1.2364863157272339
1758972249599604700,3.313604736328125,0.6470861434936523,1.0879583358764648,1.161712408065796
1758972249609563000,3.32356298828125,0.47753623127937317,0.44596344232559204,1.075539231300354
1758972249619520800,3.333520751953125,0.3300514221191406,-0.16089029610157013,0.9496832489967346
1758972249629478700,3.343478759765625,0.17567762732505798,-0.6815679669380188,0.7969472408294678
1758972249639436800,3.353436767578125,0.10569935292005539,-0.9299623370170593,0.5882709622383118
1758972249649394700,3.363394775390625,0.12188462167978287,-0.990504801273346,0.2811678946018219
1758972249659352800,3.373352783203125,0.1430780589580536,-0.9278453588485718,-0.08424708247184753
1758972249669310700,3.383310791015625,0.1425587385892868,0.08416833728551865,0.06635317206382751
1758972249679267800,3.393267822265625,0.23665887117385864,1.7154914140701294,0.7780294418334961
1758972249689225700,3.403225830078125,0.33390817046165466,2.4761533737182617,1.4590470790863037
1758972249699183600,3.41318359375,0.25876283645629883,2.3794119358062744,1.767625093460083
1758972249709141800,3.423141845703125,0.030428290367126465,1.7676383256912231,1.7224695682525635
1758972249719099600,3.433099609375,-0.19004203379154205,0.9376652836799622,1.4399685859680176
1758972249729057800,3.443057861328125,-0.3185718357563019,0.18820446729660034,1.074924111366272
1758972249739016000,3.453015869140625,-0.3203979730606079,-0.4608350396156311,0.7163755893707275
1758972249748973800,3.462973876953125,-0.21505680680274963,-1.0020984411239624,0.43200787901878357
1758972249758932000,3.472931884765625,-0.04866143688559532,-1.4479910135269165,0.26313072443008423
1758972249768889600,3.4828896484375,0.1017976626753807,-1.7643860578536987,0.18387065827846527
1758972249778847700,3.49284765625,0.18527230620384216,-1.9549767971038818,0.20458365976810455
1758972249788805600,3.5028056640625,0.18582674860954285,-2.0189685821533203,0.28493595123291016
1758972249798763800,3.512763671875,0.14181533455848694,-2.0265133380889893,0.38031813502311707
1758972249808721700,3.5227216796875,0.11100854724645615,-2.0091991424560547,0.47380149364471436
1758972249818679800,3.5326796875,0.09493184089660645,-1.9643981456756592,0.551074743270874
1758972249828638000,3.542637939453125,0.08555401116609573,-1.899347186088562,0.6039772629737854
1758972249838595800,3.552595947265625,0.08098642528057098,-1.8161484003067017,0.6431214809417725
1758972249848553700,3.5625537109375,0.07765115052461624,-1.711269497871399,0.6843027472496033
1758972249858511600,3.57251171875,0.08370877802371979,-1.5508917570114136,0.7466843724250793
1758972249868469800,3.5824697265625,0.1022375077009201,-1.2929521799087524,0.8580055236816406
1758972249878427600,3.592427734375,0.10837849229574203,-0.9590888023376465,1.0251407623291016
1758972249888385800,3.6023857421875,0.07397837936878204,-0.622078537940979,1.1899534463882446
1758972249898343700,3.61234375,0.009745861403644085,-0.3246133029460907,1.27413010597229
1758972249908301800,3.6223017578125,-0.05228633061051369,-0.050721172243356705,1.2429066896438599
1758972249918260000,3.632260009765625,-0.08376222848892212,0.22477936744689941,1.1076048612594604
1758972249928217600,3.642217529296875,-0.0750124379992485,0.4963836073875427,0.9125301837921143
1758972249938175700,3.65217578125,-0.05337771400809288,0.7713723182678223,0.7292439937591553
1758972249948133600,3.662133544921875,-0.042763601988554,1.0639331340789795,0.6456632018089294
1758972249958091800,3.672091796875,-0.03368781507015228,1.407312035560608,0.7050820589065552
1758972249968049700,3.682049560546875,-0.028695005923509598,1.7866976261138916,0.881689190864563
1758972249978007800,3.6920078125,-0.03861421346664429,2.106268882751465,1.0512044429779053
1758972249987965700,3.701965576171875,-0.07260718196630478,2.2620339393615723,1.0714274644851685
1758972249997923800,3.711923828125,-0.13184866309165955,2.1911938190460205,0.8817577362060547
1758972250007882000,3.721882080078125,-0.2132779210805893,1.8728694915771484,0.5815256834030151
1758972250017839600,3.731839599609375,-0.2919493317604065,1.3471237421035767,0.2551819384098053
1758972250027797800,3.7417978515625,-0.33795365691185,0.8513539433479309,0.05759573355317116
1758972250037755600,3.751755615234375,-0.3532484471797943,0.47499895095825195,0.048307161778211594
1758972250047713800,3.7617138671875,-0.3530403673648834,0.2325478345155716,0.15259481966495514
1758972250057671700,3.771671630859375,-0.36085596680641174,0.0466591939330101,0.16216620802879333
1758972250067629800,3.7816298828125,-0.39047157764434814,-0.17227956652641296,-0.044419191777706146
1758972250077588000,3.791587890625,-0.4554055631160736,-0.41521522402763367,-0.422135591506958
1758972250087544600,3.801544677734375,-0.5118252635002136,-0.523231565952301,-0.8151541352272034
1758972250097502700,3.811502685546875,-0.526516854763031,-0.38601088523864746,-1.1502913236618042
1758972250107460900,3.8214609375,-0.5055573582649231,-0.13243132829666138,-1.4786198139190674
1758972250117418800,3.831418701171875,-0.4686589539051056,0.0008862498216331005,-1.8303849697113037
1758972250127377000,3.841376953125,-0.40764251351356506,-0.019914375618100166,-2.199923038482666
1758972250137334800,3.851334716796875,-0.3059694170951843,-0.1666194051504135,-2.626459836959839
1758972250147293000,3.86129296875,-0.17290937900543213,-0.370845228433609,-3.0086746215820312
1758972250157250800,3.871250732421875,-0.057331111282110214,-0.51052325963974,-3.18735671043396
1758972250167208700,3.881208740234375,0.002461732132360339,-0.5750213861465454,-3.1317126750946045
1758972250177166600,3.89116650390625,0.027766291052103043,-0.4395085871219635,-2.9393057823181152
1758972250187124700,3.901124755859375,0.050206176936626434,-0.12051407992839813,-2.730881452560425
1758972250197083000,3.911082763671875,0.07519862055778503,0.3678622543811798,-2.525996446609497
1758972250207040800,3.921040771484375,0.15630869567394257,1.1531208753585815,-2.2503774166107178
1758972250216999000,3.9309990234375,0.24691981077194214,2.2019691467285156,-1.8981103897094727
1758972250226956800,3.940956787109375,0.18896320462226868,3.054407835006714,-1.623341679573059
1758972250236915000,3.9509150390625,-0.04207079857587814,3.3072187900543213,-1.556225299835205
1758972250246872600,3.96087255859375,-0.27625057101249695,2.845013380050659,-1.5487568378448486
1758972250256830700,3.970830810546875,-0.26148733496665955,1.0969266891479492,-1.6180273294448853
1758972250266788600,3.98078857421875,0.0085393525660038,-0.9602547287940979,-1.7105623483657837
1758972250276746800,3.990746826171875,0.3727756440639496,-2.1581368446350098,-1.595770239830017
1758972250286705000,4.000704833984375,0.6509153842926025,-2.342059850692749,-1.3933659791946411
1758972250296662800,4.010662841796875,0.8151357769966125,-1.8966529369354248,-1.2294400930404663
1758972250306621000,4.020620849609375,0.8548175096511841,-1.100907564163208,-1.2081414461135864
1758972250316578800,4.030578857421875,0.7718720436096191,-0.18965080380439758,-1.2462552785873413
1758972250326536700,4.04053662109375,0.5958146452903748,0.6169511675834656,-1.246103286743164
1758972250336494600,4.05049462890625,0.3689152002334595,0.9740040898323059,-1.0993850231170654
1758972250346452700,4.06045263671875,0.10160250961780548,0.7446250915527344,-0.8238792419433594
1758972250356410600,4.07041064453125,-0.12713292241096497,0.3531561493873596,-0.55342698097229
1758972250366368800,4.08036865234375,-0.2857619822025299,-0.024584917351603508,-0.35068202018737793
1758972250376327000,4.090326904296875,-0.37109658122062683,-0.2420453280210495,-0.20261158049106598
1758972250386285000,4.10028515625,-0.4099799394607544,-0.24129202961921692,-0.10698353499174118
1758972250396243200,4.1102431640625,-0.4038003385066986,-0.18272832036018372,-0.05170217528939247
1758972250406201000,4.120201171875,-0.4061192572116852,-0.21880552172660828,-0.007151362486183643
1758972250416159200,4.1301591796875,-0.3970698416233063,-0.35339662432670593,0.00782385841012001
1758972250426116900,4.140116943359375,-0.37149202823638916,-0.46376651525497437,0.0006629000417888165
1758972250436074000,4.150073974609375,-0.3429882228374481,-0.4757235646247864,-0.01892385073006153
1758972250446032100,4.1600322265625,-0.32991769909858704,-0.4180876910686493,-0.04965289682149887
1758972250455990000,4.169989990234375,-0.3399367928504944,-0.4168677031993866,-0.0940866693854332
1758972250465948200,4.1799482421875,-0.37050530314445496,-0.5269927382469177,-0.15934818983078003
1758972250475906000,4.189906005859375,-0.41697800159454346,-0.7245729565620422,-0.23784780502319336
1758972250485864200,4.1998642578125,-0.3999021649360657,-0.9212530851364136,-0.2901804745197296
1758972250495822000,4.209822021484375,-0.2520570456981659,-1.139510154724121,-0.25447362661361694
1758972250505780000,4.219780029296875,-0.03007856197655201,-1.4963246583938599,-0.030379632487893105
1758972250515738000,4.229738037109375,0.1966552436351776,-1.8299028873443604,0.3638981580734253
1758972250525696000,4.239696044921875,0.3657853603363037,-1.991184949874878,0.7824296951293945
1758972250535654100,4.249654052734375,0.42594218254089355,-1.97959303855896,1.0583713054656982
1758972250545612000,4.259612060546875,0.2978077530860901,-1.7638967037200928,1.0024549961090088
1758972250555570200,4.269570068359375,0.11194439232349396,-1.5720018148422241,0.49497073888778687
1758972250565528000,4.279528076171875,-0.09771670401096344,-1.281706690788269,-0.4922495186328888
1758972250575486000,4.28948583984375,-0.22746457159519196,-0.9327449202537537,-1.2829599380493164
1758972250585444000,4.299444091796875,-0.1531587541103363,-0.5219179391860962,-1.312387466430664
1758972250595402000,4.309402099609375,-0.06538229435682297,-0.08085669577121735,-0.8765479326248169
1758972250605360000,4.319360107421875,-0.19769391417503357,0.28522875905036926,-0.4094867408275604
1758972250615318000,4.329318115234375,-0.41474395990371704,0.44557344913482666,0.003314924892038107
1758972250625276200,4.339276123046875,-0.637249767780304,0.24585551023483276,0.4333088994026184
1758972250635234000,4.349234130859375,-0.8219133615493774,-0.08004004508256912,0.9146038889884949
1758972250645192200,4.359192138671875,-0.8693277835845947,-0.05505436658859253,1.3009063005447388
1758972250655150000,4.369150146484375,-0.6694756746292114,0.5959410071372986,1.4236828088760376
1758972250665108000,4.37910791015625,-0.4006313383579254,1.3668347597122192,1.3784760236740112
1758972250675066000,4.389066162109375,-0.26147159934043884,1.8293195962905884,1.3947752714157104
1758972250685024000,4.39902392578125,-0.20034867525100708,1.9592876434326172,1.5030457973480225
1758972250694982100,4.408982177734375,-0.21194833517074585,2.0361311435699463,1.5379067659378052
1758972250704940000,4.41893994140625,-0.204533651471138,2.150653600692749,1.47549307346344
1758972250714898200,4.428898193359375,-0.06267078220844269,2.0979580879211426,1.3589613437652588
1758972250724856000,4.43885595703125,0.2808213531970978,1.8966041803359985,1.0968650579452515
1758972250734814200,4.448814208984375,0.7646239995956421,1.4409887790679932,0.12460141628980637
1758972250744771000,4.45877099609375,0.9753215909004211,1.1872482299804688,-0.5773723125457764
1758972250754729000,4.46872900390625,0.9952857494354248,0.9308280944824219,-0.46860748529434204
1758972250764687000,4.47868701171875,0.9589241147041321,0.6567396521568298,0.06223493069410324
1758972250774645000,4.48864501953125,0.7860985398292542,0.602554976940155,0.5523673295974731
1758972250784603100,4.49860302734375,0.5551531314849854,0.5718632936477661,0.9206539392471313
1758972250794561000,4.50856103515625,0.37993285059928894,0.4146460294723511,1.230473279953003
1758972250804519000,4.518518798828125,0.21725814044475555,0.11837346106767654,1.4344005584716797
1758972250814477000,4.52847705078125,0.07290361821651459,-0.3031224012374878,1.5099973678588867
1758972250824435000,4.53843505859375,-0.056326739490032196,-0.6747177243232727,1.4631481170654297
1758972250834393000,4.54839306640625,-0.170182466506958,-0.8707394599914551,1.3167296648025513
1758972250844351000,4.55835107421875,-0.20153598487377167,-0.8640798330307007,1.0702143907546997
1758972250854309000,4.56830908203125,-0.0963435098528862,-0.7748138308525085,0.7180046439170837
1758972250864267000,4.57826708984375,0.053157661110162735,-0.6291254162788391,0.3203565776348114
1758972250874225200,4.58822509765625,0.19383807480335236,-0.058908309787511826,0.17619432508945465
1758972250884183300,4.598183349609375,0.31119436025619507,1.3824559450149536,0.5845422744750977
1758972250894141000,4.608140869140625,0.3045250177383423,2.518918037414551,1.376207947731018
1758972250904099000,4.61809912109375,0.10181543976068497,2.8390612602233887,2.0443742275238037
1758972250914057000,4.628056884765625,-0.12638524174690247,2.5654449462890625,2.2506797313690186
1758972250924015000,4.63801513671875,-0.27904894948005676,2.086911678314209,2.0499939918518066
1758972250933973000,4.647972900390625,-0.325244665145874,1.5102618932724,1.5862478017807007
1758972250943931100,4.65793115234375,-0.26874199509620667,0.9615691900253296,1.0569119453430176
1758972250953889000,4.667888916015625,-0.11093103140592575,0.4672481119632721,0.610226035118103
1758972250963847200,4.67784716796875,0.10870428383350372,0.02586602419614792,0.34257930517196655
1758972250973805000,4.68780517578125,0.25088807940483093,-0.4544617235660553,0.2763656675815582
1758972250983763000,4.697762939453125,0.30750223994255066,-0.8638421297073364,0.39354658126831055
1758972250993721000,4.70772119140625,0.3162195682525635,-1.1148849725723267,0.6132057309150696
1758972251003679000,4.717678955078125,0.29397881031036377,-1.2066972255706787,0.8220603466033936
1758972251013637000,4.72763720703125,0.23066800832748413,-1.2226316928863525,0.9263404011726379
1758972251023595000,4.737594970703125,0.1490127295255661,-1.2117586135864258,0.9109326004981995
1758972251033553200,4.74755322265625,0.07315631210803986,-1.178093433380127,0.8057324290275574
1758972251043510000,4.757510009765625,0.04869362339377403,-1.1090575456619263,0.6524413228034973
1758972251053468000,4.767468017578125,0.0784299448132515,-1.017484188079834,0.5031740665435791
1758972251063426000,4.777426025390625,0.11024072021245956,-0.8991267681121826,0.4022270143032074
1758972251073384000,4.787384033203125,0.10997413843870163,-0.727477490901947,0.3848573565483093
1758972251083342000,4.797342041015625,0.07260613143444061,-0.48119327425956726,0.47476065158843994
1758972251093300200,4.80730029296875,0.022370122373104095,-0.18068964779376984,0.6627787351608276
1758972251103258000,4.817258056640625,-0.027256373316049576,0.11907563358545303,0.9007834792137146
1758972251113216300,4.82721630859375,-0.06045826897025108,0.36315059661865234,1.101542353630066
1758972251123174000,4.837173828125,-0.07528403401374817,0.5450218915939331,1.205925703048706
1758972251133132000,4.847132080078125,-0.08414916694164276,0.6857755184173584,1.202561855316162
1758972251143090000,4.85708984375,-0.10379564762115479,0.8172857761383057,1.1273952722549438
1758972251153048000,4.867048095703125,-0.11450022459030151,0.9869017004966736,1.0461806058883667
1758972251163006000,4.877005859375,-0.09529141336679459,1.211606502532959,1.0144720077514648
1758972251172964000,4.886964111328125,-0.06224477291107178,1.486130714416504,1.0338687896728516
1758972251182922200,4.896922119140625,-0.0346035361289978,1.7603920698165894,1.0566444396972656
1758972251192880000,4.906880126953125,-0.029141394421458244,1.9232572317123413,1.0029345750808716
1758972251202838000,4.916838134765625,-0.049697622656822205,1.8813539743423462,0.8391668200492859
1758972251212796000,4.9267958984375,-0.09582117944955826,1.6104316711425781,0.612769365310669
1758972251222754000,4.936754150390625,-0.14924930036067963,1.2186181545257568,0.4020378589630127
1758972251232712000,4.9467119140625,-0.20471495389938354,0.867000162601471,0.31270718574523926
1758972251242670000,4.956670166015625,-0.260583758354187,0.5879442691802979,0.3200863301753998
1758972251252628000,4.9666279296875,-0.2905283272266388,0.34393376111984253,0.23148219287395477
1758972251262586000,4.976586181640625,-0.30522653460502625,0.09943988174200058,-0.1859367936849594
1758972251272544300,4.986544189453125,-0.3405347168445587,-0.1589357554912567,-0.8632801175117493
1758972251282502100,4.996502197265625,-0.3846953511238098,-0.3039495348930359,-1.4016646146774292
1758972251292460000,5.0064599609375,-0.41570839285850525,-0.2020881325006485,-1.5438624620437622
1758972251302418000,5.01641796875,-0.42885929346084595,-0.006405748426914215,-1.4942432641983032
1758972251312376000,5.0263759765625,-0.4311509430408478,0.006209379993379116,-1.6293163299560547
1758972251322333200,5.036333251953125,-0.39887991547584534,-0.12389743328094482,-2.102604866027832
1758972251332291000,5.046291015625,-0.2954739034175873,-0.27196040749549866,-2.757384777069092
1758972251342249200,5.056249267578125,-0.1622297465801239,-0.4210958480834961,-3.2415683269500732
1758972251352206800,5.066206787109375,-0.07508739829063416,-0.5649912357330322,-3.3493247032165527
1758972251362165000,5.0761650390625,-0.05417856201529503,-0.6469177007675171,-3.169308662414551
1758972251372123000,5.086122802734375,-0.06123034656047821,-0.6317635178565979,-2.91998028755188
1758972251382080300,5.096080322265625,-0.05989950895309448,-0.5004620552062988,-2.691014528274536
1758972251392038400,5.106038330078125,-0.02390103042125702,-0.13531097769737244,-2.4393017292022705
1758972251401996300,5.115996337890625,0.07188159972429276,0.6201713681221008,-2.0952444076538086
1758972251411954400,5.125954345703125,0.15929827094078064,1.6806941032409668,-1.6878553628921509
1758972251421912300,5.135912353515625,0.1596519947052002,2.642726182937622,-1.3876924514770508
1758972251431870200,5.1458701171875,0.009034783579409122,3.2040438652038574,-1.2649444341659546
1758972251441828400,5.155828369140625,-0.1906011551618576,3.154386281967163,-1.244146704673767
1758972251451786200,5.1657861328125,-0.2297070026397705,1.7623285055160522,-1.3505303859710693
1758972251461744400,5.175744384765625,-0.06934571266174316,-0.279183566570282,-1.5581185817718506
1758972251471702300,5.185702392578125,0.22582867741584778,-1.6065925359725952,-1.558511734008789
1758972251481660400,5.195660400390625,0.5409917235374451,-1.9051682949066162,-1.3736350536346436
1758972251491618300,5.205618408203125,0.7361330389976501,-1.49605393409729,-1.202923059463501
1758972251501576400,5.215576416015625,0.7642307281494141,-0.6840142011642456,-1.1470661163330078
1758972251511534300,5.225534423828125,0.6417894959449768,0.06939033418893814,-1.1412646770477295
1758972251521492200,5.2354921875,0.4176549017429352,0.5507134199142456,-1.0860689878463745
1758972251531450400,5.245450439453125,0.15640467405319214,0.67584627866745,-0.9510477781295776
1758972251541408300,5.255408203125,-0.11085521429777145,0.479167103767395,-0.7705036401748657
1758972251551366400,5.265366455078125,-0.2943773865699768,0.19888591766357422,-0.5884262323379517
1758972251561324300,5.27532421875,-0.3761046528816223,-0.022162718698382378,-0.41210290789604187
1758972251571282400,5.285282470703125,-0.4018334746360779,-0.16594198346138,-0.25941455364227295
1758972251581240300,5.295240234375,-0.3970903158187866,-0.20500260591506958,-0.14510850608348846
1758972251591198200,5.3051982421875,-0.3736390471458435,-0.20065951347351074,-0.08186348527669907
1758972251601155300,5.3151552734375,-0.3428269028663635,-0.21890363097190857,-0.04053668677806854
1758972251611113200,5.32511328125,-0.29430916905403137,-0.2827209532260895,-0.018398892134428024
1758972251621071400,5.3350712890625,-0.19639763236045837,-0.33908167481422424,-0.02688460238277912
1758972251631029200,5.345029296875,-0.09800262749195099,-0.3561043441295624,-0.06968532502651215
1758972251640987400,5.3549873046875,-0.0677657201886177,-0.39072731137275696,-0.1217365562915802
1758972251650945500,5.364945556640625,-0.08835248649120331,-0.5010634064674377,-0.1817852407693863
1758972251660903200,5.374903076171875,-0.10405123233795166,-0.6723945140838623,-0.2562424838542938
1758972251670861300,5.384861328125,-0.0701257586479187,-0.8292027711868286,-0.31879347562789917
1758972251680819200,5.394819091796875,0.0408383384346962,-0.9570244550704956,-0.3296278417110443
1758972251690777300,5.40477734375,0.21104469895362854,-1.1709121465682983,-0.2598189115524292
1758972251700735200,5.4147353515625,0.40727174282073975,-1.6994199752807617,-0.04202570393681526
1758972251710693400,5.424693359375,0.5640760064125061,-2.2785725593566895,0.3027260899543762
1758972251720651300,5.4346513671875,0.6101298332214355,-2.588360548019409,0.5995996594429016
1758972251730609400,5.444609375,0.49215394258499146,-2.6608657836914062,0.6845137476921082
1758972251740567300,5.4545673828125,0.25648558139801025,-2.50144100189209,0.34874388575553894
1758972251750525200,5.464525146484375,-0.015969369560480118,-2.0334784984588623,-0.5950742959976196
1758972251760483300,5.4744833984375,-0.29351815581321716,-1.1911541223526,-1.4872989654541016
1758972251770441200,5.484441162109375,-0.21819090843200684,-0.26208263635635376,-1.407796859741211
1758972251780399400,5.4943994140625,0.005476674530655146,0.14797556400299072,-0.7982129454612732
1758972251790357200,5.504357177734375,-0.1704232543706894,0.005348908714950085,-0.3771248161792755
1758972251800315400,5.5143154296875,-0.4837437570095062,-0.09490577131509781,-0.21664707362651825
1758972251810273500,5.5242734375,-0.691820502281189,-0.053080301731824875,-0.012697417289018631
1758972251820231200,5.534231201171875,-0.8637204170227051,-0.049698058515787125,0.4041183590888977
1758972251830189300,5.544189208984375,-0.8967433571815491,0.3334061801433563,0.9008224606513977
1758972251840147200,5.554147216796875,-0.5934705138206482,1.2019096612930298,1.274876356124878
1758972251850105300,5.564105224609375,-0.20000794529914856,1.982701301574707,1.3940056562423706
1758972251860063200,5.574063232421875,-0.09609520435333252,2.2736568450927734,1.3781932592391968
1758972251870021400,5.584021484375,-0.20167621970176697,1.9985249042510986,1.4438377618789673
1758972251879979300,5.593979248046875,-0.3144969940185547,1.633352279663086,1.4938632249832153
1758972251889937400,5.6039375,-0.34838518500328064,1.340532660484314,1.490004062652588
1758972251899894300,5.613894287109375,-0.256963312625885,1.1761980056762695,1.4490605592727661
1758972251909852200,5.62385205078125,-0.05693567544221878,1.1817703247070312,1.3331211805343628
1758972251919810300,5.633810302734375,0.2314801663160324,1.2587432861328125,0.9025041460990906
1758972251929768400,5.6437685546875,0.5453928112983704,1.3742891550064087,0.2548829913139343
1758972251939726300,5.653726318359375,0.7679593563079834,1.4907383918762207,0.056595589965581894
1758972251949684500,5.6636845703125,0.8529794216156006,1.4640343189239502,0.12790705263614655
1758972251959642400,5.673642333984375,0.7926329970359802,1.3065991401672363,0.21627072989940643
1758972251969600300,5.683600341796875,0.6719041466712952,1.067171335220337,0.3131578862667084
1758972251979558100,5.69355810546875,0.5602879524230957,0.6598296165466309,0.4197257459163666
1758972251989516300,5.703516357421875,0.44971007108688354,0.10919970273971558,0.4801749587059021
1758972251999474200,5.71347412109375,0.3337859511375427,-0.4108468294143677,0.4394150376319885
1758972252009432300,5.723432373046875,0.1417238414287567,-0.8438326716423035,0.3834039568901062
1758972252019390500,5.733390380859375,0.02062610536813736,-1.0849038362503052,0.45964524149894714
1758972252029348400,5.743348388671875,0.005393357016146183,-0.9106369614601135,0.7411165833473206
1758972252039306500,5.753306396484375,-0.0015725318808108568,-0.20604681968688965,1.0957493782043457
1758972252049264000,5.76326416015625,-0.006732939276844263,0.6770837903022766,1.3220744132995605
1758972252059222300,5.77322216796875,-0.021664978936314583,1.3591959476470947,1.3743820190429688
1758972252069180200,5.78318017578125,-0.03963146358728409,1.7275995016098022,1.3061960935592651
1758972252079138300,5.79313818359375,-0.08358826488256454,1.7899621725082397,1.19594144821167
1758972252089096200,5.80309619140625,-0.16738168895244598,1.598134160041809,1.1509917974472046
1758972252099054300,5.813054443359375,-0.2339474856853485,1.2547861337661743,1.2214655876159668
1758972252109012500,5.823012451171875,-0.24796903133392334,0.8384064435958862,1.3206926584243774
1758972252118970400,5.832970458984375,-0.18818533420562744,0.4449615776538849,1.337335228919983
1758972252128928500,5.842928466796875,-0.0627637654542923,0.07959001511335373,1.2277839183807373
1758972252138886100,5.85288623046875,0.1216045618057251,-0.22428959608078003,0.993899405002594
1758972252148844300,5.86284423828125,0.29380109906196594,-0.48723331093788147,0.7397941946983337
1758972252158802200,5.87280224609375,0.3888620138168335,-0.7392004728317261,0.5809433460235596
1758972252168760300,5.88276025390625,0.40636831521987915,-0.9423938393592834,0.5644285678863525
1758972252178718200,5.89271826171875,0.3834780752658844,-1.0498632192611694,0.7140988111495972
1758972252188676400,5.90267626953125,0.3491392731666565,-1.0772045850753784,0.9837241768836975
1758972252198633200,5.91263330078125,0.325726717710495,-1.0584303140640259,1.2261087894439697
1758972252208591000,5.922591064453125,0.32821357250213623,-1.013546109199524,1.3146365880966187
1758972252218549200,5.93254931640625,0.3488081097602844,-0.9654414653778076,1.2267557382583618
1758972252228507400,5.94250732421875,0.3678062856197357,-0.9214450120925903,1.018438696861267
1758972252238465300,5.95246533203125,0.37857785820961,-0.8795846700668335,0.7678750157356262
1758972252248423400,5.96242333984375,0.3666200041770935,-0.8346286416053772,0.549723207950592
1758972252258381300,5.97238134765625,0.3293865919113159,-0.7554079294204712,0.41316062211990356
1758972252268339500,5.98233935546875,0.2696468234062195,-0.6185710430145264,0.4038717746734619
1758972252278297300,5.99229736328125,0.188141331076622,-0.4153360426425934,0.5475612878799438
1758972252288255200,6.002255126953125,0.09685776382684708,-0.16414906084537506,0.8195549845695496
1758972252298213000,6.012213134765625,0.018415972590446472,0.051071930676698685,1.1271095275878906
1758972252308171300,6.022171142578125,-0.01252676360309124,0.20039670169353485,1.3567297458648682
1758972252318129400,6.03212939453125,-0.020192084833979607,0.3159668445587158,1.4767825603485107
1758972252328087300,6.04208740234375,-0.01859951578080654,0.45339179039001465,1.4897301197052002
1758972252338045400,6.05204541015625,-0.010864108800888062,0.641322910785675,1.432935357093811
1758972252348003300,6.06200341796875,-0.013462288305163383,0.8602896332740784,1.3197780847549438
1758972252357961500,6.07196142578125,-0.0232229121029377,1.074912667274475,1.1588987112045288
1758972252367919000,6.081919189453125,-0.05164097249507904,1.2396382093429565,0.9845188856124878
1758972252377877200,6.091877197265625,-0.11079175025224686,1.3477847576141357,0.8475384712219238
1758972252387835100,6.101835205078125,-0.22082184255123138,1.3747286796569824,0.788564920425415
1758972252397793000,6.11179296875,-0.34780967235565186,1.3253364562988281,0.7569443583488464
1758972252407751200,6.121751220703125,-0.43652036786079407,1.2576208114624023,0.5492950677871704
1758972252417709000,6.131708984375,-0.42743128538131714,1.1825333833694458,-0.14080151915550232
1758972252427667000,6.1416669921875,-0.39069002866744995,0.9295307993888855,-1.0382201671600342
1758972252437624800,6.151624755859375,-0.4204593598842621,0.47061046957969666,-1.62724769115448
1758972252447583000,6.1615830078125,-0.5494786500930786,-0.21672718226909637,-1.6088356971740723
1758972252457540900,6.171540771484375,-0.5443974137306213,-0.5139368772506714,-1.3426295518875122
1758972252467499000,6.1814990234375,-0.4794253408908844,-0.4343762695789337,-1.1663631200790405
1758972252477457200,6.19145703125,-0.4010503888130188,-0.30853644013404846,-1.5063503980636597
1758972252487415000,6.2014150390625,-0.35949257016181946,-0.23418231308460236,-2.3803391456604004
1758972252497373200,6.211373291015625,-0.3457828760147095,-0.20209228992462158,-3.13415789604187
1758972252507331000,6.2213310546875,-0.33307507634162903,-0.2718322277069092,-3.402285575866699
1758972252517289000,6.2312890625,-0.3293446898460388,-0.41191020607948303,-3.298030138015747
1758972252527246000,6.24124609375,-0.33224302530288696,-0.5493013858795166,-3.0493297576904297
1758972252537204000,6.251203857421875,-0.3256779909133911,-0.5977697968482971,-2.8338091373443604
1758972252547162000,6.261162109375,-0.24069096148014069,-0.4960586428642273,-2.703730583190918
1758972252557120000,6.2711201171875,-0.09442010521888733,-0.189219132065773,-2.579517364501953
1758972252567078100,6.281078125,0.11303561925888062,0.549534797668457,-2.3106465339660645
1758972252577035800,6.291035888671875,0.25316447019577026,1.665809154510498,-1.913135290145874
1758972252586994000,6.300993896484375,0.21026363968849182,2.6694469451904297,-1.5538640022277832
1758972252596952000,6.3109521484375,-0.05089985579252243,3.117302894592285,-1.3867758512496948
1758972252606910000,6.320909912109375,-0.3274925649166107,3.0581109523773193,-1.3433222770690918
1758972252616868000,6.3308681640625,-0.3939949870109558,2.698859691619873,-1.3384983539581299
1758972252626826000,6.340825927734375,-0.30712372064590454,1.2714627981185913,-1.1109589338302612
1758972252636784000,6.3507841796875,-0.07268548011779785,-1.7650372982025146,-1.0852313041687012
1758972252646742000,6.360741943359375,0.19077225029468536,-3.523263454437256,-1.1663706302642822
1758972252656700000,6.370699951171875,0.44368976354599,-3.8183095455169678,-1.2044847011566162
1758972252666658000,6.380657958984375,0.618604302406311,-3.1161937713623047,-1.1482027769088745
1758972252676616000,6.390615966796875,0.5681504607200623,-1.9668227434158325,-1.0616604089736938
1758972252686574000,6.400573974609375,0.31016895174980164,-0.781306266784668,-0.9759480953216553
1758972252696532000,6.410531982421875,-0.05527421832084656,0.187745600938797,-0.8582627177238464
1758972252706490000,6.420489990234375,-0.4113796055316925,0.6382341980934143,-0.6664999723434448
1758972252716448000,6.430447998046875,-0.6475661396980286,0.6460458040237427,-0.4379212260246277
1758972252726406100,6.44040625,-0.7140828967094421,0.4340302050113678,-0.23314493894577026
1758972252736364000,6.450364013671875,-0.6580798625946045,0.1351098269224167,-0.08096446096897125
1758972252746322000,6.460322021484375,-0.5242711901664734,-0.15701816976070404,0.04169328138232231
1758972252756280000,6.470280029296875,-0.3960271179676056,-0.4346308410167694,0.11826859414577484
1758972252766238000,6.480238037109375,-0.29669708013534546,-0.6412961483001709,0.16172020137310028
1758972252776196000,6.490196044921875,-0.2609972655773163,-0.7869875431060791,0.1930696815252304
1758972252786154000,6.500154052734375,-0.2510397136211395,-0.840859055519104,0.2049979716539383
1758972252796112100,6.510112060546875,-0.2678796648979187,-0.8679264187812805,0.17142127454280853
1758972252806070000,6.520070068359375,-0.3721778392791748,-0.9389065504074097,0.12046807259321213
1758972252816028200,6.530028076171875,-0.4726903438568115,-1.070665955543518,0.0325869545340538
1758972252825985800,6.53998583984375,-0.5060794353485107,-1.241011619567871,-0.0804610401391983
1758972252835944000,6.54994384765625,-0.44109421968460083,-1.3956791162490845,-0.16381360590457916
1758972252845902000,6.559902099609375,-0.30724188685417175,-1.5337176322937012,-0.18057608604431152
1758972252855859000,6.56985888671875,-0.14251071214675903,-1.6610214710235596,-0.17594116926193237
1758972252865817000,6.579817138671875,0.04179016500711441,-1.8951536417007446,-0.14924085140228271
1758972252875775000,6.58977490234375,0.2691376805305481,-2.486564874649048,0.01569409668445587
1758972252885733000,6.599733154296875,0.4989490509033203,-3.0634541511535645,0.2968765199184418
1758972252895691000,6.60969091796875,0.6200609803199768,-3.2920122146606445,0.4285097122192383
1758972252905649000,6.61964892578125,0.5210427641868591,-3.1058764457702637,0.18432818353176117
1758972252915607000,6.62960693359375,0.215730220079422,-2.2251174449920654,-0.6242907047271729
1758972252925565000,6.63956494140625,-0.0974801629781723,-0.9614195823669434,-1.336572527885437
1758972252935523000,6.649523193359375,-0.1374957263469696,-0.1935410350561142,-1.2749183177947998
1758972252945481000,6.65948095703125,-0.09919041395187378,-0.1859787255525589,-0.8707455396652222
1758972252955439000,6.669439208984375,-0.24826398491859436,-0.5091638565063477,-0.4763801693916321
1758972252965397000,6.67939697265625,-0.5492339134216309,-0.7928704023361206,-0.06380671262741089
1758972252975355000,6.68935498046875,-0.6786534786224365,-0.7274156212806702,0.4014420509338379
1758972252985313000,6.69931298828125,-0.7360304594039917,-0.44341397285461426,0.7886318564414978
1758972252995271000,6.70927099609375,-0.862291693687439,-0.18751388788223267,1.031861662864685
1758972253005229000,6.71922900390625,-0.8279691338539124,0.35458531975746155,1.147159218788147
1758972253015187000,6.72918701171875,-0.4323112964630127,1.3075644969940186,1.2882609367370605
1758972253025145000,6.73914501953125,-0.11499086022377014,2.1162338256835938,1.4255425930023193
1758972253035103000,6.74910302734375,0.039375826716423035,2.5752997398376465,1.5464402437210083
1758972253045061000,6.75906103515625,0.09557171911001205,2.6833813190460205,1.553019642829895
1758972253055019000,6.76901904296875,0.09779248386621475,2.498548746109009,1.4571751356124878
1758972253064977000,6.778976806640625,0.13697077333927155,2.0817041397094727,1.35158371925354
1758972253074935000,6.78893505859375,0.2596663236618042,1.7245031595230103,1.2096892595291138
1758972253084893000,6.798892822265625,0.44563379883766174,1.5176730155944824,1.05442214012146
1758972253094851000,6.80885107421875,0.5517878532409668,1.3763136863708496,0.9038807153701782
1758972253104809000,6.81880908203125,0.5068123936653137,1.1708811521530151,0.8060364723205566
1758972253114767000,6.82876708984375,0.36990267038345337,0.8916026949882507,0.7564358711242676
1758972253124725000,6.83872509765625,0.32993820309638977,0.5117666721343994,0.7349212765693665
1758972253134683100,6.84868310546875,0.416002482175827,-0.025124745443463326,0.719924807548523
1758972253144641000,6.85864111328125,0.4751523435115814,-0.5839818716049194,0.6821164488792419
1758972253154599000,6.868598876953125,0.4924965798854828,-1.0468190908432007,0.5745036602020264
1758972253164557000,6.87855712890625,0.46319514513015747,-1.306494116783142,0.36029091477394104
1758972253174515000,6.888514892578125,0.42547985911369324,-1.3560307025909424,0.08802612870931625
1758972253184472000,6.89847216796875,0.37090209126472473,-1.3094838857650757,-0.18585442006587982
1758972253194430200,6.90843017578125,0.27431073784828186,-1.0755839347839355,-0.33833572268486023
1758972253204387800,6.918387939453125,0.2796485126018524,0.2537368834018707,0.3258664906024933
1758972253214346000,6.928345947265625,0.3035038709640503,1.6437722444534302,1.3527165651321411
1758972253224303900,6.938303955078125,0.16170254349708557,2.2053885459899902,2.006061553955078
1758972253234262000,6.948261962890625,-0.12584714591503143,2.2265548706054688,2.1662328243255615
1758972253244220000,6.958219970703125,-0.3775142729282379,1.938942790031433,1.9819127321243286
1758972253254178000,6.968177978515625,-0.49000298976898193,1.5395315885543823,1.639823079109192
1758972253264136200,6.97813623046875,-0.4582709074020386,1.206404447555542,1.3154304027557373
1758972253274094000,6.988093994140625,-0.3195672035217285,0.9451013207435608,1.0741276741027832
1758972253284052200,6.99805224609375,-0.13298320770263672,0.6342512965202332,0.8577466011047363
1758972253294009900,7.008009765625,0.05998945236206055,0.17160259187221527,0.6148930788040161
1758972253303968000,7.017968017578125,0.21482163667678833,-0.41265368461608887,0.4282456934452057
1758972253313926000,7.02792578125,0.3156495988368988,-0.966107189655304,0.37856483459472656
1758972253323884000,7.037884033203125,0.3763422667980194,-1.3121337890625,0.4802730679512024
1758972253333842000,7.047842041015625,0.36677128076553345,-1.3982287645339966,0.7252124547958374
1758972253343800000,7.057800048828125,0.3048517107963562,-1.285874843597412,1.0103648900985718
1758972253353758200,7.06775830078125,0.22540383040905,-1.084578275680542,1.200350046157837
1758972253363716000,7.077716064453125,0.1575203835964203,-0.9006979465484619,1.2108277082443237
1758972253373674000,7.087674072265625,0.11693248152732849,-0.8095527291297913,1.0513553619384766
1758972253383634700,7.097634765625,0.10243476927280426,-0.8031619191169739,0.7853929400444031
1758972253393592600,7.107592529296875,0.09891120344400406,-0.8285167813301086,0.5025948882102966
1758972253403550700,7.11755078125,0.0947878286242485,-0.8294070363044739,0.2833203375339508
1758972253413508600,7.127508544921875,0.0891038179397583,-0.7362828254699707,0.19447937607765198
1758972253423466500,7.137466552734375,0.05799037218093872,-0.5119613409042358,0.28387904167175293
1758972253433424400,7.14742431640625,0.005556515417993069,-0.19025346636772156,0.5405642986297607
1758972253443382500,7.157382568359375,-0.0483168363571167,0.10511106997728348,0.85780268907547
1758972253453340400,7.16734033203125,-0.08651979267597198,0.27347424626350403,1.10316002368927
1758972253463298600,7.177298583984375,-0.11684600263834,0.3107316195964813,1.206721305847168
1758972253473256700,7.187256591796875,-0.17111092805862427,0.2871788442134857,1.1694231033325195
1758972253483214600,7.197214599609375,-0.22370941936969757,0.28568243980407715,1.0473777055740356
1758972253493172700,7.2071728515625,-0.21702472865581512,0.3634500503540039,0.9112748503684998
1758972253503130600,7.217130615234375,-0.15985837578773499,0.5174057483673096,0.8152583241462708
1758972253513088500,7.227088623046875,-0.10228729993104935,0.7000879049301147,0.754311203956604
1758972253523045600,7.237045654296875,-0.08365369588136673,0.8104538321495056,0.7033947706222534
1758972253533003500,7.24700341796875,-0.10032713413238525,0.7842757105827332,0.6212186813354492
1758972253542961700,7.256961669921875,-0.1300317645072937,0.6050185561180115,0.49932152032852173
1758972253552919600,7.26691943359375,-0.16388936340808868,0.31013238430023193,0.35746699571609497
1758972253562877700,7.276877685546875,-0.17244689166545868,0.04525038227438927,0.2338329404592514
1758972253572835300,7.28683544921875,-0.14192333817481995,-0.022265132516622543,0.08824872225522995
1758972253582793500,7.29679345703125,-0.0846741646528244,0.18084563314914703,-0.2606685161590576
1758972253592751600,7.306751708984375,-0.10678106546401978,0.44751569628715515,-0.872733473777771
1758972253602709500,7.31670947265625,-0.29560983180999756,0.3579024374485016,-1.3668018579483032
1758972253612667600,7.326667724609375,-0.54225754737854,0.10368307679891586,-1.5854945182800293
1758972253622625500,7.33662548828125,-0.6602217555046082,0.16298635303974152,-1.5807937383651733
1758972253632583700,7.346583740234375,-0.6455941200256348,0.3571244776248932,-1.541824221611023
1758972253642541600,7.35654150390625,-0.5383480787277222,0.3410719931125641,-1.9221673011779785
1758972253652499500,7.36649951171875,-0.4536260664463043,0.05453960970044136,-2.6423306465148926
1758972253662457300,7.376457275390625,-0.39822378754615784,-0.3381991386413574,-3.1945319175720215
1758972253672415500,7.38641552734375,-0.3022525906562805,-0.7250990867614746,-3.317025661468506
1758972253682373600,7.39637353515625,-0.20106446743011475,-1.0283787250518799,-3.1174981594085693
1758972253692331500,7.40633154296875,-0.13723905384540558,-1.170576810836792,-2.823922634124756
1758972253702289700,7.41628955078125,-0.056702934205532074,-1.0623382329940796,-2.605860948562622
1758972253712247600,7.42624755859375,0.07541274279356003,-0.6818877458572388,-2.443908214569092
1758972253722205700,7.436205810546875,0.2880552113056183,0.22417792677879333,-2.1771295070648193
1758972253732163600,7.44616357421875,0.47180408239364624,1.6728399991989136,-1.7790262699127197
1758972253742121500,7.45612158203125,0.5005177855491638,3.1733055114746094,-1.4210225343704224
1758972253752079400,7.466079345703125,0.2627655267715454,4.164523601531982,-1.2456045150756836
1758972253762037500,7.47603759765625,-0.18075519800186157,4.2830963134765625,-1.264260172843933
1758972253771995600,7.48599560546875,-0.5138601064682007,3.490894317626953,-1.3001255989074707
1758972253781953500,7.49595361328125,-0.3947043716907501,0.5080119967460632,-1.5740021467208862
1758972253791911700,7.50591162109375,0.04792806878685951,-1.875928282737732,-1.7264387607574463
1758972253801869600,7.51586962890625,0.4813777804374695,-2.7624354362487793,-1.5639369487762451
1758972253811827700,7.52582763671875,0.7237620949745178,-2.626464605331421,-1.3520383834838867
1758972253821785300,7.535785400390625,0.7205495238304138,-1.8857394456863403,-1.2410467863082886
1758972253831743500,7.545743408203125,0.5481049418449402,-0.9293359518051147,-1.1577603816986084
1758972253841701600,7.55570166015625,0.2879710793495178,-0.23271319270133972,-1.032104730606079
1758972253851658500,7.565658447265625,0.0007225004374049604,0.16709722578525543,-0.839964747428894
1758972253861616600,7.57561669921875,-0.25496038794517517,0.4126608967781067,-0.6261752247810364
1758972253871574500,7.585574462890625,-0.44073814153671265,0.5398255586624146,-0.43019595742225647
1758972253881532700,7.59553271484375,-0.5109497308731079,0.574310302734375,-0.2591043710708618
1758972253891490600,7.605490478515625,-0.5032381415367126,0.5262512564659119,-0.11456812918186188
1758972253901448400,7.615448486328125,-0.4596417248249054,0.41673779487609863,-0.008383102715015411
1758972253911406600,7.625406494140625,-0.4078933000564575,0.2846369743347168,0.057935185730457306
1758972253921364500,7.635364501953125,-0.3549869656562805,0.13797856867313385,0.10288721323013306
1758972253931322600,7.645322509765625,-0.31438302993774414,-0.03319992870092392,0.16578909754753113
1758972253941280500,7.655280517578125,-0.2875082790851593,-0.14752544462680817,0.22483430802822113
1758972253951238700,7.66523876953125,-0.2913990616798401,-0.22420908510684967,0.2644399404525757
1758972253961196500,7.675196533203125,-0.33769598603248596,-0.3732081353664398,0.29294028878211975
1758972253971154400,7.685154541015625,-0.39355775713920593,-0.5962169170379639,0.2828017473220825
1758972253981112600,7.695112548828125,-0.3930642604827881,-0.8750759959220886,0.20219025015830994
1758972253991070500,7.705070556640625,-0.328237920999527,-1.1680188179016113,0.09862545877695084
1758972254001028600,7.715028564453125,-0.20417562127113342,-1.4080471992492676,0.022060377523303032
1758972254010986500,7.724986572265625,-0.02106371708214283,-1.5637654066085815,-0.019587118178606033
1758972254020944600,7.734944580078125,0.15873268246650696,-1.7327852249145508,-0.025001857429742813
1758972254030902500,7.744902587890625,0.3222532272338867,-2.1476361751556396,0.03511963039636612
1758972254040860700,7.754860595703125,0.46097251772880554,-2.875920534133911,0.23063160479068756
1758972254050818600,7.764818603515625,0.46941614151000977,-3.337982654571533,0.3980969786643982
1758972254060776400,7.7747763671875,0.34262755513191223,-3.2541189193725586,0.282780259847641
1758972254070734600,7.784734619140625,0.09627752006053925,-2.4843122959136963,-0.4358399212360382
1758972254080692500,7.7946923828125,-0.18260444700717926,-1.1769928932189941,-1.5215802192687988
1758972254090650600,7.804650634765625,-0.22811681032180786,-0.15564343333244324,-1.839936375617981
1758972254100608500,7.8146083984375,-0.06398326903581619,0.22897322475910187,-1.3908213376998901
1758972254110566700,7.824566650390625,-0.07989173382520676,0.11765825748443604,-0.8027006387710571
1758972254120524500,7.834524658203125,-0.25103017687797546,-0.20601168274879456,-0.3635519742965698
1758972254130482700,7.844482666015625,-0.38645902276039124,-0.4816930592060089,0.025975164026021957
1758972254140440600,7.854440673828125,-0.4926877021789551,-0.648272693157196,0.4129391312599182
1758972254150398500,7.8643984375,-0.6141630411148071,-0.6864547729492188,0.6624438762664795
1758972254160355600,7.87435546875,-0.6798568367958069,-0.5017085671424866,0.741765558719635
1758972254170313500,7.8843134765625,-0.6089417934417725,0.09936967492103577,0.7966512441635132
1758972254180271600,7.894271728515625,-0.26936212182044983,1.2634035348892212,0.9655952453613281
1758972254190229800,7.904229736328125,0.13796477019786835,2.3873813152313232,1.28974187374115
1758972254200187400,7.9141875,0.33819589018821716,2.7755179405212402,1.6545528173446655
1758972254210145500,7.9241455078125,0.3607960641384125,2.5717856884002686,1.9335943460464478
1758972254220103400,7.934103515625,0.34742751717567444,2.139219284057617,2.0117270946502686
1758972254230061600,7.9440615234375,0.3270424008369446,1.5716298818588257,1.7704055309295654
1758972254240019500,7.95401953125,0.3127654790878296,1.1267653703689575,0.8421961665153503
1758972254249977600,7.9639775390625,0.4693618714809418,1.0015360116958618,-0.09003829956054688
1758972254259935700,7.973935791015625,0.7083132266998291,1.168381690979004,-0.3551570475101471
1758972254269893600,7.9838935546875,0.8313466906547546,1.2016535997390747,-0.04237641394138336
1758972254279851800,7.993851806640625,0.7104855179786682,1.0441640615463257,0.434453547000885
1758972254289809400,8.003809326171876,0.4804290235042572,0.905879557132721,0.8762336373329163
1758972254299767600,8.013767578125,0.2738066017627716,0.7612552642822266,1.2109010219573975
1758972254309725400,8.023725341796874,0.17638693749904633,0.5846242308616638,1.4411535263061523
1758972254319683600,8.03368359375,0.1335715651512146,0.31561726331710815,1.5941705703735352
1758972254329641500,8.043641357421874,0.04923830181360245,-0.06497025489807129,1.6285139322280884
1758972254339599600,8.053599609375,-0.03178944066166878,-0.4006617069244385,1.5090285539627075
1758972254349557800,8.063557861328125,-0.10923457145690918,-0.6106866002082825,1.2944998741149902
1758972254359515600,8.073515625,-0.05309593677520752,-0.6548023819923401,0.998479962348938
1758972254369473500,8.0834736328125,0.11172141879796982,-0.5988046526908875,0.6425098776817322
1758972254379431400,8.093431396484375,0.30109134316444397,-0.5148295760154724,0.24998152256011963
1758972254389387000,8.103386962890625,0.49104663729667664,-0.19019927084445953,0.17003501951694489
1758972254399345200,8.11334521484375,0.5225489139556885,0.429968923330307,0.5800228118896484
1758972254409303000,8.123302978515625,0.30280831456184387,0.841282844543457,1.201438069343567
1758972254419261000,8.133260986328125,0.0016460539773106575,0.9576299786567688,1.705241084098816
1758972254429219000,8.143218994140625,-0.19456280767917633,0.9184088110923767,1.9399582147598267
1758972254439177000,8.153177001953125,-0.2847086787223816,0.7826275825500488,1.913316249847412
1758972254449135000,8.163135009765625,-0.31238460540771484,0.6390630006790161,1.7054520845413208
1758972254459093000,8.173093017578125,-0.27006351947784424,0.4925726354122162,1.3985499143600464
1758972254469051100,8.183051025390625,-0.167909637093544,0.2767432630062103,1.0473891496658325
1758972254479008000,8.193008056640625,-0.0397692508995533,-0.04283872991800308,0.7309755086898804
1758972254488966000,8.2029658203125,0.10342127084732056,-0.37373313307762146,0.4973376989364624
1758972254498924000,8.212924072265626,0.20493005216121674,-0.6385940909385681,0.40966668725013733
1758972254508882000,8.2228818359375,0.25562751293182373,-0.7961714267730713,0.4715188145637512
1758972254518840000,8.232840087890626,0.2595444917678833,-0.8610734939575195,0.6360336542129517
1758972254528798200,8.242798095703124,0.2262086421251297,-0.8623406291007996,0.8177957534790039
1758972254538756000,8.252756103515624,0.1910884827375412,-0.8287177085876465,0.9258396625518799
1758972254548714200,8.26271435546875,0.17805340886116028,-0.7888817191123962,0.9168975353240967
1758972254558672000,8.272671875,0.19291572272777557,-0.753261387348175,0.8089622855186462
1758972254568630000,8.282630126953125,0.2264724224805832,-0.7179392576217651,0.652904212474823
1758972254578588000,8.292587890625,0.25438156723976135,-0.6783137917518616,0.5047714710235596
1758972254588546000,8.302546142578125,0.2576238811016083,-0.5904529690742493,0.4231937825679779
1758972254598504200,8.312504150390625,0.22692027688026428,-0.41727104783058167,0.45840317010879517
1758972254608462000,8.322462158203125,0.1692071408033371,-0.17045260965824127,0.6242240071296692
1758972254618420200,8.332420166015625,0.09927039593458176,0.10097116976976395,0.8732075095176697
1758972254628378000,8.342378173828125,0.034792616963386536,0.31998342275619507,1.0952872037887573
1758972254638336000,8.3523359375,-0.009032094851136208,0.44871798157691956,1.2043195962905884
1758972254648294000,8.3622939453125,-0.04425417631864548,0.5008204579353333,1.1778210401535034
1758972254658252000,8.372251953125,-0.06795445084571838,0.5252475142478943,1.0677334070205688
1758972254668210000,8.3822099609375,-0.07512703537940979,0.6018843054771423,0.9580343961715698
1758972254678168000,8.39216796875,-0.08165177702903748,0.7419479489326477,0.8918708562850952
1758972254688126200,8.402126220703124,-0.09574323147535324,0.9208347797393799,0.8481833338737488
1758972254698084000,8.412083984375,-0.1281917244195938,1.0605753660202026,0.7845979928970337
1758972254708042200,8.422042236328124,-0.18460460007190704,1.0913255214691162,0.6731674075126648
1758972254718000000,8.432000244140625,-0.2653639018535614,1.0025732517242432,0.5547211766242981
1758972254727958000,8.4419580078125,-0.36295685172080994,0.8293060660362244,0.4787730574607849
1758972254737916000,8.451916015625,-0.4391099512577057,0.6388943195343018,0.4717995524406433
1758972254747874000,8.4618740234375,-0.46544626355171204,0.5122845768928528,0.5307908654212952
1758972254757832000,8.47183203125,-0.4270016551017761,0.5115681886672974,0.5465493202209473
1758972254767790000,8.4817900390625,-0.3047436475753784,0.70003342628479,0.1614600121974945
1758972254777747200,8.491747314453125,-0.16149327158927917,0.9254891872406006,-0.7394312024116516
1758972254787704800,8.501704833984375,-0.15133848786354065,0.8450793623924255,-1.5671510696411133
1758972254797663000,8.5116630859375,-0.26663151383399963,0.5030841827392578,-1.8937712907791138
1758972254807621000,8.52162109375,-0.43760547041893005,0.16137327253818512,-1.6975672245025635
1758972254817579000,8.5315791015625,-0.49138161540031433,0.2251831442117691,-1.450513243675232
1758972254827537200,8.541537109375,-0.4994739890098572,0.46794411540031433,-1.6880767345428467
1758972254837495000,8.5514951171875,-0.463960200548172,0.5356257557868958,-2.4387013912200928
1758972254847453200,8.561453125,-0.4313885569572449,0.31159672141075134,-3.1324071884155273
1758972254857411000,8.5714111328125,-0.41808021068573,-0.08091247826814651,-3.3969616889953613
1758972254867369200,8.581369140625,-0.41294610500335693,-0.47074517607688904,-3.289560317993164
1758972254877326800,8.591326904296874,-0.3989165723323822,-0.7807208895683289,-3.0280215740203857
1758972254887285000,8.601284912109374,-0.3398143947124481,-0.9508737325668335,-2.783452033996582
1758972254897243100,8.6112431640625,-0.2133837640285492,-0.9425428509712219,-2.5997352600097656
1758972254907201000,8.621200927734375,-0.04093465954065323,-0.6261723041534424,-2.399272918701172
1758972254917159200,8.6311591796875,0.1499367505311966,0.08281365036964417,-2.1157150268554688
1758972254927117000,8.641116943359375,0.3024809956550598,1.1808441877365112,-1.7304588556289673
1758972254937075200,8.6510751953125,0.30447089672088623,2.3433618545532227,-1.3987139463424683
1758972254947033000,8.661033203125,0.11709361523389816,3.045262098312378,-1.2571700811386108
1758972254956991000,8.670990966796875,-0.13453169167041779,3.112835645675659,-1.283739447593689
1758972254966948900,8.680948974609375,-0.25801414251327515,2.2131731510162354,-1.1862307786941528
1758972254976907000,8.690906982421875,-0.16992981731891632,-0.17104941606521606,-1.2874023914337158
1758972254986865200,8.700865234375,0.08697286993265152,-2.015042304992676,-1.3651574850082397
1758972254996823000,8.710822998046876,0.4333992898464203,-2.620532274246216,-1.3579682111740112
1758972255006781200,8.72078125,0.7224560379981995,-2.197603464126587,-1.3234120607376099
1758972255016739000,8.730739013671876,0.8459407091140747,-1.2413074970245361,-1.2837773561477661
1758972255026697200,8.740697265625,0.6969528794288635,-0.38234779238700867,-1.2255595922470093
1758972255036654800,8.75065478515625,0.3951413035392761,0.14721031486988068,-1.0761476755142212
1758972255046613000,8.760613037109374,0.08109758794307709,0.3955370783805847,-0.8210768103599548
1758972255056571000,8.77057080078125,-0.18616287410259247,0.4108997881412506,-0.5559434294700623
1758972255066528000,8.780528076171874,-0.3625001907348633,0.3985948860645294,-0.34973636269569397
1758972255076486100,8.790486083984375,-0.459612101316452,0.39459189772605896,-0.20549345016479492
1758972255086444000,8.800444091796875,-0.4964003562927246,0.3398684859275818,-0.0966663807630539
1758972255096402200,8.810402099609375,-0.4893765449523926,0.24011631309986115,-0.010951211676001549
1758972255106360000,8.820360107421875,-0.4718705117702484,0.1170826256275177,0.05661480128765106
1758972255116318000,8.83031787109375,-0.46746644377708435,-0.012436220422387123,0.10812273621559143
1758972255126276000,8.840276123046875,-0.47239139676094055,-0.1499360054731369,0.14119814336299896
1758972255136234000,8.85023388671875,-0.4616096019744873,-0.26427799463272095,0.15664181113243103
1758972255146192100,8.860192138671875,-0.43452388048171997,-0.3786048889160156,0.14255696535110474
1758972255156150000,8.87014990234375,-0.4147922396659851,-0.502822995185852,0.10326548665761948
1758972255166108200,8.880108154296876,-0.42987820506095886,-0.68339604139328,0.03696266561746597
1758972255176066000,8.890066162109376,-0.42793145775794983,-0.8807094097137451,-0.04292444512248039
1758972255186024000,8.90002392578125,-0.3541423976421356,-1.0529013872146606,-0.10148369520902634
1758972255195982000,8.909982177734374,-0.20851650834083557,-1.1948840618133545,-0.12467130273580551
1758972255205940000,8.91993994140625,-0.014212651178240776,-1.3690180778503418,-0.09745050221681595
1758972255215898000,8.929898193359374,0.20407120883464813,-1.7734867334365845,0.015650484710931778
1758972255225856000,8.93985595703125,0.4230078160762787,-2.3948862552642822,0.2625272870063782
1758972255235814100,8.949814208984375,0.5669695138931274,-2.712244987487793,0.4713619649410248
1758972255245772000,8.95977197265625,0.527511715888977,-2.62795090675354,0.4849865734577179
1758972255255730200,8.969730224609375,0.39072057604789734,-2.238924741744995,0.25250568985939026
1758972255265688000,8.97968798828125,0.15991440415382385,-1.49489426612854,-0.2508043944835663
1758972255275646000,8.98964599609375,-0.09240174293518066,-0.5700585842132568,-0.7928117513656616
1758972255285604000,8.99960400390625,-0.1956091672182083,0.1461273431777954,-0.940532386302948
1758972255295562000,9.00956201171875,-0.1563163548707962,0.4523354768753052,-0.6742306351661682
1758972255305520000,9.01952001953125,-0.22379547357559204,0.403513640165329,-0.30418482422828674
1758972255315478000,9.02947802734375,-0.4267094135284424,-0.004931937903165817,0.020113619044423103
1758972255325436200,9.039436279296876,-0.5362011790275574,-0.4898196756839752,0.26820674538612366
1758972255335393000,9.04939306640625,-0.5279536247253418,-0.857043981552124,0.44987109303474426
1758972255345351000,9.059350830078126,-0.5748993158340454,-1.1366066932678223,0.5667722225189209
1758972255355309000,9.06930908203125,-0.5209742784500122,-0.7176358103752136,0.6544693112373352
1758972255365267000,9.079266845703126,-0.3701576292514801,0.33991771936416626,0.6333373785018921
1758972255375225000,9.08922509765625,-0.27285903692245483,1.4181303977966309,0.5801162719726562
1758972255385183500,9.09918359375,-0.21911831200122833,2.1221187114715576,0.6812319755554199
1758972255395141600,9.1091416015625,-0.1448129266500473,2.522589921951294,0.8053714632987976
1758972255405099500,9.119099609375,-0.08326155692338943,2.761414051055908,0.780634880065918
1758972255415057700,9.1290576171875,0.008162900805473328,2.8773915767669678,0.5882254838943481
1758972255425015800,9.139015869140625,0.28929299116134644,2.738909959793091,0.42852887511253357
1758972255434973700,9.1489736328125,0.6491028070449829,1.9267596006393433,0.2696707844734192
1758972255444931800,9.158931884765625,0.9663971662521362,0.4710816442966461,0.34883591532707214
1758972255454889700,9.1688896484375,1.116723895072937,-0.3622526228427887,0.8709728717803955
1758972255464847600,9.17884765625,1.088005781173706,-0.47329965233802795,1.5454286336898804
1758972255474805500,9.188805419921875,0.8584753274917603,-0.17960305511951447,2.0557358264923096
1758972255484763600,9.198763671875,0.5018377304077148,0.1488693654537201,2.2801592350006104
1758972255494721500,9.208721435546876,0.2038787603378296,0.24940316379070282,2.331294536590576
1758972255504679700,9.2186796875,0.004674132447689772,0.1386428326368332,2.2017080783843994
1758972255514637800,9.228637939453124,-0.10826253890991211,-0.043428435921669006,1.8630449771881104
1758972255524595700,9.238595703125,-0.20983222126960754,-0.2752552926540375,1.3587474822998047
1758972255534553900,9.248553955078124,-0.2661104202270508,-0.4106876850128174,0.7384719848632812
1758972255544511700,9.25851171875,-0.17912431061267853,-0.3849892020225525,0.11264065653085709
1758972255554469600,9.2684697265625,0.006772852502763271,-0.26263028383255005,-0.3734956979751587
1758972255564427500,9.278427490234375,0.22852438688278198,-0.14065220952033997,-0.7148103713989258
1758972255574385700,9.2883857421875,0.46256697177886963,-0.03418728709220886,-0.9435838460922241
1758972255584342800,9.2983427734375,0.6474476456642151,0.07883872091770172,-1.006513237953186
1758972255594300700,9.30830078125,0.6475195288658142,1.4662483930587769,0.5289908051490784
1758972255604258800,9.3182587890625,0.30162033438682556,2.3950116634368896,2.4466145038604736
1758972255614216400,9.328216552734375,-0.07894083857536316,2.518749952316284,3.2768328189849854
1758972255624174600,9.338174560546875,-0.2560615539550781,2.2556958198547363,3.1800971031188965
1758972255634132700,9.3481328125,-0.3065612316131592,1.8188730478286743,2.5545296669006348
1758972255644090600,9.358090576171875,-0.2826682925224304,1.2923043966293335,1.6827267408370972
1758972255654048800,9.368048828125,-0.166964590549469,0.7513222098350525,0.8648461699485779
1758972255664006700,9.378006591796876,0.03414635732769966,0.32934898138046265,0.3492492139339447
1758972255673964800,9.38796484375,0.25780582427978516,-0.03461058810353279,0.2052563726902008
1758972255683922700,9.397922607421876,0.3943867087364197,-0.39457860589027405,0.33951494097709656
1758972255693880800,9.407880859375,0.4351152181625366,-0.6590920686721802,0.6313359141349792
1758972255703838500,9.41783837890625,0.37807297706604004,-0.8092769980430603,0.9590652585029602
1758972255713796600,9.427796630859374,0.278248131275177,-0.852918267250061,1.2063195705413818
1758972255723754800,9.437754638671874,0.2036784291267395,-0.8385899066925049,1.3114370107650757
1758972255733712600,9.447712646484375,0.18693885207176208,-0.8096138834953308,1.2707308530807495
1758972255743670800,9.4576708984375,0.2185353934764862,-0.7763504981994629,1.109510064125061
1758972255753628700,9.467628662109375,0.2510267496109009,-0.7719232439994812,0.8585349917411804
1758972255763586800,9.4775869140625,0.28205597400665283,-0.7802344560623169,0.5915621519088745
1758972255773544700,9.487544677734375,0.3060252070426941,-0.7921355962753296,0.37760409712791443
1758972255783502600,9.497502685546875,0.3081671893596649,-0.7508382797241211,0.26559779047966003
1758972255793460500,9.50746044921875,0.2956961393356323,-0.6048376560211182,0.29350852966308594
1758972255803418600,9.517418701171875,0.27587875723838806,-0.364881694316864,0.45694658160209656
1758972255813376800,9.527376708984375,0.22752268612384796,-0.12863455712795258,0.6888945698738098
1758972255823334700,9.537334716796876,0.14446566998958588,0.01200591865926981,0.8988790512084961
1758972255833291800,9.547291748046876,0.045422449707984924,0.045273326337337494,1.0109078884124756
1758972255843250000,9.55725,-0.027040597051382065,0.030097566545009613,1.0082887411117554
1758972255853207600,9.56720751953125,-0.052129700779914856,0.0484456829726696,0.9303425550460815
1758972255863165700,9.577165771484376,-0.04639529809355736,0.12142334133386612,0.8165004849433899
1758972255873123600,9.58712353515625,-0.023323800414800644,0.2553395926952362,0.7158841490745544
1758972255883081700,9.597081787109374,-0.014622896909713745,0.44669413566589355,0.6642888784408569
1758972255893039600,9.60703955078125,-0.04442792758345604,0.6439741849899292,0.6672452688217163
1758972255902997800,9.616997802734375,-0.10325215756893158,0.800073504447937,0.6928189396858215
1758972255912955600,9.62695556640625,-0.17992563545703888,0.8333851099014282,0.688003420829773
1758972255922913800,9.636913818359375,-0.2646799683570862,0.6917763352394104,0.610646665096283
1758972255932871700,9.64687158203125,-0.3296120762825012,0.4287574589252472,0.40079227089881897
1758972255942829600,9.65682958984375,-0.3390065133571625,0.16673146188259125,-0.016739891842007637
1758972255952787700,9.66678759765625,-0.2681936025619507,-0.04332989826798439,-0.6208925843238831
1758972255962745600,9.67674560546875,-0.2284979224205017,-0.2090153843164444,-1.1373857259750366
1758972255972703700,9.686703857421875,-0.28889256715774536,-0.23740042746067047,-1.2839852571487427
1758972255982661600,9.69666162109375,-0.4888959527015686,-0.20677022635936737,-1.0776325464248657
1758972255992619800,9.706619873046876,-0.6794297099113464,-0.14718599617481232,-0.9953154921531677
1758972256002577700,9.71657763671875,-0.6931588649749756,-0.027499783784151077,-1.2995260953903198
1758972256012535600,9.72653564453125,-0.5485393404960632,0.13591444492340088,-1.866150140762329
1758972256022493700,9.73649365234375,-0.40651652216911316,0.34999918937683105,-2.5528109073638916
1758972256032451600,9.74645166015625,-0.33836624026298523,0.42082515358924866,-3.07700252532959
1758972256042409700,9.75640966796875,-0.29629087448120117,0.26103881001472473,-3.2754952907562256
1758972256052366800,9.766366943359374,-0.26135551929473877,-0.03060423582792282,-3.182675838470459
1758972256062324700,9.77632470703125,-0.2325328141450882,-0.2606976330280304,-2.9261393547058105
1758972256072283000,9.786282958984375,-0.19220590591430664,-0.3472099006175995,-2.680436372756958
1758972256082240500,9.796240478515625,-0.11622965335845947,-0.2963261902332306,-2.5401570796966553
1758972256092198700,9.80619873046875,-0.03816387802362442,-0.03207112103700638,-2.4211080074310303
1758972256102156500,9.816156494140625,0.03004337288439274,0.5440754890441895,-2.2247111797332764
1758972256112114700,9.82611474609375,0.023300515487790108,1.4172008037567139,-1.9491523504257202
1758972256122072600,9.836072509765625,-0.08167783915996552,2.2685811519622803,-1.6939469575881958
1758972256132030700,9.84603076171875,-0.2522498369216919,2.7298474311828613,-1.5579124689102173
1758972256141988900,9.85598876953125,-0.39431488513946533,2.711967706680298,-1.4691758155822754
1758972256151946800,9.86594677734375,-0.36514046788215637,1.6739078760147095,-1.1898653507232666
1758972256161904600,9.875904541015625,-0.20308004319667816,-0.33734023571014404,-1.1169854402542114
1758972256171862500,9.885862548828126,0.00503641227260232,-1.762811303138733,-1.1627310514450073
1758972256181820700,9.895820556640626,0.23725923895835876,-2.1314377784729004,-1.2066576480865479
1758972256191778600,9.905778564453126,0.4569913148880005,-1.647959589958191,-1.2176902294158936
1758972256201736700,9.91573681640625,0.5804818868637085,-0.7221341133117676,-1.2016980648040771
1758972256211694600,9.925694580078124,0.4935035705566406,0.13121725618839264,-1.153088927268982
1758972256221652700,9.93565283203125,0.23392324149608612,0.6091444492340088,-1.0672869682312012
1758972256231611000,9.94561083984375,-0.07099032402038574,0.7367130517959595,-0.913443922996521
1758972256241568500,9.955568603515625,-0.27790382504463196,0.597779393196106,-0.7129425406455994
1758972256251526700,9.965526611328125,-0.38055166602134705,0.3463767170906067,-0.5517544150352478
1758972256261484500,9.975484619140625,-0.39793920516967773,0.058067433536052704,-0.44466090202331543
1758972256271442700,9.985442626953125,-0.34474629163742065,-0.13002444803714752,-0.34834450483322144
1758972256281399800,9.99539990234375,-0.2948389947414398,-0.25599369406700134,-0.24076704680919647
1758972256291357700,10.005357666015625,-0.28016310930252075,-0.3412180542945862,-0.14138266444206238
1758972256301315800,10.01531591796875,-0.26929932832717896,-0.3946242332458496,-0.07180897146463394
1758972256311273500,10.0252734375,-0.2583169937133789,-0.41245728731155396,-0.023709090426564217
1758972256321231600,10.035231689453125,-0.24126198887825012,-0.4062178432941437,0.006401808932423592
1758972256331189800,10.045189697265625,-0.23075048625469208,-0.3948107063770294,0.021701935678720474
1758972256341147600,10.055147705078125,-0.2561291456222534,-0.4609001874923706,0.018842194229364395
1758972256351105800,10.065105712890626,-0.28641486167907715,-0.5853902101516724,-0.005323595833033323
1758972256361063700,10.075063720703126,-0.28015923500061035,-0.811587929725647,-0.04810765013098717
1758972256371021800,10.085021728515626,-0.23631377518177032,-1.098732590675354,-0.08297881484031677
1758972256380979700,10.094979736328124,-0.09453323483467102,-1.3104727268218994,-0.05572115629911423
1758972256390937900,10.104937744140624,0.09349525719881058,-1.4848836660385132,0.052301183342933655
1758972256400895700,10.114895751953124,0.2562755346298218,-1.7342625856399536,0.21763192117214203
1758972256410854000,10.12485400390625,0.3859557807445526,-2.1093316078186035,0.44874876737594604
1758972256420811800,10.134811767578125,0.4989945590496063,-2.396737575531006,0.6605159640312195
1758972256430769700,10.144769775390625,0.5381251573562622,-2.5262279510498047,0.7557263374328613
1758972256440727800,10.154727783203125,0.47378796339035034,-2.5603365898132324,0.6203484535217285
1758972256450685700,10.164685791015625,0.26596951484680176,-2.320326566696167,-0.06542562693357468
1758972256460643800,10.174643798828125,-0.07085788249969482,-1.623231291770935,-1.2263153791427612
1758972256470601700,10.184601806640625,-0.24359369277954102,-0.8273530602455139,-1.7331175804138184
1758972256480558800,10.194558837890625,-0.1412426233291626,-0.17581722140312195,-1.3490735292434692
1758972256490516700,10.204516845703125,-0.11755833029747009,-0.026137985289096832,-0.72760009765625
1758972256500474600,10.214474609375,-0.3631649613380432,-0.2355022430419922,-0.3378560245037079
1758972256510432800,10.224432861328125,-0.5693639516830444,-0.35765424370765686,-0.10095959901809692
1758972256520390700,10.234390625,-0.6672478914260864,-0.3945552408695221,0.19532127678394318
1758972256530348800,10.244348876953126,-0.7135820984840393,-0.30186524987220764,0.5366045832633972
1758972256540306700,10.254306640625,-0.6742739081382751,0.13150568306446075,0.8856180310249329
1758972256550264800,10.264264892578124,-0.472850501537323,1.171462893486023,1.2716337442398071
1758972256560223000,10.274222900390624,-0.10451869666576385,2.4361658096313477,1.6485904455184937
1758972256570180600,10.2841806640625,0.15792757272720337,3.213312864303589,1.9436516761779785
1758972256580138800,10.294138671875,0.1933555155992508,3.328922748565674,2.098374128341675
1758972256590096600,10.3040966796875,0.14996489882469177,2.9571595191955566,2.0762178897857666
1758972256600054800,10.3140546875,0.09418415278196335,2.1330604553222656,1.7413766384124756
1758972256610012700,10.3240126953125,0.06700632721185684,1.197480320930481,0.5371526479721069
1758972256619970800,10.333970703125,0.2924763858318329,0.8370222449302673,-0.33905109763145447
1758972256629928700,10.3439287109375,0.6491373181343079,0.8903490900993347,-0.3832007050514221
1758972256639886800,10.353886962890625,0.8346589803695679,0.8107297420501709,-0.03441416472196579
1758972256649844700,10.3638447265625,0.720036506652832,0.5714551210403442,0.33784276247024536
1758972256659802600,10.373802734375,0.5054625272750854,0.24462376534938812,0.6489342451095581
1758972256669760800,10.3837607421875,0.36888450384140015,-0.09387946128845215,0.8628255128860474
1758972256679718000,10.3937177734375,0.3248993754386902,-0.4777265787124634,0.9592541456222534
1758972256689675800,10.40367578125,0.28491121530532837,-0.9488610625267029,0.9636467695236206
1758972256699634000,10.413634033203126,0.2052878439426422,-1.3517506122589111,0.8780294060707092
1758972256709591800,10.423591796875,0.13115155696868896,-1.611767053604126,0.6745266318321228
1758972256719549700,10.4335498046875,0.12009141594171524,-1.7154467105865479,0.4030899405479431
1758972256729507600,10.443507568359376,0.11999447643756866,-1.6730923652648926,0.0965033769607544
1758972256739465700,10.4534658203125,0.09627379477024078,-1.3942209482192993,-0.10942065715789795
1758972256749423600,10.463423583984374,0.1343764364719391,-0.07413255423307419,0.38584181666374207
1758972256759381800,10.4733818359375,0.10323683172464371,1.2649768590927124,1.084786057472229
1758972256769340000,10.48333984375,-0.05744605138897896,1.8314306735992432,1.6042149066925049
1758972256779297800,10.4932978515625,-0.3080475926399231,1.8413903713226318,1.8474798202514648
1758972256789256000,10.503255859375,-0.4711800515651703,1.5598641633987427,1.8552078008651733
1758972256799213600,10.513213623046875,-0.48187607526779175,1.177966833114624,1.756070852279663
1758972256809171700,10.523171630859375,-0.3945552706718445,0.8498368263244629,1.6518690586090088
1758972256819129600,10.533129638671875,-0.2620082497596741,0.6150120496749878,1.5762401819229126
1758972256829087700,10.543087646484375,-0.1357741802930832,0.4220292866230011,1.475036859512329
1758972256839046000,10.5530458984375,-0.01923176273703575,0.18360820412635803,1.2836021184921265
1758972256849003800,10.563003662109375,0.09900619834661484,-0.1278788447380066,1.0044810771942139
1758972256858962000,10.5729619140625,0.2113572657108307,-0.4675542712211609,0.7330986261367798
1758972256868919800,10.582919921875,0.31390923261642456,-0.7429408431053162,0.5220833420753479
1758972256878878000,10.5928779296875,0.3758815824985504,-0.9230759739875793,0.41892296075820923
1758972256888834800,10.602834716796876,0.3846644163131714,-1.0100806951522827,0.45325642824172974
1758972256898792700,10.612792724609376,0.35840916633605957,-1.0196229219436646,0.595845639705658
1758972256908750800,10.622750732421874,0.3229745030403137,-0.9591337442398071,0.7661324143409729
1758972256918708700,10.632708740234374,0.2878687083721161,-0.8639016151428223,0.8544663190841675
1758972256928667000,10.6426669921875,0.2668353319168091,-0.7931172251701355,0.8133007884025574
1758972256938624800,10.652624755859375,0.27040740847587585,-0.7664746642112732,0.6728000640869141
1758972256948582700,10.662582763671875,0.2739366292953491,-0.7675191760063171,0.4906452000141144
1758972256958540800,10.672540771484375,0.26814281940460205,-0.7612383365631104,0.34023675322532654
1758972256968498700,10.682498779296875,0.2737586498260498,-0.7076365947723389,0.2582004964351654
1758972256978456800,10.692456787109375,0.2841770648956299,-0.5906796455383301,0.27261918783187866
1758972256988414700,10.702414794921875,0.2667706310749054,-0.40311455726623535,0.40906307101249695
1758972256998372900,10.712372802734375,0.2121850699186325,-0.15101493895053864,0.6624593734741211
1758972257008330800,10.722330810546875,0.13620240986347198,0.10860785841941833,0.9687484502792358
1758972257018289000,10.732288818359375,0.0651421844959259,0.3136650025844574,1.2183629274368286
1758972257028246800,10.742246826171876,0.012323974631726742,0.4661445617675781,1.3623381853103638
1758972257038204700,10.75220458984375,-0.01964910887181759,0.6013128757476807,1.414300799369812
1758972257048162800,10.762162841796876,-0.03896688297390938,0.7724846601486206,1.4221256971359253
1758972257058120700,10.77212060546875,-0.051282282918691635,1.0174537897109985,1.4360668659210205
1758972257068078800,10.782078857421874,-0.07327466458082199,1.3072069883346558,1.4602731466293335
1758972257078036700,10.79203662109375,-0.10247448831796646,1.585663080215454,1.4368854761123657
1758972257087993900,10.801993896484374,-0.1332576870918274,1.7324274778366089,1.2905296087265015
1758972257097951700,10.81195166015625,-0.17470110952854156,1.684093713760376,1.0392742156982422
1758972257107909600,10.82190966796875,-0.23640547692775726,1.496838092803955,0.8066808581352234
1758972257117867800,10.83186767578125,-0.308077335357666,1.2607945203781128,0.6957939267158508
1758972257127825700,10.84182568359375,-0.33280959725379944,1.2074679136276245,0.5451064109802246
1758972257137783800,10.85178369140625,-0.27626287937164307,1.2532843351364136,-0.0009647677652537823
1758972257147741700,10.86174169921875,-0.2260788083076477,0.9856600165367126,-0.7810330986976624
1758972257157699800,10.871699951171875,-0.2798745036125183,0.3642200827598572,-1.3993395566940308
1758972257167657700,10.88165771484375,-0.4021700620651245,-0.3046077787876129,-1.6887245178222656
1758972257177616000,10.891615966796875,-0.523483157157898,-0.7864207029342651,-1.5999560356140137
1758972257187573800,10.90157373046875,-0.609488844871521,-1.1529954671859741,-1.2233723402023315
1758972257197531600,10.91153173828125,-0.5521162152290344,-1.2364555597305298,-1.0633043050765991
1758972257207489800,10.92148974609375,-0.4372875988483429,-1.0709505081176758,-1.382585048675537
1758972257217447700,10.93144775390625,-0.31688371300697327,-0.5925660133361816,-2.265587091445923
1758972257227405800,10.94140576171875,-0.22621077299118042,-0.1704954355955124,-3.1223678588867188
1758972257237363700,10.95136376953125,-0.16689708828926086,-0.05848458781838417,-3.492131233215332
1758972257247321900,10.96132177734375,-0.16259314119815826,-0.1754293143749237,-3.4084184169769287
1758972257257280000,10.971280029296874,-0.16425444185733795,-0.3016502559185028,-3.0858285427093506
1758972257267237600,10.981237548828124,-0.14964726567268372,-0.3457929491996765,-2.7692644596099854
1758972257277195800,10.99119580078125,-0.07789836078882217,-0.3115461468696594,-2.567978858947754
1758972257287152600,11.001152587890624,0.012416623532772064,-0.040318913757801056,-2.3740010261535645
1758972257297110800,11.01111083984375,0.06856954842805862,0.5192619562149048,-2.1362857818603516
1758972257307069000,11.02106884765625,0.06176437810063362,1.3905571699142456,-1.845302700996399
1758972257317026800,11.03102685546875,0.010023062117397785,2.3869211673736572,-1.5508097410202026
1758972257326985000,11.04098486328125,-0.07884635776281357,3.035372495651245,-1.3718533515930176
1758972257336942600,11.050942626953125,-0.20595459640026093,3.084933280944824,-1.3466004133224487
1758972257346900700,11.060900634765625,-0.2346845120191574,1.852705717086792,-1.305121660232544
1758972257356858600,11.070858642578125,-0.11250343918800354,-0.6693365573883057,-1.4328911304473877
1758972257366816800,11.080816650390625,0.16193316876888275,-2.3884434700012207,-1.459104299545288
1758972257376775000,11.09077490234375,0.4977978467941284,-2.8980891704559326,-1.3771501779556274
1758972257386732800,11.10073291015625,0.751651406288147,-2.5519638061523438,-1.3114545345306396
1758972257396690400,11.1106904296875,0.841858446598053,-1.6877108812332153,-1.3067409992218018
1758972257406648300,11.1206484375,0.735676109790802,-0.683815598487854,-1.3037114143371582
1758972257416606200,11.130606201171876,0.4882122576236725,0.07612725347280502,-1.235908031463623
1758972257426564000,11.140564208984374,0.18959441781044006,0.5464262962341309,-1.0536305904388428
1758972257436522200,11.150522216796874,-0.08864124864339828,0.7371770739555359,-0.782461941242218
1758972257446480400,11.16048046875,-0.3014219403266907,0.7570536136627197,-0.48799893260002136
1758972257456438300,11.170438232421875,-0.4791729748249054,0.581743061542511,-0.2508662939071655
1758972257466396400,11.180396484375,-0.5791003704071045,0.28327006101608276,-0.07107575237751007
1758972257476353300,11.190353271484375,-0.5999910235404968,-0.08895411342382431,0.0374283567070961
1758972257486311200,11.200311279296875,-0.5453149676322937,-0.39200666546821594,0.07741491496562958
1758972257496269300,11.210269287109375,-0.459492027759552,-0.5935840010643005,0.08506353199481964
1758972257506227200,11.220227294921875,-0.4246216416358948,-0.7301471829414368,0.07460476458072662
1758972257516185300,11.230185302734375,-0.39678317308425903,-0.7381673455238342,0.044718384742736816
1758972257526143200,11.240143310546875,-0.3733859956264496,-0.6826529502868652,0.0031408467330038548
1758972257536101400,11.250101318359375,-0.34789589047431946,-0.6534680724143982,-0.033156681805849075
1758972257546059300,11.260059326171875,-0.3405892252922058,-0.7274512052536011,-0.07479201257228851
1758972257556017400,11.270017333984375,-0.3496137261390686,-0.9190687537193298,-0.1159200519323349
1758972257565975300,11.279975341796876,-0.32990288734436035,-1.1014732122421265,-0.11965486407279968
1758972257575933200,11.28993310546875,-0.24057288467884064,-1.2039790153503418,-0.04267653822898865
1758972257585891300,11.299891357421876,-0.11716119945049286,-1.2894753217697144,0.08600980043411255
1758972257595849200,11.30984912109375,0.02198787033557892,-1.4522435665130615,0.23405025899410248
1758972257605807400,11.319807373046874,0.1886277198791504,-1.7805498838424683,0.41644909977912903
1758972257615765200,11.32976513671875,0.39029625058174133,-2.237584114074707,0.64980149269104
1758972257625723400,11.339723388671874,0.5170283317565918,-2.4877190589904785,0.7850735783576965
1758972257635681300,11.349681396484375,0.5211997032165527,-2.4828574657440186,0.6585607528686523
1758972257645639400,11.359639404296875,0.3015235662460327,-2.0121726989746094,-0.06279666721820831
1758972257655597300,11.369597412109375,-0.012881721369922161,-1.0416477918624878,-1.1661430597305298
1758972257665555200,11.37955517578125,-0.13459670543670654,-0.20160126686096191,-1.5288591384887695
1758972257675512300,11.38951220703125,-0.023679032921791077,0.06389378011226654,-1.0667070150375366
1758972257685470500,11.399470458984375,-0.061402976512908936,-0.15095460414886475,-0.451863557100296
1758972257695428400,11.409428466796875,-0.4273693263530731,-0.5103790163993835,-0.10161073505878448
1758972257705386500,11.419386474609375,-0.7819105982780457,-0.6127485036849976,0.14087939262390137
1758972257715344100,11.42934423828125,-0.8708718419075012,-0.3186556100845337,0.5188424587249756
1758972257725302300,11.43930224609375,-0.7698101997375488,0.35883021354675293,0.9166750311851501
1758972257735260200,11.44926025390625,-0.5651206374168396,1.2483115196228027,1.1424583196640015
1758972257745218300,11.45921826171875,-0.4083440601825714,2.0145537853240967,1.1576370000839233
1758972257755176200,11.46917626953125,-0.37431973218917847,2.3831446170806885,1.199433445930481
1758972257765134300,11.47913427734375,-0.3333246409893036,2.360083818435669,1.2771961688995361
1758972257775092500,11.489092529296874,-0.2657112181186676,2.3131117820739746,1.2767833471298218
1758972257785050400,11.49905029296875,-0.18124215304851532,2.282008171081543,1.241289496421814
1758972257795008500,11.509008544921874,-0.043181393295526505,2.0761890411376953,1.1817800998687744
1758972257804966100,11.518966064453124,0.18074092268943787,1.7723041772842407,1.090962290763855
1758972257814924300,11.52892431640625,0.4456528425216675,1.4600934982299805,0.9575136303901672
1758972257824882200,11.538882080078125,0.6502972841262817,1.2122488021850586,0.8537464737892151
1758972257834840300,11.54884033203125,0.7108685374259949,0.8838523626327515,0.8087529540061951
1758972257844798200,11.558798095703125,0.6909995079040527,0.521813690662384,0.8157325983047485
1758972257854756400,11.56875634765625,0.6231147646903992,0.04720521345734596,0.7737146019935608
1758972257864714500,11.578714599609375,0.5650283098220825,-0.6447359919548035,0.7223182320594788
1758972257874671000,11.588671142578125,0.46174386143684387,-1.303825855255127,0.6003511548042297
1758972257884629200,11.598629150390625,0.33159172534942627,-1.8580877780914307,0.4043126106262207
1758972257894587400,11.60858740234375,0.2544451653957367,-2.2049057483673096,0.16993391513824463
1758972257904545300,11.618545166015625,0.2788650095462799,-2.2819385528564453,-0.09010033309459686
1758972257914503400,11.62850341796875,0.3196694254875183,-2.180314779281616,-0.3195388615131378
1758972257924461300,11.63846142578125,0.2773704528808594,-1.9180585145950317,-0.4829448163509369
1758972257934419500,11.64841943359375,0.24432963132858276,-0.003249707166105509,0.36051568388938904
1758972257944377300,11.65837744140625,0.18398718535900116,1.932334065437317,1.562841534614563
1758972257954335200,11.668335205078124,-0.026914065703749657,2.6698966026306152,2.367029905319214
1758972257964293000,11.678293212890624,-0.3142251968383789,2.661614179611206,2.606673002243042
1758972257974251300,11.688251220703124,-0.531115710735321,2.2373602390289307,2.4072179794311523
1758972257984209400,11.69820947265625,-0.6203877925872803,1.6689401865005493,1.9298806190490723
1758972257994167300,11.708167236328125,-0.5769948959350586,1.137101411819458,1.3794621229171753
1758972258004125400,11.71812548828125,-0.4144320785999298,0.6940150260925293,0.9060994386672974
1758972258014083300,11.728083251953125,-0.17260202765464783,0.33141565322875977,0.5535142421722412
1758972258024041500,11.73804150390625,0.09551038593053818,-0.006658279336988926,0.32422858476638794
1758972258033999000,11.7479990234375,0.2796250879764557,-0.4683072566986084,0.22723054885864258
1758972258043957200,11.757957275390625,0.3960353434085846,-0.9104388356208801,0.230054572224617
1758972258053915100,11.7679150390625,0.4469047784805298,-1.1923339366912842,0.3123615086078644
1758972258063872300,11.777872314453125,0.417337030172348,-1.332364797592163,0.5023846626281738
1758972258073830400,11.787830322265625,0.332708477973938,-1.3820961713790894,0.7764673829078674
1758972258083788300,11.797788330078125,0.2468351274728775,-1.3409708738327026,1.0352669954299927
1758972258093746400,11.807746337890626,0.1998835951089859,-1.2543020248413086,1.1604033708572388
1758972258103704300,11.817704345703126,0.19807717204093933,-1.1902753114700317,1.1091830730438232
1758972258113662200,11.827662109375,0.2236977070569992,-1.1690680980682373,0.9290944337844849
1758972258123620400,11.837620361328124,0.24137017130851746,-1.162803053855896,0.7023981809616089
1758972258133578200,11.847578125,0.23724642395973206,-1.1455706357955933,0.49442872405052185
1758972258143536400,11.857536376953124,0.21107099950313568,-1.0984768867492676,0.3598349690437317
1758972258153494300,11.867494384765624,0.18626534938812256,-0.9704939723014832,0.3422220051288605
1758972258163452400,11.877452392578125,0.15498119592666626,-0.7492827773094177,0.46336761116981506
1758972258173410300,11.887410400390625,0.11472245305776596,-0.452391654253006,0.6946093440055847
1758972258183368200,11.8973681640625,0.06300199776887894,-0.15669448673725128,0.9563776254653931
1758972258193326300,11.907326416015625,-0.0036642546765506268,0.0875687226653099,1.1554553508758545
1758972258203284200,11.9172841796875,-0.08584301173686981,0.2737002670764923,1.2416856288909912
1758972258213242400,11.927242431640625,-0.15751913189888,0.4413662254810333,1.240202784538269
1758972258223200300,11.9372001953125,-0.1767897605895996,0.6320173740386963,1.2149274349212646
1758972258233158400,11.947158447265625,-0.1537906676530838,0.8869125247001648,1.2175085544586182
1758972258243116300,11.9571162109375,-0.12279733270406723,1.1893254518508911,1.254433035850525
1758972258253074400,11.967074462890626,-0.1101452112197876,1.4630250930786133,1.2655459642410278
1758972258263031300,11.97703125,-0.13025741279125214,1.6205835342407227,1.187097430229187
1758972258272989200,11.9869892578125,-0.18085704743862152,1.579769253730774,1.004666805267334
1758972258282947300,11.996947265625,-0.24678467214107513,1.3750598430633545,0.7995321750640869
1758972258292905200,12.0069052734375,-0.283352792263031,1.142539620399475,0.5747865438461304
1758972258302863400,12.01686328125,-0.2372921109199524,0.9687870144844055,0.14200614392757416
1758972258312821500,12.026821533203124,-0.11937916278839111,0.7580974102020264,-0.49350470304489136
1758972258322779400,12.036779296875,-0.031655438244342804,0.38998493552207947,-1.083337664604187
1758972258332737300,12.0467373046875,-0.06939535588026047,-0.08455576002597809,-1.4696991443634033
1758972258342695200,12.056695068359375,-0.21901467442512512,-0.46121594309806824,-1.5875341892242432
1758972258352653300,12.0666533203125,-0.3951586186885834,-0.6271609663963318,-1.3638137578964233
1758972258362611200,12.076611083984375,-0.5479167699813843,-0.7340520024299622,-0.9622625708580017
1758972258372569300,12.0865693359375,-0.5117986798286438,-0.6120593547821045,-0.9038602113723755
1758972258382527200,12.09652734375,-0.3839224576950073,-0.17322076857089996,-1.512068748474121
1758972258392486000,12.10648583984375,-0.29566624760627747,0.31706109642982483,-2.6015331745147705
1758972258402443800,12.11644384765625,-0.28387749195098877,0.5021573901176453,-3.329930067062378
1758972258412402000,12.12640185546875,-0.27253457903862,0.40656164288520813,-3.432898759841919
1758972258422360000,12.136360107421876,-0.24005229771137238,0.17046551406383514,-3.1113059520721436
1758972258432318000,12.14631787109375,-0.18643313646316528,-0.033666156232357025,-2.7095186710357666
1758972258442276000,12.156276123046876,-0.16520561277866364,-0.1808268427848816,-2.454835891723633
1758972258452233000,12.16623291015625,-0.14393143355846405,-0.15858136117458344,-2.3261544704437256
1758972258462190800,12.17619091796875,-0.09192043542861938,0.18116022646427155,-2.204728364944458
1758972258472149000,12.18614892578125,-0.03139003738760948,0.861156702041626,-1.9933282136917114
1758972258482107000,12.19610693359375,-0.022442616522312164,1.8046534061431885,-1.7101447582244873
1758972258492065000,12.20606494140625,-0.09085194766521454,2.6461384296417236,-1.4554985761642456
1758972258502023000,12.21602294921875,-0.26323625445365906,2.974329710006714,-1.3662861585617065
1758972258511980800,12.225980712890625,-0.3993196189403534,2.831216812133789,-1.368005633354187
1758972258521938700,12.235938720703125,-0.3643674850463867,1.7955409288406372,-1.1906943321228027
1758972258531896800,12.245896728515625,-0.20275373756885529,-0.5233418941497803,-1.0982463359832764
1758972258541855000,12.25585498046875,0.010642689652740955,-2.258237361907959,-1.1273176670074463
1758972258551812900,12.265812744140625,0.2661891579627991,-2.8799564838409424,-1.157743215560913
1758972258561771000,12.27577099609375,0.4760505259037018,-2.539578437805176,-1.1821508407592773
1758972258571729000,12.28572900390625,0.5473605394363403,-1.681710124015808,-1.19634211063385
1758972258581687000,12.29568701171875,0.436530202627182,-0.7741871476173401,-1.177828073501587
1758972258591645000,12.30564501953125,0.19588232040405273,-0.08444654941558838,-1.0722240209579468
1758972258601602800,12.315602783203126,-0.07488765567541122,0.3059198558330536,-0.8924580216407776
1758972258611560700,12.325560791015626,-0.2657775580883026,0.43625378608703613,-0.6670718193054199
1758972258621518800,12.335518798828126,-0.37490591406822205,0.3614597022533417,-0.4577969014644623
1758972258631476000,12.34547607421875,-0.4246305525302887,0.20659449696540833,-0.2795526683330536
1758972258641433900,12.355433837890626,-0.43341606855392456,0.0715104416012764,-0.12945984303951263
1758972258651392000,12.36539208984375,-0.4262031316757202,-0.0685325637459755,-0.010984293185174465
1758972258661350000,12.375349853515624,-0.40567547082901,-0.15861345827579498,0.0813421756029129
1758972258671307800,12.385307861328124,-0.3614828288555145,-0.17992644011974335,0.1412164568901062
1758972258681266000,12.395265869140625,-0.3054856061935425,-0.1410815715789795,0.1742391139268875
1758972258691223800,12.405223876953125,-0.26010116934776306,-0.11219972372055054,0.18769168853759766
1758972258701182000,12.415181884765625,-0.2319622039794922,-0.1428724229335785,0.174406498670578
1758972258711139800,12.425139892578125,-0.22627770900726318,-0.24138689041137695,0.11561635136604309
1758972258721098000,12.435097900390625,-0.2582002282142639,-0.46489959955215454,0.03583896532654762
1758972258731055900,12.445055908203125,-0.2752327620983124,-0.7375643253326416,-0.05266059935092926
