time,seconds_elapsed,z,y,x
1758974229788636000,0.045635986328125,7.256974869537353,1.0031704956054688,-0.0005985504150390625
1758974229798593000,0.055593017578125,8.24188957748413,1.2972083869934081,0.8289923248291016
1758974229808550000,0.0655498046875,9.044994596862793,1.2041337974548338,2.0228011276245117
1758974229818507000,0.075507080078125,9.558401215362549,1.1795932304382324,3.005321633911133
1758974229828464000,0.085464111328125,10.244489628601073,1.4674959800720213,3.6177883460998532
1758974229838421000,0.0954208984375,10.92309616165161,1.6328455322265625,4.144662348937988
1758974229848379000,0.10537890625,11.248109037017821,1.5152303756713865,4.740369649505615
1758974229858336000,0.1153359375,10.928483115386962,1.1680711349487305,5.041590145874023
1758974229868293000,0.125293212890625,10.477176102447508,0.9795277542114257,4.243123892211914
1758974229878250000,0.13525,9.72943699645996,0.7953238639831542,3.3731308639526367
1758974229888206800,0.145206787109375,8.786271179962158,0.591816722869873,2.9899089607238767
1758974229898164000,0.1551640625,8.107215734100341,0.5654805046081542,2.352003855895996
1758974229908120800,0.165120849609375,7.518092488098144,0.6925228302001952,1.682824491882324
1758974229918078000,0.175077880859375,7.2532339294433585,0.28969840087890625,1.1394903526306153
1758974229928036000,0.1850361328125,7.518092488098144,-0.5511152946472168,0.9632172554016113
1758974229937992700,0.19499267578125,7.979275582885742,-0.5497685562133788,1.2452841384887694
1758974229947949800,0.20494970703125,7.953238639831542,-0.03067570877075195,2.170194167327881
1758974229957907000,0.214906982421875,7.868394118499755,0.5210381362915039,3.963002297973633
1758974229967864000,0.224864013671875,8.043170839691161,1.1317091972351074,5.193173038482666
1758974229977821000,0.234821044921875,7.564629782867431,1.3048399047851562,5.647921716308593
1758974229987778000,0.244778076171875,7.607276499938965,1.4386159225463866,5.878662901306152
1758974229997735000,0.25473486328125,8.528295951080322,1.9141642272949217,6.9153522201538085
1758974230007692800,0.26469287109375,9.331700245666504,2.156726782989502,7.5737576766967765
1758974230017650000,0.27464990234375,9.337386474609374,1.6202759735107422,6.941987713623046
1758974230027607000,0.28460693359375,9.26975027770996,1.2876315803527831,6.148309863281249
1758974230037564200,0.294564208984375,9.185953219604492,1.0989385620117187,6.08381605606079
1758974230047520800,0.304520751953125,8.493131114196776,0.802506468963623,5.968445463562011
1758974230057478000,0.314477783203125,7.900865478515625,0.03277063522338867,4.445134657287597
1758974230067435000,0.32443505859375,7.459584185028076,-1.3889362380981445,2.5104700782775877
1758974230077392000,0.334391845703125,6.925228302001953,-2.054374662017822,1.716044039916992
1758974230087350000,0.34435009765625,6.312911227416992,-2.4233809928894043,1.121683477783203
1758974230097307000,0.354306884765625,6.209062730407714,-2.51555775680542,2.1709423553466793
1758974230107264000,0.364263916015625,6.15459464263916,-2.6321254501342772,4.032733421325683
1758974230117220900,0.374220947265625,6.32652824935913,-1.8668787445068358,3.5705028633117672
1758974230127178000,0.384177978515625,5.744288333129883,-2.0033482391357422,3.895216463470459
1758974230137135000,0.394135009765625,4.92247861328125,-3.6186861717224117,5.005976396179199
1758974230147092000,0.404092041015625,4.938190561676025,-4.455758927154541,5.480028324890136
1758974230157048800,0.414048828125,5.143792629241943,-4.612728773498535,5.890334634399414
1758974230167007000,0.424007080078125,4.664653022003174,-5.007472772216796,6.878990282440185
1758974230176964000,0.433964111328125,4.013579808044433,-5.578190592956543,8.347833000946045
1758974230186921000,0.4439208984375,4.447528858947754,-4.78795440750122,9.051578651428223
1758974230196878000,0.453878173828125,5.287145453643799,-3.376572528839111,9.477447271728515
1758974230206835000,0.4638349609375,5.738153191375732,-2.3986907882690427,10.459967778015136
1758974230216791800,0.473791748046875,5.768529624938965,-1.9801544105529785,12.254272284698486
1758974230226749000,0.4837490234375,5.5844753723144525,-1.48111300201416,13.693486757659912
1758974230236706000,0.4937060546875,5.6109612281799315,-0.8114847251892089,14.31403390045166
1758974230246664000,0.503663818359375,5.913378825378418,0.12674305038452147,14.541931970977782
1758974230256620800,0.513620849609375,5.966949087524414,0.9151835845947265,14.19282744140625
1758974230266578000,0.523577880859375,5.816413658142089,1.157446865081787,13.281085521697998
1758974230276535000,0.53353515625,5.50292287826538,1.0697592292785645,12.399271122741698
1758974230286492000,0.543491943359375,4.891653266906738,1.1679214973449705,12.72458327331543
1758974230296449000,0.553448974609375,4.138976119995117,1.9346645790100097,13.397503577423095
1758974230306406100,0.56340625,3.0348002418518063,2.821267381286621,13.702764289093016
1758974230316362800,0.57336279296875,1.8269255043029784,3.275716783905029,13.896395348358153
1758974230326321000,0.58332080078125,0.9888052856445312,3.14089330291748,13.185467092895507
1758974230336278000,0.593278076171875,0.5942109245300292,2.6071359703063965,11.805958023834227
1758974230346235100,0.603235107421875,0.23433248748779295,1.7585411193847655,10.318260967254638
1758974230356192000,0.61319189453125,0.29343934097290036,0.6055833824157715,8.812008847808837
1758974230366148900,0.62314892578125,0.38681320571899414,-0.3580827857971191,8.08851103363037
1758974230376106000,0.63310595703125,-0.22026655273437498,-0.5288192916870117,8.11454797668457
1758974230386063600,0.643063720703125,-9.871592720031737,-1.4282909278869629,9.788693487548828
1758974230396020700,0.653020751953125,-20.111593220520017,-3.1063270164489745,10.875062490844726
1758974230405977600,0.6629775390625,-10.398017810058594,-7.900566203308105,12.688071697998046
1758974230415935500,0.672935546875,-1.1692682357788085,-3.254767519378662,4.043656966400146
1758974230425892600,0.682892578125,0.9283516937255859,-0.8607154968261719,-2.3964462242126463
1758974230435849700,0.692849609375,6.185120713806152,-3.5124434730529783,5.233126278686523
1758974230445806600,0.702806640625,4.612429498291015,-3.3105823455810546,12.118850253295898
1758974230455763500,0.712763427734375,-2.0766706649780273,-3.478775012207031,13.874099345397948
1758974230465720600,0.722720458984375,-4.00938995513916,-2.68779063873291,11.726949369049072
1758974230475677400,0.732677490234375,-0.3363853332519531,-1.8965069900512694,8.794501248168945
1758974230485634600,0.742634521484375,4.461744431304932,-2.890250316619873,9.232939427185059
1758974230495592700,0.7525927734375,6.025906303405761,-5.482572164154052,12.624475716400145
1758974230505549600,0.762549560546875,2.023100402832031,-6.351368091583252,14.653112710571289
1758974230515506400,0.77250634765625,-1.5750854171752928,-6.381145974731445,14.82998435821533
1758974230525463600,0.782463623046875,-1.4848539421081541,-4.209754706573486,13.13174719314575
1758974230535420700,0.792420654296875,0.48886605148315426,-3.8802527030944822,12.534094603729248
1758974230545377500,0.80237744140625,3.0288147377014156,-2.506429862976074,12.427702267456054
1758974230555334700,0.812334716796875,1.8351555725097655,-4.983830030822753,11.975796704101562
1758974230565291500,0.82229150390625,0.2498947982788086,-7.8715365081787105,10.958111360931396
1758974230575249700,0.832249755859375,-0.34311902542114253,-9.839719910430908,9.23159268875122
1758974230585206500,0.84220654296875,-0.12554594955444334,-10.071059645843505,7.838915510559081
1758974230595163600,0.85216357421875,0.1753752716064453,-9.771185887908935,7.9390230674743645
1758974230605120800,0.862120849609375,0.13991115951538086,-9.77402900238037,9.1041014503479
1758974230615077400,0.872077392578125,0.13332710494995118,-9.354894074249268,10.670657524108886
1758974230625034500,0.882034423828125,-0.09861118087768554,-7.812728929901122,10.257508100128174
1758974230634991600,0.89199169921875,-1.0070610733032226,-4.314800304412842,6.69718059387207
1758974230644948500,0.901948486328125,-1.588403163909912,-4.765658404541015,6.082170042419433
1758974230654906600,0.91190673828125,-1.2708721687316893,-5.523423229980469,5.925349833679199
1758974230664863500,0.921863525390625,-0.5524620330810547,-5.712265885925293,5.707178207397461
1758974230674820600,0.931820556640625,-0.005835866546630859,-6.606200930786132,6.402993064880371
1758974230684777500,0.941777587890625,-0.10893617553710937,-8.039280261993408,7.057059030914306
1758974230694734600,0.951734619140625,-0.30570962448120115,-9.564985269927979,6.647351271820068
1758974230704691700,0.961691650390625,-0.06913257293701172,-9.884910466766357,6.096385614776611
1758974230714648600,0.971648681640625,-0.015263035583496093,-8.90044467163086,6.600514701843261
1758974230724605400,0.98160546875,-0.9042600395202636,-9.433304178619384,5.980266834259033
1758974230734563600,0.9915634765625,-1.242291386413574,-9.159766638946532,5.646275702667236
1758974230744520700,1.001520751953125,0.6661866119384765,-8.423998541259765,6.039224050140381
1758974230754477600,1.0114775390625,0.08858546142578125,-7.0461354858398435,8.505251760101318
1758974230764434700,1.0214345703125,-2.7308862686157225,-9.873238733673094,7.654262707519531
1758974230774391600,1.0313916015625,1.5215151550292967,-9.682151513671874,4.993406837463379
1758974230784348400,1.041348388671875,0.5364508094787598,-7.308300567626953,6.425289067840576
1758974230794305500,1.051305419921875,-1.0043675964355467,-7.719055789947509,5.136610024261475
1758974230804262700,1.0612626953125,-0.020949264526367185,-9.150638745117186,4.994753575897216
1758974230814220500,1.071220458984375,0.09367313995361327,-7.900566203308105,6.48020606842041
1758974230824177400,1.081177490234375,0.4230255058288574,-6.507140837097167,6.604554917144775
1758974230834134500,1.091134521484375,-0.16011223602294922,-6.069450846099853,5.907842234039307
1758974230844091600,1.101091552734375,-0.7993640792846679,-5.6669256919860835,5.673060833740234
1758974230854048500,1.111048583984375,-0.9814730430603027,-2.858227869415283,5.199906730651855
1758974230864005600,1.121005615234375,-0.9419687156677246,-2.465429159545898,2.6644471725463865
1758974230873962800,1.130962646484375,0.639700756072998,-5.768230349731445,3.2664392524719235
1758974230883919400,1.14091943359375,0.206200617980957,-6.60769730682373,5.408651187896728
1758974230893876500,1.15087646484375,-1.1429320175170898,-5.1237411903381345,6.1261634979248045
1758974230903834600,1.160834716796875,-0.6157587394714356,-4.56484474029541,6.747458828735351
1758974230913791700,1.170791748046875,-0.03127425918579101,-5.098901348114014,7.613262004089355
1758974230923748600,1.18074853515625,-0.3342904067993164,-5.942857433319092,7.745541645812988
1758974230933705500,1.19070556640625,-0.6652887863159179,-7.164498830413818,7.574805139923095
1758974230943662600,1.20066259765625,-0.5861304939270019,-8.201188149261474,7.223456046295166
1758974230953619500,1.210619384765625,-0.4535515769958496,-8.63783067703247,6.704812111663818
1758974230963576600,1.22057666015625,-0.6932710182189941,-8.12711753540039,6.012289281463623
1758974230973533700,1.23053369140625,-0.29882629470825195,-6.732943981170654,5.494393534851074
1758974230983491600,1.24049169921875,-0.32007483444213863,-4.946719905090331,4.585943642425537
1758974230993448400,1.250448486328125,-0.3178302703857422,-3.429095327758789,3.449296404266357
1758974231003405600,1.260405517578125,0.46836569976806636,-3.4693478431701656,2.7117326553344725
1758974231013362700,1.27036279296875,0.9430161788940429,-4.383783239746093,1.8486229568481445
1758974231023319600,1.280319580078125,0.7653963432312011,-7.389853061676025,-1.328632283782959
1758974231033276700,1.290276611328125,0.5882254203796387,-9.721206928253173,-4.614075511932373
1758974231043233500,1.300233642578125,0.9088988052368163,-9.641300447845458,-3.3879449867248534
1758974231053190700,1.310190673828125,0.3387795349121094,-7.688828993988037,-0.17432780838012693
1758974231063147500,1.3201474609375,0.8117840003967285,-6.440103190612793,2.188599592590332
1758974231073105700,1.330105712890625,1.0612298858642577,-7.3192241127014155,3.319111688995361
1758974231083062500,1.3400625,-0.06763619689941405,-7.131728195190429,3.0623335609436033
1758974231093019400,1.350019287109375,2.1531354804992673,-8.834604125976561,2.461837857055664
1758974231102976500,1.3599765625,1.9569605819702147,-11.20411558151245,2.468272274017334
1758974231112933600,1.36993359375,-3.0629321113586423,-20.822820751190186,8.293664188385009
1758974231122890800,1.379890869140625,-7.713519198608398,-41.18595478363037,16.33683502807617
1758974231136582700,1.393582763671875,-0.40402153015136716,-19.042133266448975,14.014609055328368
1758974231146539800,1.403539794921875,0.24181436767578124,-12.566715601348877,13.93739605178833
1758974231156497400,1.413497314453125,1.3991115951538085,-6.457311515045165,11.189301458740234
1758974231166454500,1.42345458984375,2.458695467376709,-3.0424317596435544,6.505045910644531
1758974231176411600,1.43341162109375,2.498199794769287,-5.566518859863281,3.239504483795166
1758974231186368800,1.44336865234375,1.9315221893310546,-8.410082244110107,0.7393594001770019
1758974231196325600,1.45332568359375,1.9370587806701658,-10.123432807159423,-0.9914987625122069
1758974231206282500,1.463282470703125,1.9916765060424804,-10.933121881103515,-2.260575279998779
1758974231216239600,1.473239501953125,1.1284171699523926,-10.595838722229002,-2.5583541114807127
1758974231226196500,1.483196533203125,-0.3598784370422363,-10.798747312927246,-2.6785131072998047
1758974231236153600,1.493153564453125,-1.2173019065856934,-10.845883158111572,-2.468122636413574
1758974231246111700,1.50311181640625,-0.8479963005065917,-10.506654710388183,-1.7152958518981933
1758974231256068600,1.513068603515625,0.05237316131591797,-10.231471157073974,-1.0060136100769042
1758974231266025500,1.523025390625,0.9967360786437988,-10.913668992614745,-0.5921159980773926
1758974231275982600,1.532982666015625,1.7929577682495117,-10.224138914489746,0.36795886764526364
1758974231285939700,1.542939697265625,1.4974235008239745,-10.085724131011963,1.274313833618164
1758974231295896600,1.552896484375,0.5915174476623535,-9.751284086608885,1.615936483001709
1758974231305853700,1.562853759765625,0.3908534210205078,-9.718812726593017,0.7802104660034179
1758974231315810600,1.572810546875,0.330699104309082,-10.011653517150878,-0.33414076919555663
1758974231325768700,1.582768798828125,-0.2380734275817871,-10.040982487487792,-1.060481697845459
1758974231335725600,1.5927255859375,-0.22879589614868162,-10.230722969055176,-1.5224129806518554
1758974231345682700,1.6026826171875,-0.14036007232666015,-10.314968939971923,-1.8707693222045898
1758974231355639800,1.612639892578125,0.4147954376220703,-10.21396355743408,-1.7082628845214842
1758974231365596400,1.622596435546875,1.2927192588806151,-10.230573331451415,-1.209221475982666
1758974231375553500,1.632553466796875,1.7577929313659666,-10.147075548553467,-0.5692214447021484
1758974231385510700,1.6425107421875,2.262670206451416,-9.885808292388916,0.26051906814575193
1758974231395468000,1.652468017578125,2.880673509979248,-9.15482859802246,2.375646597290039
1758974231405425200,1.662425048828125,1.2690765174865721,-7.886799543762207,4.170100741577148
1758974231415383000,1.672383056640625,0.37439328460693355,-7.866448829650879,3.6146459564208984
1758974231425340200,1.682340087890625,0.49470191802978514,-8.034491858673094,1.9981109230041503
1758974231435297000,1.692297119140625,-0.6521206771850585,-8.914360968780517,0.6829460235595702
1758974231445254100,1.702254150390625,-1.529745223236084,-9.894786548614501,-0.004489128112792969
1758974231455211300,1.712211181640625,-0.16879121704101563,-10.262146865844725,-0.44906244888305663
1758974231465168000,1.72216796875,0.9301473449707031,-10.089016158294678,-0.07511807708740234
1758974231475125000,1.732125,0.9308955329895019,-9.53790086364746,0.621145693206787
1758974231485082000,1.74208203125,0.513256980895996,-9.802609784698486,0.5698199951171875
1758974231495039000,1.7520390625,0.18285715179443357,-10.020482135772705,0.3274070770263672
1758974231504997000,1.7619970703125,0.14499883804321287,-10.185233137512206,0.2859574607849121
1758974231514954000,1.7719541015625,0.769286920928955,-10.160842208099364,0.4230255058288574
1758974231524911000,1.7819111328125,1.0037690460205078,-9.935039064025878,0.6316203254699707
1758974231534868000,1.791867919921875,0.7035960128784179,-10.064625228881836,0.656909080505371
1758974231544825000,1.8018251953125,0.5761047744750977,-10.276960988616942,0.665887336730957
1758974231554782200,1.8117822265625,0.7636006919860839,-10.461314516448974,0.9305962577819824
1758974231564739000,1.821739013671875,0.5449801528930663,-10.309731623840332,1.40464818649292
1758974231574696000,1.831696044921875,0.0026934768676757813,-9.96571477279663,1.7534534408569336
1758974231584653000,1.841653076171875,-0.12898761444091797,-9.794379716491699,1.8299182563781737
1758974231594611200,1.851611083984375,-0.11252747802734374,-9.873538008880615,1.2096703887939453
1758974231604568000,1.861568115234375,-0.06868366012573242,-10.274716424560546,0.4499602745056152
1758974231614525200,1.871525146484375,0.43020811080932614,-10.232668257904052,-0.030974983978271482
1758974231624482000,1.88148193359375,0.7010521736145019,-9.714473236083984,-0.14215572357177733
1758974231634439000,1.89143896484375,0.5349544334411621,-8.99546455001831,-0.17866729888916014
1758974231644396000,1.90139599609375,0.3224690361022949,-8.680926306915282,-0.3506009056091308
1758974231654353200,1.911353271484375,0.4688146125793457,-8.749609967041016,-0.5582978996276855
1758974231664310000,1.92131005859375,0.43364977569580077,-8.734646206665039,-0.608426496887207
1758974231674268000,1.931267822265625,0.42931028518676756,-9.021800768280029,-0.6726210289001464
1758974231684225000,1.94122509765625,0.42541970748901364,-9.424924472808838,-0.7311293319702148
1758974231694182100,1.95118212890625,0.4469675224304199,-10.02901147918701,-0.7612064903259277
1758974231704139000,1.961138916015625,0.44367549514770505,-10.20184291152954,-0.4074631950378418
1758974231714096000,1.97109619140625,0.30466216125488277,-9.962572383117676,0.06105214233398437
1758974231724053200,1.98105322265625,0.1714846939086914,-9.814580792999267,0.019901801300048826
1758974231734009900,1.991009765625,0.5098153160095215,-9.925013344573975,-1.3795090690612792
1758974231743967000,2.000967041015625,0.626981559753418,-10.10038861618042,-2.4542063392639157
1758974231753924000,2.010924072265625,1.0245686729431152,-9.08584566268921,-1.8553566490173339
1758974231763882200,2.02088232421875,0.8019079185485839,-8.082675167083739,-0.5735609352111816
1758974231773839000,2.030839111328125,0.25647885284423827,-9.540594340515137,0.2856581855773926
1758974231783796000,2.0407958984375,-0.2041056915283203,-10.531793827819824,1.9292776252746582
1758974231793753000,2.050753173828125,-0.25049334869384765,-11.035773277282715,3.1955110282897947
1758974231803710000,2.0607099609375,0.17372925796508787,-10.184933862304687,4.223371728515625
1758974231813667000,2.0706669921875,0.2672527603149414,-9.769689511871338,4.7472529792785645
1758974231823624200,2.080624267578125,0.4572925170898437,-9.821314485168456,4.780322889709472
1758974231833581300,2.090581298828125,0.9154828598022461,-9.752331549835205,3.6432267387390134
1758974231843539000,2.1005390625,0.9793781166076659,-10.137049829101562,1.6753426116943357
1758974231853496000,2.11049609375,0.6355109031677245,-9.677363110351562,0.7240963645935058
1758974231863453200,2.120453125,0.2145803237915039,-9.570521861267089,0.08394669570922851
1758974231873410000,2.13041015625,0.19692308654785154,-9.72958663406372,-0.16130933685302734
1758974231883367200,2.1403671875,0.3767874862670898,-9.820566297149657,-0.13736732025146484
1758974231893324000,2.150323974609375,0.6619967590332031,-9.99160207824707,-0.05386953735351562
1758974231903281200,2.16028125,0.7621043159484863,-10.047267266845703,0.09501987838745117
1758974231913238000,2.170238037109375,0.7694365585327148,-10.008062214660644,0.229843359375
1758974231923195100,2.180195068359375,0.852335791015625,-9.923068055725096,0.16205752487182618
1758974231933153300,2.1901533203125,0.8755296195983886,-9.84435867614746,0.020051438903808592
1758974231943110000,2.20010986328125,0.9109937316894531,-9.779864868927001,-0.050427872467041016
1758974231953067000,2.21006689453125,0.9847650703430175,-9.738265615081787,-0.03845686416625976
1758974231963024100,2.220024169921875,1.0667664772033691,-9.80051485824585,-0.054767362976074214
1758974231972981200,2.229981201171875,1.1110592079162598,-9.938780004119872,-0.041748891448974604
1758974231982938000,2.239938232421875,1.1324573852539062,-10.124330632781982,-0.0010474632263183592
1758974231992895200,2.249895263671875,1.0883142921447753,-10.263044691467284,0.12569558715820311
1758974232002852000,2.25985205078125,1.0075099861145018,-10.25930375137329,0.3338414939880371
1758974232012809000,2.26980908203125,0.8904933799743652,-10.105925207519531,0.5913678100585937
1758974232022767000,2.27976708984375,0.7827543052673339,-9.874735109710693,0.8351274665832519
1758974232032724200,2.28972412109375,0.7468412803649902,-9.675567459106444,0.9889549232482909
1758974232042681000,2.29968115234375,0.8277952239990234,-9.545382743835448,1.0922048698425293
1758974232052638000,2.309637939453125,0.9587281272888183,-9.464279162597656,1.0863690032958984
1758974232062595000,2.319594970703125,1.068113215637207,-9.40367593307495,1.006163247680664
1758974232072552200,2.32955224609375,1.10447515335083,-9.354894074249268,0.8990227233886718
1758974232082509000,2.339509033203125,1.075146183013916,-9.290100991821289,0.790385823059082
1758974232092466200,2.349466064453125,0.9847650703430175,-9.303568376159667,0.7136217323303222
1758974232102423300,2.35942333984375,0.876577082824707,-9.418340418243409,0.743100340270996
1758974232112381000,2.369380859375,0.8502408645629882,-9.580846855926513,0.845302823638916
1758974232122338000,2.379338134765625,0.8503905021667479,-9.709984107971191,0.9361328491210937
1758974232132295200,2.389295166015625,0.8035539321899413,-9.774777190399169,0.9500491462707519
1758974232142252300,2.399252197265625,0.7704840217590332,-9.80724855041504,0.8813654861450195
1758974232152209200,2.409209228515625,0.7595604766845703,-9.80066449584961,0.7223007133483886
1758974232162166000,2.419166015625,0.7242460021972655,-9.817872820281982,0.5110124168395995
1758974232172123100,2.429123046875,0.6892308029174804,-9.843460850524902,0.35883097381591794
1758974232182080000,2.439080078125,0.6718728408813476,-9.88999814529419,0.2742857276916504
1758974232192037000,2.449037109375,0.6509235763549804,-9.916633638763427,0.21218612213134763
1758974232201995000,2.4589951171875,0.5846341178894042,-9.904662630462646,0.19467852249145506
1758974232211952000,2.4689521484375,0.49545010604858397,-9.857077872467041,0.2127846725463867
1758974232221909000,2.478908935546875,0.40940848388671874,-9.794230078887939,0.29613281784057616
1758974232231866000,2.4888662109375,0.3447650390625,-9.758017778778076,0.38830958175659175
1758974232241823200,2.4988232421875,0.33907881011962887,-9.745448220062256,0.4595370811462402
1758974232251780000,2.508780029296875,0.42242695541381836,-9.74903952255249,0.5363011718749999
1758974232261737200,2.5187373046875,0.5416881256103515,-9.748141696929931,0.572663109588623
1758974232271694000,2.528694091796875,0.6438906089782714,-9.779266318511961,0.5445312400817871
1758974232281651000,2.53865087890625,0.675464143371582,-9.809044201660155,0.46791678695678707
1758974232291609000,2.548609130859375,0.6546645164489746,-9.820715934753418,0.41195232315063474
1758974232301566200,2.558566162109375,0.6043862815856933,-9.767145672607422,0.3625719139099121
1758974232311523000,2.568523193359375,0.5596446380615234,-9.718663088989258,0.37888241271972656
1758974232321480000,2.57847998046875,0.500537784576416,-9.677812023162842,0.42227731781005856
1758974232331437000,2.58843701171875,0.45594577865600583,-9.679757312011718,0.5077203895568847
1758974232341394200,2.598394287109375,0.5083189399719238,-9.690381581878661,0.6096235977172851
1758974232351351000,2.60835107421875,0.5403413871765136,-9.732579386138916,0.6751648681640625
1758974232361308200,2.61830810546875,0.4955997436523437,-9.810241302490233,0.6587047317504883
1758974232371265300,2.628265380859375,0.44981063690185547,-9.894786548614501,0.5991489654541016
1758974232381223200,2.63822314453125,0.41314942398071286,-9.915286900329589,0.5636848533630371
1758974232391179300,2.64817919921875,0.36526539077758785,-9.906757556915283,0.5508160194396973
1758974232401136400,2.658136474609375,0.39115269622802734,-9.896282924652098,0.5274725532531738
1758974232411093200,2.66809326171875,0.39743747558593745,-9.859920986938477,0.5533598587036133
1758974232421050400,2.67805029296875,0.41195232315063474,-9.841066648864745,0.5523123954772949
1758974232431007500,2.688007568359375,0.44367549514770505,-9.822212310791015,0.5587468124389648
1758974232440964000,2.697964111328125,0.4478653480529785,-9.828946002960205,0.5624877525329589
1758974232450921200,2.707921142578125,0.44322658233642576,-9.78076269454956,0.5434837768554687
1758974232460878300,2.71787841796875,0.42317514343261714,-9.72330185470581,0.5105635040283203
1758974232470836500,2.72783642578125,0.3913023338317871,-9.68529390335083,0.48407764816284177
1758974232480793300,2.73779345703125,0.4138976119995117,-9.679906949615479,0.49724575729370113
1758974232490750200,2.747750244140625,0.44906244888305663,-9.689184481048583,0.5165490081787109
1758974232500707300,2.757707275390625,0.5150526321411133,-9.736918876647948,0.5467758041381836
1758974232510664200,2.767664306640625,0.6106710609436035,-9.791237326812743,0.6126163497924805
1758974232520621300,2.777621337890625,0.6596025573730468,-9.83792425918579,0.6552630668640136
1758974232530578400,2.787578369140625,0.6212953308105469,-9.863063376617431,0.6634931350708008
1758974232540535300,2.797535400390625,0.6151601890563965,-9.788394212341307,0.6838438491821288
1758974232550492200,2.8074921875,0.6109703361511231,-9.714323598480224,0.6860884132385253
1758974232560450300,2.8174501953125,0.5386953735351562,-9.709535195159912,0.6410474945068358
1758974232570407400,2.827407470703125,0.43978491744995113,-9.738864165496826,0.609025047302246
1758974232580364300,2.8373642578125,0.43185412445068355,-9.800365220642089,0.5798457145690917
1758974232590321400,2.8473212890625,0.5033808990478515,-9.820267021942138,0.6055833824157715
1758974232600278300,2.8572783203125,0.5668272430419922,-9.748291334533691,0.620547142791748
1758974232610235100,2.867235107421875,0.5451297904968262,-9.683049339294433,0.619948592376709
1758974232620192300,2.877192138671875,0.5409399375915527,-9.65895768508911,0.5978022270202636
1758974232630149400,2.8871494140625,0.5407902999877929,-9.709385557556152,0.5723638343811035
1758974232640106200,2.897106201171875,0.5374982727050781,-9.814131880187988,0.5738602104187012
1758974232650064100,2.907064208984375,0.5361515342712402,-9.872490545654296,0.5948094749450683
1758974232660021200,2.917021240234375,0.522833787536621,-9.848249253845214,0.6286275733947754
1758974232669978400,2.926978271484375,0.5184942970275879,-9.781510882568359,0.6572083557128906
1758974232679935200,2.936935302734375,0.5168482833862305,-9.721356565856933,0.6208464179992675
1758974232689892400,2.946892333984375,0.48542438659667964,-9.70968483276367,0.5749076736450195
1758974232699849500,2.956849365234375,0.44098201828002925,-9.744101481628418,0.5226841499328613
1758974232709806000,2.96680615234375,0.4531026641845703,-9.779715231323241,0.5307645805358886
1758974232719763200,2.97676318359375,0.44532150878906246,-9.824157599639893,0.5594950004577637
1758974232729720300,2.98672021484375,0.4312555740356445,-9.837026433563231,0.6528688652038573
1758974232739678500,2.996678466796875,0.38037878875732417,-9.85124200592041,0.7044938385009765
1758974232749635300,3.00663525390625,0.32620997619628905,-9.85782606048584,0.7297825935363769
1758974232759592200,3.01659228515625,0.39968203964233395,-9.83897172241211,0.6839934867858887
1758974232769549300,3.02654931640625,0.48677112503051756,-9.783755446624756,0.5895721588134766
1758974232779506200,3.036506103515625,0.45340193939208984,-9.726144969177245,0.4607341819763183
1758974232789463300,3.04646337890625,0.361374813079834,-9.709385557556152,0.3688566932678222
1758974232799420400,3.05642041015625,0.2967313682556152,-9.74335329360962,0.3389291725158691
1758974232809377300,3.066377197265625,0.27398645248413084,-9.798569569396973,0.3708019821166992
1758974232819334100,3.076334228515625,0.3060088996887207,-9.797671743774414,0.46671968612670894
1758974232829291300,3.086291259765625,0.35134909362792965,-9.785700735473633,0.5889736083984375
1758974232839249400,3.09624951171875,0.38247371520996093,-9.791686239624022,0.6661866119384765
1758974232849206300,3.106206298828125,0.47270519027709956,-9.803657247924804,0.6720224784851074
1758974232859163400,3.116163330078125,0.5636848533630371,-9.822062673187256,0.6025906303405761
1758974232869120300,3.126120361328125,0.6051344696044921,-9.82505542526245,0.4465186096191406
1758974232879077000,3.1360771484375,0.6353612655639648,-9.820566297149657,0.24555530776977538
1758974232889034200,3.1460341796875,0.5889736083984375,-9.785251822662353,0.08080430603027343
1758974232898991400,3.155991455078125,0.4837783729553222,-9.722553666687011,-0.012419921112060545
1758974232908948500,3.165948486328125,0.4251204322814941,-9.62753378829956,-0.06329670639038086
1758974232918905300,3.1759052734375,0.30795418853759765,-9.690531219482422,-0.06479308242797852
1758974232928863200,3.18586328125,0.17477672119140625,-9.733626849365233,0.02079962692260742
1758974232938820400,3.1958203125,0.1222539222717285,-9.849446354675292,0.09666589202880858
1758974232948777200,3.205777099609375,0.0900818374633789,-9.910797772216796,0.24779987182617186
1758974232958734300,3.215734375,0.1619078872680664,-9.8955347366333,0.5054758255004882
1758974232968691500,3.22569140625,0.3097498397827148,-9.757269590759277,0.8462006492614745
1758974232978648000,3.23564794921875,0.4604349067687988,-9.64668740158081,1.1188403633117676
1758974232988605200,3.245605224609375,0.5687725318908691,-9.625588499450682,1.1743559143066407
1758974232998562300,3.255562255859375,0.5217863243103027,-9.6273841506958,1.0389338829040526
1758974233008519400,3.26551953125,0.36631285400390623,-9.650877254486083,0.7835024932861328
1758974233018476300,3.275476318359375,0.2925415153503418,-9.707739543914794,0.5181950218200684
1758974233028434200,3.28543408203125,0.1967734489440918,-9.80066449584961,0.40132805328369137
1758974233038391300,3.295391357421875,0.11028291397094726,-9.881768077087402,0.40013095245361324
1758974233048348200,3.30534814453125,0.06105214233398437,-9.935487976837157,0.4472667976379394
1758974233058305300,3.31530517578125,0.09427169036865234,-9.887603943634033,0.5556044227600098
1758974233068262400,3.325262451171875,0.17971476211547852,-9.848099616241454,0.6941688438415526
1758974233078219500,3.335219482421875,0.2657563842773437,-9.769539874267577,0.7637503295898437
1758974233088176000,3.345176025390625,0.36376901473999024,-9.673322895050049,0.7749731498718261
1758974233098133200,3.35513330078125,0.45295302658081055,-9.63441711807251,0.7306804191589356
1758974233108090400,3.36509033203125,0.45594577865600583,-9.652672905731201,0.6808510971069336
1758974233118048300,3.37504833984375,0.4403834678649902,-9.765948571777344,0.6750152305603027
1758974233128005400,3.38500537109375,0.44367549514770505,-9.830143103790283,0.7077858657836914
1758974233137962200,3.394962158203125,0.462230558013916,-9.849147079467773,0.7248445526123046
1758974233147919400,3.40491943359375,0.47016135101318357,-9.80665,0.7158662963867187
1758974233157876200,3.414876220703125,0.4469675224304199,-9.750386260986328,0.6338648895263671
1758974233167833300,3.424833251953125,0.4418798439025879,-9.74245546798706,0.5541080467224121
1758974233177790500,3.43479052734375,0.4504091873168945,-9.774777190399169,0.517746109008789
1758974233187747300,3.444747314453125,0.423923331451416,-9.796175367736815,0.5503671066284179
1758974233197704200,3.4547041015625,0.37289690856933594,-9.802011234283446,0.5934627365112304
1758974233207661300,3.464661376953125,0.2645592834472656,-9.785102185058593,0.6379051048278809
1758974233217619500,3.474619384765625,0.15337854385375976,-9.719860189819336,0.7003039855957031
1758974233227576300,3.484576416015625,0.15397709426879883,-9.649380878448486,0.8078934226989746
1758974233237533400,3.494533447265625,0.27129297561645505,-9.591471125793456,0.9060556907653808
1758974233247490300,3.504490234375,0.3119944038391113,-9.649380878448486,0.9383774131774901
1758974233257447200,3.514447265625,0.3280056274414062,-9.767594585418701,0.9382277755737304
1758974233267404300,3.524404296875,0.33907881011962887,-9.867702142333984,0.9478045822143554
1758974233277361400,3.534361328125,0.38142625198364255,-9.941772756195068,0.9650129066467285
1758974233287318300,3.544318359375,0.4444236831665039,-9.909151758575439,0.9171288734436035
1758974233297275400,3.554275390625,0.4700117134094238,-9.83777462158203,0.8032546569824218
1758974233307233300,3.5642333984375,0.45295302658081055,-9.769240599060058,0.6428431457519531
1758974233317190400,3.5741904296875,0.48288054733276364,-9.730783734893798,0.47554830474853516
1758974233327147300,3.584147216796875,0.5166986457824707,-9.71028338317871,0.388159944152832
1758974233337104400,3.5941044921875,0.4848258361816406,-9.699659113311768,0.4282628219604492
1758974233347061500,3.6040615234375,0.4332008628845215,-9.709385557556152,0.5588964500427246
1758974233357018000,3.61401806640625,0.3736450965881347,-9.714622873687743,0.7023989120483398
1758974233366975200,3.623975341796875,0.35718496017456053,-9.694870709991454,0.8547299926757812
1758974233376932400,3.633932373046875,0.3420715621948242,-9.730783734893798,0.992097312927246
1758974233386889200,3.64388916015625,0.3184288208007812,-9.782707983398437,1.070058504486084
1758974233396847000,3.65384716796875,0.28206688308715816,-9.796773918151855,1.0911574066162109
1758974233406805000,3.663804931640625,0.2829647087097168,-9.78166052017212,1.0832266136169433
1758974233416762000,3.67376220703125,0.21443068618774414,-9.772083713531494,1.0931026954650878
1758974233426719200,3.68371923828125,0.18031331253051758,-9.770587337493897,1.0524012672424317
1758974233436676000,3.693676025390625,0.18734627990722655,-9.752780462646484,0.9736918876647949
1758974233446633200,3.70363330078125,0.1927332336425781,-9.740360541534423,0.8994716361999511
1758974233456590000,3.713590087890625,0.18644845428466797,-9.752780462646484,0.8387187690734863
1758974233466547000,3.723546875,0.21966800231933592,-9.751732999420165,0.8126818260192871
1758974233476504000,3.733504150390625,0.28580782318115233,-9.738564890289306,0.8218097198486327
1758974233486461200,3.743461181640625,0.32172084808349605,-9.746196408081055,0.8432078971862792
1758974233496418000,3.75341796875,0.33758243408203126,-9.756970315551758,0.8807669357299804
1758974233506376000,3.7633759765625,0.35523967132568357,-9.76789386062622,0.9452607429504394
1758974233516333000,3.7733330078125,0.3672106796264648,-9.791087689208984,0.9994295555114745
1758974233526290200,3.783290283203125,0.39579146194458004,-9.791386964416503,1.0369885940551757
1758974233536247000,3.7932470703125,0.3847182792663574,-9.768791686248779,0.9938929641723632
1758974233546204200,3.8032041015625,0.40057986526489253,-9.74245546798706,0.9160814102172851
1758974233556161300,3.813161376953125,0.4213794921875,-9.741108729553222,0.8828618621826171
1758974233566118000,3.823117919921875,0.44262803192138667,-9.730933372497558,0.8904933799743652
1758974233576075000,3.833074951171875,0.4734533782958984,-9.719860189819336,0.9006687370300293
1758974233586032000,3.8430322265625,0.46507367248535153,-9.737218151855469,0.8967781593322753
1758974233595989000,3.852989013671875,0.46582186050415036,-9.788693487548828,0.8604162216186523
1758974233605947100,3.862947021484375,0.4740519287109375,-9.800365220642089,0.8551789054870605
1758974233615904000,3.872904052734375,0.47554830474853516,-9.802909059906005,0.843956085205078
1758974233625861000,3.882861083984375,0.4852747489929199,-9.775675016021728,0.8128314636230468
1758974233635818000,3.89281787109375,0.500537784576416,-9.731980835723876,0.7796119155883788
1758974233645775000,3.902775146484375,0.48063598327636714,-9.731382285308838,0.7414543266296386
1758974233655732200,3.912732177734375,0.4586392555236816,-9.737667064666747,0.7550713485717773
1758974233665689000,3.922689208984375,0.42018239135742186,-9.727192432403564,0.7965209648132324
1758974233675646000,3.93264599609375,0.3468599655151367,-9.744251119232176,0.8717886795043944
1758974233685603000,3.94260302734375,0.3324947555541992,-9.769839149475096,0.9846154327392578
1758974233695560000,3.952559814453125,0.3799298759460449,-9.763853645324707,1.032948378753662
1758974233705518000,3.96251806640625,0.4026747917175293,-9.746046770477294,1.0319009155273438
1758974233715475200,3.97247509765625,0.39594109954833984,-9.72958663406372,0.9572317512512206
1758974233725432000,3.98243212890625,0.38756139373779297,-9.735123225402832,0.8909422927856445
1758974233735389000,3.992388916015625,0.36571430358886714,-9.72913772125244,0.853532891845703
1758974233745346000,4.002345947265625,0.32396541213989255,-9.746794958496093,0.8336310905456542
1758974233755303200,4.01230322265625,0.26007015533447264,-9.776872116851806,0.7909843734741211
1758974233765260000,4.022260009765625,0.2602197929382324,-9.791087689208984,0.7986158912658691
1758974233775217200,4.032217041015625,0.3003226707458496,-9.788693487548828,0.8457517364501953
1758974233785174000,4.042174072265625,0.34970307998657224,-9.738265615081787,0.9105448188781737
1758974233795131100,4.052131103515625,0.46582186050415036,-9.715221424102783,0.9412205276489257
1758974233805089000,4.062089111328125,0.5475239921569824,-9.701005851745604,0.9205705383300781
1758974233815046100,4.072046142578125,0.5012859725952148,-9.756371765136718,0.8783727340698242
1758974233825003300,4.082003173828125,0.42811318435668944,-9.803208335113524,0.8421604339599609
1758974233834960000,4.0919599609375,0.4326023124694824,-9.805901811981201,0.8372223930358886
1758974233844917000,4.1019169921875,0.47719431838989257,-9.764901108551024,0.8515876029968261
1758974233854874000,4.1118740234375,0.5280711036682129,-9.750086985778808,0.8316858016967773
1758974233864831200,4.121831298828125,0.5635352157592773,-9.746944596099853,0.7582137382507323
1758974233874788000,4.1317880859375,0.5044283622741699,-9.770736975097655,0.6777087074279785
1758974233884745200,4.1417451171875,0.41883565292358393,-9.814730430603026,0.6346130775451659
1758974233894702000,4.1517021484375,0.36960488128662106,-9.83837317199707,0.6265326469421386
1758974233904660000,4.161659912109375,0.38830958175659175,-9.843311212921142,0.6880337020874023
1758974233914617000,4.1716171875,0.4326023124694824,-9.813982242584228,0.736067372894287
1758974233924574200,4.18157421875,0.4860229370117187,-9.781810157775878,0.7640496047973633
1758974233934531300,4.19153125,0.5199906730651855,-9.790788414001463,0.7728782234191894
1758974233944488000,4.201488037109375,0.4969464820861816,-9.788693487548828,0.7451952667236328
1758974233954445000,4.211445068359375,0.4462193344116211,-9.776722479248047,0.7026981872558593
1758974233964402200,4.221402099609375,0.3842693664550781,-9.756222127532958,0.6730699417114258
1758974233974359000,4.231359130859375,0.36002807464599607,-9.751583361816406,0.7122749938964843
1758974233984316200,4.241316162109375,0.3993827644348144,-9.724050042724608,0.7589619262695312
1758974233994273300,4.251273193359375,0.44487259597778317,-9.713425772857665,0.821660082244873
1758974234004231200,4.261231201171875,0.508169302368164,-9.733776486968994,0.8348281913757324
1758974234014188000,4.27118798828125,0.505625463104248,-9.745298582458496,0.8405144203186035
1758974234024145200,4.281145263671875,0.4740519287109375,-9.749787710571288,0.7986158912658691
1758974234034102300,4.291102294921875,0.41808746490478516,-9.766547122192382,0.7748235122680663
1758974234044059100,4.30105908203125,0.36795886764526364,-9.785551097869872,0.7691372833251953
1758974234054016000,4.31101611328125,0.3682581428527832,-9.781361244964598,0.7698854713439941
1758974234063973000,4.32097314453125,0.3667617668151855,-9.765649296569825,0.7583633758544921
1758974234073930000,4.330929931640625,0.35314474487304687,-9.777919580078125,0.7499836700439453
1758974234083887000,4.34088720703125,0.3736450965881347,-9.790339501190186,0.7026981872558593
1758974234093844200,4.35084423828125,0.40566754379272457,-9.784204359436034,0.679953271484375
1758974234103802000,4.360802001953125,0.45055882492065424,-9.771036250305174,0.6721721160888672
1758974234113759000,4.370759033203125,0.47270519027709956,-9.744101481628418,0.6696282768249512
1758974234123716000,4.380716064453125,0.4682160621643066,-9.732729023742674,0.6498761131286621
1758974234133673200,4.390673095703125,0.4522048385620117,-9.728090258026123,0.653766690826416
1758974234143630000,4.400630126953125,0.40402153015136716,-9.734674312591553,0.6386532928466796
1758974234153587200,4.410587158203125,0.3904045082092285,-9.753229375457764,0.650624301147461
1758974234163544000,4.4205439453125,0.371550170135498,-9.787646024322509,0.6718728408813476
1758974234173501000,4.4305009765625,0.36212300109863277,-9.784503634643555,0.6832452987670898
1758974234183458000,4.4404580078125,0.34611177749633787,-9.802310509490967,0.6980594215393066
1758974234193415200,4.450415283203125,0.35778351058959956,-9.789142400360106,0.6582558189392089
1758974234203372000,4.4603720703125,0.37140053253173827,-9.7806130569458,0.6247369956970215
1758974234213330000,4.470329833984375,0.36391865234375,-9.760112705230712,0.611568886566162
1758974234223287000,4.480287109375,0.33309330596923825,-9.780912332153319,0.5992986030578613
1758974234233244200,4.490244140625,0.3520972816467285,-9.789740950775146,0.5895721588134766
1758974234243201000,4.500200927734375,0.3947439987182617,-9.80620108718872,0.6123170745849609
1758974234253158100,4.510158203125,0.3742436470031738,-9.791686239624022,0.66394204788208
1758974234263115300,4.520115234375,0.34880525436401366,-9.770138424682617,0.6937199310302734
1758974234273072000,4.530072021484375,0.36691140441894526,-9.73527286300659,0.7302315063476562
1758974234283029000,4.540029052734375,0.39115269622802734,-9.727042794799804,0.7570166374206543
1758974234292986000,4.549986083984375,0.39968203964233395,-9.731681560516357,0.7586626510620117
1758974234302943000,4.55994287109375,0.38052842636108397,-9.74844097213745,0.750133307647705
1758974234312901000,4.569901123046875,0.3555389465332031,-9.73661960144043,0.7472901931762694
1758974234322858000,4.57985791015625,0.37454292221069335,-9.757568865966796,0.7558195365905761
1758974234332815000,4.589815185546875,0.36317046432495115,-9.778667768096923,0.821061531829834
1758974234342772000,4.59977197265625,0.37454292221069335,-9.766846397399902,0.8735843307495117
1758974234352729000,4.60972900390625,0.37409400939941406,-9.773430451965332,0.9392752388000488
1758974234362686200,4.619686279296875,0.3815758895874023,-9.74200655517578,0.9735422500610351
1758974234372643000,4.62964306640625,0.41853637771606444,-9.701005851745604,0.9648632690429687
1758974234382600200,4.63960009765625,0.44412440795898434,-9.719560914611815,0.9181763366699218
1758974234392556500,4.649556640625,0.4493617240905761,-9.747243871307372,0.8249521095275878
1758974234402513200,4.65951318359375,0.4649240348815918,-9.767295310211182,0.7785644523620605
1758974234412470300,4.66947021484375,0.4369418029785156,-9.777919580078125,0.74055650100708
1758974234422428400,4.679428466796875,0.4257189826965332,-9.783306533813477,0.7368155609130859
1758974234432385500,4.689385498046875,0.4263175331115722,-9.768642048645019,0.7350199096679687
1758974234442342400,4.69934228515625,0.4493617240905761,-9.733626849365233,0.7492354820251464
1758974234452299300,4.70929931640625,0.48722003784179685,-9.71013374557495,0.7827543052673339
1758974234462256400,4.71925634765625,0.5077203895568847,-9.74290438079834,0.7863456077575683
1758974234472213200,4.729213134765625,0.5199906730651855,-9.783605809020996,0.7636006919860839
1758974234482170400,4.73917041015625,0.5316624061584473,-9.792135152435302,0.7627028663635254
1758974234492127500,4.74912744140625,0.510114591217041,-9.771335525512695,0.7830535804748535
1758974234502084400,4.75908447265625,0.519092847442627,-9.760411980438231,0.7700351089477538
1758974234512041200,4.769041259765625,0.5442319648742675,-9.750386260986328,0.7643488800048828
1758974234521999400,4.778999267578125,0.5409399375915527,-9.748291334533691,0.7333738960266113
1758974234531956500,4.78895654296875,0.5051765502929687,-9.756970315551758,0.6736684921264648
1758974234541913300,4.798913330078125,0.4670189613342285,-9.783755446624756,0.6596025573730468
1758974234552492300,4.8094921875,0.47105917663574215,-9.798120656585693,0.6667851623535156
1758974234562449400,4.819449462890625,0.44861353607177734,-9.770886612701416,0.6916250045776366
1758974234572406300,4.82940625,0.4282628219604492,-9.753079737854003,0.6826467483520507
1758974234582363400,4.83936328125,0.4352957893371582,-9.759963067626952,0.6708253776550293
1758974234592321300,4.8493212890625,0.40925884628295894,-9.796624280548095,0.6832452987670898
1758974234602278100,4.859278076171875,0.4321533996582031,-9.797971018981933,0.7246949150085449
1758974234612235300,4.8692353515625,0.41629181365966794,-9.781959795379638,0.7493851196289062
1758974234622192400,4.8791923828125,0.40611645660400386,-9.753827925872802,0.7176619476318359
1758974234632149500,4.8891494140625,0.38531682968139647,-9.756222127532958,0.6742670425415038
1758974234642106400,4.8991064453125,0.38621465530395505,-9.760860893249511,0.6519710395812988
1758974234652063500,4.9090634765625,0.37708676147460934,-9.78016414413452,0.6554127044677734
1758974234662020400,4.919020263671875,0.40357261734008787,-9.78166052017212,0.7109282554626465
1758974234671977200,4.928977294921875,0.41150341033935545,-9.802609784698486,0.7442974411010742
1758974234681934300,4.938934326171875,0.43798926620483397,-9.807697463226317,0.7468412803649902
1758974234691891500,4.948891357421875,0.4613327323913574,-9.80066449584961,0.7504325828552245
1758974234701849300,4.958849365234375,0.49365445480346676,-9.79961703262329,0.6928221054077148
1758974234711806200,4.96880615234375,0.49111061553955077,-9.779266318511961,0.6374561920166015
1758974234721763300,4.978763427734375,0.5114613296508789,-9.756970315551758,0.6109703361511231
1758974234731720400,4.988720458984375,0.538845011138916,-9.72300257949829,0.5997475158691405
1758974234741677300,4.99867724609375,0.5493196434020996,-9.69846201248169,0.6049848320007324
1758974234751634400,5.008634521484375,0.5213374114990235,-9.695768535614013,0.5978022270202636
1758974234761591600,5.018591552734375,0.4905120651245117,-9.727641345214844,0.6072293960571289
1758974234771548200,5.028548095703125,0.45714287948608395,-9.767295310211182,0.634014527130127
1758974234781505300,5.03850537109375,0.4164414512634277,-9.795576817321777,0.6708253776550293
1758974234791462400,5.04846240234375,0.34446576385498046,-9.807697463226317,0.7278373046875
1758974234801419300,5.058419189453125,0.29568390502929687,-9.77402900238037,0.7550713485717773
1758974234811377400,5.06837744140625,0.31753099517822264,-9.76235726928711,0.7601590270996094
1758974234821334300,5.078334228515625,0.3233668617248535,-9.754276838684081,0.7381622993469238
1758974234831291400,5.08829150390625,0.28745383682250975,-9.764302558135986,0.719457598876953
1758974234841248300,5.098248291015625,0.21757307586669922,-9.76130980606079,0.6934206558227539
1758974234851205400,5.108205322265625,0.24346038131713865,-9.777470667266845,0.699106884765625
1758974234861162500,5.11816259765625,0.2838625343322754,-9.779415956115722,0.7053916641235352
1758974234871119400,5.128119384765625,0.3295020034790039,-9.779565593719482,0.7529764221191406
1758974234881076200,5.138076171875,0.3280056274414062,-9.765050746154785,0.7345709968566894
1758974234891033300,5.148033447265625,0.36227263870239257,-9.750086985778808,0.7003039855957031
1758974234900990200,5.157990234375,0.3850175544738769,-9.742156192779541,0.6979097839355468
1758974234910948400,5.1679482421875,0.36436756515502927,-9.743502931213378,0.6995557975769042
1758974234920905500,5.177905517578125,0.3646668403625488,-9.779266318511961,0.7094318794250488
1758974234930862300,5.1878623046875,0.3764882110595703,-9.789740950775146,0.7079355033874511
1758974234940818400,5.197818359375,0.3935468978881836,-9.784802909851074,0.7071873153686523
1758974234950776300,5.2077763671875,0.4192845657348633,-9.756371765136718,0.6857891380310058
1758974234960733400,5.2177333984375,0.4438251327514648,-9.76894132385254,0.6434416961669921
1758974234970690300,5.227690185546875,0.4326023124694824,-9.789441675567627,0.6175543907165527
1758974234980647400,5.2376474609375,0.40970775909423823,-9.813982242584228,0.610371785736084
1758974234990604300,5.247604248046875,0.41584290084838865,-9.797372468566895,0.6576572685241698
1758974235000561200,5.25756103515625,0.4267664459228515,-9.796923555755615,0.6962637702941894
1758974235010518300,5.267518310546875,0.4273649963378906,-9.795576817321777,0.685040950012207
1758974235020475400,5.277475341796875,0.43364977569580077,-9.796624280548095,0.6905775413513183
1758974235030432500,5.2874326171875,0.4370914405822754,-9.787945299530028,0.6775590698242188
1758974235040389400,5.297389404296875,0.4939537300109863,-9.794678991699218,0.6759130561828612
1758974235050347300,5.30734716796875,0.5208884986877441,-9.758017778778076,0.7003039855957031
1758974235060304400,5.317304443359375,0.4923077163696289,-9.734674312591553,0.7287351303100585
1758974235070261200,5.32726123046875,0.443076944732666,-9.726743519592285,0.7586626510620117
1758974235080218400,5.33721826171875,0.42541970748901364,-9.711031571197509,0.7917325614929199
1758974235090175500,5.347175537109375,0.455197590637207,-9.729287358856201,0.7966706024169922
1758974235100132400,5.35713232421875,0.45325230178833004,-9.735123225402832,0.7962216896057128
1758974235110089200,5.367089111328125,0.46193128280639645,-9.748141696929931,0.7680898200988769
1758974235120046300,5.37704638671875,0.4333505004882812,-9.76894132385254,0.7357680976867675
1758974235130003500,5.38700341796875,0.4236240562438965,-9.764152920532226,0.7254431030273437
1758974235139960300,5.396960205078125,0.3736450965881347,-9.771036250305174,0.7106289802551269
1758974235149918200,5.406918212890625,0.3550900337219238,-9.764901108551024,0.7357680976867675
1758974235159875300,5.416875244140625,0.3711012573242187,-9.764901108551024,0.7136217323303222
1758974235169832200,5.426832275390625,0.36047698745727536,-9.752181912231444,0.6745663177490234
1758974235179789300,5.436789306640625,0.3612251754760742,-9.751134449005127,0.6913257293701172
1758974235189746400,5.446746337890625,0.37140053253173827,-9.752930100250243,0.7315782447814941
1758974235199703600,5.45670361328125,0.3806780639648437,-9.764302558135986,0.7495347572326659
1758974235209660400,5.466660400390625,0.34222119979858395,-9.763554370117188,0.7574655502319335
1758974235219617300,5.4766171875,0.3272574394226074,-9.766247846984863,0.7504325828552245
1758974235229574400,5.486574462890625,0.33758243408203126,-9.786448923492431,0.737414111328125
1758974235239531300,5.49653125,0.37663784866333005,-9.788992762756347,0.7217021629333495
1758974235249489400,5.506489501953125,0.40402153015136716,-9.778518130493163,0.6872855140686035
1758974235259446300,5.5164462890625,0.4355950645446777,-9.778218855285644,0.6555623420715332
1758974235269403400,5.5264033203125,0.45010991210937495,-9.777470667266845,0.6479308242797851
1758974235279360300,5.5363603515625,0.43065702362060543,-9.76116016845703,0.679953271484375
1758974235289317400,5.5463173828125,0.4037222549438476,-9.75412720108032,0.7032967376708984
1758974235299274500,5.5562744140625,0.4403834678649902,-9.760711255645752,0.732326432800293
1758974235309231400,5.5662314453125,0.474351203918457,-9.776423204040526,0.7529764221191406
1758974235319188500,5.5761884765625,0.42437224426269526,-9.7936315284729,0.7234978141784667
1758974235329145300,5.586145263671875,0.4038718925476074,-9.78689783630371,0.7139210075378417
1758974235339103500,5.596103515625,0.4065653694152832,-9.766547122192382,0.7190086860656738
1758974235349060400,5.606060302734375,0.4116530479431152,-9.740061266326904,0.7254431030273437
1758974235359017500,5.616017578125,0.4269160835266113,-9.74799205932617,0.7589619262695312
1758974235368974300,5.625974365234375,0.45459904022216796,-9.776423204040526,0.7658452560424804
1758974235378931200,5.63593115234375,0.4144961624145508,-9.771185887908935,0.751480046081543
1758974235388888300,5.645888427734375,0.36047698745727536,-9.75547393951416,0.7272387542724609
1758974235398846200,5.65584619140625,0.3359364204406738,-9.752181912231444,0.723348176574707
1758974235408803000,5.665802978515625,0.3616740882873535,-9.770886612701416,0.7372644737243652
1758974235418760000,5.675760009765625,0.37933132553100585,-9.762057994079589,0.7656956184387207
1758974235428717000,5.685717041015625,0.3769371238708496,-9.752930100250243,0.7915829238891601
1758974235438675200,5.69567529296875,0.4016273284912109,-9.756072489929199,0.7841010437011718
1758974235448632000,5.705632080078125,0.41090485992431636,-9.769689511871338,0.7811082916259765
1758974235458589200,5.715589111328125,0.38636429290771485,-9.782408708190918,0.7962216896057128
1758974235468546000,5.725546142578125,0.34237083740234375,-9.782259070587157,0.8150760276794433
1758974235478503000,5.7355029296875,0.3506009056091308,-9.758466691589355,0.8171709541320801
1758974235488460000,5.7454599609375,0.390703783416748,-9.733626849365233,0.7785644523620605
1758974235498417200,5.755417236328125,0.39653964996337887,-9.731083010101317,0.6976105087280273
1758974235508374000,5.7653740234375,0.39594109954833984,-9.773729727172851,0.6801029090881348
1758974235518331100,5.7753310546875,0.36586394119262694,-9.791536602020264,0.6817489227294922
1758974235528289000,5.7852890625,0.34281975021362304,-9.785551097869872,0.7073369529724121
1758974235538246100,5.79524609375,0.35090018081665036,-9.788094937133788,0.7369651985168456
1758974235548203000,5.805203125,0.3586813362121582,-9.760112705230712,0.74055650100708
1758974235558160100,5.81516015625,0.37933132553100585,-9.762806182098387,0.728435855102539
1758974235568117200,5.8251171875,0.4080617454528808,-9.765499658966064,0.7395090377807617
1758974235578073900,5.835073974609375,0.40013095245361324,-9.767594585418701,0.7359177352905273
1758974235588031000,5.845031005859375,0.33788170928955075,-9.772382988739013,0.7242460021972655
1758974235597988000,5.854988037109375,0.318578458404541,-9.777470667266845,0.7179612228393554
1758974235607945000,5.864945068359375,0.30256723480224607,-9.783156896209716,0.7366659233093261
1758974235617903000,5.874903076171875,0.3221697608947754,-9.764452195739745,0.7574655502319335
1758974235627860000,5.88485986328125,0.3676595924377441,-9.749189160156249,0.730979694366455
1758974235637817000,5.894817138671875,0.4038718925476074,-9.72958663406372,0.719457598876953
1758974235647774000,5.90477392578125,0.40147769088745117,-9.720309102630615,0.7178115852355956
1758974235657731000,5.91473095703125,0.3389291725158691,-9.751433724212646,0.6995557975769042
1758974235667688200,5.924688232421875,0.2964320930480957,-9.814131880187988,0.7121253562927246
1758974235677645000,5.93464501953125,0.3003226707458496,-9.840917011260986,0.7457938171386719
1758974235687602000,5.944601806640625,0.26171616897583005,-9.826701438903807,0.7905354606628417
1758974235697559000,5.95455908203125,0.2733879020690918,-9.771185887908935,0.8245031967163086
1758974235707516000,5.964515869140625,0.34311902542114253,-9.72240402908325,0.8086416107177734
1758974235717474000,5.97447412109375,0.4234744186401367,-9.726893157196045,0.776319888305664
1758974235727431200,5.98443115234375,0.4037222549438476,-9.738714527893066,0.7261912910461426
1758974235737388000,5.994387939453125,0.36526539077758785,-9.751583361816406,0.6669347999572753
1758974235747345000,6.004344970703125,0.36975451889038086,-9.77492682800293,0.6648398735046386
1758974235757302000,6.014302001953125,0.36481647796630856,-9.798569569396973,0.6853402252197265
1758974235767259100,6.024259033203125,0.35583822174072266,-9.795726454925537,0.7119757186889648
1758974235777216000,6.034216064453125,0.30092122116088865,-9.77417863998413,0.7094318794250488
1758974235787173000,6.044173095703125,0.31259295425415035,-9.758017778778076,0.719457598876953
1758974235797130000,6.0541298828125,0.3850175544738769,-9.760411980438231,0.7398083129882812
1758974235807086800,6.0640869140625,0.4147954376220703,-9.769090961456298,0.7237970893859863
1758974235817045000,6.074044921875,0.41374797439575195,-9.777620304870604,0.7116764434814453
1758974235827002000,6.084002197265625,0.41270051116943357,-9.76116016845703,0.6826467483520507
1758974235836959200,6.093959228515625,0.4113537727355957,-9.771634800720214,0.6739677673339843
1758974235846915800,6.103915771484375,0.428412459564209,-9.777171392059326,0.6892308029174804
1758974235856873000,6.113873046875,0.4305073860168457,-9.769240599060058,0.679953271484375
1758974235866830000,6.123830078125,0.3941454483032226,-9.762955819702148,0.7044938385009765
1758974235876787000,6.133786865234375,0.3767874862670898,-9.76190835647583,0.7188590484619141
1758974235886744000,6.143744140625,0.3504512680053711,-9.768642048645019,0.7308300567626953
1758974235896701200,6.153701171875,0.349852717590332,-9.76849241104126,0.745045629119873
1758974235906658000,6.163657958984375,0.3924994346618652,-9.78106196975708,0.7570166374206543
1758974235916616000,6.173615966796875,0.38531682968139647,-9.77402900238037,0.7579144630432129
1758974235926573000,6.183572998046875,0.37753567428588863,-9.78031378173828,0.7133224571228027
1758974235936530200,6.1935302734375,0.3589806114196777,-9.785401460266113,0.6989572471618652
1758974235946487000,6.203487060546875,0.3151367935180664,-9.774777190399169,0.6979097839355468
1758974235956444000,6.21344384765625,0.30406361083984373,-9.76220763168335,0.6949170318603515
1758974235966401000,6.223401123046875,0.311545491027832,-9.765948571777344,0.7125742691040039
1758974235976358000,6.23335791015625,0.32710780181884763,-9.765499658966064,0.7540238853454589
1758974235986315000,6.24331494140625,0.36631285400390623,-9.766098209381102,0.7640496047973633
1758974235996272000,6.253272216796875,0.3960907371520996,-9.770886612701416,0.7757213378906249
1758974236006230000,6.26322998046875,0.3730465461730957,-9.762057994079589,0.7872434333801269
1758974236016187000,6.273186767578125,0.3898059577941894,-9.767145672607422,0.7844003189086913
1758974236026144000,6.28314404296875,0.4317044868469238,-9.746495683288574,0.7682394577026367
1758974236036101000,6.29310107421875,0.4192845657348633,-9.76175871887207,0.7242460021972655
1758974236046058000,6.30305810546875,0.4070142822265625,-9.778368492889404,0.6777087074279785
1758974236056015000,6.31301513671875,0.4080617454528808,-9.765050746154785,0.6581061813354492
1758974236065972000,6.322971923828125,0.41060558471679687,-9.768193135833739,0.6992565223693847
1758974236075929000,6.33292919921875,0.4103063095092773,-9.772233351135254,0.764199242401123
1758974236085886000,6.342885986328125,0.3752911102294922,-9.759813430023193,0.7510311332702636
1758974236095843000,6.352843017578125,0.32875381546020505,-9.75517466430664,0.7595604766845703
1758974236105801200,6.36280126953125,0.34237083740234375,-9.765499658966064,0.7522282341003418
1758974236115757800,6.3727578125,0.3324947555541992,-9.767295310211182,0.741903239440918
1758974236125715000,6.38271484375,0.3407248237609863,-9.766846397399902,0.7634510543823242
1758974236135672000,6.392672119140625,0.3667617668151855,-9.776123928833007,0.7656956184387207
1758974236145629200,6.402629150390625,0.35673604736328124,-9.777919580078125,0.7709329345703124
1758974236155586000,6.4125859375,0.3468599655151367,-9.761010530853271,0.744447078704834
1758974236165543200,6.422543212890625,0.3226186737060547,-9.741557642364501,0.7426514274597168
1758974236175500000,6.4325,0.311545491027832,-9.757119953155517,0.7438485282897949
1758974236185457000,6.442456787109375,0.31483751831054685,-9.763554370117188,0.7631517791748046
1758974236195414000,6.4524140625,0.3324947555541992,-9.770736975097655,0.7794622779846191
1758974236205371100,6.46237109375,0.32875381546020505,-9.789292037963866,0.7630021415710448
1758974236215329300,6.472329345703125,0.29867665710449215,-9.76774422302246,0.7459434547424316
1758974236225286000,6.482285888671875,0.3393780853271484,-9.751284086608885,0.7327753456115722
1758974236235243000,6.492242919921875,0.36541502838134765,-9.767594585418701,0.7136217323303222
1758974236245200100,6.5022001953125,0.34820670394897457,-9.776423204040526,0.7196072364807129
1758974236255157000,6.512156982421875,0.35778351058959956,-9.760860893249511,0.7276876670837402
1758974236265114000,6.522114013671875,0.38142625198364255,-9.770437699890136,0.7131728195190429
1758974236275071200,6.5320712890625,0.35927988662719723,-9.770886612701416,0.7077858657836914
1758974236285028000,6.542028076171875,0.32411504974365235,-9.796175367736815,0.6833949363708496
1758974236294985000,6.55198486328125,0.3360860580444336,-9.779864868927001,0.6663362495422362
1758974236304942000,6.561942138671875,0.3893570449829101,-9.772981539154053,0.6813000099182128
1758974236314900200,6.571900146484375,0.411802685546875,-9.775525378417969,0.6766612442016601
1758974236324857000,6.581857177734375,0.4173392768859863,-9.749787710571288,0.6839934867858887
1758974236334814000,6.59181396484375,0.3839700912475586,-9.72285294189453,0.668431175994873
1758974236344771000,6.60177099609375,0.3624222763061523,-9.751134449005127,0.6649895111083984
1758974236354728000,6.61172802734375,0.3356371452331543,-9.772233351135254,0.7089829666137695
1758974236364685000,6.62168505859375,0.2947860794067383,-9.780912332153319,0.7425017898559569
1758974236374642200,6.63164208984375,0.26815058593749996,-9.796923555755615,0.7876923461914062
1758974236384599000,6.64159912109375,0.3190273712158203,-9.782707983398437,0.7947253135681152
1758974236394555600,6.6515556640625,0.37828386230468747,-9.765499658966064,0.7445967163085937
1758974236404512800,6.6615126953125,0.405368268585205,-9.740510179138184,0.687584789276123
1758974236414469400,6.671469482421875,0.4312555740356445,-9.72913772125244,0.6136638130187988
1758974236424427500,6.681427490234375,0.45489831542968745,-9.737966339874268,0.5945101997375488
1758974236434384600,6.691384521484375,0.44427404556274414,-9.758915604400634,0.6088754096984863
1758974236444341800,6.701341796875,0.4010287780761719,-9.778368492889404,0.6272808349609375
1758974236454298600,6.711298583984375,0.38756139373779297,-9.802460147094726,0.6646902359008788
1758974236464255500,6.72125537109375,0.33488895721435546,-9.830143103790283,0.701650724029541
1758974236474212600,6.731212646484375,0.2747346405029297,-9.83807389678955,0.7231985389709472
1758974236484169500,6.74116943359375,0.31663316955566406,-9.81233622894287,0.7661445312499999
1758974236494126600,6.751126708984375,0.40192660369873046,-9.777470667266845,0.8114847251892089
1758974236504083700,6.761083740234375,0.46252983322143554,-9.760262342834473,0.8078934226989746
1758974236514040600,6.77104052734375,0.4767454055786133,-9.753229375457764,0.7540238853454589
1758974236523997400,6.78099755859375,0.43499651412963863,-9.763704007720946,0.679953271484375
1758974236533955600,6.79095556640625,0.3812766143798828,-9.775375740814209,0.6262333717346191
1758974236543912700,6.80091259765625,0.33369185638427734,-9.771634800720214,0.6097732353210449
1758974236553869600,6.81086962890625,0.330699104309082,-9.76894132385254,0.6386532928466796
1758974236563826700,6.82082666015625,0.323666136932373,-9.764601833343505,0.6836942115783691
1758974236573783600,6.830783447265625,0.28057050704956055,-9.765350021362304,0.7529764221191406
1758974236583740400,6.840740478515625,0.29448680419921874,-9.779266318511961,0.795473501586914
1758974236593697500,6.850697509765625,0.29613281784057616,-9.777021754455566,0.8300397880554199
1758974236603654700,6.860654541015625,0.2882020248413086,-9.777171392059326,0.8337807281494141
1758974236613611500,6.870611572265625,0.2995744827270508,-9.787646024322509,0.7866448829650878
1758974236623568600,6.880568603515625,0.30840310134887694,-9.782558345794676,0.7404068634033203
1758974236633526500,6.890526611328125,0.31483751831054685,-9.773430451965332,0.6772597946166992
1758974236643483600,6.900483642578125,0.3254617881774902,-9.73676923904419,0.6501753883361816
1758974236653440500,6.9104404296875,0.3254617881774902,-9.740659816741942,0.6452373474121094
1758974236663397600,6.920397705078125,0.3194762840270996,-9.770736975097655,0.6461351730346679
1758974236673354800,6.930354736328125,0.29703064346313474,-9.778967043304442,0.6640916854858399
1758974236683311400,6.940311279296875,0.30960020217895506,-9.777470667266845,0.7020996368408202
1758974236693268500,6.9502685546875,0.32082302246093747,-9.766547122192382,0.750133307647705
1758974236703225600,6.9602255859375,0.34715924072265625,-9.770886612701416,0.790385823059082
1758974236713182500,6.970182373046875,0.3725976333618164,-9.765798934173583,0.7977180656433105
1758974236723139600,6.9801396484375,0.38741175613403317,-9.766996035003661,0.7869441581726073
1758974236733096700,6.9900966796875,0.43140521163940426,-9.763404732513427,0.7752724250793457
1758974236743053300,7.00005322265625,0.3947439987182617,-9.763105457305908,0.7680898200988769
1758974236753011500,7.010011474609375,0.34835634155273437,-9.784653272247313,0.7420528770446777
1758974236762968600,7.019968505859375,0.34700960311889645,-9.765948571777344,0.6944681190490722
1758974236772925700,7.02992578125,0.3298012786865234,-9.77447791519165,0.6655880615234374
1758974236782882600,7.039882568359375,0.34671032791137696,-9.773430451965332,0.6247369956970215
1758974236792839400,7.04983935546875,0.35239655685424803,-9.769539874267577,0.6022913551330566
1758974236802796500,7.059796630859375,0.35658640975952144,-9.773430451965332,0.630722499847412
1758974236812753400,7.06975341796875,0.4221276802062988,-9.775675016021728,0.6786065330505371
1758974236822710500,7.07971044921875,0.39923312683105466,-9.772532626342773,0.7022492744445801
1758974236832667600,7.089667724609375,0.3429693878173828,-9.769090961456298,0.7326257080078125
1758974236842624800,7.099624755859375,0.34222119979858395,-9.763554370117188,0.781407566833496
1758974236852581400,7.109581298828125,0.37499183502197264,-9.76116016845703,0.7963713272094726
1758974236862539500,7.11953955078125,0.3778349494934082,-9.773729727172851,0.7821557548522948
1758974236872496600,7.12949658203125,0.3742436470031738,-9.771185887908935,0.7471405555725097
1758974236882453500,7.13945361328125,0.3298012786865234,-9.781959795379638,0.7179612228393554
1758974236892410600,7.14941064453125,0.28206688308715816,-9.78779566192627,0.6994061599731445
1758974236902367500,7.159367431640625,0.2397194412231445,-9.79976667022705,0.7119757186889648
1758974236912324600,7.16932470703125,0.24600422058105467,-9.77462755279541,0.7664438064575195
1758974236922281500,7.179281494140625,0.27084406280517576,-9.757419228363036,0.7716811225891113
1758974236932238600,7.189238525390625,0.3064578125,-9.761010530853271,0.7366659233093261
1758974236942195700,7.19919580078125,0.3446154014587402,-9.76190835647583,0.6847416748046875
1758974236952152600,7.209152587890625,0.3320458427429199,-9.770138424682617,0.6555623420715332
1758974236962109400,7.219109375,0.3193266464233398,-9.77507646560669,0.6452373474121094
1758974236972066600,7.229066650390625,0.3434183006286621,-9.770886612701416,0.670975015258789
1758974236982024700,7.239024658203125,0.28999767608642574,-9.79976667022705,0.6890811653137207
1758974236991981600,7.248981689453125,0.24794950942993163,-9.784653272247313,0.7004536231994628
1758974237001938700,7.258938720703125,0.2651578338623047,-9.78629928588867,0.729034405517578
1758974237011895600,7.2688955078125,0.3161842567443848,-9.772233351135254,0.7154173835754394
1758974237021852400,7.278852294921875,0.3458125022888183,-9.751882637023925,0.7260416534423828
1758974237031809500,7.2888095703125,0.376039298248291,-9.757718503570556,0.7140706451416016
1758974237041766700,7.2987666015625,0.3808277015686035,-9.759514154815673,0.6910264541625977
1758974237051723500,7.3087236328125,0.34835634155273437,-9.785700735473633,0.6807014595031737
1758974237061680600,7.3186806640625,0.28640637359619137,-9.782109432983399,0.6944681190490722
1758974237071637500,7.328637451171875,0.3064578125,-9.791237326812743,0.6878840644836426
1758974237081594400,7.338594482421875,0.3450643142700195,-9.798270294189452,0.6766612442016601
1758974237091551500,7.348551513671875,0.3477577911376953,-9.798120656585693,0.6685808135986328
1758974237101509600,7.358509521484375,0.366462491607666,-9.756820677947998,0.6811503723144531
1758974237111466800,7.368466796875,0.40147769088745117,-9.752930100250243,0.6835445739746093
1758974237121423400,7.37842333984375,0.41464580001831053,-9.745148944854735,0.6757634185791015
1758974237131380500,7.38838037109375,0.3607762626647949,-9.765350021362304,0.6893804405212401
1758974237141337600,7.398337646484375,0.30466216125488277,-9.774777190399169,0.6916250045776366
1758974237151294500,7.40829443359375,0.30047230834960936,-9.815328981018066,0.7225999885559081
1758974237161251600,7.41825146484375,0.36361937713623044,-9.804555073547363,0.739957950592041
1758974237171208700,7.428208740234375,0.428412459564209,-9.79961703262329,0.7580641006469726
1758974237181165600,7.43816552734375,0.4294599227905273,-9.791087689208984,0.733523533630371
1758974237191122400,7.448122314453125,0.4221276802062988,-9.757718503570556,0.6952163070678711
1758974237201079600,7.45807958984375,0.39653964996337887,-9.772981539154053,0.6477811866760254
1758974237211036400,7.468036376953125,0.3703530693054199,-9.77447791519165,0.6298246742248534
1758974237220994600,7.47799462890625,0.356885684967041,-9.791536602020264,0.663343497467041
1758974237230951400,7.487951416015625,0.3673603172302246,-9.801562321472167,0.6815992851257324
1758974237240908500,7.497908447265625,0.40177696609497066,-9.795127904510498,0.6693290016174316
1758974237250865400,7.507865478515625,0.39234979705810547,-9.757419228363036,0.6456862602233886
1758974237260822500,7.517822509765625,0.41524435043334956,-9.730334822082519,0.6967126831054687
1758974237270779600,7.527779541015625,0.44532150878906246,-9.745897132873534,0.722749626159668
1758974237280736500,7.537736572265625,0.44801498565673825,-9.765050746154785,0.7297825935363769
1758974237290693600,7.547693603515625,0.39220015945434566,-9.784952547454834,0.7191583236694336
1758974237300650500,7.557650390625,0.3277063522338867,-9.790489138793944,0.7573159126281738
1758974237310607600,7.567607666015625,0.34117373657226563,-9.775824653625488,0.7963713272094726
1758974237320564500,7.577564453125,0.39145197143554683,-9.753977563476562,0.8547299926757812
1758974237330521600,7.587521484375,0.3898059577941894,-9.758017778778076,0.884208600616455
1758974237340479500,7.5974794921875,0.3716998077392578,-9.798719207000731,0.840215145111084
1758974237350436400,7.607436279296875,0.3480570663452148,-9.814580792999267,0.7407061386108398
1758974237360393500,7.6173935546875,0.28311434631347654,-9.814580792999267,0.6765116065979003
1758974237370350600,7.6273505859375,0.21128829650878905,-9.795726454925537,0.6241384452819824
1758974237380307500,7.637307373046875,0.20141221466064452,-9.798419931793212,0.603338818359375
1758974237390264600,7.6472646484375,0.27263971405029297,-9.788843125152587,0.6203975051879882
1758974237400221200,7.65722119140625,0.2736871772766113,-9.772682263946532,0.6488286499023437
1758974237410178300,7.66717822265625,0.2958335426330566,-9.772831901550292,0.6845920372009276
1758974237420135200,7.67713525390625,0.32890345306396485,-9.77358008956909,0.6988076095581054
1758974237430092000,7.687092041015625,0.31543606872558594,-9.797821381378172,0.7378630241394043
1758974237440049200,7.697049072265625,0.31184476623535157,-9.8442090385437,0.7707832969665527
1758974237450006300,7.70700634765625,0.28266543350219725,-9.880122063446045,0.7775169891357422
1758974237459964200,7.716964111328125,0.26276363220214843,-9.862165550994872,0.7674912696838379
1758974237469921000,7.726921142578125,0.24465748214721678,-9.839570272827148,0.7279869422912597
1758974237479878100,7.736878173828125,0.2109890213012695,-9.824456874847412,0.7158662963867187
1758974237489835300,7.746835205078125,0.19333178405761717,-9.807996738433838,0.7143699203491211
1758974237499792100,7.756792236328125,0.17761983566284179,-9.820416659545899,0.7142202827453613
1758974237509749200,7.766749267578125,0.12524667434692383,-9.848698166656494,0.7502829452514648
1758974237519706400,7.776706298828125,0.07676409072875977,-9.889848507690429,0.7977180656433105
1758974237529663000,7.7866630859375,0.1283890640258789,-9.937133990478515,0.8943839576721191
1758974237539620000,7.7966201171875,0.1762730972290039,-9.93997710494995,0.9539397239685058
1758974237549577200,7.8065771484375,0.19871873779296872,-9.91453871231079,0.967856021118164
1758974237559534000,7.8165341796875,0.2733879020690918,-9.86964743118286,0.9446621925354003
1758974237569491200,7.8264912109375,0.40776247024536133,-9.854982946014404,0.884208600616455
1758974237579448300,7.8364482421875,0.5192424850463867,-9.865906491088866,0.7745242370605468
1758974237589406200,7.84640625,0.5500678314208984,-9.871592720031737,0.6854898628234863
1758974237599363000,7.856363037109375,0.5787982513427734,-9.808595288848876,0.5819406410217285
1758974237609320200,7.8663203125,0.5910685348510741,-9.74200655517578,0.5395931991577149
1758974237619277300,7.87627734375,0.5767033248901366,-9.728539170837402,0.5020341606140136
1758974237629234200,7.886234130859375,0.5781997009277343,-9.772233351135254,0.5135562561035156
1758974237639191000,7.89619091796875,0.5553051475524902,-9.832686943054199,0.5452794281005859
1758974237649148200,7.906148193359375,0.5358522590637207,-9.878775325012207,0.5621884773254394
1758974237659105000,7.91610498046875,0.6087257720947266,-9.900323139953613,0.6157587394714356
1758974237669062100,7.926062255859375,0.6842927619934082,-9.904064080047608,0.6573579933166503
1758974237679019300,7.936019287109375,0.7650970680236816,-9.887903218841553,0.6679822631835937
1758974237688976400,7.945976318359375,0.8031050193786621,-9.85094273071289,0.6474819114685059
1758974237698933200,7.955933349609375,0.785896694946289,-9.837026433563231,0.6370072792053222
1758974237708890000,7.96589013671875,0.7836521308898925,-9.841515561676024,0.6073790336608886
1758974237718848300,7.97584814453125,0.8176198669433593,-9.835530057525634,0.6109703361511231
1758974237728805000,7.98580517578125,0.8725368675231933,-9.849745629882811,0.6687304512023925
1758974237738762200,7.99576220703125,0.9310451705932616,-9.893140534973144,0.704194563293457
1758974237748719000,8.005718994140626,0.9750386260986328,-9.918878202819824,0.6741174049377441
1758974237758676200,8.01567626953125,0.953191535949707,-9.948656085968016,0.5740098480224609
1758974237768633000,8.025633056640626,0.8994716361999511,-9.926509720611572,0.4739022911071777
1758974237778590200,8.035590087890625,0.8274959487915039,-9.881917714691161,0.3526958320617676
1758974237788547300,8.04554736328125,0.7863456077575683,-9.7936315284729,0.2624643569946289
1758974237798504200,8.055504150390625,0.7776666267395019,-9.712677584838866,0.24361001892089842
1758974237808461300,8.06546142578125,0.81073653717041,-9.62753378829956,0.21188684692382811
1758974237818418200,8.075418212890625,0.7799111907958984,-9.482834225463867,0.2127846725463867
1758974237828375000,8.085375,0.735468822479248,-9.315689022064209,0.23403321228027343
1758974237838332200,8.095332275390625,0.6908768165588378,-9.070283351898192,0.21188684692382811
1758974237848290300,8.105290283203125,0.5662286926269531,-8.838345066070556,0.1671452033996582
1758974237858247200,8.1152470703125,0.3311480171203613,-8.781033863830565,0.011671733093261718
1758974237868204000,8.1252041015625,0.25528175201416015,-8.920346472930907,-0.17208324432373046
1758974237878161200,8.1351611328125,0.41404724960327144,-9.136572810363768,-0.2193687271118164
1758974237888118300,8.1451181640625,0.4535515769958496,-9.529221882629393,-0.3224690361022949
1758974237898075100,8.1550751953125,0.24121581726074218,-9.628880526733397,-0.45669396667480466
1758974237908032300,8.1650322265625,0.30630817489624024,-9.822361948394775,0.16130933685302734
1758974237917989400,8.1749892578125,-0.2868552864074707,-10.259154113769531,1.0414777221679687
1758974237927946000,8.184946044921874,-0.7023989120483398,-10.801291152191162,1.2660837654113768
1758974237937903000,8.194903076171874,-0.968454571533203,-10.986542505645751,1.3911808021545409
1758974237947860200,8.204860107421876,-1.3256395317077636,-10.925340725708008,1.4196119468688964
1758974237957817000,8.214817138671876,-1.6707038459777832,-10.888080962371825,1.313818161010742
1758974237967774200,8.224774169921876,-1.90892691116333,-10.40639751586914,0.9501987838745116
1758974237977732000,8.234732177734376,-2.3561937088012694,-9.829245278167724,0.4439747703552246
1758974237987689200,8.244689208984376,-2.8006173919677733,-9.294440482330321,-0.18869301834106444
1758974237997646000,8.25464599609375,-2.853140190887451,-8.781333139038086,-0.07826046676635742
1758974238007603200,8.264603271484376,-2.6918308540344236,-8.46544815750122,0.17432780838012693
1758974238017560300,8.274560302734375,-2.812738037872314,-8.3885344291687,-0.1592144104003906
1758974238027517200,8.28451708984375,-2.944419129180908,-8.311471063232421,-0.5032312614440918
1758974238037474000,8.29447412109375,-3.2831986640930175,-8.434173898315429,-0.9534908111572266
1758974238047431200,8.30443115234375,-3.7964556449890137,-8.607903156280518,-1.158793603515625
1758974238057388000,8.314387939453125,-4.2868180725097655,-8.71429549255371,-1.0324994659423827
1758974238067345200,8.32434521484375,-4.86471849822998,-8.792855234527588,-1.010053825378418
1758974238077302300,8.33430224609375,-5.14573791809082,-8.84867006072998,-0.965910732269287
1758974238087259400,8.34425927734375,-4.932803607940674,-8.81006355895996,-0.9919476753234863
1758974238097216300,8.35421630859375,-4.427627057647705,-8.593687583923339,-1.1309610092163085
1758974238107173000,8.364173095703125,-4.354454269409179,-8.148066799926758,-1.037437506866455
1758974238117131300,8.37413134765625,-4.701912785339355,-7.876025636291503,-1.0027215827941893
1758974238127088000,8.384088134765625,-5.24135634689331,-7.8052470497131345,-0.8325836273193359
1758974238137045200,8.394045166015625,-5.467907678985595,-7.832032180786133,-0.5244798011779784
1758974238147002000,8.404002197265624,-5.40116930770874,-7.545326531982422,-0.28356325912475583
1758974238156959200,8.413959228515624,-5.421370384216308,-7.281066523742675,-0.36212300109863277
1758974238166916000,8.423916015625,-5.249137502288818,-7.09970574798584,-0.36212300109863277
1758974238176873200,8.433873291015624,-5.108627792358398,-7.092523143005371,-0.12599486236572266
1758974238186830300,8.443830322265624,-5.055506443023681,-7.228843000030517,0.29239187774658204
1758974238196787200,8.453787109375,-5.456385583496093,-7.138910800170898,0.8421604339599609
1758974238206744300,8.463744384765626,-6.364386563110351,-7.193229250335693,1.0263643241882323
1758974238216701200,8.473701171875,-6.901884835815429,-7.176769113922119,0.927004955291748
1758974238226658000,8.483657958984375,-6.73548782043457,-6.916549320983886,0.7613561279296874
1758974238236615200,8.493615234375,-6.450577822875976,-6.583306377410889,0.35523967132568357
1758974238246573300,8.5035732421875,-6.092794312286377,-6.193949332427978,0.2275987953186035
1758974238256530200,8.5135302734375,-5.4153848800659175,-5.971138940429687,0.0962169792175293
1758974238266487000,8.523487060546875,-5.253776268005371,-5.926546934509277,-0.3993827644348144
1758974238276444200,8.533444091796875,-4.997447052764892,-5.872078846740722,-0.7978677032470702
1758974238286401300,8.5434013671875,-4.929810855865478,-5.766733973693848,-0.9433154541015625
1758974238296358100,8.553358154296875,-5.622333686065674,-5.765387235260009,-1.006163247680664
1758974238306315300,8.563315185546875,-6.63298606185913,-5.94360562133789,-1.015740054321289
1758974238316272400,8.5732724609375,-7.138761162567138,-6.388178942108154,-0.8566752815246581
1758974238326229000,8.58322900390625,-6.968772844696044,-6.900687734985351,-0.3960907371520996
1758974238336186000,8.59318603515625,-6.40389089050293,-7.166743394470214,-0.1801636749267578
1758974238346143200,8.603143310546875,-6.297947467041015,-7.255628131103515,-0.3598784370422363
1758974238356100000,8.61310009765625,-6.474968752288818,-7.257423782348632,-0.29269115295410153
1758974238366057200,8.62305712890625,-6.18631781463623,-7.511508433532715,-0.4369418029785156
1758974238376014300,8.633014404296874,-5.936871929168701,-7.562235581207275,-0.5591957252502441
1758974238385972200,8.64297216796875,-6.60769730682373,-6.0990790916442865,-0.8114847251892089
1758974238395929900,8.652929931640625,-7.228992637634277,-5.775861867523193,-1.8504186080932616
1758974238405887000,8.662886962890624,-7.211784313201904,-5.686827493286133,-2.457199091339111
1758974238415843800,8.67284375,-6.889464914703368,-5.6191912963867185,-2.3870190551757813
1758974238425800700,8.68280078125,-6.610390783691406,-5.741295581054687,-1.7937059562683104
1758974238435757800,8.6927578125,-7.0753148185729975,-5.908141509246826,-1.1442787559509278
1758974238445714700,8.702714599609376,-7.909394821929931,-6.106411334228516,-0.6904279037475586
1758974238455671800,8.712671875,-8.290521798706054,-6.3052797096252435,-0.8141782020568847
1758974238465629000,8.72262890625,-7.901164753723144,-6.375759020996093,-1.169717148590088
1758974238475585800,8.732585693359376,-7.654262707519531,-6.028001229858398,-1.4692916313171387
1758974238485542700,8.742542724609375,-7.733869912719726,-5.871031383514404,-1.2785036865234374
1758974238495499800,8.752499755859375,-7.927500971984863,-5.5273138076782224,-1.1379939765930176
1758974238505456600,8.76245654296875,-7.5546040634155265,-5.226991136932373,-0.953790086364746
1758974238515413800,8.772413818359375,-7.2258502479553215,-4.73677834701538,-0.9337386474609375
1758974238525371000,8.782370849609375,-7.469011354064941,-4.192546382141113,-1.290923607635498
1758974238535328800,8.792328857421875,-7.80779088897705,-4.0057986526489255,-1.5011644409179687
1758974238545285600,8.80228564453125,-8.30009860534668,-3.7855320999145508,-1.6826748542785643
1758974238555242800,8.81224267578125,-8.30668265991211,-3.5582325798034664,-1.7348983779907226
1758974238565200000,8.822199951171875,-8.22348415222168,-3.7012861289978027,-1.6877625328063963
1758974238575156700,8.83215673828125,-7.899967652893066,-3.933972602844238,-1.788319002532959
1758974238585113900,8.84211376953125,-7.6193971458435055,-3.9203555809020996,-1.9449895736694334
1758974238595070700,8.85207080078125,-7.480683087158202,-3.631405368041992,-2.019509100341797
1758974238605027800,8.86202783203125,-7.7322238990783685,-3.253271143341064,-1.987337015533447
1758974238614984700,8.871984619140624,-8.023119400787353,-2.85388837890625,-2.016815623474121
1758974238624941800,8.88194189453125,-7.911938661193847,-2.340032847595215,-1.7956512451171873
1758974238634899000,8.89189892578125,-8.11514652709961,-1.755099454498291,-1.280748250579834
1758974238644855800,8.901855712890624,-8.89326206665039,-1.4432546882629393,-1.1023802268981933
1758974238654813000,8.91181298828125,-9.292495193481445,-1.3578116165161132,-1.3245920684814452
1758974238664769800,8.921769775390626,-9.26466259918213,-1.1725602630615233,-1.6054618507385252
1758974238674728000,8.93172802734375,-9.412803826904296,-0.9585784896850585,-2.0272902557373045
1758974238684684800,8.941684814453126,-9.64698667678833,-0.5985504150390625,-2.4958055931091305
1758974238694642000,8.951641845703126,-10.142885695648193,-0.28640637359619137,-2.897283283996582
1758974238704598800,8.961598876953126,-10.176404518890381,-0.12389993591308593,-3.2954689476013184
1758974238714555600,8.9715556640625,-9.565733457946777,-0.03965396499633789,-3.169174810028076
1758974238724512800,8.9815126953125,-10.069114356994628,-0.23343466186523437,-2.7621605278015133
1758974238734470000,8.991469970703125,-10.82089367828369,-0.7755717002868652,-2.379986087799072
1758974238744426800,9.0014267578125,-10.494534064483641,-1.1007342132568358,-1.9675848518371581
1758974238754384000,9.0113837890625,-10.364798262023925,-1.6552911727905273,-1.8004396484374998
1758974238764341000,9.021341064453125,-10.115202738952636,-1.2110171272277832,-1.4073416633605955
1758974238774297600,9.031297607421875,-10.245387454223632,-0.8756792572021483,-1.5726912155151367
1758974238784254700,9.041254638671875,-10.711807865142822,-0.9166799606323242,-1.9539678298950194
1758974238794211800,9.0512119140625,-10.707318737030029,-1.148468608856201,-2.1972785736083984
1758974238804168700,9.061168701171875,-10.644919856262206,-1.3729250144958496,-2.422932080078125
1758974238814125800,9.071125732421875,-10.575787283325194,-1.2219406723022461,-2.488024437713623
1758974238824083700,9.081083740234375,-10.70028576965332,-0.8099883491516113,-2.443282794189453
1758974238834040800,9.091040771484375,-10.37437506866455,-0.44322658233642576,-2.309806051635742
1758974238843997700,9.100997802734375,-10.550049615478516,-0.43783962860107417,-2.23468797454834
1758974238853954800,9.110954833984374,-10.941351949310302,-1.09804073638916,-1.9720739799499512
1758974238863912000,9.120911865234374,-10.816703825378417,-1.3293804718017577,-1.4263456390380858
1758974238873868800,9.130868896484374,-11.09577795639038,-1.1174936248779297,-1.266682315826416
1758974238883825700,9.14082568359375,-11.519252375030517,-1.0133458526611328,-1.1718120750427246
1758974238893782800,9.15078271484375,-11.993603578948974,-1.3944728294372557,-1.5644611473083496
1758974238903739600,9.16073974609375,-11.955146714782714,-0.6015431671142578,-1.5382745666503905
1758974238913696800,9.17069677734375,-12.288688933563233,0.05237316131591797,-1.4272434646606444
1758974238923654000,9.18065380859375,-12.451943559265136,0.14185644836425781,-1.5357307273864744
1758974238933611000,9.190611083984376,-12.182146959686278,0.6111199737548828,-1.6511013198852538
1758974238943568000,9.20056787109375,-11.580154879760741,1.203984159851074,-2.2801778060913085
1758974238953524700,9.210524658203125,-11.652878755187988,1.641374875640869,-3.490297107696533
1758974238963481900,9.22048193359375,-11.211597461700439,1.9943699829101562,-4.1003696182250975
1758974238973439700,9.230439697265625,-10.356418556213379,2.100911956787109,-4.10515802154541
1758974238983396900,9.24039697265625,-9.88341409072876,2.1007623191833495,-3.81141940536499
1758974238993353700,9.250353759765625,-10.377218183135986,2.002151138305664,-3.503016304016113
1758974239003310800,9.260310791015625,-10.358663120269775,1.2705728935241698,-3.3678935478210446
1758974239013267700,9.270267822265625,-9.41040962524414,0.4107552223205566,-2.595763512420654
1758974239023224800,9.280224853515625,-8.505700672912598,-0.056114101409912104,-1.3202525779724121
1758974239033182000,9.290181884765625,-8.998008389282226,0.15218144302368164,-0.6923731925964355
1758974239043138800,9.300138916015625,-9.618705169677733,0.6708253776550293,-0.751480046081543
1758974239053096000,9.310095947265625,-9.18056626586914,0.960823053741455,-1.0818798751831054
1758974239063052800,9.320052734375,-8.915258794403076,1.0512041664123535,-1.1789946800231932
1758974239073009700,9.330009765625,-8.964639203643799,1.243039574432373,-1.150413897705078
1758974239082966800,9.339966796875,-9.051728289031981,1.4540285957336425,-1.1875240234375
1758974239092924000,9.349923828125,-9.668235216522216,1.637633935546875,-1.3666402351379394
1758974239102880800,9.359880859375,-10.351630152893065,1.7687164764404295,-1.6576853744506834
1758974239112838000,9.369837890625,-10.551845266723632,1.805527326965332,-2.0477906074523924
1758974239122795800,9.379795654296874,-10.47642791442871,1.931222914123535,-2.028487356567383
1758974239132753000,9.3897529296875,-10.255562811279296,1.877652651977539,-2.0241478660583496
1758974239142709800,9.399709716796876,-10.049661468505859,1.7685668388366698,-2.013523596191406
1758974239152667000,9.4096669921875,-9.878176774597167,1.7386393180847166,-1.8091186294555663
1758974239162624000,9.4196240234375,-9.720907653045654,1.5759832427978515,-1.6874632575988768
1758974239172580600,9.42958056640625,-9.718363813781737,1.5517419509887695,-1.472134745788574
1758974239182537700,9.439537841796875,-9.648632690429688,1.4887445198059082,-1.3947721046447754
1758974239192494800,9.449494873046875,-9.701454764556884,1.4001590583801269,-1.4182652084350584
1758974239202451700,9.45945166015625,-9.660902973937988,1.2533645690917967,-1.7342998275756836
1758974239212408800,9.469408935546875,-9.699659113311768,1.052251629638672,-2.0712837112426756
1758974239222366000,9.479365966796875,-9.681253688049315,1.009305637359619,-2.2752397651672362
1758974239232322800,9.48932275390625,-9.561693242645264,1.183034895324707,-2.4334067123413083
1758974239242279700,9.49927978515625,-9.459341121673583,1.3356652511596678,-2.468122636413574
1758974239252236800,9.50923681640625,-9.416694404602051,1.4209586853027343,-2.4622867698669433
1758974239262194000,9.51919384765625,-9.360430665588378,1.513733999633789,-2.4091654205322266
1758974239272150800,9.52915087890625,-9.337835387420654,1.568651000213623,-2.268954985809326
1758974239282108700,9.539108642578125,-9.318981049346924,1.4954782119750976,-2.1434090362548828
1758974239292065800,9.549065673828125,-9.351751684570312,1.383399646759033,-2.0548235748291015
1758974239302022700,9.559022705078124,-9.441683884429931,1.2005424949645995,-2.066644945526123
1758974239311979800,9.568979736328124,-9.519944351196289,1.1457751319885254,-2.050633721923828
1758974239321937000,9.57893701171875,-9.594014965057372,1.252017830657959,-2.1443068618774412
1758974239331894000,9.58889404296875,-9.727940620422363,1.3865420364379881,-2.2291513832092282
1758974239341851000,9.598850830078124,-9.883114815521239,1.408987677001953,-2.2559365142822263
1758974239351807700,9.608807861328126,-9.784054721832275,1.3542203140258788,-2.203862628173828
1758974239361764900,9.618764892578126,-9.606883798980713,1.2179004570007324,-2.0301333702087403
1758974239371721700,9.6287216796875,-9.496151972198486,1.0363900436401368,-1.8336591964721678
1758974239381678800,9.638678955078126,-9.445275186920165,0.972943699645996,-1.7340005523681639
1758974239391636000,9.648635986328125,-9.418041143035888,0.9490016830444336,-1.7036241188049315
1758974239401592600,9.658592529296875,-9.373898049926757,0.9894038360595703,-1.7896657409667969
1758974239411549700,9.6685498046875,-9.362076679229736,1.009305637359619,-1.8990508293151855
1758974239421506300,9.67850634765625,-9.36641616973877,1.0275614250183105,-1.999008748626709
1758974239431463400,9.68846337890625,-9.439588957977294,1.0333972915649414,-2.1101894882202146
1758974239441421600,9.698421630859375,-9.511863920593262,1.0763432838439941,-2.1812673500061033
1758974239451378700,9.708378662109375,-9.569474398040771,1.1095628318786621,-2.2469582580566403
1758974239461335300,9.718335205078125,-9.617508068847656,1.1864765602111815,-2.3331495178222657
1758974239471292400,9.72829248046875,-9.599701194000243,1.246780514526367,-2.4322096115112304
1758974239481249500,9.73824951171875,-9.539097964477538,1.2473790649414063,-2.5207950729370117
1758974239491206400,9.748206298828125,-9.458742571258544,1.2572551467895507,-2.517503045654297
1758974239501163500,9.75816357421875,-9.400533543395996,1.2101193016052245,-2.4138041862487793
1758974239511120600,9.76812060546875,-9.344120166778564,1.1305120964050293,-2.308010400390625
1758974239521077500,9.778077392578124,-9.381230292510987,1.0835258888244628,-2.2417209419250486
1758974239531034400,9.788034423828124,-9.40382557067871,1.0615291610717772,-2.185157927703857
1758974239540991500,9.797991455078124,-9.383474856567382,0.9641150810241699,-2.155380044555664
1758974239550948400,9.8079482421875,-9.34741219406128,0.8756792572021483,-2.0929811637878415
1758974239560905500,9.817905517578126,-9.396642965698241,0.7920318367004394,-2.0226514900207517
1758974239570862600,9.827862548828126,-9.458443296051025,0.7947253135681152,-1.9991583862304687
1758974239580819500,9.8378193359375,-9.497049797821044,0.884208600616455,-1.9834464378356933
1758974239590777300,9.84777734375,-9.555258825683593,0.9292495193481445,-1.9425953720092772
1758974239600734500,9.857734375,-9.619902270507811,0.9308955329895019,-1.9367595054626463
1758974239610691600,9.867691650390626,-9.663297175598144,0.9246107536315917,-1.9702783287048338
1758974239620648400,9.8776484375,-9.683348614501952,0.8895955543518066,-1.9910779556274414
1758974239630605600,9.88760546875,-9.641898998260498,0.7691372833251953,-1.9946692581176757
1758974239640562400,9.8975625,-9.597157354736327,0.6302735870361328,-1.9756652824401855
1758974239650519300,9.907519287109375,-9.56917512283325,0.6706757400512695,-1.964442462158203
1758974239660476400,9.917476318359375,-9.548525133514405,0.7682394577026367,-1.9572598571777342
1758974239670433500,9.92743359375,-9.507674067687988,0.7953238639831542,-1.9416975463867185
1758974239680390400,9.937390380859375,-9.465326625823973,0.773776049041748,-1.935712042236328
1758974239690347500,9.947347412109375,-9.470863217163085,0.7872434333801269,-1.9394529823303222
1758974239700304400,9.957304443359375,-9.510966094970703,0.8517372406005859,-1.984942813873291
1758974239710261500,9.967261474609375,-9.520692539215087,0.8918401184082031,-2.002749688720703
1758974239720218400,9.97721826171875,-9.556007013702391,0.9569324760437011,-1.9737199935913086
1758974239730175500,9.987175537109374,-9.558700490570068,1.0335469291687012,-1.9725228927612304
1758974239740132600,9.997132568359374,-9.516203411102294,1.138293251800537,-2.00454533996582
1758974239750089500,10.00708935546875,-9.462184236145019,1.209071838378906,-2.0254946044921875
1758974239760046600,10.017046630859374,-9.399486080169677,1.2120645904541014,-2.04943662109375
1758974239770004500,10.02700439453125,-9.394099126434325,1.2023381462097167,-2.0497358963012693
1758974239779961600,10.036961669921874,-9.447669388580321,1.0901099433898924,-2.0739771881103515
1758974239789918500,10.04691845703125,-9.515455223083496,1.030404539489746,-2.018012724304199
1758974239799875600,10.05687548828125,-9.521141452026367,1.024718310546875,-1.9907786804199217
1758974239809832400,10.06683251953125,-9.543736730194091,0.9910498497009277,-2.0412065528869627
1758974239819789300,10.076789306640626,-9.619453357696532,0.9744400756835937,-2.155380044555664
1758974239829746400,10.086746337890625,-9.6794580368042,0.8967781593322753,-2.236483625793457
1758974239839703600,10.09670361328125,-9.663446813201904,0.8538321670532226,-2.189347780609131
1758974239849660400,10.106660400390625,-9.668534491729735,0.8482955757141113,-2.127697087860107
1758974239859617500,10.116617431640625,-9.62169792175293,0.964713631439209,-1.9298761756896972
1758974239869574700,10.12657470703125,-9.53805050125122,1.04701431350708,-1.7597382202148437
1758974239879531300,10.13653125,-9.558850128173827,0.8836100502014159,-1.712901650238037
1758974239889488400,10.14648828125,-9.660454061126709,0.6060322952270507,-1.69823716506958
1758974239899445500,10.156445556640625,-9.708787007141114,0.428412459564209,-1.7317559883117675
1758974239909402400,10.16640234375,-9.688735568237304,0.37723639907836914,-1.922244657897949
1758974239919359500,10.176359375,-9.699060562896728,0.3640682899475097,-2.1339818672180173
1758974239929316600,10.186316650390625,-9.682600426483154,0.462230558013916,-2.240074928283691
1758974239939274500,10.1962744140625,-9.622895022583007,0.675464143371582,-2.2828712829589843
1758974239949231400,10.2062314453125,-9.67287398223877,0.7809586540222168,-2.2756886779785157
1758974239959188500,10.2161884765625,-9.791985514831543,0.7205050621032715,-2.1760300338745115
1758974239969145600,10.2261455078125,-9.81847137069702,0.7275380294799805,-1.9307740013122558
1758974239979102500,10.2361025390625,-9.726893157196045,0.8271966735839843,-1.76198278427124
1758974239989059300,10.246059326171874,-9.705943892669676,0.8456020988464354,-1.7030255683898925
1758974239999016400,10.256016357421874,-9.719112001800536,0.7815572044372558,-1.6904560096740722
1758974240008973300,10.265973388671876,-9.64638812637329,0.7799111907958984,-1.6566379112243652
1758974240018930400,10.275930419921876,-9.59581061630249,0.7553706237792969,-1.697488977050781
1758974240028887600,10.285887451171876,-9.517849424743652,0.7178115852355956,-1.7654244491577147
1758974240038844700,10.2958447265625,-9.345766180419922,0.7876923461914062,-1.802235299682617
1758974240048801500,10.305801513671875,-9.208847772979736,0.9618705169677734,-1.8818425048828125
1758974240058758400,10.31575830078125,-9.140463388061523,1.1206360145568848,-2.0061913536071776
1758974240068715500,10.325715576171875,-9.140014475250243,1.3007996894836424,-2.1065981857299803
1758974240078672400,10.33567236328125,-9.188646696472167,1.4525322196960448,-2.1716905433654783
1758974240088629500,10.34562939453125,-9.293991569519042,1.5435118827819823,-2.278531792449951
1758974240098586600,10.355586669921875,-9.412654189300536,1.5456068092346191,-2.42592483215332
1758974240108543500,10.36554345703125,-9.502436751556395,1.4000094207763671,-2.516754857635498
1758974240118501400,10.37550146484375,-9.586383447265625,1.1733084510803222,-2.4818892959594727
1758974240128458500,10.38545849609375,-9.587281272888182,1.0226233840942383,-2.3499089294433593
1758974240138415600,10.39541552734375,-9.599701194000243,0.9323919090270996,-2.1715409057617188
1758974240148372500,10.40537255859375,-9.65327145614624,0.8542810798645019,-2.0233996780395507
1758974240158329600,10.41532958984375,-9.737517427062988,0.7721300354003906,-1.9045874206542968
1758974240168286500,10.425286376953125,-9.809343476867674,0.7713818473815918,-1.8305168067932127
1758974240178243300,10.435243408203124,-9.814131880187988,0.805050308227539,-1.7860744384765623
1758974240188200400,10.445200439453124,-9.739462715911865,0.8574234695434569,-1.735945841217041
1758974240198157600,10.455157470703124,-9.63411784286499,0.8854057014465332,-1.6630723281860351
1758974240208114400,10.465114501953124,-9.565883095550536,0.8960299713134765,-1.5578770927429197
1758974240218071600,10.475071533203124,-9.517999062347412,0.8882488159179687,-1.4405612113952635
1758974240228028400,10.4850283203125,-9.510816457366943,0.8400655075073241,-1.3498808235168456
1758974240237985300,10.4949853515625,-9.549273321533203,0.8221089950561523,-1.294065997314453
1758974240247942400,10.5049423828125,-9.531616084289551,0.8400655075073241,-1.2904746948242187
1758974240257899500,10.5148994140625,-9.564386719512939,0.8738836059570312,-1.352873575592041
1758974240267856400,10.5248564453125,-9.618405894470214,0.9196727127075195,-1.501014803314209
1758974240277813500,10.5348134765625,-9.641599723052979,1.0000281059265137,-1.6690578323364256
1758974240287770600,10.5447705078125,-9.67227543182373,1.0684124908447266,-1.7835305992126465
1758974240297727500,10.5547275390625,-9.642048635864258,1.1227309410095214,-1.9078794479370116
1758974240307685400,10.564685302734375,-9.580098667907714,1.1496657096862792,-2.0235493156433106
1758974240317642500,10.574642578125,-9.498246898651123,1.1266215187072752,-2.1001637687683106
1758974240327599600,10.584599609375,-9.442731347656249,1.0811316871643066,-2.1607669982910154
1758974240337556500,10.594556396484375,-9.387814347076416,0.9816226806640624,-2.22151986541748
1758974240347513300,10.604513427734375,-9.392602750396728,0.8668506385803222,-2.267608247375488
1758974240357470500,10.614470458984375,-9.468768290710448,0.8111854499816894,-2.329707852935791
1758974240367427600,10.624427490234375,-9.513659571838378,0.8010100929260253,-2.3609821121215817
1758974240377384400,10.634384521484375,-9.624989949035644,0.8221089950561523,-2.3849241287231444
1758974240387341600,10.644341552734375,-9.672574707031249,0.8476970252990722,-2.3868694175720213
1758974240397298700,10.654298583984374,-9.64728595199585,0.9135375709533691,-2.3294085777282714
1758974240407255300,10.66425537109375,-9.646088851165771,0.9059060531616211,-2.2553379638671873
1758974240417212400,10.67421240234375,-9.636362406921386,0.8863035270690918,-2.158672071838379
1758974240427169500,10.68416943359375,-9.60838017501831,0.8578723823547363,-2.0617069046020506
1758974240437126400,10.69412646484375,-9.565733457946777,0.8450035484313965,-1.989282304382324
1758974240447083500,10.70408349609375,-9.543736730194091,0.8658031753540039,-1.9671359390258787
1758974240457040600,10.71404052734375,-9.528922607421874,0.8815151237487793,-1.9370587806701658
1758974240466997500,10.72399755859375,-9.536703762817382,0.9062053283691406,-1.9309236389160156
1758974240476954400,10.733954345703125,-9.539097964477538,0.9193734375,-1.939602619934082
1758974240486912500,10.74391259765625,-9.553313536834716,0.956333925628662,-1.9271826988220213
1758974240496869600,10.75386962890625,-9.539397239685059,0.971746598815918,-1.8887258346557616
1758974240506826500,10.763826416015625,-9.552266073608397,0.9910498497009277,-1.8683751205444334
1758974240516783400,10.773783447265625,-9.612420390319823,1.04701431350708,-1.8466776679992676
1758974240526740500,10.783740478515625,-9.635464581298828,1.0365396812438965,-1.8197428993225098
1758974240536697300,10.793697265625,-9.631424365997313,1.0167875175476073,-1.8281226051330566
1758974240546654500,10.803654541015625,-9.605836335754393,0.9724947868347167,-1.892317137145996
1758974240556611600,10.813611572265625,-9.572167874908446,0.9522937103271484,-1.9288287124633787
1758974240566568400,10.823568359375,-9.560645779418945,0.929548794555664,-1.9448399360656736
1758974240576525600,10.833525634765625,-9.549572596740722,0.9029133010864258,-1.9322703773498533
1758974240586482400,10.843482421875,-9.591770401000977,0.8840589630126953,-1.9334674781799315
1758974240596439300,10.853439208984375,-9.624840311431884,0.852335791015625,-1.9415479087829588
1758974240606396400,10.863396484375,-9.656114570617675,0.8259995727539062,-1.9361609550476073
1758974240616353500,10.873353515625,-9.633220017242431,0.8677484642028808,-1.9051859710693357
1758974240626310700,10.883310546875,-9.58339069519043,0.9431658164978027,-1.8695722213745116
1758974240636267500,10.893267578125,-9.545682019042967,0.9814730430603027,-1.8586486763000487
1758974240646224400,10.903224365234376,-9.517400511932372,1.0324994659423827,-1.8646341804504394
1758974240656181500,10.913181396484376,-9.578901567077637,1.020827732849121,-1.8800468536376953
1758974240666138400,10.923138427734376,-9.580547580718994,1.029207438659668,-1.911470750427246
1758974240676096500,10.933096435546876,-9.593715689849853,1.0275614250183105,-1.9352631294250486
1758974240686053600,10.9430537109375,-9.607183074188232,1.0140940406799315,-1.9735703559875488
1758974240696010500,10.953010498046876,-9.62843161392212,1.0012252067565917,-1.9891326667785643
1758974240705967400,10.96296728515625,-9.628281976318359,0.975487538909912,-2.025195329284668
1758974240715924500,10.972924560546875,-9.600000469207764,0.9730933372497558,-2.0317793838500977
1758974240725881600,10.982881591796875,-9.539546877288817,0.9925462257385254,-2.0018518630981443
1758974240735838500,10.99283837890625,-9.478045822143555,1.0103531005859374,-1.9734207183837889
1758974240745795600,11.002795654296875,-9.462633148956298,0.9897031112670898,-1.9864391899108886
1758974240755752400,11.01275244140625,-9.465625901031494,1.0136451278686522,-2.01741417388916
1758974240765709300,11.022709228515625,-9.523984566497802,1.121084927368164,-1.9934721572875975
1758974240775666400,11.03266650390625,-9.55720411453247,1.1137526847839354,-2.031480108642578
1758974240785623600,11.04262353515625,-9.528174419403076,1.0975918235778808,-2.0503344467163083
1758974240795580400,11.052580322265625,-9.44916576461792,1.0330980163574217,-2.009932293701172
1758974240805537500,11.06253759765625,-9.388562535095215,0.9784802909851074,-1.9647417373657226
1758974240815494700,11.07249462890625,-9.393201300811768,0.9171288734436035,-1.9352631294250486
1758974240825451300,11.082451171875,-9.477447271728515,0.8969277969360351,-1.923591396331787
1758974240835408400,11.092408447265624,-9.589974749755859,0.8913912055969238,-1.9162591537475584
1758974240845365500,11.102365478515624,-9.693823246765136,0.847248112487793,-1.9451392112731933
1758974240855322400,11.112322265625,-9.701155489349365,0.7832032180786133,-2.0383634384155274
1758974240865279500,11.122279541015626,-9.654019644165038,0.6693290016174316,-2.0682909591674803
1758974240875237400,11.1322373046875,-9.549123683929443,0.6866869636535644,-2.092681888580322
1758974240885194500,11.142194580078124,-9.534010285949707,0.8845078758239746,-2.1248539733886718
1758974240895151400,11.1521513671875,-9.535057749176024,1.0218751960754393,-2.1902456062316893
1758974240905108500,11.1621083984375,-9.472209955596924,1.0497077903747558,-2.1561282325744626
1758974240915065600,11.172065673828126,-9.414749115753173,1.0790367607116698,-2.0418051033020017
1758974240925022500,11.1820224609375,-9.393799851226806,1.1100117446899413,-1.9743185440063475
1758974240934979300,11.191979248046875,-9.413103102111815,1.116595799255371,-1.9330185653686522
1758974240944936400,11.2019365234375,-9.438242219543456,1.1411363662719727,-1.98554136428833
1758974240954893600,11.2118935546875,-9.460238947296142,1.204732347869873,-2.0661960327148434
1758974240964850400,11.221850341796875,-9.46233387374878,1.299901863861084,-2.170194167327881
1758974240974807600,11.2318076171875,-9.437942944335937,1.3263877197265623,-2.2999299697875975
1758974240984764700,11.2417646484375,-9.386467608642578,1.3208511283874511,-2.366817978668213
1758974240994721500,11.251721435546875,-9.305513665008544,1.420509772491455,-2.344970888519287
1758974241004678400,11.261678466796875,-9.296685046386719,1.552041226196289,-2.3249194496154786
1758974241014635500,11.271635498046875,-9.276633607482909,1.6594810256958006,-2.314145542144775
1758974241024592400,11.28159228515625,-9.270498465728759,1.6754922492980957,-2.3597850112915038
1758974241034549500,11.291549560546875,-9.349357482910156,1.6955436882019042,-2.3508067550659177
1758974241044506600,11.301506591796874,-9.369408921813964,1.6639701538085936,-2.3383868339538574
1758974241054463500,11.31146337890625,-9.371354210662842,1.708412522125244,-2.4129063606262204
1758974241064420400,11.32142041015625,-9.759514154815673,1.9387047943115234,-2.260724917602539
1758974241074378500,11.33137841796875,-10.116998390197754,2.123656872558594,-1.9194015434265135
1758974241084335600,11.341335693359374,-10.25930375137329,2.2397756530761717,-1.3570634284973144
1758974241094292500,11.35129248046875,-10.040383937072754,2.2297499336242677,-0.9491513206481933
1758974241104249600,11.36124951171875,-9.711630121612549,2.2897546127319335,-1.0119991142272948
1758974241114206500,11.37120654296875,-9.789890588378906,2.412756723022461,-1.5138836372375488
1758974241124163300,11.381163330078126,-10.057292986297607,2.550423318481445,-1.7739537925720215
1758974241134120400,11.391120361328126,-10.229675505828856,2.5903765586853025,-1.8589479515075682
1758974241144077600,11.40107763671875,-10.396970346832275,2.5656863540649413,-1.9762638328552244
1758974241154034400,11.411034423828125,-10.378265646362305,2.4735095901489257,-2.03043264541626
1758974241163991600,11.420991455078125,-10.19570776977539,2.5103204406738278,-1.9502268898010253
1758974241173948400,11.430948486328125,-9.604639234924315,2.773832260894775,-1.5664064361572265
1758974241183905300,11.4409052734375,-9.277681070709228,2.7148750450134274,-1.1315595596313477
1758974241193862400,11.4508623046875,-9.996689756774902,1.944091748046875,-1.2087725631713866
1758974241203819500,11.460819580078125,-10.715548805236816,1.191264963531494,-1.4363713584899902
1758974241213776600,11.470776611328125,-10.935665720367432,0.651821401977539,-1.9425953720092772
1758974241223733500,11.4807333984375,-11.565041481781005,0.6109703361511231,-2.8465561363220213
1758974241233690600,11.490690673828125,-12.608314855194092,1.3658920471191405,-3.87516502456665
1758974241243647500,11.5006474609375,-11.83049859085083,2.1074960113525387,-4.259135115814209
1758974241253604400,11.510604248046874,-10.640879640960692,2.6466402976989745,-3.933374052429199
1758974241263561500,11.5205615234375,-10.255562811279296,2.405574118041992,-3.7454292221069334
1758974241273518600,11.5305185546875,-11.06465333480835,1.5665560737609863,-3.538181140899658
1758974241283476500,11.5404765625,-11.380987229156494,0.3259107009887695,-3.481318851470947
1758974241293433300,11.550433349609374,-11.787402960968016,-0.194079972076416,-3.1911715377807615
1758974241303390500,11.560390380859374,-11.949310848236083,-0.4887164138793945,-2.7275942413330077
1758974241313347600,11.57034765625,-11.972355039215087,-0.9247603912353515,-2.7684453071594235
1758974241323304400,11.580304443359376,-12.239907074737548,-1.1456254943847655,-2.945167317199707
1758974241333261600,11.590261474609376,-12.255319747924805,-1.4832079284667967,-3.3816602073669433
1758974241343218700,11.60021875,-11.852794593811035,-1.6127940933227538,-3.2324715164184568
1758974241353175300,11.61017529296875,-11.199027902984618,-1.582118384552002,-2.7856536315917966
1758974241363132400,11.62013232421875,-10.646565869903563,-1.195155541229248,-2.568978381347656
1758974241373089500,11.630089599609375,-10.644321305847168,-0.5373486351013184,-2.5918729347229004
1758974241383046400,11.64004638671875,-10.68188034439087,-0.3387795349121094,-2.4657284347534176
1758974241393003500,11.65000341796875,-10.626514430999755,-0.7074865905761718,-2.226308268737793
1758974241402961000,11.6599609375,-10.132859976196288,-1.1731588134765625,-2.080710880279541
1758974241412918000,11.66991796875,-9.470563941955566,-1.3344681503295899,-2.1829133636474607
1758974241422875100,11.679875244140625,-9.16799670715332,-1.2101193016052245,-2.2846669342041013
1758974241432832000,11.68983203125,-8.865579109954833,-1.1893196746826171,-2.3765444229125974
1758974241442789000,11.6997890625,-8.60625714263916,-1.4745289474487304,-2.636165665435791
1758974241452746200,11.709746337890625,-8.620323077392577,-1.8604443275451659,-2.8100445610046383
1758974241462703000,11.719703125,-8.589797006225586,-2.126499987030029,-2.805854708099365
1758974241472660000,11.729659912109375,-8.545953188323974,-2.2801778060913085,-2.5775077247619627
1758974241482617000,11.7396171875,-8.36953045349121,-2.311900978088379,-2.2445640563964844
1758974241492574000,11.749573974609374,-7.971943340301514,-2.3349451690673826,-1.8739117118835449
1758974241502532000,11.759531982421874,-7.650372129821777,-2.3850737663269044,-1.6156372077941894
1758974241512489000,11.769489013671874,-7.687781530761718,-2.4685715492248534,-1.6130933685302733
1758974241522446000,11.779446044921874,-7.757811929321289,-2.570325119781494,-1.604414387512207
1758974241532403000,11.78940283203125,-7.94216545715332,-2.747645680236816,-1.565358972930908
1758974241542360000,11.799360107421874,-8.153603391265868,-2.9966426528930663,-1.4983213264465332
1758974241552317200,11.809317138671876,-7.921814743041992,-3.266888165283203,-1.3997101455688477
1758974241562274000,11.819274169921876,-7.827692690277099,-3.4229601860046386,-1.4055460121154784
1758974241572231200,11.829231201171876,-7.880365126800537,-3.464110527038574,-1.5381249290466308
1758974241582188000,11.83918798828125,-7.994987531280517,-3.525312306976318,-1.847575493621826
1758974241592145000,11.849144775390625,-8.032097657012939,-3.5742438034057615,-2.22151986541748
1758974241602102000,11.85910205078125,-7.926303871154785,-3.622576749420166,-2.4753052413940426
1758974241612059100,11.86905908203125,-7.758560117340087,-3.7301661865234372,-2.5864859809875487
1758974241622016000,11.87901611328125,-7.650671405029296,-3.9175124664306638,-2.6036943054199218
1758974241631973000,11.88897314453125,-7.611615990447998,-4.26482134475708,-2.5507225936889646
1758974241641930000,11.898929931640625,-7.531110959625244,-4.726453352355957,-2.473659227752685
1758974241651886800,11.908886962890625,-7.524077992248535,-5.20963317489624,-2.4302643226623535
1758974241661844000,11.918843994140625,-7.629871778106689,-5.602581522369384,-2.392106733703613
1758974241671801000,11.928801025390625,-7.52692110671997,-5.899911441040039,-2.4009353523254395
1758974241681758200,11.93875830078125,-7.396137841033935,-6.07812982711792,-2.4161983879089353
1758974241691715000,11.948715087890625,-7.248146250915527,-6.166266375732421,-2.3095067764282224
1758974241701672200,11.958672119140624,-7.242460021972656,-6.292859788513184,-2.2726959259033204
1758974241711629000,11.968629150390624,-7.277175946044921,-6.581061813354491,-1.9819500617980956
1758974241721587000,11.9785869140625,-7.455693607330322,-6.705859574890137,-1.7781436454772948
1758974241731544000,11.9885439453125,-7.167192307281494,-6.781725839996337,-1.6461632789611815
1758974241741501200,11.998501220703124,-6.765564978790283,-6.817638864898681,-1.3884873252868652
1758974241751458000,12.0084580078125,-6.480954256439208,-6.864625072479248,-1.2452841384887694
1758974241761415000,12.018414794921876,-6.261735166931152,-6.980594215393066,-1.2789525993347166
1758974241771372000,12.0283720703125,-6.018424423217773,-7.146542317962646,-1.3769652297973631
1758974241781329200,12.0383291015625,-6.00136573638916,-7.275529932403564,-1.4803648139953614
1758974241791286000,12.0482861328125,-5.924003095245361,-7.439083833312988,-1.56416187210083
1758974241801243100,12.0582431640625,-5.682338365173339,-7.588122886657715,-1.569848101043701
1758974241811200300,12.0682001953125,-5.470601155853271,-7.709478983306885,-1.5789759948730469
1758974241821156900,12.078156982421875,-5.412092852783203,-7.7690347496032715,-1.564760422515869
1758974241831114000,12.088114013671875,-5.342960279846191,-7.7790604690551755,-1.5147814628601073
1758974241841071000,12.098071044921875,-5.231929177856445,-7.880215489196777,-1.5179238525390624
1758974241851028000,12.108028076171875,-5.230432801818847,-7.976282830810546,-1.4645032279968262
1758974241860985000,12.117985107421875,-5.22220273361206,-8.061576264953613,-1.4221557861328125
1758974241870942200,12.127942138671875,-5.097704247283935,-8.020575561523437,-1.2805986129760742
1758974241880899000,12.137899169921875,-4.7478515296936035,-7.963413996887207,-1.1198878265380858
1758974241890856000,12.14785595703125,-4.269011197662353,-8.006060713958739,-1.0525509048461914
1758974241900813000,12.15781298828125,-3.9360675292968748,-8.016684983825684,-0.9979331794738769
1758974241910770000,12.16777001953125,-3.7337574890136715,-8.01863027267456,-1.0482114143371581
1758974241920727000,12.17772705078125,-3.614047406005859,-8.160935633850098,-1.1082160934448242
1758974241930684200,12.18768408203125,-3.2773627975463864,-8.28079535446167,-1.2087725631713866
1758974241940642000,12.19764208984375,-2.8651111991882323,-8.395866671752929,-1.365592771911621
1758974241950599000,12.207598876953124,-2.5807997520446775,-8.473079675292968,-1.426196001434326
1758974241960556000,12.21755615234375,-2.293345915222168,-8.519766607666016,-1.4688427185058592
1758974241970513200,12.22751318359375,-1.996913822174072,-8.526500299835204,-1.5234604438781738
1758974241980470000,12.237469970703126,-1.8321628204345701,-8.532336166381835,-1.4339771568298338
1758974241990427100,12.24742724609375,-1.8501193328857422,-8.534281455230712,-1.268627604675293
1758974242000384000,12.257384033203126,-2.005143890380859,-8.65713392791748,-1.0654197387695312
1758974242010341000,12.267341064453126,-2.134879692840576,-8.804078054809569,-1.0365396812438965
1758974242020298000,12.277298095703125,-2.152387292480469,-8.911368216705322,-1.0500070655822753
1758974242030255000,12.287255126953125,-2.073677912902832,-8.95102218170166,-0.9862614463806152
1758974242040212200,12.297212158203125,-1.842487815093994,-9.137919548797607,-0.9723451492309569
1758974242050169000,12.307169189453125,-1.6359879219055176,-9.279027809143066,-0.8171709541320801
1758974242060126000,12.3171259765625,-1.5180734901428221,-9.095123194122314,-0.5575497116088867
1758974242070083000,12.3270830078125,-1.4296376663208008,-8.952967470550536,-0.26755203552246093
1758974242080040000,12.3370400390625,-1.695094775390625,-9.05921016921997,-0.04339490509033203
1758974242089997000,12.3469970703125,-1.961300072479248,-9.133879333496093,0.20216040267944335
1758974242099954200,12.3569541015625,-2.240074928283691,-9.139266287231445,0.6302735870361328
1758974242109911000,12.3669111328125,-2.0060417160034176,-9.089736240386962,1.1517606361389159
1758974242119868200,12.3768681640625,-1.2012906829833985,-9.079411245727538,1.458068811035156
1758974242129825000,12.386824951171874,-0.6600514701843261,-9.053523940277099,1.8408418014526367
1758974242139782000,12.396781982421874,-0.26051906814575193,-9.131485131835937,1.990629042816162
1758974242149739000,12.406739013671874,0.37723639907836914,-9.210942699432373,1.7658733619689941
1758974242159696100,12.416696044921874,0.8049006706237792,-9.143755415344238,1.3328221366882322
1758974242169654000,12.426654052734374,1.092953057861328,-8.980650427246093,0.6239888076782226
1758974242179611000,12.43661083984375,1.082029512786865,-8.83639977722168,-0.011222820281982421
1758974242189568000,12.446568115234374,0.6117185241699218,-8.933963494873046,-0.7793126403808593
1758974242199525000,12.456525146484376,0.009277531433105468,-9.141061938476563,-1.6359879219055176
1758974242209482000,12.46648193359375,-0.4176385520935058,-9.381978480529785,-2.1911434318542478
1758974242219439000,12.476439208984376,-0.824203921508789,-9.50632732925415,-2.185457202911377
1758974242229396200,12.486396240234376,-1.045069024658203,-9.495403784179686,-1.6431705268859862
1758974242239352800,12.496352783203125,-0.7050923889160156,-9.418041143035888,-0.9475053070068359
1758974242249310000,12.50631005859375,-0.263062907409668,-9.321674526214599,-0.030526071166992186
1758974242259267000,12.51626708984375,0.07197568740844726,-9.487173715972899,0.9011176498413085
1758974242269224200,12.52622412109375,0.4008791404724121,-9.703848966217041,1.5755343299865723
1758974242279181000,12.53618115234375,0.44756607284545896,-9.85737714767456,1.9823989746093749
1758974242289138200,12.54613818359375,0.4400841926574707,-10.131064324951172,1.7775450950622558
1758974242299095000,12.556094970703125,0.5000888717651367,-10.301202280426025,1.115997248840332
1758974242309052000,12.566052001953125,0.4661211357116699,-10.396820709228516,0.45878889312744137
1758974242319009000,12.576009033203125,0.3146878807067871,-10.537180781555175,-0.017657237243652344
1758974242328966100,12.585966064453125,0.17163433151245117,-10.605415528869628,-0.3779845870971679
1758974242338923000,12.595923095703125,0.1083376251220703,-10.424653303527831,-0.5433341392517089
1758974242348880100,12.605880126953124,0.025887305450439452,-10.22129580001831,-0.6156091018676757
1758974242358837200,12.615837158203124,-0.11701660614013672,-10.000580334472655,-0.4944026428222656
1758974242368793900,12.6257939453125,-0.1288379768371582,-9.917681101989746,-0.16175824966430663
1758974242378751000,12.6357509765625,0.20096330184936523,-9.799317757415771,0.26051906814575193
1758974242388708000,12.6457080078125,0.7764695259094238,-9.745148944854735,0.5181950218200684
1758974242398664400,12.65566455078125,1.3748703033447265,-9.72390040512085,0.6468833610534668
1758974242408621600,12.66562158203125,1.8414403518676756,-9.53864905166626,0.7402572257995605
