time,seconds_elapsed,z,y,x
1758974229801083000,0.058082763671875,0.5931148529052734,-2.4001386165618896,-0.3097093105316162
1758974229811040000,0.0680400390625,0.5250707864761353,-2.535935401916504,-0.2986207902431488
1758974229820997000,0.0779970703125,0.5173601508140564,-2.6891090869903564,-0.23488442599773407
1758974229830953700,0.08795361328125,0.5882002115249634,-2.649794340133667,-0.10810360312461853
1758974229840910800,0.097910888671875,0.6871251463890076,-2.4170219898223877,0.11082128435373306
1758974229850869000,0.107868896484375,0.7399641275405884,-2.0761337280273438,0.4231095016002655
1758974229860826000,0.117826171875,0.7602888345718384,-1.6190199851989746,0.7455101609230042
1758974229870783000,0.127782958984375,0.8259597420692444,-1.0930081605911255,0.99288010597229
1758974229880739800,0.13773974609375,0.8504429459571838,-0.7097150683403015,1.0740958452224731
1758974229890697000,0.147697021484375,0.8190225958824158,-0.41574427485466003,0.9333204627037048
1758974229900653800,0.15765380859375,0.8367711901664734,-0.3693482577800751,0.6414047479629517
1758974229910611000,0.16761083984375,1.0329893827438354,-0.6361229419708252,0.38512006402015686
1758974229920568000,0.177568115234375,1.465920329093933,-1.0710214376449585,0.26562803983688354
1758974229930526000,0.18752587890625,2.0955090522766113,-1.5282537937164307,0.3126718997955322
1758974229940482800,0.19748291015625,2.74880313873291,-2.024078607559204,0.4431358873844147
1758974229950440000,0.20743994140625,3.0933785438537598,-2.4167728424072266,0.549201250076294
1758974229960397000,0.21739697265625,3.1364517211914062,-2.5621402263641357,0.6517438888549805
1758974229970354000,0.22735400390625,2.9834706783294678,-2.6615405082702637,0.7764515280723572
1758974229980311000,0.23731103515625,2.689124584197998,-2.7837014198303223,0.9236500263214111
1758974229990268000,0.247267822265625,2.2676751613616943,-2.553934335708618,0.9648839831352234
1758974230000224800,0.257224853515625,1.7147079706192017,-1.9654179811477661,0.8548442721366882
1758974230010183000,0.267182861328125,1.2251901626586914,-1.4591572284698486,0.6356773972511292
1758974230020140000,0.27714013671875,0.996063768863678,-1.2420324087142944,0.4579728841781616
1758974230030097000,0.287096923828125,1.0081286430358887,-1.2010284662246704,0.438549280166626
1758974230040053800,0.2970537109375,1.1098381280899048,-1.3284484148025513,0.47357624769210815
1758974230050011000,0.307010986328125,1.217125415802002,-1.5822361707687378,0.5091494917869568
1758974230059968000,0.316968017578125,1.3503180742263794,-1.7978101968765259,0.5529826879501343
1758974230069924900,0.3269248046875,1.6848328113555908,-1.9979888200759888,0.5700787305831909
1758974230079882000,0.336882080078125,2.245413303375244,-2.3682682514190674,0.598473846912384
1758974230089839900,0.34683984375,2.8601598739624023,-2.802983283996582,0.7363267540931702
1758974230099797000,0.356796875,3.3570592403411865,-3.092827796936035,0.928447961807251
1758974230109753900,0.36675390625,3.836679458618164,-3.218323230743408,1.1841261386871338
1758974230119711000,0.3767109375,4.419244289398193,-3.3022305965423584,1.5306882858276367
1758974230129668000,0.386668212890625,4.874418258666992,-3.5219922065734863,1.781767725944519
1758974230139625000,0.396625,5.221462726593018,-3.8015966415405273,1.9230213165283203
1758974230149581800,0.406581787109375,5.523214340209961,-3.870779275894165,2.062620162963867
1758974230159539000,0.4165390625,5.6904449462890625,-3.7741832733154297,2.1831743717193604
1758974230169497000,0.4264970703125,5.586679458618164,-3.7956860065460205,2.1916768550872803
1758974230179454000,0.436453857421875,5.329310417175293,-3.8896219730377197,2.1405396461486816
1758974230189410800,0.446410888671875,5.136802673339844,-3.854074478149414,2.14835524559021
1758974230199368000,0.456367919921875,4.975650787353516,-3.6062233448028564,2.2310099601745605
1758974230209324800,0.46632470703125,4.704806327819824,-3.1793718338012695,2.2832493782043457
1758974230219282000,0.476281982421875,4.25555419921875,-2.7009341716766357,2.253084421157837
1758974230229239000,0.486239013671875,3.7530152797698975,-2.330552339553833,2.155231237411499
1758974230239196000,0.49619580078125,3.3423540592193604,-1.9422683715820312,2.055053949356079
1758974230249153800,0.50615380859375,2.9647135734558105,-1.5953178405761719,2.0224151611328125
1758974230259111000,0.51611083984375,2.6648738384246826,-1.4293259382247925,2.0506317615509033
1758974230269068000,0.526068115234375,2.4514174461364746,-1.2287840843200684,2.1587729454040527
1758974230279025000,0.53602490234375,2.2322566509246826,-1.0281267166137695,2.293189764022827
1758974230288982000,0.54598193359375,1.9945610761642456,-0.8963785767555237,2.35971736907959
1758974230298939000,0.55593896484375,1.7045685052871704,-0.7365436553955078,2.39555025100708
1758974230308895700,0.565895751953125,1.3439761400222778,-0.7565242648124695,2.355060338973999
1758974230318852900,0.575852783203125,0.9722191095352173,-1.0390154123306274,2.2329885959625244
1758974230328811000,0.58581103515625,0.6823427081108093,-1.4026927947998047,2.091252326965332
1758974230338768100,0.59576806640625,0.5124511122703552,-1.815643310546875,1.9319924116134644
1758974230348724700,0.605724853515625,0.4344328045845032,-2.0951805114746094,1.8114882707595825
1758974230358681900,0.615681884765625,0.43012166023254395,-2.0362162590026855,1.7428265810012817
1758974230368639000,0.625638916015625,0.4878533184528351,-1.782090425491333,1.660868763923645
1758974230378595800,0.635595947265625,0.4661717116832733,-1.792699933052063,1.2303192615509033
1758974230388553700,0.6455537109375,0.12298095226287842,-2.782970905303955,-1.1662534475326538
1758974230398510600,0.655510498046875,-0.7539841532707214,-2.915432929992676,-3.358246088027954
1758974230408467500,0.665467529296875,-1.1415209770202637,-2.780545711517334,-3.848325729370117
1758974230418425600,0.675425537109375,0.7359438538551331,-2.3404879570007324,-3.5306241512298584
1758974230428382700,0.6853828125,2.5348904132843018,-2.4317445755004883,-2.0878474712371826
1758974230438339600,0.695339599609375,2.4997289180755615,-2.32728910446167,-0.40128764510154724
1758974230448296400,0.70529638671875,1.610528588294983,-2.2391583919525146,0.14096543192863464
1758974230458253600,0.715253662109375,0.9617077112197876,-2.1041369438171387,-0.3462958335876465
1758974230468210700,0.725210693359375,1.1133135557174683,-1.3978749513626099,-0.9029980301856995
1758974230478167600,0.73516748046875,1.5701900720596313,0.18234552443027496,-0.9978821873664856
1758974230488124700,0.745124755859375,1.663682222366333,1.976130485534668,-0.5802839994430542
1758974230498082600,0.75508251953125,1.5599030256271362,2.319383382797241,-0.30755501985549927
1758974230508039700,0.765039794921875,1.1421403884887695,1.2367216348648071,-0.4679255187511444
1758974230517996500,0.77499658203125,0.7171722650527954,-0.24778549373149872,-0.8806960582733154
1758974230527953700,0.78495361328125,0.5233849287033081,-1.3665361404418945,-0.9117516875267029
1758974230537910800,0.794910888671875,0.3724449872970581,-1.7976659536361694,-0.5131867527961731
1758974230547867600,0.80486767578125,0.32834798097610474,-1.749864935874939,0.044703710824251175
1758974230557824500,0.814824462890625,0.34713631868362427,-1.478480577468872,0.3218402564525604
1758974230567781600,0.82478173828125,0.39030349254608154,-0.7980658411979675,0.22979536652565002
1758974230577739800,0.83473974609375,0.44157201051712036,-0.410919189453125,0.11453057080507278
1758974230587696600,0.844696533203125,0.42162686586380005,-0.30041590332984924,0.11691660434007645
1758974230597653500,0.854653564453125,0.3838834762573242,-0.31670886278152466,0.22461749613285065
1758974230607610600,0.864610595703125,0.20198029279708862,-0.4228459894657135,0.26563259959220886
1758974230617567500,0.8745673828125,-0.04835870489478111,-0.5147935152053833,0.2639542818069458
1758974230627524600,0.884524658203125,0.3210105895996094,-0.8809406757354736,0.20341168344020844
1758974230637481700,0.894481689453125,1.0579032897949219,-1.154915452003479,0.14382904767990112
1758974230647438600,0.9044384765625,1.8653054237365723,-1.0107883214950562,0.13709494471549988
1758974230657396500,0.914396484375,2.551318407058716,-0.5563875436782837,0.23929640650749207
1758974230667353600,0.924353515625,2.921628952026367,-0.22762486338615417,0.49629199504852295
1758974230677310700,0.934310791015625,2.8940796852111816,-0.21899542212486267,0.7046555876731873
1758974230687267600,0.944267578125,2.8923838138580322,-0.4514870345592499,0.7637224197387695
1758974230697224700,0.954224609375,3.354702949523926,-0.6622498631477356,0.727001428604126
1758974230707181600,0.964181640625,4.0166239738464355,-0.6038002371788025,0.48810672760009766
1758974230717138400,0.974138427734375,4.6141276359558105,-0.7401769757270813,0.23245713114738464
1758974230727095600,0.984095458984375,5.0787882804870605,-1.20832359790802,0.3434528410434723
1758974230737053700,0.9940537109375,4.719380855560303,-1.4858412742614746,0.6506234407424927
1758974230747010800,1.0040107421875,1.9372332096099854,-0.7262524366378784,1.1667693853378296
1758974230756967400,1.013967529296875,-0.3182722330093384,-1.454823613166809,0.6771499514579773
1758974230766924500,1.023924560546875,-0.09456392377614975,-0.936798632144928,0.0976814478635788
1758974230776881700,1.033881591796875,0.062073882669210434,0.11076989769935608,-0.17378228902816772
1758974230786838500,1.043838623046875,-0.07274573296308517,0.10309363156557083,-0.12235711514949799
1758974230796795600,1.053795654296875,0.010611738078296185,-0.11131320148706436,-0.01006252970546484
1758974230806752800,1.063752685546875,0.06168734282255173,-0.08513902872800827,-0.027295872569084167
1758974230816710700,1.073710693359375,-0.0530104786157608,0.029980100691318512,-0.03604036197066307
1758974230826667500,1.08366748046875,-0.17953135073184967,0.2204408198595047,-0.14346295595169067
1758974230836624600,1.093624755859375,-0.3356855511665344,0.20634177327156067,-0.23218296468257904
1758974230846581800,1.103581787109375,-0.4748622179031372,0.06653472781181335,-0.29529955983161926
1758974230856538600,1.11353857421875,-0.05895287171006203,-0.15176936984062195,-0.4591484069824219
1758974230866495500,1.12349560546875,0.6044981479644775,-0.09636399894952774,-0.2096533328294754
1758974230876452600,1.13345263671875,0.6422780156135559,0.1465999037027359,0.051290906965732574
1758974230886409500,1.143409423828125,0.4253300428390503,0.03353486210107803,0.1849835366010666
1758974230896366600,1.15336669921875,0.17084555327892303,-0.2618008852005005,0.30674538016319275
1758974230906324700,1.16332470703125,-0.19529838860034943,-0.30016931891441345,0.3757123351097107
1758974230916281600,1.173281494140625,-0.5587759017944336,-0.05332464724779129,0.2994990348815918
1758974230926238500,1.183238525390625,-0.7986035943031311,0.2652737498283386,0.14533159136772156
1758974230936195600,1.193195556640625,-0.8417952656745911,0.5092856287956238,-0.052136216312646866
1758974230946152700,1.203152587890625,-0.7365919351577759,0.7510178685188293,-0.18890053033828735
1758974230956109600,1.213109619140625,-0.5267281532287598,0.8812477588653564,-0.25001049041748047
1758974230966066700,1.223066650390625,-0.3163890242576599,0.7555289268493652,-0.18614770472049713
1758974230976023600,1.2330234375,-0.22417093813419342,0.4478299617767334,0.09224475920200348
1758974230985981700,1.242981689453125,-0.20389990508556366,-0.3863925635814667,0.6841769218444824
1758974230995938600,1.2529384765625,-0.25626298785209656,-1.192456603050232,1.2208456993103027
1758974231005895700,1.262895751953125,-0.22631391882896423,-1.5115306377410889,1.4725289344787598
1758974231015852800,1.272852783203125,0.009287697263062,-1.2478739023208618,1.437161922454834
1758974231025809400,1.282809326171875,0.8695992231369019,-0.772866427898407,1.2743852138519287
1758974231035766500,1.2927666015625,2.2366280555725098,-0.4798412322998047,1.2634575366973877
1758974231045723600,1.3027236328125,3.2882416248321533,-0.6660424470901489,1.3231306076049805
1758974231055680500,1.312680419921875,3.8554036617279053,-1.0199131965637207,1.2685075998306274
1758974231065637600,1.3226376953125,4.126194000244141,-0.7814254760742188,1.0549618005752563
1758974231075595500,1.332595458984375,4.07838249206543,-0.9440378546714783,1.4187407493591309
1758974231085552600,1.342552734375,4.103599548339844,-1.135178804397583,1.8090146780014038
1758974231095509500,1.352509521484375,4.323503494262695,-0.5464037656784058,1.6805448532104492
1758974231105466600,1.362466552734375,4.599401473999023,-0.4883902370929718,1.4265353679656982
1758974231115423700,1.372423828125,3.863924264907837,-3.286858081817627,0.7167065739631653
1758974231125380600,1.382380615234375,2.923884391784668,-4.602662086486816,0.21560722589492798
1758974231135337500,1.39233740234375,4.055410385131836,-4.804351329803467,1.2022641897201538
1758974231145294600,1.402294677734375,3.83150315284729,-4.423566818237305,1.4195045232772827
1758974231155252700,1.412252685546875,2.397526979446411,-3.3137359619140625,1.1078027486801147
1758974231165209600,1.422209716796875,1.5435296297073364,-2.209048271179199,1.0943413972854614
1758974231175166700,1.432166748046875,1.0338698625564575,-1.2429429292678833,0.9752238392829895
1758974231185123600,1.44212353515625,0.8289222121238708,-0.7182063460350037,0.894428014755249
1758974231195080400,1.45208056640625,0.8622884750366211,-0.4952762722969055,0.9395672678947449
1758974231205037600,1.46203759765625,1.0526564121246338,-0.4472992420196533,1.0070428848266602
1758974231214994700,1.47199462890625,1.2679905891418457,-0.7747721672058105,0.9939022660255432
1758974231224951600,1.48195166015625,1.4843099117279053,-1.4393178224563599,0.7857930660247803
1758974231234908700,1.49190869140625,1.688222050666809,-2.163900852203369,0.4042280912399292
1758974231244866600,1.501866455078125,1.7900537252426147,-2.694751262664795,0.06986372917890549
1758974231254823700,1.51182373046875,1.6953092813491821,-2.9840574264526367,-0.10729853808879852
1758974231264780500,1.521780517578125,1.5099596977233887,-3.030210256576538,-0.11863734573125839
1758974231274737700,1.531737548828125,1.1373616456985474,-2.7583861351013184,-0.03521649166941643
1758974231284694800,1.54169482421875,0.7793944478034973,-2.305518388748169,0.01937764883041382
1758974231294651400,1.5516513671875,0.3205312490463257,-1.5893441438674927,-0.06550262123346329
1758974231304608500,1.5616083984375,0.06283051520586014,-0.5854983925819397,-0.09878572076559067
1758974231314565600,1.571565673828125,-0.11208350956439972,0.3960106670856476,-0.16132047772407532
1758974231324523800,1.581523681640625,-0.18578268587589264,1.0088926553726196,-0.2774929702281952
1758974231334480600,1.591480712890625,-0.1832209825515747,1.4691715240478516,-0.5430908203125
1758974231344437500,1.6014375,-0.13162913918495178,1.5893384218215942,-0.6681747436523438
1758974231354394600,1.61139453125,-0.1478930562734604,1.7933259010314941,-0.7907249331474304
1758974231364351500,1.6213515625,-0.13102658092975616,2.19028377532959,-0.8797276020050049
1758974231374308600,1.63130859375,-0.11722926795482635,2.5819811820983887,-0.8400257229804993
1758974231384265700,1.641265625,-0.13809321820735931,2.8814778327941895,-0.6218222975730896
1758974231394223000,1.65122314453125,-0.20139603316783905,2.723818063735962,-0.16841645538806915
1758974231404180000,1.661179931640625,-0.35562703013420105,1.7105497121810913,0.29372549057006836
1758974231414138000,1.67113818359375,-0.027491772547364235,0.7098853588104248,0.559963583946228
1758974231424095200,1.68109521484375,0.07640569657087326,0.33458808064460754,0.3961465358734131
1758974231434052000,1.691052001953125,-0.009407209232449532,-0.038117602467536926,0.009327178820967674
1758974231444009000,1.701009033203125,-0.06113624572753906,-0.4700332581996918,-0.3412345051765442
1758974231453966000,1.710966064453125,0.03231380879878998,-0.5511035919189453,-0.4486672282218933
1758974231463923000,1.7209228515625,0.1409723162651062,-0.4650770127773285,-0.33137962222099304
1758974231473880000,1.730880126953125,0.0858030766248703,-0.3849062919616699,-0.13346439599990845
1758974231483837200,1.740837158203125,0.013205206952989101,-0.30858319997787476,0.049692876636981964
1758974231493794300,1.750794189453125,-0.026207977905869484,-0.2604271173477173,0.18078085780143738
1758974231503752000,1.760751953125,-0.014411685988307,-0.13582324981689453,0.2234971970319748
1758974231513709000,1.770708984375,-0.013503281399607658,0.19991108775138855,0.17768923938274384
1758974231523666200,1.780666259765625,-0.031451500952243805,0.5196013450622559,0.07247400283813477
1758974231533623000,1.790623046875,-0.025073498487472534,0.6675276756286621,-0.029267268255352974
1758974231543580200,1.800580078125,0.00028089090483263135,0.6812719106674194,-0.08404563367366791
1758974231553537000,1.810537109375,0.03396055847406387,0.7346003651618958,-0.09707861393690109
1758974231563494100,1.820494140625,0.04214315861463547,0.7224978804588318,-0.08192957937717438
1758974231573451000,1.830450927734375,0.012227604165673256,0.645001232624054,-0.0904594138264656
1758974231583408000,1.840408203125,-0.016458703204989433,0.6070848107337952,-0.14756567776203156
1758974231593366300,1.8503662109375,-0.06375857442617416,0.5278083682060242,-0.2082255631685257
1758974231603323000,1.860322998046875,-0.09839729964733124,0.40237489342689514,-0.21385826170444489
1758974231613280000,1.870280029296875,-0.1052331030368805,0.26609933376312256,-0.1468435376882553
1758974231623237000,1.880237060546875,-0.10194852948188782,0.13310496509075165,-0.04240765795111656
1758974231633194200,1.8901943359375,-0.13221509754657745,-0.12572871148586273,0.05873493850231171
1758974231643151000,1.900151123046875,-0.14108428359031677,-0.3250361680984497,0.10584881901741028
1758974231653108200,1.910108154296875,-0.12711679935455322,-0.39598119258880615,0.09860821813344955
1758974231663065000,1.920065185546875,-0.10777514427900314,-0.4130181670188904,0.07993073761463165
1758974231673023000,1.93002294921875,-0.07403475791215897,-0.3599224388599396,0.0597652792930603
1758974231682980000,1.93997998046875,-0.041005175560712814,-0.24810028076171875,0.052168771624565125
1758974231692937200,1.949937255859375,0.003081592731177807,-0.15861433744430542,0.07516703009605408
1758974231702894300,1.959894287109375,0.012729792855679989,-0.09138721227645874,0.12143639475107193
1758974231712851000,1.969850830078125,0.0047419085167348385,-0.08240916579961777,0.16461822390556335
1758974231722808000,1.97980810546875,-0.060474563390016556,-0.08651795983314514,0.20512190461158752
1758974231732765200,1.98976513671875,-0.09285274147987366,-0.003783671883866191,0.272665798664093
1758974231742722000,1.99972216796875,-0.08611505478620529,0.05268637090921402,0.3827120065689087
1758974231752679200,2.00967919921875,-0.17193728685379028,0.24661855399608612,0.4830159842967987
1758974231762637000,2.019636962890625,-0.14334195852279663,0.26144206523895264,0.5335603356361389
1758974231772594200,2.02959423828125,-0.03509484604001045,0.34164077043533325,0.411642462015152
1758974231782551000,2.039551025390625,-0.0032399340998381376,0.21634644269943237,0.11522649973630905
1758974231792508200,2.049508056640625,0.048275455832481384,0.01073017530143261,-0.1943233609199524
1758974231802465300,2.05946533203125,0.07733184099197388,-0.22602586448192596,-0.3287396728992462
1758974231812422100,2.069422119140625,0.1140536367893219,-0.40936079621315,-0.27319252490997314
1758974231822379000,2.07937890625,0.13623696565628052,-0.473278284072876,-0.12034120410680771
1758974231832336100,2.089336181640625,0.07252057641744614,-0.24159550666809082,-0.012886382639408112
1758974231842294000,2.0992939453125,0.006781371776014566,0.05605228990316391,0.05565667897462845
1758974231852251100,2.109251220703125,-0.06276281923055649,0.11601602286100388,0.13195304572582245
1758974231862208000,2.1192080078125,-0.04869065806269646,0.06010320782661438,0.1489608883857727
1758974231872165000,2.1291650390625,-0.03489015996456146,-0.05147125571966171,0.10785926133394241
1758974231882122000,2.1391220703125,-0.020219774916768074,-0.15273672342300415,0.06494297832250595
1758974231892079000,2.1490791015625,-0.0010298347333446145,-0.22105185687541962,0.05880678817629814
1758974231902036200,2.1590361328125,0.013134594075381756,-0.23311959207057953,0.06494435667991638
1758974231911993000,2.1689931640625,0.009304968640208244,-0.17247141897678375,0.06087904050946236
1758974231921950200,2.1789501953125,0.007669840939342976,-0.05384068191051483,0.04432297497987747
1758974231931908000,2.188908203125,0.012127973139286041,0.056082356721162796,0.01946582831442356
1758974231941865200,2.198865234375,0.008384915068745613,0.13436250388622284,-0.009048009291291237
1758974231951822000,2.208822021484375,0.008059476502239704,0.17712274193763733,-0.02891971729695797
1758974231961779200,2.218779296875,0.010847427882254124,0.1944536417722702,-0.03446347638964653
1758974231971736300,2.228736328125,0.005019365809857845,0.21286806464195251,-0.03797405585646629
1758974231981693000,2.23869287109375,-0.0021913943346589804,0.23475737869739532,-0.0406096912920475
1758974231991650000,2.248650146484375,-0.008958220481872559,0.2502601444721222,-0.03938250616192818
1758974232001607200,2.258607177734375,-0.010978566482663155,0.2661774456501007,-0.04306773096323013
1758974232011564000,2.26856396484375,-0.012205217964947224,0.2756897211074829,-0.05743788182735443
1758974232021522000,2.27852197265625,-0.01144788321107626,0.28472214937210083,-0.0805443748831749
1758974232031479000,2.28847900390625,-0.010914186015725136,0.2864452004432678,-0.10708463937044144
1758974232041436200,2.298436279296875,-0.011686095967888832,0.28797584772109985,-0.11973460763692856
1758974232051393000,2.30839306640625,-0.015371911227703094,0.29163581132888794,-0.11792658269405365
1758974232061350100,2.31835009765625,-0.01605401374399662,0.2780929207801819,-0.10475735366344452
1758974232071307300,2.328307373046875,-0.010105844587087631,0.22924548387527466,-0.09211532771587372
1758974232081264000,2.33826416015625,0.002722821431234479,0.14392293989658356,-0.07954240590333939
1758974232091221000,2.348220947265625,0.019180357456207275,0.04855700582265854,-0.07683663815259933
1758974232101178000,2.35817822265625,0.028115026652812958,-0.028835821896791458,-0.07236073166131973
1758974232111136300,2.36813623046875,0.03120269626379013,-0.072865329682827,-0.051946010440588
1758974232121093000,2.378093017578125,0.02625148557126522,-0.07924587279558182,-0.022429348900914192
1758974232131050000,2.388050048828125,0.013473106548190117,-0.07570280879735947,0.0026957120280712843
1758974232141007000,2.398007080078125,0.003109879558905959,-0.07267020642757416,0.02041042409837246
1758974232150964000,2.4079638671875,-0.0015437279362231493,-0.07422549277544022,0.03405433148145676
1758974232160921000,2.417921142578125,-0.004840091802179813,-0.07517793029546738,0.04335997626185417
1758974232170878200,2.427878173828125,-0.0023468402214348316,-0.07847492396831512,0.04857417941093445
1758974232180835000,2.4378349609375,0.0011626300401985645,-0.07566603273153305,0.05129298195242882
1758974232190792200,2.447792236328125,0.003596759168431163,-0.07155704498291016,0.04913502186536789
1758974232200750000,2.45775,0.01044816616922617,-0.06845410913228989,0.04300547391176224
1758974232210707200,2.467707275390625,0.01914525218307972,-0.06416349112987518,0.03554463014006615
1758974232220664000,2.4776640625,0.022600935772061348,-0.06131172180175781,0.021377909928560257
1758974232230621200,2.48762109375,0.02772166207432747,-0.06696374714374542,0.007189652882516384
1758974232240578000,2.497578125,0.026862680912017822,-0.07840830832719803,-0.004319320432841778
1758974232250535000,2.507534912109375,0.023435724899172783,-0.07404977828264236,-0.01765829510986805
1758974232260492000,2.517491943359375,0.016282672062516212,-0.05173349380493164,-0.02351042814552784
1758974232270449200,2.52744921875,0.010952888987958431,-0.023235276341438293,-0.02501724474132061
1758974232280406000,2.537406005859375,0.005683994386345148,-0.0024819679092615843,-0.02147579938173294
1758974232290364000,2.547364013671875,0.005492513068020344,0.011381649412214756,-0.019922910258173943
1758974232300321000,2.557321044921875,0.0030947679188102484,0.005088714882731438,-0.018425019457936287
1758974232310278100,2.567278076171875,0.0010934022720903158,-0.020541813224554062,-0.02054755762219429
1758974232320235000,2.577235107421875,0.0031369864009320736,-0.0545973926782608,-0.02392919361591339
1758974232330192100,2.587192138671875,0.003026731312274933,-0.07477376610040665,-0.030949551612138748
1758974232340149200,2.597149169921875,0.0020490705501288176,-0.06271921843290329,-0.03572149947285652
1758974232350106000,2.607106201171875,0.0004977791686542332,-0.034709688276052475,-0.036514054983854294
1758974232360063000,2.61706298828125,-0.007446484174579382,-0.013313011266291142,-0.02640017680823803
1758974232370020000,2.62702001953125,-0.016608024016022682,-0.003720305161550641,-0.008730635978281498
1758974232379978200,2.636978271484375,-0.025234201923012733,-0.00037010759115219116,0.006011395715177059
1758974232389934300,2.646934326171875,-0.02538387104868889,0.0004109975416213274,0.017825443297624588
1758974232399891500,2.656891357421875,-0.020993925631046295,0.005416136234998703,0.019760776311159134
1758974232409848300,2.666848388671875,-0.021763846278190613,0.009534981101751328,0.00998937152326107
1758974232419805200,2.67680517578125,-0.01832723617553711,0.0014823214150965214,0.002229023491963744
1758974232429762300,2.68676220703125,-0.014542616903781891,-0.0052267140708863735,-0.0011199016589671373
1758974232439719200,2.69671923828125,-0.018286488950252533,-0.004988361150026321,-0.006465930491685867
1758974232449676300,2.70667626953125,-0.01898397132754326,0.003196864388883114,-0.013932102359831333
1758974232459633400,2.71663330078125,-0.01948261633515358,0.015681877732276917,-0.020641008391976357
1758974232469591300,2.72659130859375,-0.021060539409518242,0.02731962874531746,-0.025340687483549118
1758974232479548200,2.736548095703125,-0.02157362923026085,0.030543265864253044,-0.029924120754003525
1758974232489505300,2.74650537109375,-0.0234540868550539,0.020037097856402397,-0.02772354893386364
1758974232499462400,2.75646240234375,-0.01880623959004879,-0.00045335618779063225,-0.018121760338544846
1758974232509419300,2.766419189453125,-0.022379936650395393,-0.015004069544374943,-0.009680073708295822
1758974232519376400,2.77637646484375,-0.02288956753909588,-0.022026382386684418,-0.005933510139584541
1758974232529333200,2.786333251953125,-0.01910974457859993,-0.020515039563179016,-0.0075180912390351295
1758974232539290000,2.7962900390625,-0.02098946087062359,-0.018468599766492844,-0.009318238124251366
1758974232549247200,2.806247314453125,-0.02652590535581112,-0.006167192477732897,-0.006646820809692144
1758974232559205400,2.816205322265625,-0.026828834787011147,-0.012444138526916504,-0.002053353236988187
1758974232569162500,2.82616259765625,-0.023082032799720764,-0.04364573210477829,0.003284687176346779
1758974232579119000,2.836119140625,-0.01698129251599312,-0.07379613816738129,0.0004964324180036783
1758974232589076200,2.846076171875,-0.016602590680122375,-0.0775647908449173,-0.006868273019790649
1758974232599033300,2.856033447265625,-0.012668554671108723,-0.06750204414129257,-0.016828667372465134
1758974232608990200,2.865990234375,-0.005946469493210316,-0.056884024292230606,-0.025629349052906036
1758974232618947300,2.875947265625,-0.0011001711245626211,-0.051095809787511826,-0.029626062139868736
1758974232628904400,2.885904541015625,0.002082838909700513,-0.05966666340827942,-0.02681802585721016
1758974232638861300,2.895861328125,0.00001447316026315093,-0.07730621844530106,-0.016636373475193977
1758974232648819200,2.905819091796875,-0.0010449322871863842,-0.09655048698186874,-0.007998408749699593
1758974232658776300,2.9157763671875,-0.005209220573306084,-0.10274641960859299,-0.004187664948403835
1758974232668733400,2.9257333984375,-0.006924296263605356,-0.08671365678310394,-0.007324868813157082
1758974232678690300,2.935690185546875,-0.006297682877629995,-0.07866768538951874,-0.012387462891638279
1758974232688647200,2.945647216796875,-0.005301394034177065,-0.0948256105184555,-0.017327360808849335
1758974232698604300,2.955604248046875,-0.00011693208944052458,-0.12032707780599594,-0.02599084936082363
1758974232708561400,2.9655615234375,0.0007123762625269592,-0.13601122796535492,-0.030391456559300423
1758974232718518300,2.975518310546875,0.000548480253200978,-0.14224079251289368,-0.03385022655129433
1758974232728475400,2.985475341796875,-0.003852127119898796,-0.14048443734645844,-0.0351804755628109
1758974232738433300,2.995433349609375,-0.004592936020344496,-0.1411399096250534,-0.046093910932540894
1758974232748390100,3.00539013671875,-0.00768832815811038,-0.13254162669181824,-0.05956950783729553
1758974232758347300,3.01534716796875,-0.006305924616754055,-0.10383803397417068,-0.06975798308849335
1758974232768304400,3.025304443359375,-0.008766152895987034,-0.06436412781476974,-0.07679484784603119
1758974232778261500,3.035261474609375,-0.008461152203381062,-0.049678985029459,-0.08042091131210327
1758974232788218400,3.04521826171875,-0.005698388908058405,-0.061023782938718796,-0.08190029859542847
1758974232798175200,3.05517529296875,-0.0037606297992169857,-0.08061990886926651,-0.08111144602298737
1758974232808132400,3.06513232421875,-0.003945453092455864,-0.09841647744178772,-0.07149211317300797
1758974232818089200,3.075089111328125,-0.007508255075663328,-0.09566595405340195,-0.05415607988834381
1758974232828046300,3.08504638671875,-0.01241113431751728,-0.07924783229827881,-0.03650757670402527
1758974232838004200,3.095004150390625,-0.018391601741313934,-0.06213534623384476,-0.03222009912133217
1758974232847961000,3.104961181640625,-0.01885232701897621,-0.061823755502700806,-0.03108106553554535
1758974232857918200,3.114918212890625,-0.012289024889469147,-0.07790465652942657,-0.037067435681819916
1758974232867875300,3.124875244140625,-0.005895041860640049,-0.09303221106529236,-0.04779038578271866
1758974232877832400,3.13483251953125,0.007005900610238314,-0.08753950148820877,-0.06402622908353806
1758974232887789300,3.144789306640625,0.02375292219221592,-0.07717687636613846,-0.08506946265697479
1758974232897746400,3.154746337890625,0.041109807789325714,-0.06996477395296097,-0.10435847193002701
1758974232907703300,3.164703369140625,0.06503485143184662,-0.07625036686658859,-0.10917399823665619
1758974232917660200,3.17466015625,0.08231768012046814,-0.08694320917129517,-0.11501920223236084
1758974232927618300,3.184618408203125,0.08354619890451431,-0.09182718396186829,-0.10983642190694809
1758974232937575400,3.194575439453125,0.06290345638990402,-0.08936318010091782,-0.09841839969158173
1758974232947532300,3.2045322265625,0.03873686492443085,-0.07189284265041351,-0.06732359528541565
1758974232957489200,3.2144892578125,0.019230173900723457,-0.019028445705771446,-0.032203029841184616
1758974232967446300,3.2244462890625,-0.009192679077386856,0.07830236852169037,-0.006239870097488165
1758974232977403400,3.2344033203125,-0.03592277318239212,0.17864438891410828,0.012575635686516762
1758974232987360300,3.2443603515625,-0.05411456152796745,0.22521455585956573,0.03495151549577713
1758974232997317400,3.2543173828125,-0.06320048123598099,0.17489677667617798,0.056669607758522034
1758974233007274500,3.2642744140625,-0.060107745230197906,0.06560996174812317,0.066824771463871
1758974233017231000,3.274231201171875,-0.0452190637588501,-0.025514109060168266,0.060944609344005585
1758974233027189200,3.284189208984375,-0.02765605039894581,-0.07436500489711761,0.04441836476325989
1758974233037146400,3.294146484375,-0.020523114129900932,-0.08721653372049332,0.033889610320329666
1758974233047103500,3.304103515625,-0.022041646763682365,-0.06910144537687302,0.03506060317158699
1758974233057060400,3.314060302734375,-0.031079867854714394,-0.02254115603864193,0.03976064547896385
1758974233067017200,3.324017333984375,-0.043778885155916214,0.034957289695739746,0.04058808833360672
1758974233076974300,3.333974365234375,-0.05311496555805206,0.07357458025217056,0.03319261968135834
1758974233086931200,3.34393115234375,-0.06724543124437332,0.10168956965208054,0.023475278168916702
1758974233096888300,3.353888427734375,-0.08061086386442184,0.09565917402505875,0.017792707309126854
1758974233106845400,3.363845458984375,-0.07844411581754684,0.04874279350042343,0.020205264911055565
1758974233116803300,3.37380322265625,-0.07294066250324249,-0.021541763097047806,0.028397496789693832
1758974233126760200,3.38376025390625,-0.0727585032582283,-0.05899273231625557,0.031111259013414383
1758974233136717300,3.39371728515625,-0.06882772594690323,-0.04588513448834419,0.01846468448638916
1758974233146674400,3.40367431640625,-0.0659664198756218,0.002482131589204073,-0.00005147559568285942
1758974233156631300,3.41363134765625,-0.05815186724066734,0.04675471410155296,-0.015348809771239758
1758974233166588400,3.42358837890625,-0.049560509622097015,0.06491906940937042,-0.018565643578767776
1758974233176545300,3.433545166015625,-0.04895065724849701,0.06971117109060287,-0.0161766167730093
1758974233186502100,3.443502197265625,-0.04945266246795654,0.07671182602643967,-0.009250531904399395
1758974233196459300,3.453459228515625,-0.05499936267733574,0.08508259057998657,-0.0011099532712250948
1758974233206416400,3.46341650390625,-0.06085565313696861,0.08182421326637268,0.009138955734670162
1758974233216374300,3.473374267578125,-0.062225133180618286,0.057645417749881744,0.0178372859954834
1758974233226331100,3.4833310546875,-0.061065591871738434,0.04251733049750328,0.020681805908679962
1758974233236288300,3.493288330078125,-0.05488983169198036,0.04643814265727997,0.013643482699990273
1758974233246245400,3.503245361328125,-0.04987962916493416,0.03738605976104736,-0.0018318803049623966
1758974233256202200,3.5132021484375,-0.03976147994399071,0.004855574574321508,-0.009620671160519123
1758974233266159400,3.523159423828125,-0.03268572688102722,-0.02424478530883789,-0.012921925634145737
1758974233276116500,3.533116455078125,-0.03288188949227333,-0.026411935687065125,-0.011713682673871517
1758974233286073000,3.543072998046875,-0.03573120757937431,0.0033318446949124336,-0.012919029220938683
1758974233296030200,3.5530302734375,-0.0377940908074379,0.046228181570768356,-0.01491959672421217
1758974233305988400,3.56298828125,-0.033812131732702255,0.07567927986383438,-0.018188893795013428
1758974233315945500,3.572945556640625,-0.030731458216905594,0.09404265880584717,-0.015420747920870781
1758974233325902300,3.58290234375,-0.022847436368465424,0.10259886085987091,-0.005829640664160252
1758974233335859200,3.592859130859375,-0.019395839422941208,0.1026032418012619,0.0011979569680988789
1758974233345816300,3.60281640625,-0.01549910195171833,0.10197580605745316,0.008371714502573013
1758974233355773200,3.612773193359375,-0.0175399798899889,0.09673186391592026,0.013331557624042034
1758974233365730300,3.622730224609375,-0.016845427453517914,0.08543314039707184,0.02055138722062111
1758974233375687400,3.6326875,-0.01927417702972889,0.0688226968050003,0.028016502037644386
1758974233385644300,3.642644287109375,-0.02325000986456871,0.04164594039320946,0.036563385277986526
1758974233395602000,3.652601806640625,-0.03039587289094925,0.013396247290074825,0.04651471599936485
1758974233405560000,3.66256005859375,-0.034767184406518936,-0.010420136153697968,0.05671302601695061
1758974233415517200,3.67251708984375,-0.03515595197677612,-0.030291084200143814,0.05812929943203926
1758974233425474000,3.68247412109375,-0.033797737210989,-0.04241592437028885,0.055975332856178284
1758974233435431000,3.692430908203125,-0.030483517795801163,-0.042218778282403946,0.05310770869255066
1758974233445388000,3.702387939453125,-0.022089235484600067,-0.032771214842796326,0.045039400458335876
1758974233455345200,3.71234521484375,-0.016167569905519485,-0.026618903502821922,0.033004261553287506
1758974233465302000,3.722302001953125,-0.009026570245623589,-0.02479676902294159,0.0184551440179348
1758974233475259100,3.732259033203125,-0.003975844010710716,-0.022759471088647842,0.012008074671030045
1758974233485216300,3.74221630859375,-0.0019374607363715768,-0.029648803174495697,0.007795220240950584
1758974233495172900,3.7521728515625,-0.0012966443318873644,-0.0523345060646534,0.0058563994243741035
1758974233505131000,3.762131103515625,-0.0018596365116536617,-0.0718216523528099,0.006962410174310207
1758974233515088100,3.772088134765625,-0.004937523510307074,-0.07231984287500381,0.005347257945686579
1758974233525045200,3.782045166015625,-0.009106702171266079,-0.05667324364185333,0.0006286692805588245
1758974233535002000,3.792002197265625,-0.012111644260585308,-0.047311607748270035,0.0020238717552274466
1758974233544959000,3.801958984375,-0.012944415211677551,-0.05157053470611572,0.004358931444585323
1758974233554916000,3.811916015625,-0.013072735629975796,-0.060498833656311035,0.00434403819963336
1758974233564873000,3.821873046875,-0.015104461461305618,-0.06177235767245293,0.009123080410063267
1758974233574830000,3.831830078125,-0.014759473502635956,-0.06055004894733429,0.012494655326008797
1758974233584787200,3.841787109375,-0.014842564240098,-0.056849051266908646,0.014456339180469513
1758974233594744300,3.851744384765625,-0.012918315827846527,-0.051823001354932785,0.015815317630767822
1758974233604702000,3.861701904296875,-0.009021046571433544,-0.04928154870867729,0.014577747322618961
1758974233614659000,3.8716591796875,-0.005368073470890522,-0.044896285980939865,0.008905172348022461
1758974233624616200,3.8816162109375,-0.0020210128277540207,-0.03443725407123566,0.005096851848065853
1758974233634573000,3.891572998046875,0.000013038457836955786,-0.028446385636925697,0.005216747522354126
1758974233644530200,3.9015302734375,0.0007752351812086999,-0.0314624160528183,0.002688608830794692
1758974233654487000,3.911487060546875,0.0003988741082139313,-0.03182267025113106,0.005534346215426922
1758974233664444200,3.921444091796875,-0.002345247194170952,-0.032654378563165665,0.007609747350215912
1758974233674401000,3.931401123046875,-0.002701184246689081,-0.03956863284111023,0.013240265659987926
1758974233684358100,3.941358154296875,-0.0031326161697506905,-0.03470383584499359,0.014089281670749187
1758974233694315300,3.951315185546875,-0.004206107929348946,-0.02053185924887657,0.011170648038387299
1758974233704273000,3.96127294921875,-0.002173051005229354,-0.01950680837035179,0.00880150031298399
1758974233714230000,3.97122998046875,0.0011912663467228413,-0.03975451737642288,0.003188082482665777
1758974233724187100,3.981187255859375,0.005546333733946085,-0.06653685867786407,-0.001453807344660163
1758974233734144300,3.991144287109375,0.00860845111310482,-0.07554901391267776,-0.0033815735951066017
1758974233744101000,4.00110107421875,0.01489670667797327,-0.06192641332745552,-0.006506260484457016
1758974233754058200,4.011058349609375,0.021620428189635277,-0.04963861033320427,-0.009141547605395317
1758974233764015000,4.02101513671875,0.027328116819262505,-0.048471082001924515,-0.013918725773692131
1758974233773972000,4.030971923828125,0.03184455633163452,-0.04902074113488197,-0.01950347051024437
1758974233783929000,4.04092919921875,0.029560629278421402,-0.051257263869047165,-0.019849946722388268
1758974233793886200,4.05088623046875,0.021910617128014565,-0.045843783766031265,-0.010389799252152443
1758974233803844000,4.060843994140625,0.017227448523044586,-0.035196200013160706,-0.0009510228410363197
1758974233813801000,4.070801025390625,0.016281140968203545,-0.04976917803287506,0.004909222014248371
1758974233823758000,4.080758056640625,0.014067787677049637,-0.06781555712223053,0.00463198684155941
1758974233833715200,4.090715087890625,0.014950835146009922,-0.06611984968185425,0.002045141765847802
1758974233843672000,4.100672119140625,0.011369416490197182,-0.04644494876265526,-0.003651359584182501
1758974233853629200,4.110629150390625,0.009311075322329998,-0.027404196560382843,0.0005313404835760593
1758974233863586300,4.12058642578125,0.010671418160200119,-0.012028968892991543,0.00565180042758584
1758974233873543000,4.13054296875,0.012556303292512894,-0.020374663174152374,0.006243949756026268
1758974233883500000,4.1405,0.01939716376364231,-0.038381095975637436,-0.001064829295501113
1758974233893457200,4.15045703125,0.025871003046631813,-0.05225294828414917,-0.0036677136085927486
1758974233903415300,4.160415283203125,0.024490155279636383,-0.0432882122695446,-0.0029230937361717224
1758974233913372200,4.1703720703125,0.020032163709402084,-0.015311581082642078,-0.00354169774800539
1758974233923329000,4.1803291015625,0.01561424508690834,0.017779260873794556,-0.0003898467402905226
1758974233933286100,4.1902861328125,0.014860345050692558,0.03676571324467659,-0.0019164599943906069
1758974233943243000,4.200242919921875,0.012779616750776768,0.03594066575169563,-0.006896837614476681
1758974233953200000,4.2102001953125,0.01683814823627472,0.03009648248553276,-0.01848180592060089
1758974233963157200,4.2201572265625,0.020381217822432518,0.026460204273462296,-0.027122432366013527
1758974233973114000,4.230114013671875,0.02255409210920334,0.030954256653785706,-0.029126618057489395
1758974233983071000,4.240071044921875,0.01672363467514515,0.04127134382724762,-0.022811997681856155
1758974233993028000,4.250028076171875,0.012160837650299072,0.051306962966918945,-0.010027868673205376
1758974234002986200,4.259986328125,0.00925905816257,0.06034546345472336,-0.003726296592503786
1758974234012943000,4.269943115234375,0.008006702177226543,0.054178230464458466,-0.0014926411677151918
1758974234022900200,4.279900146484375,0.009830168448388577,0.03337814286351204,-0.004795759916305542
1758974234032857000,4.289857177734375,0.011902651749551296,0.015712343156337738,-0.008621672168374062
1758974234042814000,4.29981396484375,0.015211629681289196,0.010563652962446213,-0.009676283225417137
1758974234052771000,4.30977099609375,0.012057213112711906,0.0194646455347538,-0.005587770603597164
1758974234062728200,4.319728271484375,0.010188738815486431,0.0351535938680172,-0.0027547006029635668
1758974234072685000,4.32968505859375,0.007625574711710215,0.03924085944890976,-0.0008038727100938559
1758974234082642200,4.33964208984375,0.009020804427564144,0.03436008468270302,0.0021530352532863617
1758974234092599000,4.34959912109375,0.00872848741710186,0.03455466777086258,0.002503268187865615
1758974234102557200,4.35955712890625,0.008834214881062508,0.04411941394209862,0.0005663512274622917
1758974234112514000,4.36951416015625,0.00887006800621748,0.04913106933236122,-0.0014109169133007526
1758974234122471200,4.37947119140625,0.007920384407043457,0.05815013125538826,-0.004001373890787363
1758974234132428300,4.38942822265625,0.005934030283242464,0.05893940106034279,-0.0037653911858797073
1758974234142385000,4.399385009765625,0.0024490177165716887,0.05767866224050522,0.0015486804768443108
1758974234152342000,4.409342041015625,0.00036921497667208314,0.051631830632686615,0.006314093247056007
1758974234162299100,4.419299072265625,-0.002353334566578269,0.04695478826761246,0.007943680509924889
1758974234172256000,4.429256103515625,-0.00431419163942337,0.03988752141594887,0.0066397227346897125
1758974234182213000,4.439213134765625,-0.0019948447588831186,0.027598632499575615,0.0058208005502820015
1758974234192170200,4.449170166015625,-0.0018393282080069184,0.02116362378001213,0.007067973725497723
1758974234202127000,4.459127197265625,-0.00039589492371305823,0.022678162902593613,0.010885082185268402
1758974234212085000,4.4690849609375,-0.000866417889483273,0.03235229477286339,0.013080175966024399
1758974234222042000,4.4790419921875,0.0018310979939997196,0.03621494397521019,0.011601855978369713
1758974234231999200,4.488999267578125,0.0015677514020353556,0.03856063261628151,0.014388764277100563
1758974234241956000,4.4989560546875,0.0014244732446968555,0.04433037340641022,0.01911507546901703
1758974234251913000,4.508912841796875,-0.00005188584327697754,0.04822062328457832,0.019656524062156677
1758974234261870000,4.5188701171875,-0.002270032651722431,0.047580134123563766,0.01635207235813141
1758974234271827000,4.528826904296875,-0.0006678621284663677,0.05365429073572159,0.011114686727523804
1758974234281784000,4.5387841796875,0.00008048611925914884,0.06545368582010269,0.006311141885817051
1758974234291741200,4.5487412109375,0.001973350765183568,0.06695499271154404,0.006062124855816364
1758974234301698300,4.5586982421875,0.0013291321229189634,0.05013233423233032,0.006857078522443771
1758974234311656000,4.568656005859375,0.003135371021926403,0.028289811685681343,0.004647118970751762
1758974234321613000,4.578613037109375,0.004431798122823238,0.021135229617357254,-0.0017407394479960203
1758974234331570200,4.588570068359375,0.004898888058960438,0.01860019937157631,-0.002493007807061076
1758974234341527000,4.598527099609375,0.004062921740114689,0.019248146563768387,-0.0023678389843553305
1758974234351484200,4.608484130859375,0.002606762107461691,0.019195083528757095,0.001673358492553234
1758974234361441000,4.61844091796875,0.0018259233329445124,0.019751418381929398,0.0024773667100816965
1758974234371398100,4.628398193359375,0.0022243037819862366,0.018142901360988617,0.0013567832065746188
1758974234381355000,4.63835498046875,0.0030900975689291954,0.010629324242472649,-0.002133289584890008
1758974234391311400,4.648311279296875,0.004831552505493164,-0.0038886484690010548,-0.005021658260375261
1758974234401268200,4.658268310546875,0.0046714963391423225,-0.013399062678217888,-0.007435280829668045
1758974234411225300,4.668225341796875,0.00873819924890995,-0.020137961953878403,-0.005950829014182091
1758974234421183200,4.678183349609375,0.007732855621725321,-0.0201728492975235,-0.007155376486480236
1758974234431140400,4.688140380859375,0.009885854087769985,-0.01724429428577423,-0.00701782014220953
1758974234441097200,4.69809716796875,0.011099989525973797,-0.020409727469086647,-0.006264678202569485
1758974234451054300,4.708054443359375,0.010062645189464092,-0.027599411085247993,-0.0025413332041352987
1758974234461011500,4.718011474609375,0.008084715344011784,-0.029609564691781998,-0.0020595674868673086
1758974234470968300,4.72796826171875,0.009810429997742176,-0.02747821994125843,-0.001368839293718338
1758974234480925400,4.737925537109375,0.00871746800839901,-0.027737345546483994,-0.0004359339363873005
1758974234490882300,4.74788232421875,0.007991686463356018,-0.029704535380005836,-0.0010026011150330305
1758974234500839200,4.757839111328125,0.0068545169197022915,-0.023507094010710716,-0.002560550346970558
1758974234510796300,4.76779638671875,0.005964377894997597,-0.013098850846290588,-0.003930225968360901
1758974234520754400,4.77775439453125,0.00411827489733696,-0.013845601119101048,-0.0048250481486320496
1758974234530711300,4.787711181640625,0.005714461673051119,-0.01552461739629507,-0.004518907517194748
1758974234541913300,4.798913330078125,0.004943742882460356,-0.019780347123742104,0.0038833655416965485
1758974234552492300,4.8094921875,0.00433485908433795,-0.017677413299679756,0.005446333438158035
1758974234562449400,4.819449462890625,0.006188419181853533,-0.007644221186637878,0.0037174089811742306
1758974234572406300,4.82940625,0.009470553137362003,-0.005976852960884571,-0.0013191550970077515
1758974234582363400,4.83936328125,0.007995694875717163,-0.013755413703620434,-0.0013282096479088068
1758974234592321300,4.8493212890625,0.008334213867783546,-0.022362282499670982,-0.0011268393136560917
1758974234602278100,4.859278076171875,0.007662564050406218,-0.01988421007990837,0.0012891804799437523
1758974234612235300,4.8692353515625,0.007826823741197586,-0.009113520383834839,-0.0008121696300804615
1758974234622192400,4.8791923828125,0.006322404369711876,0.004566338378936052,-0.004399980418384075
1758974234632149500,4.8891494140625,0.005090971477329731,-0.00021348847076296806,-0.00727807404473424
1758974234642106400,4.8991064453125,0.004366591572761536,-0.011175326071679592,-0.00853189080953598
1758974234652063500,4.9090634765625,0.004843957722187042,-0.010297969914972782,-0.008860195055603981
1758974234662020400,4.919020263671875,0.0074085816740989685,-0.005063260905444622,-0.00867031142115593
1758974234671977200,4.928977294921875,0.006897871382534504,-0.006036719307303429,-0.009193691425025463
1758974234681934300,4.938934326171875,0.008395100012421608,-0.0007471491117030382,-0.014178329147398472
1758974234691891500,4.948891357421875,0.008320952765643597,0.003171533113345504,-0.018366007134318352
1758974234701849300,4.958849365234375,0.010946563445031643,0.008190792985260487,-0.019768960773944855
1758974234711806200,4.96880615234375,0.010621433146297932,0.01205605361610651,-0.0201090257614851
1758974234721763300,4.978763427734375,0.012100819498300552,0.02616121992468834,-0.018406201153993607
1758974234731720400,4.988720458984375,0.006322992499917746,0.044983234256505966,-0.01436552219092846
1758974234741677300,4.99867724609375,0.00565773481503129,0.05257510766386986,-0.004584264941513538
1758974234751634400,5.008634521484375,0.00404433673247695,0.04628022760152817,0.0002459040842950344
1758974234761591600,5.018591552734375,0.0030762776732444763,0.03581001237034798,0.006562389433383942
1758974234771548200,5.028548095703125,0.0018424475565552711,0.030479442328214645,0.014556385576725006
1758974234781505300,5.03850537109375,0.0014517619274556637,0.03097452223300934,0.01651114597916603
1758974234791462400,5.04846240234375,-0.00020719075109809637,0.031236369162797928,0.012059037573635578
1758974234801419300,5.058419189453125,-0.0008535399101674557,0.033084601163864136,0.007119406014680862
1758974234811377400,5.06837744140625,-0.0017000017687678337,0.03435341268777847,0.006090081296861172
1758974234821334300,5.078334228515625,-0.0001633577630855143,0.03186921402812004,0.006505534518510103
1758974234831291400,5.08829150390625,0.000469181512016803,0.018659943714737892,0.002059719990938902
1758974234841248300,5.098248291015625,0.005220260936766863,0.002524649491533637,-0.002474045380949974
1758974234851205400,5.108205322265625,0.00783645361661911,0.0028046059887856245,-0.0037831717636436224
1758974234861162500,5.11816259765625,0.007200225722044706,0.021611051633954048,-0.0013146877754479647
1758974234871119400,5.128119384765625,0.008792638778686523,0.030231891199946404,-0.000341290608048439
1758974234881076200,5.138076171875,0.006479151081293821,0.019414398819208145,0.0023293273989111185
1758974234891033300,5.148033447265625,0.0034321730490773916,-0.0014186736661940813,0.003973024897277355
1758974234900990200,5.157990234375,0.003112327540293336,-0.01650974154472351,0.0065682753920555115
1758974234910948400,5.1679482421875,0.0007880326011218131,-0.024880431592464447,0.008570295758545399
1758974234920905500,5.177905517578125,-0.0006013385718688369,-0.01983320713043213,0.008494129404425621
1758974234930862300,5.1878623046875,-0.004575193393975496,-0.010837187059223652,0.007989959791302681
1758974234940818400,5.197818359375,-0.005035387817770243,-0.00021463679149746895,0.003638354828581214
1758974234950776300,5.2077763671875,-0.006244436837732792,0.00812025461345911,-0.0019416850991547108
1758974234960733400,5.2177333984375,-0.004594075959175825,0.01085611991584301,-0.0026279818266630173
1758974234970690300,5.227690185546875,-0.003988765645772219,0.006937282159924507,-0.006080052815377712
1758974234980647400,5.2376474609375,-0.0031786318868398666,0.002877027029171586,-0.011602915823459625
1758974234990604300,5.247604248046875,-0.0030146928038448095,0.01194280106574297,-0.015294979326426983
1758974235000561200,5.25756103515625,-0.003271954134106636,0.023578152060508728,-0.01578633114695549
1758974235010518300,5.267518310546875,-0.004630827344954014,0.02969212457537651,-0.018084434792399406
1758974235020475400,5.277475341796875,-0.0026182765141129494,0.03530074283480644,-0.024876294657588005
1758974235030432500,5.2874326171875,-0.0032762177288532257,0.04004184529185295,-0.02671951800584793
1758974235040389400,5.297389404296875,-0.005653887987136841,0.04069724678993225,-0.022874444723129272
1758974235050347300,5.30734716796875,-0.0075686839409172535,0.038925398141145706,-0.02175118401646614
1758974235060304400,5.317304443359375,-0.006310074124485254,0.03447578847408295,-0.017683472484350204
1758974235070261200,5.32726123046875,-0.006655950099229813,0.02082064189016819,-0.016043661162257195
1758974235080218400,5.33721826171875,-0.004047117196023464,0.007699512876570225,-0.010376455262303352
1758974235090175500,5.347175537109375,-0.00534893898293376,0.004101106896996498,-0.0031338250264525414
1758974235100132400,5.35713232421875,-0.0029683394823223352,0.00721380952745676,-0.0016408567316830158
1758974235110089200,5.367089111328125,-0.0037961213383823633,0.0076410649344325066,0.0004343329928815365
1758974235120046300,5.37704638671875,-0.0016789083601906896,0.002884126966819167,0.004268219694495201
1758974235130003500,5.38700341796875,-0.0030734797473996878,-0.006738264579325914,0.008230955339968204
1758974235139960300,5.396960205078125,-0.0031270093750208616,-0.01204914040863514,0.0071534402668476105
1758974235149918200,5.406918212890625,-0.00345417158678174,-0.009659095667302608,0.005694875027984381
1758974235159875300,5.416875244140625,-0.0022296500392258167,-0.009536323137581348,0.0035313230473548174
1758974235169832200,5.426832275390625,-0.0036106964107602835,-0.018159961327910423,0.0036661808844655752
1758974235179789300,5.436789306640625,-0.0018412921344861388,-0.027433887124061584,0.004155936185270548
1758974235189746400,5.446746337890625,-0.0019233005587011576,-0.026575062423944473,0.0037361611612141132
1758974235199703600,5.45670361328125,-0.0029941576067358255,-0.015817757695913315,0.006485608406364918
1758974235209660400,5.466660400390625,-0.0066990237683057785,-0.01066570170223713,0.005547752138227224
1758974235219617300,5.4766171875,-0.005713920574635267,-0.010199115611612797,0.002836920553818345
1758974235229574400,5.486574462890625,-0.006646823137998581,-0.012356038205325603,-0.003271728754043579
1758974235239531300,5.49653125,-0.006477179937064648,-0.013854066841304302,-0.005799600854516029
1758974235249489400,5.506489501953125,-0.005551533307880163,-0.018074851483106613,-0.008804282173514366
1758974235259446300,5.5164462890625,-0.0027387028094381094,-0.02149301953613758,-0.009585386142134666
1758974235269403400,5.5264033203125,-0.00443989085033536,-0.02600816637277603,-0.010753272101283073
1758974235279360300,5.5363603515625,-0.003030013060197234,-0.029934199526906013,-0.006509258411824703
1758974235289317400,5.5463173828125,-0.001204203930683434,-0.019075384363532066,-0.009789214469492435
1758974235299274500,5.5562744140625,-0.0040468620136380196,0.004228605888783932,-0.01399567723274231
1758974235309231400,5.5662314453125,-0.005913079250603914,0.008889279328286648,-0.011317649856209755
1758974235319188500,5.5761884765625,-0.006595913786441088,-0.009511033073067665,-0.009406832978129387
1758974235329145300,5.586145263671875,-0.006824315991252661,-0.022739313542842865,-0.008162576705217361
1758974235339103500,5.596103515625,-0.00779690220952034,-0.0185440331697464,-0.009098677895963192
1758974235349060400,5.606060302734375,-0.006713010370731354,-0.005949130281805992,-0.013793658465147018
1758974235359017500,5.616017578125,-0.009075500071048737,-0.0015067111235111952,-0.012287909165024757
1758974235368974300,5.625974365234375,-0.011229662224650383,-0.00692230649292469,-0.0087106479331851
1758974235378931200,5.63593115234375,-0.008821899071335793,-0.017645791172981262,-0.007101033814251423
1758974235388888300,5.645888427734375,-0.00756206875666976,-0.02441463991999626,-0.015376929193735123
1758974235398846200,5.65584619140625,-0.002420037519186735,-0.02789326012134552,-0.018109865486621857
1758974235408803000,5.665802978515625,-0.0016358483117073774,-0.022494126111268997,-0.01452004723250866
1758974235418760000,5.675760009765625,-0.001140766660682857,-0.021381722763180733,-0.007605948485434055
1758974235428717000,5.685717041015625,-0.0013862669002264738,-0.023626286536455154,-0.010819030925631523
1758974235438675200,5.69567529296875,-0.001387332216836512,-0.021100543439388275,-0.01251173671334982
1758974235448632000,5.705632080078125,-0.002686253050342202,-0.023984922096133232,-0.008390788920223713
1758974235458589200,5.715589111328125,-0.00615342240780592,-0.02746753767132759,-0.003432248951867223
1758974235468546000,5.725546142578125,-0.003059253329411149,-0.027087852358818054,-0.004104683641344309
1758974235478503000,5.7355029296875,-0.0023654999677091837,-0.01484876312315464,-0.004616543184965849
1758974235488460000,5.7454599609375,-0.000681914621964097,-0.007475237362086773,-0.006559845060110092
1758974235498417200,5.755417236328125,0.0015103996265679598,-0.012066527269780636,-0.008792639710009098
1758974235508374000,5.7653740234375,0.005676533095538616,-0.02863844856619835,-0.0085976617410779
1758974235518331100,5.7753310546875,0.004342555999755859,-0.04276518523693085,-0.005700941197574139
1758974235528289000,5.7852890625,0.0043020471930503845,-0.04499448463320732,-0.005108312238007784
1758974235538246100,5.79524609375,0.0025680630933493376,-0.03360281139612198,-0.005051054526120424
1758974235548203000,5.805203125,0.0017023810651153326,-0.015727249905467033,-0.007856039330363274
1758974235558160100,5.81516015625,0.002441941061988473,-0.004511080216616392,-0.008350055664777756
1758974235568117200,5.8251171875,0.0001495637116022408,-0.0014836833579465747,-0.008747187443077564
1758974235578073900,5.835073974609375,0.0003240007790736854,-0.005855528637766838,-0.006525312550365925
1758974235588031000,5.845031005859375,-0.00043599342461675406,-0.013497818261384964,-0.008425798267126083
1758974235597988000,5.854988037109375,0.0005709478282369673,-0.016440611332654953,-0.00726119801402092
1758974235607945000,5.864945068359375,0.0006779060349799693,-0.013440976850688457,-0.009031005203723907
1758974235617903000,5.874903076171875,0.001489371294155717,-0.0023039032239466906,-0.006952941417694092
1758974235627860000,5.88485986328125,0.00040892668766900897,0.003680485999211669,-0.004599505569785833
1758974235637817000,5.894817138671875,0.002918157260864973,0.002681268146261573,-0.0035393009893596172
1758974235647774000,5.90477392578125,0.008509743958711624,-0.0006735327187925577,-0.006272673606872559
1758974235657731000,5.91473095703125,0.007242346648126841,-0.013210630044341087,-0.007735015824437141
1758974235667688200,5.924688232421875,0.005707563832402229,-0.027523228898644447,-0.0014750994741916656
1758974235677645000,5.93464501953125,0.0029328162781894207,-0.025892307981848717,0.003920731134712696
1758974235687602000,5.944601806640625,-0.0010343517642468214,-0.01354579720646143,0.005536628887057304
1758974235697559000,5.95455908203125,-0.003076730063185096,-0.00010455679148435593,0.0009602525969967246
1758974235707516000,5.964515869140625,-0.0005480729741975665,0.015794266015291214,-0.0021711874287575483
1758974235717474000,5.97447412109375,0.000017316138837486506,0.01593993976712227,-0.006219725124537945
1758974235727431200,5.98443115234375,0.0026304926723241806,-0.008757490664720535,-0.009129030629992485
1758974235737388000,5.994387939453125,0.005241189617663622,-0.03520161658525467,-0.009526906535029411
1758974235747345000,6.004344970703125,0.004637212958186865,-0.04332535341382027,-0.003862172132357955
1758974235757302000,6.014302001953125,0.0010107867419719696,-0.0199369415640831,-0.0033833354245871305
1758974235767259100,6.024259033203125,-0.0002649113303050399,0.009192568250000477,-0.0014328141696751118
1758974235777216000,6.034216064453125,-0.000336550350766629,0.010075139813125134,-0.0010983212850987911
1758974235787173000,6.044173095703125,0.0009852922521531582,0.00885547325015068,-0.0034939113538712263
1758974235797130000,6.0541298828125,0.0019070124253630638,0.011033406481146812,-0.0025596742052584887
1758974235807086800,6.0640869140625,0.0011911659967154264,0.005035179667174816,0.0006739218952134252
1758974235817045000,6.074044921875,0.002650045556947589,-0.002362282946705818,0.0022100331261754036
1758974235827002000,6.084002197265625,0.0021890667267143726,-0.0010536228073760867,0.001283615012653172
1758974235836959200,6.093959228515625,0.000467865786049515,0.004127557389438152,-0.0013840736355632544
1758974235846915800,6.103915771484375,-0.00031263515120372176,0.01081759948283434,0.004012501332908869
1758974235856873000,6.113873046875,0.0008908473537303507,0.01265917532145977,0.005722250789403915
1758974235866830000,6.123830078125,0.00003123324131593108,0.014699649065732956,0.0063955048099160194
1758974235876787000,6.133786865234375,0.00010686699533835053,0.017701297998428345,0.005970464088022709
1758974235886744000,6.143744140625,0.0009144207579083741,0.009114128537476063,0.004952003248035908
1758974235896701200,6.153701171875,0.0005213382537476718,-0.001617345493286848,0.008810390718281269
1758974235906658000,6.163657958984375,0.0014937154483050108,-0.0013803926995024085,0.010045947507023811
1758974235916616000,6.173615966796875,-0.0016136609483510256,0.002075324999168515,0.007798505946993828
1758974235926573000,6.183572998046875,0.0018933562096208334,0.011319544166326523,0.0042417170479893684
1758974235936530200,6.1935302734375,0.00016256788512691855,0.0161819439381361,0.002618520287796855
1758974235946487000,6.203487060546875,0.0005413403850980103,0.014898746274411678,-0.0020585772581398487
1758974235956444000,6.21344384765625,0.004280152264982462,0.014287018217146397,-0.0037033455446362495
1758974235966401000,6.223401123046875,0.0015706121921539307,0.011045707389712334,-0.006805838085711002
1758974235976358000,6.23335791015625,0.0005807150737382472,0.006219793111085892,-0.002541585126891732
1758974235986315000,6.24331494140625,0.000572751450818032,0.0035579579416662455,-0.001140681328251958
1758974235996272000,6.253272216796875,0.0008308117394335568,0.0010583149269223213,-0.0020211224909871817
1758974236006230000,6.26322998046875,0.0021002276334911585,-0.0022638384252786636,-0.005898385774344206
1758974236016187000,6.273186767578125,0.000640815298538655,0.006712079979479313,-0.007968727499246597
1758974236026144000,6.28314404296875,0.00008843437535688281,0.017514679580926895,-0.007433341816067696
1758974236036101000,6.29310107421875,0.002129214582964778,0.012776914983987808,-0.004146202467381954
1758974236046058000,6.30305810546875,0.00032586214365437627,-0.00007351115345954895,-0.006191994994878769
1758974236056015000,6.31301513671875,0.003054270753636956,-0.0071386112831532955,-0.003950145095586777
1758974236065972000,6.322971923828125,0.0003603856894187629,-0.005520383827388287,-0.0008337413892149925
1758974236075929000,6.33292919921875,0.0011990151833742857,0.004949301015585661,0.0058246939443051815
1758974236085886000,6.342885986328125,0.000263251771684736,0.010371943935751915,0.006167388521134853
1758974236095843000,6.352843017578125,0.0006342301494441926,0.00850799772888422,0.001658124034292996
1758974236105801200,6.36280126953125,0.004570115823298693,0.0037627776619046926,-0.002887625712901354
1758974236115757800,6.3727578125,0.0028410633094608784,-0.0036856634542346,-0.005960443057119846
1758974236125715000,6.38271484375,0.0008215883863158524,-0.00508329039439559,-0.005764700472354889
1758974236135672000,6.392672119140625,0.0027409284375607967,-0.0022121365182101727,-0.0005523622967302799
1758974236145629200,6.402629150390625,0.0018355392385274172,-0.0038908300921320915,0.003259462071582675
1758974236155586000,6.4125859375,0.0019412667024880648,-0.006139603443443775,0.002013102639466524
1758974236165543200,6.422543212890625,0.00348395062610507,-0.006230580620467663,-0.0033734489697963
1758974236175500000,6.4325,0.005239506252110004,-0.0030060247518122196,-0.004281853325664997
1758974236185457000,6.442456787109375,0.003211523173376918,0.0009069403167814016,-0.003959247842431068
1758974236195414000,6.4524140625,0.0028088532853871584,0.008822120726108551,-0.0007626558654010296
1758974236205371100,6.46237109375,0.0034598701167851686,0.006562020629644394,-0.0018582323100417852
1758974236215329300,6.472329345703125,0.003643894335255027,-0.00487785367295146,-0.005995453335344791
1758974236225286000,6.482285888671875,0.006067202892154455,-0.011122522875666618,-0.008880961686372757
1758974236235243000,6.492242919921875,0.007348715793341398,-0.01799347996711731,-0.009980314411222935
1758974236245200100,6.5022001953125,0.005734476260840893,-0.021783333271741867,-0.007767787203192711
1758974236255157000,6.512156982421875,0.0047485739924013615,-0.015209054574370384,-0.0042737191542983055
1758974236265114000,6.522114013671875,0.0007844324572943151,-0.008570054545998573,0.00037820893339812756
1758974236275071200,6.5320712890625,-0.0013199974782764912,-0.007232615724205971,0.004437931813299656
1758974236285028000,6.542028076171875,-0.000084699597209692,-0.007647364400327206,0.0021629007533192635
1758974236294985000,6.55198486328125,0.001964869210496545,0.0017535940278321505,-0.0008584554307162762
1758974236304942000,6.561942138671875,0.0016826451756060123,0.00814642570912838,-0.00003452668897807598
1758974236314900200,6.571900146484375,0.002518079010769725,0.006121357902884483,0.002674973336979747
1758974236324857000,6.581857177734375,0.0021441136486828327,0.0037437917198985815,0.0004073292948305607
1758974236334814000,6.59181396484375,0.0027095028199255466,-0.002288001822307706,0.0012504860060289502
1758974236344771000,6.60177099609375,0.0030564568005502224,-0.0029130105394870043,0.0022853852715343237
1758974236354728000,6.61172802734375,0.0003544133505783975,-0.0015713101020082831,0.00470699742436409
1758974236364685000,6.62168505859375,-0.00101939938031137,-0.002729092724621296,0.007044842932373285
1758974236374642200,6.63164208984375,-0.0008071454358287156,-0.0014576995745301247,0.0056890277191996574
1758974236384599000,6.64159912109375,-0.0015352523187175393,0.01131052803248167,0.0022509980481117964
1758974236394555600,6.6515556640625,0.0021473667584359646,0.020680326968431473,-0.004434867762029171
1758974236404512800,6.6615126953125,0.003484482876956463,0.014809723012149334,-0.01094268448650837
1758974236414469400,6.671469482421875,0.004125239793211222,0.006189604289829731,-0.01781204342842102
1758974236424427500,6.681427490234375,0.004147960338741541,0.0026778881438076496,-0.020792987197637558
1758974236434384600,6.691384521484375,0.0027271637227386236,0.0034848256036639214,-0.02008219063282013
1758974236444341800,6.701341796875,0.0009657909977249801,0.01351427286863327,-0.01687769778072834
1758974236454298600,6.711298583984375,0.0008257086738012731,0.03257931023836136,-0.012717841193079948
1758974236464255500,6.72125537109375,0.0003881092998199165,0.040605563670396805,-0.013860248029232025
1758974236474212600,6.731212646484375,0.0011055648792535067,0.028407486155629158,-0.011438102461397648
1758974236484169500,6.74116943359375,-0.00005051150219514966,0.021502144634723663,-0.006258409470319748
1758974236494126600,6.751126708984375,-0.0013842226471751928,0.02580874226987362,-0.003044240176677704
1758974236504083700,6.761083740234375,-0.001477925106883049,0.027827663347125053,0.0006071303505450487
1758974236514040600,6.77104052734375,-0.001618273789063096,0.025246795266866684,-0.001037105219438672
1758974236523997400,6.78099755859375,0.002302936278283596,0.022466488182544708,-0.004219774156808853
1758974236533955600,6.79095556640625,0.0075743976049125195,0.014292447827756405,-0.0073327431455254555
1758974236543912700,6.80091259765625,0.007286580745130777,0.0037718096282333136,-0.007812165655195713
1758974236553869600,6.81086962890625,0.009766782633960247,0.010352480225265026,-0.0025628095027059317
1758974236563826700,6.82082666015625,0.008456731215119362,0.015873000025749207,0.0017717306036502123
1758974236573783600,6.830783447265625,0.006066011264920235,0.01692148670554161,0.0012372342171147466
1758974236583740400,6.840740478515625,0.0038551385514438152,0.013672890141606331,-0.0016249343752861023
1758974236593697500,6.850697509765625,0.0014108894392848015,0.010165240615606308,-0.0026744860224425793
1758974236603654700,6.860654541015625,-0.004393848590552807,0.007599924691021442,-0.0019544893875718117
1758974236613611500,6.870611572265625,-0.004399441182613373,0.013580585829913616,-0.0007952156011015177
1758974236623568600,6.880568603515625,-0.006927271373569965,0.010577020235359669,0.0000745940487831831
1758974236633526500,6.890526611328125,-0.004251060541719198,0.002327612368389964,-0.00006628711707890034
1758974236643483600,6.900483642578125,-0.0019323029555380344,0.0009542901534587145,-0.004246502183377743
1758974236653440500,6.9104404296875,0.0026051909662783146,-0.0014409569557756186,-0.006474502384662628
1758974236663397600,6.920397705078125,0.004297041334211826,-0.01145091000944376,-0.006072482094168663
1758974236673354800,6.930354736328125,0.0063277012668550014,-0.012228819541633129,-0.006143588572740555
1758974236683311400,6.940311279296875,0.007767770439386368,-0.001355486921966076,-0.0075909895822405815
1758974236693268500,6.9502685546875,0.008647412993013859,0.007222555112093687,-0.010392368771135807
1758974236703225600,6.9602255859375,0.0048708682879805565,0.014557858929038048,-0.00580742908641696
1758974236713182500,6.970182373046875,0.0006992928101681173,0.011778317391872406,-0.0036654481664299965
1758974236723139600,6.9801396484375,-0.002603868255391717,0.009666484780609608,-0.001839073607698083
1758974236733096700,6.9900966796875,-0.005090994294732809,0.010591133497655392,-0.0006869898643344641
1758974236743053300,7.00005322265625,-0.004488853737711906,0.006485071964561939,-0.00365534913726151
1758974236753011500,7.010011474609375,-0.005596994888037443,-0.0018061473965644836,-0.004528866149485111
1758974236762968600,7.019968505859375,-0.0043006520718336105,-0.008921509608626366,-0.0005596214905381203
1758974236772925700,7.02992578125,-0.003257225500419736,-0.004377358593046665,0.000041187508031725883
1758974236782882600,7.039882568359375,-0.0018890476785600185,0.003317472292110324,-0.004183794837445021
1758974236792839400,7.04983935546875,-0.00014228024519979954,0.0003855982795357704,-0.0058954088017344475
1758974236802796500,7.059796630859375,0.0012811650522053242,0.007350048515945673,-0.004169509746134281
1758974236812753400,7.06975341796875,0.0018633322324603796,0.022854706272482872,-0.002045106142759323
1758974236822710500,7.07971044921875,0.0033237675670534372,0.01683415099978447,-0.002826765412464738
1758974236832667600,7.089667724609375,0.002452115062624216,0.008120021782815456,-0.004792178049683571
1758974236842624800,7.099624755859375,0.0021823234856128693,0.008210020139813423,-0.0057836570776999
1758974236852581400,7.109581298828125,0.0007729785866104066,0.012614089995622635,-0.0019191442988812923
1758974236862539500,7.11953955078125,-0.0010065882233902812,0.020335445180535316,0.000984745565801859
1758974236872496600,7.12949658203125,0.0004658735706470907,0.023940565064549446,0.0002499793190509081
1758974236882453500,7.13945361328125,0.0015382166020572186,0.015578916296362877,-0.0025039641186594963
1758974236892410600,7.14941064453125,0.004195785149931908,-0.0007324132602661848,-0.004635025281459093
1758974236902367500,7.159367431640625,0.0018801805563271046,-0.012590990401804447,-0.005268916487693787
1758974236912324600,7.16932470703125,0.0009230406139977276,-0.001873897621408105,-0.0032070970628410578
1758974236922281500,7.179281494140625,0.0013109797146171331,0.009595949202775955,-0.00033130450174212456
1758974236932238600,7.189238525390625,0.0001391888945363462,0.008955991826951504,0.0003512636758387089
1758974236942195700,7.19919580078125,0.003734889905899763,0.003643567441031337,-0.0033254101872444153
1758974236952152600,7.209152587890625,0.005804166197776794,-0.009255186654627323,-0.006861289497464895
1758974236962109400,7.219109375,0.005628775805234909,-0.013579200953245163,-0.00955229066312313
1758974236972066600,7.229066650390625,0.00422156136482954,-0.0018343948759138584,-0.006053430028259754
1758974236982024700,7.239024658203125,0.002860994776710868,0.004285799339413643,-0.006539281457662582
1758974236991981600,7.248981689453125,0.002063644351437688,0.003473801538348198,-0.009493792429566383
1758974237001938700,7.258938720703125,0.00022048450773581862,0.007724152412265539,-0.010232077911496162
1758974237011895600,7.2688955078125,0.00035816995659843087,0.013613466173410416,-0.008429119363427162
1758974237021852400,7.278852294921875,-0.0013223551213741302,0.016421325504779816,-0.011236836202442646
1758974237031809500,7.2888095703125,-0.0011508475290611386,0.018289800733327866,-0.012221407145261765
1758974237041766700,7.2987666015625,-0.0014628299977630377,0.012251738458871841,-0.013496480882167816
1758974237051723500,7.3087236328125,-0.0017291461117565632,-0.00755445659160614,-0.014012867584824562
1758974237061680600,7.3186806640625,0.0007272137445397675,-0.013471324928104877,-0.011421926319599152
1758974237071637500,7.328637451171875,-0.0008525734301656485,0.006345522589981556,-0.009880222380161285
1758974237081594400,7.338594482421875,-0.0010624155402183533,0.021879494190216064,-0.008338801562786102
1758974237091551500,7.348551513671875,0.0017781120259314775,0.014288153499364853,-0.009816855192184448
1758974237101509600,7.358509521484375,0.0015058806166052818,-0.0022330335341393948,-0.014342790469527245
1758974237111466800,7.368466796875,0.0035333451814949512,-0.006660538725554943,-0.014389395713806152
1758974237121423400,7.37842333984375,0.0016672259662300348,-0.006158176809549332,-0.010844595730304718
1758974237131380500,7.38838037109375,0.0008893164922483265,-0.008009074255824089,-0.010510101914405823
1758974237141337600,7.398337646484375,-0.00001960649387910962,-0.011723669245839119,-0.010897763073444366
1758974237151294500,7.40829443359375,-0.0012981900945305824,-0.006619454827159643,-0.008189594373106956
1758974237161251600,7.41825146484375,-0.004243841394782066,0.007017476484179497,-0.00564271304756403
1758974237171208700,7.428208740234375,-0.004180991090834141,0.021631306037306786,-0.0067908018827438354
1758974237181165600,7.43816552734375,-0.005149050150066614,0.02695842832326889,-0.014045517891645432
1758974237191122400,7.448122314453125,-0.0029474147595465183,0.021012654528021812,-0.017674608156085014
1758974237201079600,7.45807958984375,0.00009254046017304063,0.0033503188751637936,-0.017459599301218987
1758974237211036400,7.468036376953125,0.0007889570551924407,-0.0022476459853351116,-0.016261443495750427
1758974237220994600,7.47799462890625,0.0001877846079878509,0.005964871495962143,-0.014710824936628342
1758974237230951400,7.487951416015625,-0.0017323545180261135,0.017850028350949287,-0.013451682403683662
1758974237240908500,7.497908447265625,-0.0015996166039258242,0.023781580850481987,-0.011567372828722
1758974237250865400,7.507865478515625,0.0000038727885112166405,0.030763057991862297,-0.016773320734500885
1758974237260822500,7.517822509765625,-0.0006161967758089304,0.037930987775325775,-0.027158401906490326
1758974237270779600,7.527779541015625,0.0013667929451912642,0.044482626020908356,-0.0334426611661911
1758974237280736500,7.537736572265625,0.002765276934951544,0.049612149596214294,-0.03796029090881348
1758974237290693600,7.547693603515625,0.0033743418753147125,0.03627583384513855,-0.03682072460651398
1758974237300650500,7.557650390625,0.004568235017359257,0.020517606288194656,-0.033039454370737076
1758974237310607600,7.567607666015625,0.004498993046581745,0.014459979720413685,-0.022495999932289124
1758974237320564500,7.577564453125,0.0028340828139334917,0.02097398415207863,-0.01724075712263584
1758974237330521600,7.587521484375,0.0001706556067802012,0.021136969327926636,-0.01614193618297577
1758974237340479500,7.5974794921875,-0.004187719896435738,0.005550126079469919,-0.012439467012882233
1758974237350436400,7.607436279296875,-0.00456349179148674,-0.009221630170941353,-0.011730000376701355
1758974237360393500,7.6173935546875,-0.0026522811967879534,-0.015873797237873077,-0.01410665363073349
1758974237370350600,7.6273505859375,0.0012037097476422787,-0.021742871031165123,-0.020321406424045563
1758974237380307500,7.637307373046875,0.0028785576578229666,-0.015041008591651917,-0.02536046877503395
1758974237390264600,7.6472646484375,0.0015400529373437166,-0.000987773877568543,-0.023954318836331367
1758974237400221200,7.65722119140625,0.0023247464559972286,0.002479271264746785,-0.025523502379655838
1758974237410178300,7.66717822265625,0.0024350015446543694,0.00569184310734272,-0.02884180285036564
1758974237420135200,7.67713525390625,0.0024580585304647684,0.005138543900102377,-0.036092113703489304
1758974237430092000,7.687092041015625,0.001282006734982133,0.0052679735235869884,-0.041577961295843124
1758974237440049200,7.697049072265625,0.000584974535740912,0.0017082362901419401,-0.04929264634847641
1758974237450006300,7.70700634765625,0.0004488870035856962,0.0028845544438809156,-0.05731409043073654
1758974237459964200,7.716964111328125,-0.002852873643860221,0.012874528765678406,-0.06356289237737656
1758974237469921000,7.726921142578125,-0.003154610050842166,0.022018758580088615,-0.07072493433952332
1758974237479878100,7.736878173828125,-0.005322997458279133,0.025404222309589386,-0.08178692311048508
1758974237489835300,7.746835205078125,-0.003971177153289318,0.02651396207511425,-0.09907403588294983
1758974237499792100,7.756792236328125,-0.0013959557982161641,0.022082800045609474,-0.11848033964633942
1758974237509749200,7.766749267578125,-0.00040472729597240686,0.015429690480232239,-0.13612112402915955
1758974237519706400,7.776706298828125,0.0009717621724121273,0.017258837819099426,-0.1569443941116333
1758974237529663000,7.7866630859375,0.001509454334154725,0.03450386971235275,-0.17417532205581665
1758974237539620000,7.7966201171875,-0.0012346945004537702,0.04130322113633156,-0.18535840511322021
1758974237549577200,7.8065771484375,-0.0032501749228686094,0.0309658981859684,-0.19611810147762299
1758974237559534000,7.8165341796875,-0.0026333588175475597,0.030715791508555412,-0.21895983815193176
1758974237569491200,7.8264912109375,-0.004980935249477625,0.044436126947402954,-0.24017031490802765
1758974237579448300,7.8364482421875,-0.009150166064500809,0.05477676913142204,-0.25931599736213684
1758974237589406200,7.84640625,-0.012839176692068577,0.059853557497262955,-0.2684059143066406
1758974237599363000,7.856363037109375,-0.014646599069237709,0.08029504865407944,-0.2790784537792206
1758974237609320200,7.8663203125,-0.014361374080181122,0.10497269779443741,-0.29254844784736633
1758974237619277300,7.87627734375,-0.011042149737477303,0.12170334905385971,-0.309213250875473
1758974237629234200,7.886234130859375,-0.008364873938262463,0.11910276859998703,-0.32949429750442505
1758974237639191000,7.89619091796875,-0.002537455642595887,0.0913274809718132,-0.3460748493671417
1758974237649148200,7.906148193359375,0.005485050845891237,0.05855275318026543,-0.3530755043029785
1758974237659105000,7.91610498046875,0.018119435757398605,0.047651488333940506,-0.35564902424812317
1758974237669062100,7.926062255859375,0.025410370901226997,0.05916832759976387,-0.3628568649291992
1758974237679019300,7.936019287109375,0.029930807650089264,0.0720016211271286,-0.36887526512145996
1758974237688976400,7.945976318359375,0.036044891923666,0.0662369430065155,-0.37264177203178406
1758974237698933200,7.955933349609375,0.041274167597293854,0.04145025461912155,-0.3797430694103241
1758974237708890000,7.96589013671875,0.05165889859199524,0.006937019061297178,-0.38221555948257446
1758974237718848300,7.97584814453125,0.058714814484119415,-0.01719779707491398,-0.37809839844703674
1758974237728805000,7.98580517578125,0.06119714677333832,-0.018990904092788696,-0.37428873777389526
1758974237738762200,7.99576220703125,0.05248820409178734,-0.007466197479516268,-0.3702021837234497
1758974237748719000,8.005718994140626,0.04618024080991745,0.015655899420380592,-0.37056782841682434
1758974237758676200,8.01567626953125,0.04803769662976265,0.024618856608867645,-0.37243765592575073
1758974237768633000,8.025633056640626,0.05326414853334427,0.016430169343948364,-0.38118669390678406
1758974237778590200,8.035590087890625,0.06353054195642471,-0.0017063635168597102,-0.39739057421684265
1758974237788547300,8.04554736328125,0.0768311619758606,-0.008659610524773598,-0.41690513491630554
1758974237798504200,8.055504150390625,0.09427380561828613,0.0012257767375558615,-0.44482359290122986
1758974237808461300,8.06546142578125,0.1146395280957222,0.0199041236191988,-0.46979179978370667
1758974237818418200,8.075418212890625,0.13432346284389496,0.030933890491724014,-0.4984903633594513
1758974237828375000,8.085375,0.14841265976428986,0.043314129114151,-0.5342792272567749
1758974237838332200,8.095332275390625,0.16437207162380219,0.06728667765855789,-0.5714584589004517
1758974237848290300,8.105290283203125,0.18138007819652557,0.06548211723566055,-0.6248681545257568
1758974237858247200,8.1152470703125,0.2360285520553589,0.028133317828178406,-0.6942741274833679
1758974237868204000,8.1252041015625,0.3191032111644745,-0.0381636843085289,-0.7597413063049316
1758974237878161200,8.1351611328125,0.4153957962989807,-0.1227421686053276,-0.8037614226341248
1758974237888118300,8.1451181640625,0.5315485596656799,-0.13329307734966278,-0.8749480247497559
1758974237898075100,8.1550751953125,0.6016601324081421,-0.23550403118133545,-0.8988680243492126
1758974237908032300,8.1650322265625,0.5377575755119324,-0.6066016554832458,-0.8762122392654419
1758974237917989400,8.1749892578125,0.41861575841903687,-0.8597161769866943,-1.0002485513687134
1758974237927946000,8.184946044921874,0.3194441795349121,-0.9555966258049011,-1.2003419399261475
1758974237937903000,8.194903076171874,0.24802105128765106,-0.9306191205978394,-1.4046214818954468
1758974237947860200,8.204860107421876,0.19232077896595,-0.886035680770874,-1.5524364709854126
1758974237957817000,8.214817138671876,0.1593678891658783,-0.7949517965316772,-1.6529582738876343
1758974237967774200,8.224774169921876,0.15856654942035675,-0.6893292665481567,-1.6779433488845825
1758974237977732000,8.234732177734376,0.19932247698307037,-0.584861159324646,-1.6483299732208252
1758974237987689200,8.244689208984376,0.30293381214141846,-0.4641323387622833,-1.5777311325073242
1758974237997646000,8.25464599609375,0.36595848202705383,-0.34616535902023315,-1.4219454526901245
1758974238007603200,8.264603271484376,0.3836541175842285,-0.2254008650779724,-1.249742031097412
1758974238017560300,8.274560302734375,0.40174350142478943,-0.05750332772731781,-1.1508233547210693
1758974238027517200,8.28451708984375,0.39990857243537903,0.1722385287284851,-1.1608328819274902
1758974238037474000,8.29447412109375,0.40447548031806946,0.3826936185359955,-1.2637237310409546
1758974238047431200,8.30443115234375,0.38975992798805237,0.45424556732177734,-1.3868576288223267
1758974238057388000,8.314387939453125,0.3766164481639862,0.4168723523616791,-1.5056777000427246
1758974238067345200,8.32434521484375,0.3698384463787079,0.33656448125839233,-1.6089435815811157
1758974238077302300,8.33430224609375,0.35271307826042175,0.22225990891456604,-1.6282309293746948
1758974238087259400,8.34425927734375,0.3487097918987274,0.2195674479007721,-1.559614896774292
1758974238097216300,8.35421630859375,0.3307763338088989,0.3909144401550293,-1.460395336151123
1758974238107173000,8.364173095703125,0.2984119951725006,0.6064885258674622,-1.407996654510498
1758974238117131300,8.37413134765625,0.25606364011764526,0.7376682162284851,-1.422458529472351
1758974238127088000,8.384088134765625,0.2209021896123886,0.6019876003265381,-1.445875644683838
1758974238137045200,8.394045166015625,0.17544570565223694,0.33137592673301697,-1.4452619552612305
1758974238147002000,8.404002197265624,0.14719489216804504,0.044490888714790344,-1.4438354969024658
1758974238156959200,8.413959228515624,0.140816330909729,-0.0888061597943306,-1.4926506280899048
1758974238166916000,8.423916015625,0.15282505750656128,-0.18494707345962524,-1.5313096046447754
1758974238176873200,8.433873291015624,0.1990431398153305,-0.25491440296173096,-1.5547682046890259
1758974238186830300,8.443830322265624,0.20151908695697784,-0.23164449632167816,-1.5406920909881592
1758974238196787200,8.453787109375,0.16470275819301605,-0.20322062075138092,-1.5118898153305054
1758974238206744300,8.463744384765626,0.13562025129795074,-0.294952929019928,-1.5008851289749146
1758974238216701200,8.473701171875,0.1157805398106575,-0.45688596367836,-1.4737602472305298
1758974238226658000,8.483657958984375,0.12417083233594894,-0.5692561864852905,-1.42367422580719
1758974238236615200,8.493615234375,0.15890288352966309,-0.6026529669761658,-1.3975622653961182
1758974238246573300,8.5035732421875,0.1961037814617157,-0.6167738437652588,-1.3997836112976074
1758974238256530200,8.5135302734375,0.24249078333377838,-0.5437268018722534,-1.4372828006744385
1758974238266487000,8.523487060546875,0.3000430464744568,-0.4636668860912323,-1.5365897417068481
1758974238276444200,8.533444091796875,0.31434401869773865,-0.3311682939529419,-1.6024761199951172
1758974238286401300,8.5434013671875,0.28177914023399353,-0.24683398008346558,-1.6411519050598145
1758974238296358100,8.553358154296875,0.2170412689447403,-0.3339332640171051,-1.6964519023895264
1758974238306315300,8.563315185546875,0.14965876936912537,-0.5559399724006653,-1.7701905965805054
1758974238316272400,8.5732724609375,0.0851612240076065,-0.7448027729988098,-1.8131963014602661
1758974238326229000,8.58322900390625,0.018596312031149864,-0.8577032685279846,-1.7536972761154175
1758974238336186000,8.59318603515625,0.02255200408399105,-0.656954288482666,-1.6988555192947388
1758974238346143200,8.603143310546875,0.04070331156253815,-0.47949451208114624,-1.6609896421432495
1758974238356100000,8.61310009765625,0.04357585310935974,-0.4485129714012146,-1.6266225576400757
1758974238366057200,8.62305712890625,0.12874267995357513,-0.43200910091400146,-1.5927135944366455
1758974238376014300,8.633014404296874,0.13297529518604279,-0.4284348785877228,-1.5899587869644165
1758974238385972200,8.64297216796875,0.08344687521457672,-0.5410029888153076,-1.6019984483718872
1758974238395929900,8.652929931640625,0.09849739074707031,-0.5963958501815796,-1.5796873569488525
1758974238405887000,8.662886962890624,0.09010976552963257,-0.5988044142723083,-1.5315717458724976
1758974238415843800,8.67284375,0.06820705533027649,-0.6311755776405334,-1.433182716369629
1758974238425800700,8.68280078125,0.043691590428352356,-0.6260007619857788,-1.3677794933319092
1758974238435757800,8.6927578125,0.05101323127746582,-0.5573943853378296,-1.420141339302063
1758974238445714700,8.702714599609376,0.09963882714509964,-0.5527716875076294,-1.5268776416778564
1758974238455671800,8.712671875,0.1271708607673645,-0.5129151344299316,-1.6126377582550049
1758974238465629000,8.72262890625,0.04131774604320526,-0.460849791765213,-1.5751585960388184
1758974238475585800,8.732585693359376,0.02503884956240654,-0.3540862798690796,-1.5081876516342163
1758974238485542700,8.742542724609375,-0.005419722758233547,-0.32031765580177307,-1.5352078676223755
1758974238495499800,8.752499755859375,-0.08341677486896515,-0.26836177706718445,-1.6240234375
1758974238505456600,8.76245654296875,-0.1799912452697754,-0.17779061198234558,-1.68500816822052
1758974238515413800,8.772413818359375,-0.22584043443202972,-0.096039317548275,-1.665496826171875
1758974238525371000,8.782370849609375,-0.22268380224704742,-0.04136142507195473,-1.6234246492385864
1758974238535328800,8.792328857421875,-0.1461074948310852,-0.05263655260205269,-1.6023203134536743
1758974238545285600,8.80228564453125,-0.016712481155991554,-0.22131983935832977,-1.6152957677841187
1758974238555242800,8.81224267578125,0.06288014352321625,-0.23589850962162018,-1.6484687328338623
1758974238565200000,8.822199951171875,0.08324640244245529,-0.17535287141799927,-1.704221487045288
1758974238575156700,8.83215673828125,0.08958836644887924,-0.029337536543607712,-1.7312579154968262
1758974238585113900,8.84211376953125,0.1039167046546936,0.05407213419675827,-1.7592817544937134
1758974238595070700,8.85207080078125,0.11939145624637604,0.059734344482421875,-1.8016531467437744
1758974238605027800,8.86202783203125,0.14989982545375824,-0.08699890226125717,-1.8423219919204712
1758974238614984700,8.871984619140624,0.1914704144001007,-0.20863395929336548,-1.8905235528945923
1758974238624941800,8.88194189453125,0.22499534487724304,-0.20689065754413605,-1.933066487312317
1758974238634899000,8.89189892578125,0.2539621591567993,-0.17075839638710022,-1.93767511844635
1758974238644855800,8.901855712890624,0.28967195749282837,-0.19238778948783875,-1.898577332496643
1758974238654813000,8.91181298828125,0.2839551568031311,-0.19842778146266937,-1.8195959329605103
1758974238664769800,8.921769775390626,0.25341108441352844,-0.17191708087921143,-1.7445454597473145
1758974238674728000,8.93172802734375,0.2015099972486496,-0.16568414866924286,-1.7065666913986206
1758974238684684800,8.941684814453126,0.1338486671447754,-0.1867915689945221,-1.6693941354751587
1758974238694642000,8.951641845703126,0.10928802937269211,-0.1935393065214157,-1.633211612701416
1758974238704598800,8.961598876953126,0.1371966153383255,-0.08939745277166367,-1.553784728050232
1758974238714555600,8.9715556640625,0.1645367592573166,0.028763744980096817,-1.448294758796692
1758974238724512800,8.9815126953125,0.18795979022979736,0.05620389059185982,-1.4152926206588745
1758974238734470000,8.991469970703125,0.1820259988307953,0.06516139209270477,-1.3835128545761108
1758974238744426800,9.0014267578125,0.16249090433120728,0.11472388356924057,-1.3263710737228394
1758974238754384000,9.0113837890625,0.18423937261104584,0.10326376557350159,-1.316935658454895
1758974238764341000,9.021341064453125,0.16363370418548584,0.11733724176883698,-1.2757184505462646
1758974238774297600,9.031297607421875,0.16772106289863586,0.08939517289400101,-1.220517635345459
1758974238784254700,9.041254638671875,0.15747429430484772,0.0639910101890564,-1.1831830739974976
1758974238794211800,9.0512119140625,0.137345090508461,0.09847256541252136,-1.1357247829437256
1758974238804168700,9.061168701171875,0.11009402573108673,0.1376122534275055,-1.0866540670394897
1758974238814125800,9.071125732421875,0.08974985033273697,0.16425341367721558,-1.035739541053772
1758974238824083700,9.081083740234375,0.09841125458478928,0.235820010304451,-0.9763664603233337
1758974238834040800,9.091040771484375,0.10750572383403778,0.3149142265319824,-0.9016567468643188
1758974238843997700,9.100997802734375,0.12766797840595245,0.2936494052410126,-0.887516975402832
1758974238853954800,9.110954833984374,0.1387271285057068,0.2684161365032196,-0.8904260396957397
1758974238863912000,9.120911865234374,0.1228749230504036,0.32615959644317627,-0.8775957226753235
1758974238873868800,9.130868896484374,0.09621798247098923,0.4078664481639862,-0.869505763053894
1758974238883825700,9.14082568359375,0.0010603077244013548,0.2761251926422119,-0.830197811126709
1758974238893782800,9.15078271484375,-0.05235125869512558,0.02993280440568924,-0.8081195950508118
1758974238903739600,9.16073974609375,-0.10557187348604202,-0.09317314624786377,-0.8317956328392029
1758974238913696800,9.17069677734375,-0.11869464814662933,-0.3033367395401001,-0.7870927453041077
1758974238923654000,9.18065380859375,-0.07345739006996155,-0.5929842591285706,-0.715937077999115
1758974238933611000,9.190611083984376,0.04947342723608017,-0.6107157468795776,-0.620667040348053
1758974238943568000,9.20056787109375,0.2684129476547241,-0.49622029066085815,-0.5578761100769043
1758974238953524700,9.210524658203125,0.5440402030944824,-0.33996614813804626,-0.5192998051643372
1758974238963481900,9.22048193359375,0.7114081382751465,-0.12356138974428177,-0.454831600189209
1758974238973439700,9.230439697265625,0.6848236918449402,0.14149898290634155,-0.34142813086509705
1758974238983396900,9.24039697265625,0.505514919757843,0.2942275404930115,-0.23687535524368286
1758974238993353700,9.250353759765625,0.32011640071868896,0.25614240765571594,-0.1741323322057724
1758974239003310800,9.260310791015625,0.24433186650276184,0.1786779761314392,-0.039095956832170486
1758974239013267700,9.270267822265625,0.22192083299160004,0.264035701751709,0.11617203801870346
1758974239023224800,9.280224853515625,0.18645045161247253,0.3780195415019989,0.1103421151638031
1758974239033182000,9.290181884765625,0.16988366842269897,0.2978539764881134,-0.05320388451218605
1758974239043138800,9.300138916015625,0.17242325842380524,0.05009368807077408,-0.19978559017181396
1758974239053096000,9.310095947265625,0.19667284190654755,-0.1544119119644165,-0.22344526648521423
1758974239063052800,9.320052734375,0.1962941437959671,-0.2711305618286133,-0.17881202697753906
1758974239073009700,9.330009765625,0.15279734134674072,-0.26392143964767456,-0.13244619965553284
1758974239082966800,9.339966796875,0.09824223071336746,-0.16430482268333435,-0.12100151926279068
1758974239092924000,9.349923828125,0.05702368915081024,-0.07712838053703308,-0.1507282555103302
1758974239102880800,9.359880859375,0.0726362019777298,-0.003172929398715496,-0.1845645308494568
1758974239112838000,9.369837890625,0.1141325831413269,-0.024211732670664787,-0.14440196752548218
1758974239122795800,9.379795654296874,0.1204056590795517,-0.1577591449022293,-0.04935162141919136
1758974239132753000,9.3897529296875,0.12780313193798065,-0.32187435030937195,0.038950640708208084
1758974239142709800,9.399709716796876,0.14611075818538666,-0.43052011728286743,0.07462368905544281
1758974239152667000,9.4096669921875,0.17155270278453827,-0.4563615620136261,0.08429824560880661
1758974239162624000,9.4196240234375,0.18273237347602844,-0.3888501524925232,0.08091309666633606
1758974239172580600,9.42958056640625,0.16593986749649048,-0.26429039239883423,0.06910109519958496
1758974239182537700,9.439537841796875,0.16666610538959503,-0.11399330198764801,0.05654881149530411
1758974239192494800,9.449494873046875,0.16029319167137146,-0.021380849182605743,0.03804482892155647
1758974239202451700,9.45945166015625,0.1722758263349533,0.039029233157634735,0.019340116530656815
1758974239212408800,9.469408935546875,0.15645574033260345,0.057534340769052505,-0.0017658432479947805
1758974239222366000,9.479365966796875,0.11630832403898239,0.02711358293890953,-0.0036625463981181383
1758974239232322800,9.48932275390625,0.05302342027425766,-0.07839933782815933,0.016685187816619873
1758974239242279700,9.49927978515625,0.015461130067706108,-0.21995806694030762,0.028872879222035408
1758974239252236800,9.50923681640625,0.019642746075987816,-0.3075788915157318,0.02384371869266033
1758974239262194000,9.51919384765625,0.0441715270280838,-0.3299235999584198,0.011371604166924953
1758974239272150800,9.52915087890625,0.06843538582324982,-0.2893142104148865,0.004999407567083836
1758974239282108700,9.539108642578125,0.07665310055017471,-0.19908100366592407,0.0075222197920084
1758974239292065800,9.549065673828125,0.08003618568181992,-0.08588315546512604,0.01022367924451828
1758974239302022700,9.559022705078124,0.07404673844575882,0.013268988579511642,0.007933626882731915
1758974239311979800,9.568979736328124,0.06063738465309143,0.08809246122837067,0.0014166570035740733
1758974239321937000,9.57893701171875,0.04719214886426926,0.13498565554618835,0.0032284054905176163
1758974239331894000,9.58889404296875,0.03437532112002373,0.11885950714349747,0.009366700425744057
1758974239341851000,9.598850830078124,0.021134348586201668,0.044364236295223236,0.020492054522037506
1758974239351807700,9.608807861328126,0.013008927926421165,-0.03802165389060974,0.036281928420066833
1758974239361764900,9.618764892578126,0.004320365842431784,-0.09689588844776154,0.04931890219449997
1758974239371721700,9.6287216796875,-0.006345631554722786,-0.09852936863899231,0.052322808653116226
1758974239381678800,9.638678955078126,-0.015835538506507874,-0.04608933627605438,0.04933767393231392
1758974239391636000,9.648635986328125,-0.02910028025507927,0.022682104259729385,0.042697664350271225
1758974239401592600,9.658592529296875,-0.035814639180898666,0.06927703320980072,0.030916905030608177
1758974239411549700,9.6685498046875,-0.03799379989504814,0.07788901031017303,0.019355563446879387
1758974239421506300,9.67850634765625,-0.04074511304497719,0.056967221200466156,0.007553764618933201
1758974239431463400,9.68846337890625,-0.04708600044250488,0.031157372519373894,0.005132976919412613
1758974239441421600,9.698421630859375,-0.05922814458608627,0.017466861754655838,0.013482519425451756
1758974239451378700,9.708378662109375,-0.07685718685388565,0.01576453261077404,0.033007409423589706
1758974239461335300,9.718335205078125,-0.09207981079816818,0.029340529814362526,0.06099483370780945
1758974239471292400,9.72829248046875,-0.10053873807191849,0.04601293429732323,0.08690322935581207
1758974239481249500,9.73824951171875,-0.1006455346941948,0.07158780097961426,0.09942727535963058
1758974239491206400,9.748206298828125,-0.09608153998851776,0.08775493502616882,0.10155003517866135
1758974239501163500,9.75816357421875,-0.08357001096010208,0.10406306385993958,0.0968058779835701
1758974239511120600,9.76812060546875,-0.07474661618471146,0.11747043579816818,0.08579647541046143
1758974239521077500,9.778077392578124,-0.06699096411466599,0.1235850602388382,0.07305750995874405
1758974239531034400,9.788034423828124,-0.05880266800522804,0.11263345927000046,0.0562032088637352
1758974239540991500,9.797991455078124,-0.04820754751563072,0.09294843673706055,0.04038296639919281
1758974239550948400,9.8079482421875,-0.04404361546039581,0.07921839505434036,0.018922196701169014
1758974239560905500,9.817905517578126,-0.036421116441488266,0.07732462137937546,-0.004636926110833883
1758974239570862600,9.827862548828126,-0.03487318754196167,0.07638523727655411,-0.01804272085428238
1758974239580819500,9.8378193359375,-0.031217999756336212,0.06399647891521454,-0.01464585866779089
1758974239590777300,9.84777734375,-0.023376666009426117,0.054884325712919235,0.005301704164594412
1758974239600734500,9.857734375,-0.021418975666165352,0.061372850090265274,0.02757798135280609
1758974239610691600,9.867691650390626,-0.016568828374147415,0.07532888650894165,0.03622100502252579
1758974239620648400,9.8776484375,-0.006419254466891289,0.0735887736082077,0.0379781611263752
1758974239630605600,9.88760546875,0.007830501534044743,0.05240995064377785,0.028131939470767975
1758974239640562400,9.8975625,0.01892256736755371,0.024906422942876816,0.015922676771879196
1758974239650519300,9.907519287109375,0.025042664259672165,0.000959914643317461,0.006614540703594685
1758974239660476400,9.917476318359375,0.03399354964494705,-0.009892466478049755,-0.010707990266382694
1758974239670433500,9.92743359375,0.04125296697020531,-0.003732440061867237,-0.02743438258767128
1758974239680390400,9.937390380859375,0.04151901602745056,0.0014170482754707336,-0.03380706161260605
1758974239690347500,9.947347412109375,0.036413341760635376,0.005694207735359669,-0.029028235003352165
1758974239700304400,9.957304443359375,0.02368396520614624,0.002510931808501482,-0.013284425251185894
1758974239710261500,9.967261474609375,0.009478345513343811,0.0031989049166440964,0.009660718031227589
1758974239720218400,9.97721826171875,0.0008734061848372221,0.006515073124319315,0.02359224483370781
1758974239730175500,9.987175537109374,-0.002388001186773181,0.01377839595079422,0.030009906738996506
1758974239740132600,9.997132568359374,-0.005928940139710903,0.023266173899173737,0.03332820534706116
1758974239750089500,10.00708935546875,-0.005648395977914333,0.034066520631313324,0.038310300558805466
1758974239760046600,10.017046630859374,-0.006183957681059837,0.04179048538208008,0.049806367605924606
1758974239770004500,10.02700439453125,-0.0053116325289011,0.03459634631872177,0.0528554730117321
1758974239779961600,10.036961669921874,0.0021904921159148216,0.034908734261989594,0.03720540553331375
1758974239789918500,10.04691845703125,0.012102510780096054,0.04046861454844475,0.017057526856660843
1758974239799875600,10.05687548828125,0.03290046751499176,0.03496093302965164,0.009495480917394161
1758974239809832400,10.06683251953125,0.05253031477332115,0.021583082154393196,0.006067287176847458
1758974239819789300,10.076789306640626,0.06473158299922943,0.010070237331092358,0.005440378561615944
1758974239829746400,10.086746337890625,0.07037484645843506,-0.020889094099402428,0.0032837921753525734
1758974239839703600,10.09670361328125,0.06298644095659256,-0.04924909397959709,0.000586808891966939
1758974239849660400,10.106660400390625,0.06990192085504532,-0.0745011493563652,-0.006517381407320499
1758974239859617500,10.116617431640625,0.06303868442773819,-0.06771781295537949,-0.00028052483685314655
1758974239869574700,10.12657470703125,0.05371333658695221,-0.027110159397125244,0.012498993426561356
1758974239879531300,10.13653125,0.04865093529224396,0.01815159246325493,0.01745886541903019
1758974239889488400,10.14648828125,0.05638420581817627,0.04625381901860237,0.013265088200569153
1758974239899445500,10.156445556640625,0.06300083547830582,0.07001054286956787,0.013856044039130211
1758974239909402400,10.16640234375,0.07423395663499832,0.07999768853187561,0.02099430188536644
1758974239919359500,10.176359375,0.08710181713104248,0.05890491604804993,0.019029421731829643
1758974239929316600,10.186316650390625,0.0910836011171341,0.010314195416867733,0.004001815337687731
1758974239939274500,10.1962744140625,0.08989237248897552,-0.06320396065711975,-0.0039245509542524815
1758974239949231400,10.2062314453125,0.0920196995139122,-0.156843900680542,-0.01538999192416668
1758974239959188500,10.2161884765625,0.09131290018558502,-0.22666345536708832,-0.033059798181056976
1758974239969145600,10.2261455078125,0.0809975266456604,-0.22844628989696503,-0.03409085422754288
1758974239979102500,10.2361025390625,0.0710948258638382,-0.17219899594783783,-0.012469181790947914
1758974239989059300,10.246059326171874,0.07353552430868149,-0.10017373412847519,0.014378216117620468
1758974239999016400,10.256016357421874,0.07838966697454453,-0.047145675867795944,0.031927648931741714
1758974240008973300,10.265973388671876,0.07765794545412064,-0.020928023383021355,0.03913907706737518
1758974240018930400,10.275930419921876,0.09311014413833618,-0.039403967559337616,0.024472251534461975
1758974240028887600,10.285887451171876,0.11501304060220718,-0.07946722954511642,-0.001638711430132389
1758974240038844700,10.2958447265625,0.1300889253616333,-0.10579977184534073,-0.02459888905286789
1758974240048801500,10.305801513671875,0.1394771784543991,-0.11561843007802963,-0.03698600456118584
1758974240058758400,10.31575830078125,0.1398494839668274,-0.09518931806087494,-0.0483076348900795
1758974240068715500,10.325715576171875,0.12983307242393494,-0.05596600100398064,-0.06263793259859085
1758974240078672400,10.33567236328125,0.10711923241615295,-0.025265876203775406,-0.06189784035086632
1758974240088629500,10.34562939453125,0.08425650000572205,-0.012236322276294231,-0.03867313638329506
1758974240098586600,10.355586669921875,0.060053423047065735,-0.00786820612847805,-0.009571179747581482
1758974240108543500,10.36554345703125,0.0343441441655159,-0.010114094242453575,0.014773938804864883
1758974240118501400,10.37550146484375,0.0029449393041431904,-0.0049323816783726215,0.026222867891192436
1758974240128458500,10.38545849609375,-0.02280469797551632,0.02114192768931389,0.01854715496301651
1758974240138415600,10.39541552734375,-0.04260556399822235,0.06826736032962799,0.001225156825967133
1758974240148372500,10.40537255859375,-0.05940478295087814,0.12370478361845016,-0.013033940456807613
1758974240158329600,10.41532958984375,-0.07556864619255066,0.17287957668304443,-0.017708685249090195
1758974240168286500,10.425286376953125,-0.09146230667829514,0.19422413408756256,-0.012922309339046478
1758974240178243300,10.435243408203124,-0.0983620211482048,0.18290570378303528,-0.003329336643218994
1758974240188200400,10.445200439453124,-0.09681001305580139,0.15490587055683136,0.00551843736320734
1758974240198157600,10.455157470703124,-0.08766338229179382,0.12778690457344055,0.007339240051805973
1758974240208114400,10.465114501953124,-0.07320261001586914,0.10368525236845016,0.006857573054730892
1758974240218071600,10.475071533203124,-0.05879916995763779,0.08799178153276443,0.005453554447740316
1758974240228028400,10.4850283203125,-0.04125440493226051,0.07102439552545547,-0.0019359670113772154
1758974240237985300,10.4949853515625,-0.029356999322772026,0.048814959824085236,-0.010632785968482494
1758974240247942400,10.5049423828125,-0.01787898875772953,0.021068204194307327,-0.016690826043486595
1758974240257899500,10.5148994140625,-0.01227782852947712,-0.00876426137983799,-0.02479162998497486
1758974240267856400,10.5248564453125,-0.007660300470888615,-0.03831217437982559,-0.028376994654536247
1758974240277813500,10.5348134765625,0.002072754083201289,-0.06969434022903442,-0.02514604665338993
1758974240287770600,10.5447705078125,0.005311743356287479,-0.08917277306318283,-0.017674162983894348
1758974240297727500,10.5547275390625,0.015358518809080124,-0.08896131813526154,-0.0016525855753570795
1758974240307685400,10.564685302734375,0.025833969935774803,-0.07836499810218811,0.011638043448328972
1758974240317642500,10.574642578125,0.031508371233940125,-0.05248652771115303,0.01729007065296173
1758974240327599600,10.584599609375,0.036347802728414536,-0.012287150137126446,0.01216907612979412
1758974240337556500,10.594556396484375,0.03480583429336548,0.02515103667974472,-0.0018745716661214828
1758974240347513300,10.604513427734375,0.02972099371254444,0.048524633049964905,-0.021373387426137924
1758974240357470500,10.614470458984375,0.015981214120984077,0.05993308499455452,-0.03952602297067642
1758974240367427600,10.624427490234375,-0.0024069752544164658,0.06722946465015411,-0.053817830979824066
1758974240377384400,10.634384521484375,-0.015504134818911552,0.045290350914001465,-0.06161396950483322
1758974240387341600,10.644341552734375,-0.03010190837085247,0.0248121190816164,-0.05391685664653778
1758974240397298700,10.654298583984374,-0.03919127583503723,0.009746883064508438,-0.039376262575387955
1758974240407255300,10.66425537109375,-0.0443594828248024,0.006007124669849873,-0.024156609550118446
1758974240417212400,10.67421240234375,-0.04309501498937607,0.01595296524465084,-0.011027757078409195
1758974240427169500,10.68416943359375,-0.04013639688491821,0.020543886348605156,0.0015909533249214292
1758974240437126400,10.69412646484375,-0.037735823541879654,0.027290739119052887,0.00669223815202713
1758974240447083500,10.70408349609375,-0.03385382890701294,0.028546694666147232,-0.00001421128399670124
1758974240457040600,10.71404052734375,-0.02922791801393032,0.0192064568400383,-0.006598078180104494
1758974240466997500,10.72399755859375,-0.02139461785554886,0.0014301114715635777,-0.014297295361757278
1758974240476954400,10.733954345703125,-0.021371714770793915,-0.01969647966325283,-0.016971109434962273
1758974240486912500,10.74391259765625,-0.018841221928596497,-0.03015025705099106,-0.020010530948638916
1758974240496869600,10.75386962890625,-0.0234341099858284,-0.02943413332104683,-0.01852981373667717
1758974240506826500,10.763826416015625,-0.016923360526561737,-0.018774613738059998,-0.015919912606477737
1758974240516783400,10.773783447265625,-0.011538714170455933,-0.011464237235486507,-0.01006441842764616
1758974240526740500,10.783740478515625,-0.010414822958409786,-0.004187396727502346,-0.00037842849269509315
1758974240536697300,10.793697265625,-0.011620968580245972,0.0006068258080631495,0.005084780044853687
1758974240546654500,10.803654541015625,-0.012964226305484772,-0.00022741430439054966,0.007224603556096554
1758974240556611600,10.813611572265625,-0.01583378203213215,-0.008386541157960892,0.0034996396861970425
1758974240566568400,10.823568359375,-0.01732609048485756,-0.011363811790943146,-0.005381783936172724
1758974240576525600,10.833525634765625,-0.025325428694486618,-0.0081690838560462,-0.01544933207333088
1758974240586482400,10.843482421875,-0.036378055810928345,-0.00784280989319086,-0.01983584649860859
1758974240596439300,10.853439208984375,-0.047926321625709534,-0.007272360846400261,-0.017040858045220375
1758974240606396400,10.863396484375,-0.058678340166807175,-0.005673071835190058,-0.011217880994081497
1758974240616353500,10.873353515625,-0.06928011775016785,-0.0006705899722874165,-0.004642270505428314
1758974240626310700,10.883310546875,-0.07706334441900253,0.0075957393273711205,0.00020277011208236217
1758974240636267500,10.893267578125,-0.08471061289310455,0.026285270228981972,0.00044991145841777325
1758974240646224400,10.903224365234376,-0.08746756613254547,0.0435662567615509,0.0012891694204881787
1758974240656181500,10.913181396484376,-0.08882258832454681,0.05219489708542824,0.00022630183957517147
1758974240666138400,10.923138427734376,-0.09091818332672119,0.056546181440353394,0.0017541807610541582
1758974240676096500,10.933096435546876,-0.09563996642827988,0.049810245633125305,0.003210929688066244
1758974240686053600,10.9430537109375,-0.09337282180786133,0.030866647139191628,0.00663335807621479
1758974240696010500,10.953010498046876,-0.08983933925628662,0.0041460879147052765,0.01216261275112629
1758974240705967400,10.96296728515625,-0.08482648432254791,-0.021260449662804604,0.018558897078037262
1758974240715924500,10.972924560546875,-0.07892812043428421,-0.03260072320699692,0.02276509255170822
1758974240725881600,10.982881591796875,-0.0709141343832016,-0.025659725069999695,0.0195756908506155
1758974240735838500,10.99283837890625,-0.061612773686647415,-0.009945210069417953,0.010823745280504227
1758974240745795600,11.002795654296875,-0.04476598650217056,0.007997732609510422,0.0034244447015225887
1758974240755752400,11.01275244140625,-0.03332025185227394,0.024505071341991425,0.010205651633441448
1758974240765709300,11.022709228515625,-0.030751191079616547,0.009890769608318806,0.01394027378410101
1758974240775666400,11.03266650390625,-0.01818559691309929,-0.026058975607156754,0.015035365708172321
1758974240785623600,11.04262353515625,-0.009319956414401531,-0.06113896891474724,0.015578939579427242
1758974240795580400,11.052580322265625,-0.00924831721931696,-0.07141530513763428,0.01550783310085535
1758974240805537500,11.06253759765625,-0.00929288286715746,-0.0572412945330143,0.014624585397541523
1758974240815494700,11.07249462890625,-0.00797648262232542,-0.046822208911180496,0.016117818653583527
1758974240825451300,11.082451171875,-0.012040187604725361,-0.047641947865486145,0.016460131853818893
1758974240835408400,11.092408447265624,-0.024659309536218643,-0.05882243067026138,0.011852331459522247
1758974240845365500,11.102365478515624,-0.0376279391348362,-0.07084305584430695,0.0077550336718559265
1758974240855322400,11.112322265625,-0.04374388977885246,-0.06623286008834839,0.00982590764760971
1758974240865279500,11.122279541015626,-0.053624216467142105,-0.03195611387491226,0.015338118188083172
1758974240875237400,11.1322373046875,-0.06557994335889816,0.022048266604542732,0.02071717195212841
1758974240885194500,11.142194580078124,-0.07102381438016891,0.03367331251502037,0.02058718353509903
1758974240895151400,11.1521513671875,-0.059660375118255615,0.009714185260236263,0.011878380551934242
1758974240905108500,11.1621083984375,-0.05208597704768181,-0.004180328920483589,-0.004235266707837582
1758974240915065600,11.172065673828126,-0.050315506756305695,0.01028889138251543,-0.021568717435002327
1758974240925022500,11.1820224609375,-0.04407253488898277,0.02370903268456459,-0.027576688677072525
1758974240934979300,11.191979248046875,-0.038679901510477066,0.025668853893876076,-0.02146952785551548
1758974240944936400,11.2019365234375,-0.03078489564359188,0.0235118605196476,-0.017724907025694847
1758974240954893600,11.2118935546875,-0.02380315214395523,0.012285304255783558,-0.012305907905101776
1758974240964850400,11.221850341796875,-0.014285764656960964,-0.008072434924542904,-0.006241717375814915
1758974240974807600,11.2318076171875,-0.006538096349686384,-0.018742922693490982,0.003919839859008789
1758974240984764700,11.2417646484375,-0.0027513219974935055,-0.01203073188662529,0.009237566962838173
1758974240994721500,11.251721435546875,-0.014326218515634537,0.009053780697286129,0.020314186811447144
1758974241004678400,11.261678466796875,-0.012850143946707249,0.04137488454580307,0.024491282179951668
1758974241014635500,11.271635498046875,0.002345853019505739,0.10404199361801147,0.027262834832072258
1758974241024592400,11.28159228515625,0.02356254681944847,0.16218878328800201,0.033988259732723236
1758974241034549500,11.291549560546875,0.04402761161327362,0.18476678431034088,0.04850328713655472
1758974241044506600,11.301506591796874,0.06673911958932877,0.19450610876083374,0.0777917131781578
1758974241054463500,11.31146337890625,0.08202540129423141,0.18908844888210297,0.11697586625814438
1758974241064420400,11.32142041015625,0.08472005277872086,0.09552758187055588,0.13173404335975647
1758974241074378500,11.33137841796875,0.07149586081504822,-0.09437017887830734,0.12678775191307068
1758974241084335600,11.341335693359374,0.04717010259628296,-0.3129798173904419,0.1130170077085495
1758974241094292500,11.35129248046875,0.030959174036979675,-0.4142792820930481,0.11064732819795609
1758974241104249600,11.36124951171875,0.04134637862443924,-0.3982703387737274,0.14178958535194397
1758974241114206500,11.37120654296875,0.07640476524829865,-0.34539780020713806,0.19993063807487488
1758974241124163300,11.381163330078126,0.0950034111738205,-0.2857585847377777,0.21224328875541687
1758974241134120400,11.391120361328126,0.07287174463272095,-0.3241136968135834,0.1995898187160492
1758974241144077600,11.40107763671875,0.022569162771105766,-0.4625285565853119,0.1610480099916458
1758974241154034400,11.411034423828125,-0.016554271802306175,-0.4796380400657654,0.05084720626473427
1758974241163991600,11.420991455078125,-0.04981592297554016,-0.34523171186447144,-0.00711625162512064
1758974241173948400,11.430948486328125,-0.13747572898864746,-0.2234477400779724,0.08212334662675858
1758974241183905300,11.4409052734375,-0.22936587035655975,-0.3191002309322357,0.24605031311511993
1758974241193862400,11.4508623046875,-0.224081888794899,-0.5972141623497009,0.2785387337207794
1758974241203819500,11.460819580078125,-0.21192002296447754,-0.8164392709732056,0.18803338706493378
1758974241213776600,11.470776611328125,-0.22206000983715057,-0.880350649356842,0.14531707763671875
1758974241223733500,11.4807333984375,-0.2963812053203583,-0.8351662755012512,0.21171854436397552
1758974241233690600,11.490690673828125,-0.3374732434749603,-0.641517162322998,0.3481520414352417
1758974241243647500,11.5006474609375,-0.3398129642009735,-0.2726527452468872,0.5263788104057312
1758974241253604400,11.510604248046874,-0.31633639335632324,0.004539703018963337,0.6745826601982117
1758974241263561500,11.5205615234375,-0.2684920132160187,0.10208506137132645,0.7434672117233276
1758974241273518600,11.5305185546875,-0.2668618857860565,0.10874669253826141,0.7557390928268433
1758974241283476500,11.5404765625,-0.2655748128890991,0.3156123161315918,0.8985334634780884
1758974241293433300,11.550433349609374,-0.36827322840690613,0.3965074419975281,1.0992470979690552
1758974241303390500,11.560390380859374,-0.4170841574668884,0.39566922187805176,1.245967149734497
1758974241313347600,11.57034765625,-0.4180804491043091,0.3329848051071167,1.2661893367767334
1758974241323304400,11.580304443359376,-0.3445228040218353,0.1794455349445343,1.2989375591278076
1758974241333261600,11.590261474609376,-0.26106011867523193,0.051214322447776794,1.403950572013855
1758974241343218700,11.60021875,-0.22310146689414978,0.06242537125945091,1.5364172458648682
1758974241353175300,11.61017529296875,-0.19864539802074432,0.16277913749217987,1.635675311088562
1758974241363132400,11.62013232421875,-0.14909783005714417,0.24778646230697632,1.6744729280471802
1758974241373089500,11.630089599609375,-0.09244786947965622,0.16933374106884003,1.7224310636520386
1758974241383046400,11.64004638671875,-0.06145855039358139,0.0938001275062561,1.780852198600769
1758974241393003500,11.65000341796875,-0.07008133083581924,0.1154090166091919,1.8394526243209839
1758974241402961000,11.6599609375,-0.1183609813451767,0.2321753203868866,1.917665958404541
1758974241412918000,11.66991796875,-0.1903451681137085,0.30843067169189453,1.9865598678588867
1758974241422875100,11.679875244140625,-0.24088668823242188,0.3241657316684723,1.99471116065979
1758974241432832000,11.68983203125,-0.23844245076179504,0.3692256212234497,1.954668402671814
1758974241442789000,11.6997890625,-0.2041167914867401,0.38965219259262085,1.9041718244552612
1758974241452746200,11.709746337890625,-0.1679806113243103,0.3653274178504944,1.8535640239715576
1758974241462703000,11.719703125,-0.1485823690891266,0.373531699180603,1.8083832263946533
1758974241472660000,11.729659912109375,-0.1491730511188507,0.42051517963409424,1.7681875228881836
1758974241482617000,11.7396171875,-0.16065163910388947,0.4894408583641052,1.7709195613861084
1758974241492574000,11.749573974609374,-0.17931720614433289,0.5372293591499329,1.8196303844451904
1758974241502532000,11.759531982421874,-0.19057317078113556,0.49109557271003723,1.863029956817627
1758974241512489000,11.769489013671874,-0.18570491671562195,0.35530948638916016,1.8516771793365479
1758974241522446000,11.779446044921874,-0.17232972383499146,0.1885649859905243,1.7846752405166626
1758974241532403000,11.78940283203125,-0.1612035632133484,-0.01364430133253336,1.6867880821228027
1758974241542360000,11.799360107421874,-0.15587681531906128,-0.16552670300006866,1.5952285528182983
1758974241552317200,11.809317138671876,-0.16143669188022614,-0.23871462047100067,1.5663068294525146
1758974241562274000,11.819274169921876,-0.17809352278709412,-0.24688374996185303,1.5773744583129883
1758974241572231200,11.829231201171876,-0.19282425940036774,-0.20611713826656342,1.6012792587280273
1758974241582188000,11.83918798828125,-0.18724851310253143,-0.1533084213733673,1.6204779148101807
1758974241592145000,11.849144775390625,-0.16336634755134583,-0.10898276418447495,1.6479582786560059
1758974241602102000,11.85910205078125,-0.13013999164104462,-0.09150650352239609,1.6830719709396362
1758974241612059100,11.86905908203125,-0.09744782745838165,-0.07886847853660583,1.7204334735870361
1758974241622016000,11.87901611328125,-0.06251410394906998,-0.044969592243433,1.7492401599884033
1758974241631973000,11.88897314453125,-0.035186607390642166,0.03450392931699753,1.755489468574524
1758974241641930000,11.898929931640625,-0.01182287372648716,0.1476612389087677,1.7485837936401367
1758974241651886800,11.908886962890625,0.0011083715362474322,0.24367856979370117,1.7262462377548218
1758974241661844000,11.918843994140625,-0.006071422714740038,0.2977619767189026,1.6976252794265747
1758974241671801000,11.928801025390625,-0.029673153534531593,0.3327564597129822,1.6903321743011475
1758974241681758200,11.93875830078125,-0.07325661927461624,0.34887608885765076,1.7102397680282593
1758974241691715000,11.948715087890625,-0.15268006920814514,0.34607577323913574,1.7492897510528564
1758974241701672200,11.958672119140624,-0.20670317113399506,0.3787193298339844,1.758307933807373
1758974241711629000,11.968629150390624,-0.24350112676620483,0.30711010098457336,1.7597668170928955
1758974241721587000,11.9785869140625,-0.24136708676815033,0.16120076179504395,1.759576678276062
1758974241731544000,11.9885439453125,-0.23913481831550598,0.03907512128353119,1.766675591468811
1758974241741501200,11.998501220703124,-0.25071093440055847,-0.05315985530614853,1.7928043603897095
1758974241751458000,12.0084580078125,-0.2588338255882263,-0.12445667386054993,1.8184173107147217
1758974241761415000,12.018414794921876,-0.26528340578079224,-0.14629365503787994,1.8424960374832153
1758974241771372000,12.0283720703125,-0.2861817479133606,-0.13068699836730957,1.8600833415985107
1758974241781329200,12.0383291015625,-0.3196176588535309,-0.1147296130657196,1.8656435012817383
1758974241791286000,12.0482861328125,-0.35004639625549316,-0.09731973707675934,1.878596544265747
