time,seconds_elapsed,z,y,x
1758972471211562800,0.049562744140625,8.736441857910156,0.3372831588745117,1.5168763893127442
1758972471221520000,0.059519775390625,8.24203921508789,0.31049802780151364,1.3510779243469238
1758972471231476700,0.069476806640625,8.358906183624267,0.3694552436828613,1.1167454368591307
1758972471241435000,0.079434814453125,8.789413569641113,0.4447229583740234,1.1768997535705565
1758972471251392000,0.08939208984375,9.548375495910644,0.19213468322753904,1.387888774871826
1758972471261350000,0.099349853515625,9.65237363052368,-0.5259761772155761,1.5420155067443846
1758972471271306500,0.109306396484375,9.254337604522705,-1.0769418342590331,1.304390991973877
1758972471281263600,0.119263671875,8.806921169281006,-0.9045593147277832,0.9261071296691894
1758972471291221500,0.129221435546875,8.26089355316162,-0.11956044540405272,1.11734398727417
1758972471301178600,0.1391787109375,7.931690824890136,0.8035539321899413,1.9632453613281249
1758972471311136800,0.14913671875,7.719355065155029,1.6455647285461426,2.6880899139404297
1758972471321093600,0.15909375,7.602338459014892,2.1835119140624997,3.092560356903076
1758972471331050800,0.16905078125,7.377283502960204,2.3391350219726563,3.2811037376403807
1758972471341008600,0.179008544921875,7.420678408050537,1.5107412475585937,2.431311785888672
1758972471350965800,0.1889658203125,7.798214082336425,-0.38232407760620113,1.0099041877746582
1758972471360922600,0.198922607421875,8.068309957122802,-2.057816326904297,-0.280271231842041
1758972471370880500,0.208880615234375,8.31236888885498,-2.770091320800781,-0.4451718711853027
1758972471380837600,0.218837646484375,8.149862451171874,-2.8999767608642575,0.6874351516723632
1758972471390795800,0.228795654296875,7.96161834564209,-1.4956278495788573,1.9684826774597166
1758972471400752600,0.238752685546875,7.190984686279297,-0.653766690826416,3.5042134048461913
1758972471410709500,0.24870947265625,5.900509991455078,-0.5978022270202636,5.071667304229736
1758972471420667600,0.258667724609375,5.085882876586914,-0.5193921226501464,6.037278761291503
1758972471430624800,0.268624755859375,4.66016389389038,-0.8077437850952148,7.056460480499267
1758972471440582700,0.278582763671875,4.5498809799194335,-0.7407061386108398,7.896077075195312
1758972471450539500,0.28853955078125,5.347599045562744,-0.17223288192749023,8.379256897735596
1758972471460496600,0.29849658203125,6.640019029235839,-0.299424845123291,8.406939854431151
1758972471470454800,0.308454833984375,7.9481509613037105,-1.067963578033447,7.507617855834961
1758972471480411600,0.31841162109375,8.494028939819335,-2.289305699920654,5.347000495147705
1758972471490369500,0.32836962890625,8.78507407913208,-3.328688495635986,2.770091320800781
1758972471500326700,0.33832666015625,8.831312098693846,-4.578012849426269,1.135749412536621
1758972471510283800,0.34828369140625,8.43342571029663,-5.685929667663574,0.7995137168884277
1758972471520241700,0.35824169921875,8.23560479812622,-5.02438182144165,1.4508862060546874
1758972471530198500,0.368198486328125,8.081478066253661,-3.855412860870361,2.337189733123779
1758972471540156700,0.37815673828125,6.76721099243164,-4.52683678894043,3.423259461212158
1758972471550113800,0.38811376953125,5.812523080444335,-6.088005908966064,5.413289953613281
1758972471560070400,0.3980703125,5.421370384216308,-5.56113190612793,7.255179218292236
1758972471570028500,0.408028564453125,4.9808372787475585,-4.225765930175781,8.818293627166748
1758972471579985700,0.417985595703125,4.880131171417236,-2.799569928741455,10.052654220581054
1758972471589943600,0.427943603515625,4.819677579498291,-2.1520880172729493,10.657040502166748
1758972471599900700,0.437900634765625,4.878934070587158,-2.548627667236328,10.959158824157715
1758972471609858800,0.44785888671875,5.271283867645264,-1.9457377616882323,11.837980471038817
1758972471619815700,0.457815673828125,5.114314021301269,-0.54902036819458,12.203545137023925
1758972471629772500,0.4677724609375,4.335599931335449,0.25947160491943355,12.355128029632567
1758972471639730700,0.477730712890625,3.908983123016357,0.7466916427612305,12.955773371124266
1758972471649687600,0.4876875,4.126855474090576,0.6748655929565429,12.812270909118652
1758972471659645400,0.4976455078125,4.248061933135986,0.6202478675842285,12.295272988128662
1758972471669602600,0.5076025390625,3.7954081817626952,0.9349357482910156,11.885864504241942
1758972471679559700,0.5175595703125,3.0174422798156737,0.6830956611633301,11.726949369049072
1758972471689517800,0.527517822265625,2.6330232757568357,1.137096150970459,12.74388652420044
1758972471699474700,0.537474609375,2.479644731903076,1.901893943786621,14.047828603363037
1758972471709432600,0.5474326171875,1.9340660285949707,2.131138752746582,15.11863529586792
1758972471719389700,0.5573896484375,1.0175357055664063,1.958157682800293,15.329624317169188
1758972471729346800,0.567346923828125,0.16684592819213867,0.8985738105773925,14.753220267486572
1758972471739304400,0.577304443359375,-0.7573159126281738,0.8056488586425781,13.270910164642332
1758972471749261600,0.587261474609375,-3.949834188842773,0.7764695259094238,12.3219084815979
1758972471759219700,0.5972197265625,-14.573655142974852,-1.452382582092285,14.193276354217529
1758972471769176800,0.6071767578125,-16.70703845977783,-1.2600982612609863,12.804190478515624
1758972471779134700,0.617134765625,-11.43410857849121,-2.93035319442749,10.395324333190917
1758972471789091600,0.627091552734375,-7.277924134063721,-4.007145391082763,9.951499200439452
1758972471799048700,0.637048583984375,0.38411972885131834,-2.985270195007324,7.876175273895263
1758972471809006600,0.647006591796875,3.207930949401855,-5.887192244720459,8.724470849609375
1758972471818963500,0.65696337890625,2.2150854484558105,-7.91029264755249,12.899210356903076
1758972471828921600,0.666921630859375,2.207753205871582,-8.64501328201294,14.427309566497803
1758972471838878700,0.676878662109375,2.443432431793213,-7.296030284118652,13.94996561050415
1758972471848836600,0.686836669921875,3.4576761100769042,-5.1128176452636716,9.164704679870605
1758972471858793700,0.696793701171875,5.364208819580078,-7.986009275054931,5.552602562713623
1758972471868750600,0.70675048828125,8.930821105194092,-10.229825143432617,0.9680056587219238
1758972471878708500,0.71670849609375,4.0328830589294435,-8.104073344421387,-0.5515642074584961
1758972471888665600,0.72666552734375,-1.586457875061035,-5.748029273223876,1.3485340850830076
1758972471898623700,0.736623779296875,-0.22834698333740233,-8.261492103576659,0.5113116920471191
1758972471908580600,0.74658056640625,9.906907194519043,-9.233986890411376,-0.9083002548217773
1758972471918537700,0.756537841796875,5.849483568572998,-15.746365043640136,-0.20784663162231445
1758972471928495600,0.76649560546875,-6.661267568969726,-21.210831057739256,-1.4000094207763671
1758972471938452700,0.77645263671875,-17.7868234085083,-16.10684203109741,1.8282722427368163
1758972471948410600,0.78641064453125,-5.604077898406982,-15.975609852600098,3.390788101196289
1758972471958367500,0.796367431640625,4.4571056655883785,-13.996502905273436,5.390844313049316
1758972471968325600,0.80632568359375,4.797680851745605,-11.582249806213378,7.763049245452881
1758972471978282800,0.81628271484375,5.134215822601318,-6.6814686454772945,9.714772511291503
1758972471988239600,0.826239501953125,0.7077858657836914,-4.80755693359375,9.041702569580078
1758972471998197500,0.836197509765625,-3.539677516937256,-6.134094290924072,5.4786815864562985
1758972472008154600,0.846154541015625,-1.3851952980041502,-6.876596080780029,2.5354595581054684
1758972472018112800,0.85611279296875,-0.6612485710144043,-8.122478769683838,1.2466308769226073
1758972472028069600,0.866069580078125,0.09038111267089843,-9.783306533813477,0.9519944351196289
1758972472038026500,0.876026611328125,2.2001216880798338,-14.130278923034668,-0.4906617027282715
1758972472047984600,0.885984619140625,-1.4270938270568847,-19.95163062210083,-1.4124293418884277
1758972472057941800,0.895941650390625,-3.998466410064697,-19.68407858657837,0.48452656097412106
1758972472067899600,0.905899658203125,-1.5644611473083496,-17.424251494598387,1.813757395172119
1758972472077856500,0.9158564453125,-1.2523171058654785,-15.165172590637207,2.178873148345947
1758972472087814700,0.925814697265625,-2.290802075958252,-11.401337943267821,2.787449282836914
1758972472097771500,0.935771484375,-1.834257746887207,-8.549694128417968,1.560271294403076
1758972472107728600,0.945728759765625,-0.9286509689331054,-6.972364147186279,1.38549457321167
1758972472117686800,0.955686767578125,-0.8399158699035644,-6.145167473602295,2.470217562866211
1758972472127643600,0.9656435546875,-0.7040449256896972,-5.734412251281738,2.8063036209106444
1758972472137601500,0.9756015625,-0.4653729476928711,-7.173477086639404,1.7465701110839842
1758972472147558700,0.98555859375,-0.7600093894958496,-6.99705435180664,0.732924983215332
1758972472157516800,0.995516845703125,-0.4418798439025879,-6.2766989273071285,0.397736750793457
1758972472167473700,1.0054736328125,-0.8173205917358398,-7.823502837371826,0.16460136413574217
1758972472177430500,1.015430419921875,-1.3648445838928223,-8.960150075531006,0.2741360900878906
1758972472187388700,1.025388671875,-0.591218172454834,-7.517942850494384,1.3808558074951172
1758972472197345800,1.035345703125,-0.4632780212402344,-6.597372312164306,1.409137314605713
1758972472207303400,1.045303466796875,0.054468087768554684,-6.928071416473388,0.41090485992431636
1758972472217260500,1.055260498046875,1.2942156349182128,-6.731746880340576,0.05686228942871093
1758972472227217700,1.0652177734375,0.7734767738342284,-5.389796849822997,-0.802506468963623
1758972472237175800,1.07517578125,-0.6426935081481934,-4.16875400314331,-2.006490628814697
1758972472247132400,1.08513232421875,-0.3981856636047363,-3.344250806427002,-2.742109088897705
1758972472257090600,1.095090576171875,-0.6657376991271973,-0.16924012985229492,-2.1429601234436033
1758972472267048400,1.10504833984375,1.0229226593017577,-0.49380409240722656,2.514809568786621
1758972472277006300,1.11500634765625,0.40970775909423823,-3.821145849609375,5.860407113647461
1758972472286963500,1.12496337890625,0.9030629386901855,-7.748833673095703,3.7222353935241697
1758972472296920300,1.13492041015625,1.8363526733398436,-13.358597800445557,-1.4730325714111328
1758972472306878200,1.144878173828125,2.11946701965332,-18.847005831146237,-7.70573804321289
1758972472316835300,1.15483544921875,2.814982601928711,-20.092738882446287,-11.812691716003417
1758972472326793500,1.16479345703125,1.8692729461669921,-16.68938122253418,-11.305420239257812
1758972472336750300,1.174750244140625,-2.289305699920654,-17.70961040496826,-7.775169891357422
1758972472346707500,1.18470751953125,-2.7329811950683593,-21.54706675338745,-3.22394217300415
1758972472356665300,1.194665283203125,-3.1911715377807615,-21.705532975769042,-3.7247792327880855
1758972472366622500,1.20462255859375,-3.0737060188293457,-15.805172621917723,-3.0988451362609863
1758972472376580400,1.214580322265625,-2.9665654945373534,-8.989628683471679,-0.7263409286499023
1758972472386537200,1.224537109375,-3.250278391265869,-9.034819239807128,-1.1385925270080566
1758972472396495400,1.234495361328125,-3.3680431854248045,-11.25469309158325,-2.8847137252807618
1758972472406452500,1.244452392578125,-3.815160345458984,-12.847286108398437,-4.348618402862549
1758972472416409600,1.25440966796875,-4.36642527770996,-12.387300114440917,-4.394257872009277
1758972472426367200,1.2643671875,-4.583399803161621,-11.885714866638184,-4.329764064788818
1758972472436324400,1.274324462890625,-4.508431363677978,-12.198307820892333,-4.350713329315186
1758972472446282500,1.284282470703125,-4.395604610443115,-12.664728231811523,-4.327070587921142
1758972472456239400,1.2942392578125,-4.368520204162597,-12.880356018829344,-4.4753614532470705
1758972472466197500,1.304197509765625,-3.761590083312988,-12.160449507141113,-4.236390200042725
1758972472476154400,1.314154296875,-3.2517747673034667,-10.36764137649536,-2.9697078842163083
1758972472486111500,1.324111572265625,-2.7724855224609373,-8.233060958862303,-1.1052233413696289
1758972472496069400,1.3340693359375,-3.0105589500427246,-7.185298457336425,0.29972412033081053
1758972472506026200,1.344026123046875,-3.852270471191406,-7.15028325805664,0.9692027595520019
1758972472515984400,1.353984375,-3.620332185363769,-7.502380539703369,1.9559131187438963
1758972472525941200,1.363941162109375,-3.3366192886352537,-7.624185549163818,2.999785042572021
1758972472535899400,1.3738994140625,-2.7964275390625,-8.88682764968872,3.133561060333252
1758972472545856500,1.3838564453125,-3.5455133834838866,-9.63366893005371,2.9308021072387693
1758972472555813400,1.3938134765625,-4.777928688049316,-9.965265859985351,1.672050584411621
1758972472565771300,1.403771240234375,-4.460098417663574,-11.51012448120117,0.1361702194213867
1758972472575728400,1.413728271484375,-4.159626109313964,-12.720094145202635,-0.41270051116943357
1758972472585686500,1.4236865234375,-4.4774563796997064,-12.083835054016113,0.1801636749267578
1758972472595643400,1.433643310546875,-3.8585552505493164,-11.68894141769409,-0.1406593475341797
1758972472605600300,1.443600341796875,-1.6103998916625977,-11.692831995391845,-0.9630676177978515
1758972472615558400,1.453558349609375,0.87463179397583,-11.579556329345703,-0.7989151664733887
1758972472625515500,1.463515625,1.499668064880371,-11.450419077301024,-0.41105449752807616
1758972472635473400,1.473473388671875,1.1008838508605956,-11.322628563690184,-0.6431424209594726
1758972472645430300,1.48343017578125,0.5704185455322265,-11.104756212615966,-1.0313023651123046
1758972472655388400,1.493388427734375,-0.5306149429321289,-10.50156703186035,-1.3090297576904295
1758972472665345500,1.503345458984375,-1.6813281158447264,-9.947758260345458,-1.6445172653198241
1758972472675302100,1.51330224609375,-2.647687760925293,-9.722703304290771,-1.9021932189941406
1758972472685260300,1.52326025390625,-3.526509407806396,-9.408464336395262,-1.7561469177246092
1758972472695217400,1.533217529296875,-4.074183037567138,-8.75230344390869,-1.723226644897461
1758972472705175300,1.54317529296875,-4.191199643707275,-8.59892490005493,-2.414552374267578
1758972472715132400,1.55313232421875,-3.5826235092163086,-8.65040023574829,-2.9875147590637203
1758972472725090300,1.56309033203125,-3.267037802886963,-8.308927223968505,-3.1872809600830077
1758972472735047400,1.57304736328125,-3.5296517974853514,-8.169913890075684,-3.5058594184875487
1758972472745004300,1.58300439453125,-3.347243558502197,-8.111405587005615,-3.749918350219726
1758972472754962400,1.59296240234375,-3.315370748901367,-7.818265521240234,-3.6967970008850095
1758972472764919300,1.602919189453125,-3.2650925140380855,-7.45733962097168,-3.582024958801269
1758972472774877200,1.612877197265625,-3.4346319190979,-6.744017163848876,-3.3542765258789062
1758972472784834300,1.622834228515625,-3.386149335479736,-6.10970336151123,-3.205387110137939
1758972472794792400,1.63279248046875,-4.098125054168701,-5.569212336730956,-3.0330045906066894
1758972472804749600,1.64274951171875,-4.367772016143799,-5.2253451232910155,-2.9593828895568848
1758972472814706400,1.65270654296875,-4.437802414703369,-5.134814373016357,-2.886808651733398
1758972472824664300,1.662664306640625,-4.4005426513671875,-5.3393689773559565,-2.590675833892822
1758972472834621400,1.672621337890625,-4.357596659088134,-5.16444261856079,-2.4775498054504395
1758972472844579600,1.68257958984375,-4.338443045806884,-5.033509715270996,-2.563292152404785
1758972472854536200,1.6925361328125,-4.261978230285644,-5.042936884307861,-2.56014976272583
1758972472864494300,1.702494384765625,-4.414907861328125,-5.02468109664917,-2.592920397949219
1758972472874451500,1.712451416015625,-4.50079984588623,-5.071966579437255,-2.608482708740234
1758972472884408600,1.72240869140625,-4.661510632324219,-5.258115758514404,-2.624643569946289
1758972472894366500,1.732366455078125,-4.952555771636963,-5.299715012359619,-2.568230193328857
1758972472904323300,1.7423232421875,-5.335179124450684,-5.570409437561035,-2.4158991127014158
1758972472914281500,1.752281494140625,-5.48451745300293,-5.831676693725585,-2.3663690658569334
1758972472924238300,1.76223828125,-5.475988109588623,-5.972485678863525,-2.2176292877197263
1758972472934196500,1.772196533203125,-5.577442404937744,-6.096235977172851,-2.385971591949463
1758972472944153300,1.7821533203125,-5.844096614837646,-6.12870733718872,-3.084180651092529
1758972472954110500,1.7921103515625,-6.252307997894286,-5.914575926208496,-4.135983367919922
1758972472964068400,1.802068359375,-6.77349577178955,-5.5930047157287595,-5.284451976776123
1758972472974025500,1.812025390625,-7.245303136444091,-5.417330168914795,-6.279542041778564
1758972472983983400,1.8219833984375,-7.53320588607788,-5.38201569442749,-7.141305001831054
1758972472993940500,1.8319404296875,-7.710526446533203,-5.271283867645264,-7.530811684417724
1758972473003898400,1.8418984375,-7.9013143913269035,-4.760421088409424,-7.1680901329040525
1758972473013855500,1.85185546875,-8.114847251892089,-4.0912417243957515,-6.25664748840332
1758972473023813400,1.8618134765625,-7.620743884277343,-3.5263597702026366,-4.939986212921142
1758972473033770200,1.871770263671875,-4.841973582458496,-3.60072965927124,-3.592349953460693
1758972473043727400,1.881727294921875,0.8877999031066894,-4.8892590652465815,-2.364723052215576
1758972473053685500,1.891685546875,5.619640209197998,-9.000851503753662,-1.4585177238464355
1758972473063642600,1.901642578125,3.8524201087951657,-16.013468166351316,-1.6356886466979979
1758972473073600300,1.911600341796875,-1.3423989433288575,-20.83149973220825,-1.6023194610595701
1758972473083557400,1.921557373046875,-5.157559288787842,-21.03590469894409,-0.5319616813659668
1758972473093515500,1.931515625,-4.833893151855468,-15.01688172531128,-1.4814122772216796
1758972473103472400,1.941472412109375,-1.3452420578002928,-7.602188821411132,-3.125181354522705
1758972473113429200,1.95142919921875,3.3206080650329586,-2.7730840728759762,-4.057573263549805
1758972473123387400,1.961387451171875,3.4008138206481933,0.45280338897705075,-2.81543151473999
1758972473133344500,1.971344482421875,-0.5792471641540528,0.12509703674316405,-1.6802806526184082
1758972473143302400,1.981302490234375,-1.6891092712402342,-4.005200102233887,-1.8477251312255858
1758972473153259300,1.99125927734375,-0.27353753967285155,-7.0652890991210935,0.09591770401000976
1758972473163217400,2.001217529296875,0.6227917068481444,-9.413851290130614,2.9432220283508297
1758972473173174300,2.01117431640625,1.8945617012023925,-12.185289349365233,3.4364275703430174
1758972473183132400,2.02113232421875,1.624914739227295,-14.8371669631958,1.4208090476989745
1758972473193089500,2.031089599609375,-0.59376201171875,-15.404293481445311,-1.5174749397277831
1758972473203046400,2.04104638671875,-2.241421666717529,-13.91809280090332,-2.276436865997314
1758972473213004300,2.05100439453125,-1.8656816436767576,-13.416357915496825,-2.2004209632873533
1758972473222961400,2.06096142578125,-1.1797428680419921,-13.249511987304686,-1.7823334983825683
1758972473232919600,2.07091943359375,-0.4082113830566406,-13.18935767059326,-1.9707272415161132
1758972473242876400,2.08087646484375,0.1562216583251953,-13.421744869232176,-2.6605565948486327
1758972473252834300,2.090834228515625,0.7308300567626953,-13.599813617706298,-2.1034557960510254
1758972473262791400,2.10079150390625,-0.28356325912475583,-14.293383911132812,0.5825391914367676
1758972473272748800,2.110748779296875,-2.207154655456543,-16.710779399871825,4.045452617645264
1758972473282705700,2.12070556640625,-4.472518338775634,-21.264700595092773,7.9478516860961905
1758972473292662500,2.13066259765625,-5.596745655822754,-24.5787246055603,10.433182646942138
1758972473303865600,2.141865478515625,-5.464765289306641,-25.185205813598632,12.0920651222229
1758972473313822700,2.15182275390625,-5.4515971801757805,-24.104074126434323,8.653542625427246
1758972473323780600,2.161780517578125,-5.625326438140869,-21.149928553009033,5.240159246063232
1758972473333737700,2.17173779296875,-6.715735656738281,-17.150265042114256,3.5052608680725097
1758972473343695600,2.181695556640625,-8.97646057434082,-13.983334796142577,0.9952397026062011
1758972473353652700,2.19165283203125,-11.144859090423584,-11.525686791992188,-1.8727146110534667
1758972473363609600,2.201609619140625,-10.554987656402588,-10.169820464324951,-4.317044868469238
1758972473373567500,2.2115673828125,-10.393977594757079,-9.713575410461425,-6.698676969909668
1758972473383524600,2.221524658203125,-12.824241917419434,-8.795548711395263,-8.437316287994385
1758972473393482800,2.231482666015625,-13.409773860931395,-7.085789450836181,-7.953837190246581
1758972473403439600,2.241439697265625,-10.590302130889892,-5.326949056243897,-6.011092180633544
1758972473413397500,2.2513974609375,-6.345232949829101,-3.6596868751525875,-3.2845454025268555
1758972473423354600,2.261354736328125,-1.4487912796020508,-2.0925322509765625,-0.3188777336120605
1758972473433312800,2.271312744140625,-0.877175633239746,-1.586457875061035,1.605611488342285
1758972473443269600,2.28126953125,-1.3799579818725585,-1.7075146965026855,3.453186981964111
1758972473453226500,2.2912265625,-1.8953098892211913,-0.9831190567016601,4.176535158538818
1758972473463184600,2.3011845703125,-3.0547020431518552,0.07945756759643555,4.397849174499512
1758972473473141800,2.311141845703125,-3.8979099403381343,0.4161421760559082,4.134636629486084
1758972473483099600,2.321099609375,-4.294000677490234,0.25528175201416015,3.2870892417907713
1758972473493056500,2.331056396484375,-4.424783943176269,-1.0139444030761717,0.8869020774841309
1758972473503014700,2.3410146484375,-4.538957434844971,-2.94307239074707,-2.6563667419433594
1758972473512971500,2.350971435546875,-2.4191911399841306,-4.753088845825195,-5.231929177856445
1758972473522929700,2.3609296875,2.1115362266540525,-7.008726084899902,-7.085939088439941
1758972473532886800,2.37088671875,3.8763621253967284,-10.82179150390625,-10.321104081726073
1758972473542843600,2.38084375,0.043544542694091797,-13.832051178741454,-10.211270080566406
1758972473552801500,2.390801513671875,-2.6752210800170895,-17.700183235931394,-7.267449501800536
1758972473562758700,2.400758544921875,-2.803161231231689,-21.284003845977782,-5.279513935852051
1758972473572716800,2.410716796875,-3.854215760040283,-23.382072688293455,-2.5953145996093747
1758972473582673700,2.420673583984375,-3.666570204925537,-23.593809897613525,-0.675464143371582
1758972473592631600,2.430631591796875,-4.142118509674072,-23.643788857269286,-0.2829647087097168
1758972473602588700,2.440588623046875,-4.700865322113037,-24.02880641174316,-0.9560346504211426
1758972473612546600,2.450546630859375,-3.7138556877136226,-23.67955224456787,0.23912089080810545
1758972473622503400,2.46050341796875,-3.7490205245971677,-22.376059078216553,3.2959178604125974
1758972473632460500,2.47046044921875,-3.134009973144531,-21.998074491119382,5.731868412017822
1758972473642418700,2.480418701171875,-2.4498668487548825,-21.953183209991455,5.740547393035889
1758972473652375800,2.490375732421875,-2.3502082046508788,-20.466533616638184,4.302081108093262
1758972473662333700,2.500333740234375,-1.451784031677246,-18.575114305114745,2.0655974822998044
1758972473672290600,2.51029052734375,-1.3120225097656248,-16.38801108856201,0.4423287567138672
1758972473682248700,2.520248779296875,-1.4420575874328612,-14.966304215240477,-0.6907271789550781
1758972473692205600,2.53020556640625,-0.841412245941162,-13.842675448608398,-2.464830609130859
1758972473702163700,2.540163818359375,-1.176600478363037,-12.873472689056396,-4.157680820465088
1758972473712120600,2.55012060546875,-1.6111480796813964,-11.307066252899169,-4.847809449005126
1758972473722077700,2.56007763671875,-0.8822633117675781,-8.830264635467529,-5.193322676086425
1758972473732035600,2.57003564453125,0.15771803436279297,-6.148309863281249,-5.923554182434081
1758972473741992700,2.57999267578125,0.16789339141845702,-3.545064470672607,-5.963507422637939
1758972473751950800,2.589950927734375,0.2941875289916992,-0.6847416748046875,-5.6474728034973145
1758972473761907500,2.599907470703125,0.4317044868469238,2.1128829650878904,-5.2262429489135735
1758972473771865600,2.609865478515625,0.610371785736084,4.918438397979736,-4.629787460327148
1758972473781822700,2.61982275390625,0.9006687370300293,8.382100012207031,-4.327519500732421
1758972473791780600,2.629780517578125,0.9542389991760253,9.567229833984374,-4.7670051429748534
1758972473801737500,2.639737548828125,1.2463316017150878,8.75918677368164,-4.566939666748047
1758972473811694600,2.649694580078125,1.0645219131469725,7.909694097137451,-2.9212253005981443
1758972473821652700,2.65965283203125,1.0140940406799315,6.188263103485107,-0.656310530090332
1758972473831609600,2.669609619140625,1.8969559028625487,3.153313224029541,0.6423942329406738
1758972473841567500,2.6795673828125,1.5556325286865234,0.34656069030761716,0.44143093109130854
1758972473851524600,2.689524658203125,0.19318214645385742,-1.9219453826904296,-0.8396165946960449
1758972473861482500,2.699482421875,-1.5716437522888183,-4.742314938354492,-2.1064485481262207
1758972473871439600,2.709439697265625,-3.8982092155456542,-8.749161054229736,-2.487425887298584
1758972473881397800,2.719397705078125,-8.10242733078003,-13.586196595764159,-2.503886023712158
1758972473891354600,2.729354736328125,-15.557223112487792,-17.433828301239014,-2.500145083618164
1758972473901312500,2.7393125,-20.92741743621826,-16.98880606765747,-1.4609119255065917
1758972473911269600,2.74926953125,-8.732700917816162,-10.803086803436278,0.7285854927062988
1758972473921226800,2.759226806640625,12.66682315826416,-3.446453289794922,1.2086229255676268
1758972473931184600,2.7691845703125,28.958018717193603,6.162226160430908,5.509955845642089
1758972473941141500,2.7791416015625,26.20663209686279,3.5329438247680662,4.903773912811279
1758972473951099600,2.789099609375,12.478878327941894,-8.830863185882567,0.26186580657958985
1758972473961056800,2.799056884765625,10.012850617980957,-12.59020870513916,-0.507570751953125
1758972473971014700,2.8090146484375,3.1292215698242187,-16.9172792930603,0.8171709541320801
1758972473980971500,2.818971435546875,-1.695693325805664,-23.50013675765991,7.40601392288208
1758972473990929700,2.8289296875,4.646397234344482,-27.85474066467285,1.4661492416381836
1758972474000886800,2.83888671875,-5.917419040679931,-23.356484658050537,-3.084928839111328
1758972474010843400,2.848843505859375,-6.7742439598083495,-17.553089471435545,-0.9572317512512206
1758972474020801500,2.858801513671875,1.8570026626586913,-15.158738173675536,-1.4401122985839843
1758972474030758700,2.868758544921875,4.125957648468018,-14.067431129455565,-0.14320318679809568
1758972474040716500,2.878716552734375,4.585045816802978,-14.697255803680418,1.148468608856201
1758972474050673700,2.888673583984375,1.9270330612182616,-18.842217427825926,3.193565739440918
1758972474060631800,2.8986318359375,-1.6174328590393066,-25.259276427459714,6.91430475692749
1758972474070588700,2.908588623046875,-6.8864721626281735,-29.743316861724853,9.47430488204956
1758972474080546600,2.918546630859375,-11.338190874481201,-29.193249030303953,10.531793827819824
1758972474090503700,2.928503662109375,-11.882422839355469,-24.1458230178833,10.743531037139892
1758972474100460500,2.93846044921875,-9.30192236251831,-18.461838639068603,9.812186591339112
1758972474110418400,2.94841845703125,-6.089951197814941,-15.294010567474364,6.336404331207275
1758972474120375600,2.95837548828125,-5.524171417999267,-13.353510121917724,5.117755686187744
1758972474130333700,2.968333740234375,-6.538415096282959,-10.979659175872802,4.189703267669677
1758972474140290800,2.978290771484375,-8.32553699798584,-11.048342835998534,0.5461772537231445
1758972474150248400,2.98824853515625,-8.754548007965088,-11.334449934387207,-3.1669302459716797
1758972474160205600,2.99820556640625,-9.369109646606445,-11.004648655700683,-6.541407848358154
1758972474170163700,3.008163818359375,-9.138518099212646,-9.906607919311522,-10.468197846221923
1758972474180120800,3.018120849609375,-8.364891687774657,-7.996034994506836,-12.426056253814696
1758972474190078700,3.02807861328125,-6.644657794952392,-5.667673880004882,-11.80999823913574
1758972474200035600,3.03803564453125,-6.357652870941162,-2.468272274017334,-7.585279772186279
1758972474209992700,3.04799267578125,-8.08955849685669,-0.5781997009277343,-2.6306290740966793
1758972474219950600,3.05795068359375,-5.797260044860839,0.4352957893371582,1.3564648780822752
1758972474229907700,3.06790771484375,-2.736722135162353,1.1390414398193358,5.199008905029297
1758972474239865600,3.077865478515625,-3.0732571060180662,1.0675146652221679,8.449436933898925
1758972474249822700,3.08782275390625,-4.540154535675049,0.4908113403320312,9.85109236831665
1758972474259780600,3.097780517578125,-7.059453232574462,-1.5750854171752928,7.133823121643066
1758972474269737700,3.10773779296875,-8.6061075050354,-3.859303438568115,1.3156138122558594
1758972474279696000,3.11769580078125,-5.644031138610839,-3.311629808807373,-2.8841151748657223
1758972474289652700,3.12765283203125,-0.2733879020690918,-2.3870190551757813,-5.9032034683227534
1758972474299611000,3.13761083984375,1.2984054878234863,-4.5693338684082025,-7.676708348083496
1758972474309567700,3.147567626953125,0.4278139091491699,-8.920945023345947,-7.383867557525634
1758972474319524900,3.15752490234375,0.6802525466918945,-13.42608435974121,-3.395726142120361
1758972474329482800,3.167482666015625,-0.6871358764648438,-19.22274585418701,0.356885684967041
1758972474339439900,3.17743994140625,-3.2028432708740233,-25.539098746490478,-0.4348468765258789
1758972474349397800,3.187397705078125,-4.103960920715331,-30.100052909088134,-2.7551275604248047
1758972474359354600,3.197354736328125,-2.9032687881469723,-31.703270195770262,-3.0487165390014646
1758972474369312800,3.207312744140625,-2.820968106079101,-30.513351970672606,-1.6882114456176758
1758972474379270000,3.217269775390625,-3.102137163543701,-25.561993299865723,-0.0713771369934082
1758972474389227800,3.227227783203125,-0.629525399017334,-21.95393139801025,-0.5175964714050293
1758972474399184600,3.2371845703125,0.6432920585632323,-20.356549977874753,-1.3787608810424803
1758972474409142800,3.247142822265625,-0.8563760063171386,-19.24160019226074,-0.6597521949768066
1758972474419100000,3.257099853515625,-2.852392002868652,-17.94499035568237,1.0908581314086914
1758972474429056800,3.267056884765625,-2.6822540473937986,-17.687912952423094,1.8082208038330077
1758972474439014700,3.2770146484375,-1.1694178733825682,-18.139219965362546,2.421585341644287
1758972474448971800,3.2869716796875,0.39234979705810547,-19.558682274627685,3.7098154724121093
1758972474458929700,3.2969296875,0.9267056800842285,-19.65130795135498,4.446930308532715
1758972474468886800,3.30688671875,0.9445125549316405,-17.111359265136716,4.063409130096435
1758972474478844700,3.3168447265625,1.3696329872131348,-13.583652756500243,3.049764002227783
1758972474488801800,3.3268017578125,2.274790852355957,-9.066692049407958,1.4525322196960448
1758972474498759700,3.336759765625,3.4343326438903805,-3.8289270050048825,-0.9398737892150878
1758972474508716800,3.346716796875,3.7006875785827633,0.4074631950378418,-3.3488895721435545
1758972474518675000,3.356675048828125,3.056796969604492,3.806331726837158,-5.4887073059082025
1758972474528631800,3.3666318359375,3.0922610816955562,7.32281541519165,-7.098359009552001
1758972474538588700,3.376588623046875,2.4914661026000977,10.999261701965331,-7.448211727142334
1758972474548546800,3.386546875,2.479644731903076,12.122591193389892,-7.056310842895507
1758972474558504000,3.39650390625,3.3246482803344724,11.238831505584717,-4.9540521476745605
1758972474568461600,3.406461669921875,3.665822016906738,10.03005894241333,-1.6929998489379883
1758972474578418700,3.416418701171875,3.925143984222412,7.4299559394836425,1.2424410240173338
1758972474588376800,3.426376953125,4.6255976074218745,4.166210163879394,2.461987494659424
1758972474598334000,3.436333984375,4.847959086608887,1.4393641105651855,2.3515549430847167
1758972474608291800,3.446291748046875,3.908983123016357,-1.648407843017578,2.1239561477661133
1758972474618248700,3.456248779296875,1.2469301521301268,-5.932981351470947,-0.1044470474243164
1758972474628205800,3.466205810546875,-3.548356497955322,-11.530774470520019,-3.306392492675781
1758972474638163700,3.476163818359375,-12.28988603439331,-18.26446663970947,-4.505887524414062
1758972474648120600,3.48612060546875,-22.560412606048583,-26.513688459777832,-5.419125820159912
1758972474658078700,3.49607861328125,-27.346870637512204,-25.342474935150143,-2.0313304710388183
1758972474668035800,3.506035888671875,-21.96171255340576,-15.477615907287596,3.323002266693115
1758972474677993700,3.51599365234375,2.262520568847656,-8.686612535858155,2.782810517120361
1758972474687950800,3.525950927734375,27.76420991439819,-0.12868833923339842,2.4697686500549314
1758972474697908700,3.53590869140625,38.99002294845581,6.776937436676025,4.3911154823303225
1758972474707865600,3.545865478515625,18.637662823486327,-5.214571215820312,-2.9103017555236814
1758972474717823700,3.55582373046875,11.118971784973144,-13.703961389923094,-7.261164722442627
1758972474727780900,3.56578076171875,8.4528785987854,-17.369633769226073,-7.9372274162292475
1758972474737738800,3.57573876953125,11.791293538665771,-17.592144886016843,-2.64963304977417
1758972474747695600,3.585695556640625,8.920795385742187,-18.268506855010987,1.3064859184265136
1758972474757652700,3.59565283203125,0.8481459381103515,-19.83596075439453,-2.5194483345031737
1758972474767611000,3.60561083984375,-5.49678773651123,-16.94376514892578,-1.8269255043029784
1758972474777567700,3.615567626953125,0.10639233627319335,-15.977255866241455,0.7193079612731933
1758972474787525600,3.625525634765625,4.0711902854919435,-18.740164582061766,2.544138539123535
1758972474797482800,3.635482666015625,4.34158543548584,-23.118411230468748,6.1373863182067865
1758972474807440600,3.645440673828125,-0.5467758041381836,-26.556634452056883,8.189815691375731
1758972474817397800,3.655397705078125,-4.182071749877929,-27.6195103515625,8.706215061950683
1758972474827356000,3.66535595703125,-3.771316527557373,-27.47092021102905,11.207856521606445
1758972474837312800,3.675312744140625,-5.15187305984497,-24.134749835205078,11.570428435516357
1758972474847270700,3.685270751953125,-8.33227069015503,-19.86858175201416,10.228029492187499
1758972474857227800,3.695227783203125,-10.064924504089355,-16.823306877899167,5.93133533782959
1758972474867185000,3.705184814453125,-10.608258643341063,-13.9561007522583,2.456001990509033
1758972474877142800,3.715142822265625,-10.820145490264892,-11.020210966491698,0.6842927619934082
1758972474887099600,3.725099609375,-9.406818322753905,-10.542268460083006,-0.4918588035583496
1758972474897057800,3.735057861328125,-8.952219282531738,-11.477802758789062,-1.9972130973815916
1758972474907015000,3.745014892578125,-9.418340418243409,-11.630283477020264,-2.7055975135803223
1758972474916972800,3.754972900390625,-8.603563665771484,-10.908581314086913,-2.164807213592529
1758972474926929700,3.7649296875,-6.347477513885497,-8.613888660430908,-0.7579144630432129
1758972474936887800,3.7748876953125,-4.825064533233642,-6.632686786651611,-1.627308940887451
1758972474946845000,3.784844970703125,-4.943577515411377,-4.14316597290039,-1.926733786010742
1758972474956802800,3.794802734375,-8.586953891754149,-2.2005706008911132,-1.6157868453979491
1758972474966759700,3.804759765625,-11.664550488281249,-0.8943839576721191,-0.6566098052978515
1758972474976717800,3.8147177734375,-7.871386870574951,0.8864531646728515,3.767874862670898
1758972474986674700,3.8246748046875,-2.785354356384277,1.4879963317871092,8.769960681152343
1758972474996631800,3.8346318359375,-0.7852981445312499,0.6726210289001464,10.940154848480224
1758972475006589700,3.844589599609375,-2.6574142051696774,-0.26051906814575193,9.97170027694702
1758972475016546800,3.854546875,-6.495618741607665,-1.3136685234069823,5.620538034820556
1758972475026504700,3.864504638671875,-6.255450387573242,-3.0693665283203124,0.25752631607055665
1758972475036461800,3.8744619140625,-4.470573049926758,-3.196558491516113,-3.7659295738220213
1758972475046420000,3.884419921875,-2.797774277496338,-3.214963916778564,-6.272209799194336
1758972475056376600,3.89437646484375,-0.5799953521728515,-4.276493077850342,-7.0753148185729975
1758972475066334700,3.904334716796875,-0.5657797798156738,-6.6401686668396,-7.444770062255859
1758972475076291800,3.914291748046875,-1.264737026977539,-10.683526358032227,-6.693888566589355
1758972475086249700,3.924249755859375,-1.4411597618103027,-16.35658719177246,-4.6633062835693355
1758972475096206600,3.93420654296875,-2.7219080123901365,-21.843798121643065,-2.295740116882324
1758972475106163700,3.944163818359375,-4.184166676330566,-26.305692190551756,-0.4070142822265625
1758972475116121900,3.954121826171875,-3.3271921195983887,-28.741044191741942,0.4513070129394531
1758972475126078700,3.96407861328125,-1.2846388282775878,-28.00737102050781,0.1879448303222656
1758972475136036900,3.974036865234375,-1.3395558288574219,-25.179369947052,-1.7004817291259764
1758972475145993700,3.98399365234375,-0.9804255798339843,-23.613562061309814,-5.24150598449707
1758972475155951600,3.99395166015625,-0.831236888885498,-23.312491202545164,-6.317400355529784
1758972475165908700,4.00390869140625,-4.532074105072021,-22.802077336120604,-1.3389572784423827
1758972475175867000,4.013866943359375,-5.687426043701172,-21.4505504989624,4.115333378601074
1758972475185823700,4.02382373046875,-3.7204397422790527,-21.592855860137938,5.289689292907714
1758972475195781600,4.03378173828125,-1.5242086318969725,-20.290709432220456,5.269637854003906
1758972475205738800,4.04373876953125,-1.0003273811340332,-18.586636400604245,5.363460631561279
1758972475215697000,4.05369677734375,-1.0938508834838867,-16.681899342346192,4.329913702392578
1758972475225653800,4.06365380859375,0.2059013427734375,-13.811700464630126,1.5610194824218748
1758972475235611600,4.073611572265625,1.3696329872131348,-12.542773584747314,-0.0652419952392578
1758972475245568800,4.08356884765625,2.2412720291137695,-11.343877103424072,-1.6686089195251463
1758972475255526000,4.09352587890625,2.814982601928711,-9.235034353637694,-3.1037831771850586
1758972475265483800,4.10348388671875,3.053654579925537,-5.38815083618164,-4.60928710861206
1758972475275440400,4.1134404296875,2.6095301719665525,-2.056319950866699,-6.712593267059326
1758972475285398500,4.1233984375,1.6114473548889159,1.6118962677001951,-8.549843766021729
1758972475295355600,4.133355712890625,0.4930559043884277,5.989843640899658,-8.787767555999755
1758972475305313500,4.1433134765625,-0.07003039855957031,9.624092123413085,-7.994239343261718
1758972475315270400,4.1532705078125,0.7631517791748046,11.331157907104492,-6.804171480560302
1758972475325228500,4.163228515625,0.921917276763916,10.677690491485595,-5.599888045501709
1758972475335185400,4.173185302734375,2.4971523315429685,9.729885909271239,-2.854636566925049
1758972475345143600,4.1831435546875,4.369118754577636,6.885723974609375,-0.2050035171508789
1758972475355100400,4.193100341796875,4.7858594810485835,3.1296704826354977,0.8607154968261719
1758972475365058300,4.203058349609375,3.1247324417114255,-0.13108254089355467,1.935113491821289
1758972475375015400,4.213015380859375,1.159392153930664,-4.210053981781005,2.2201731269836427
1758972475384972500,4.22297265625,-2.447173371887207,-8.227823642730712,2.111236951446533
1758972475394930700,4.2329306640625,-7.586177597808837,-11.509825205993652,1.7310078002929687
1758972475404887600,4.242887451171875,-12.758401371765135,-14.90809518737793,0.23418284988403318
1758972475414845400,4.252845458984375,-18.02938596420288,-17.221342903900144,0.11327566604614257
1758972475424802600,4.262802490234375,-21.33099005355835,-14.935179593658447,0.174926358795166
1758972475434760400,4.272760498046875,-11.50398933944702,-10.058041174316406,0.5232827003479004
1758972475444717300,4.28271728515625,11.33190609512329,-4.639364266967773,2.4785972686767574
1758972475454675500,4.292675537109375,29.754390044403074,3.38360549621582,5.472396807098388
1758972475464632600,4.302632568359375,34.14849827880859,7.155221298980712,5.218312155914306
1758972475474590500,4.312590576171875,15.995511653900145,-3.314173648071289,-2.664147897338867
1758972475484547600,4.322547607421875,6.776488523864746,-13.800178369140625,-7.432350141143798
1758972475494505500,4.33250537109375,-6.076633451080322,-21.864448110961913,-11.09622686920166
1758972475504462600,4.342462646484375,7.926752783966064,-26.75161224975586,-4.935945997619629
1758972475514420500,4.35242041015625,9.312097719573973,-26.790218751525877,0.46836569976806636
1758972475524377600,4.362377685546875,-17.699734323120115,-22.860136726379395,-1.8945617012023925
1758972475534334500,4.37233447265625,-1.3621511070251464,-18.561347645568848,-0.5476736297607422
1758972475544292400,4.382292236328125,5.94330634613037,-13.795240328216552,0.2958335426330566
1758972475554249500,4.39224951171875,5.373935263824462,-11.537508162689209,1.2147580673217773
1758972475564207600,4.40220751953125,8.761132062530518,-14.446612817382812,2.8217162940979
1758972475574164500,4.41216455078125,5.918616141510009,-18.7567743560791,4.1195232315063475
1758972475584122400,4.422122314453125,2.101061594390869,-24.932467900848387,4.336198481750488
1758972475594079500,4.43207958984375,-0.30615853729248044,-30.967651735687255,7.287201665496826
1758972475604037600,4.44203759765625,-6.142623634338379,-30.596400840759276,12.414085245513915
1758972475613994500,4.451994384765625,-11.598111392211914,-24.61673255691528,14.404265375518799
1758972475623952600,4.46195263671875,-11.190648197174072,-19.367894329833984,11.617115367889404
1758972475633909500,4.471909423828125,-9.872939458465575,-16.365864723205565,6.741473324584961
1758972475643867400,4.481867431640625,-10.02901147918701,-12.814814748382567,3.775207105255127
1758972475653824500,4.491824462890625,-10.10038861618042,-10.09320601119995,2.6596587692260742
1758972475663782700,4.50178271484375,-8.80422769241333,-8.455422438049316,0.3913023338317871
1758972475673739500,4.511739501953125,-7.530811684417724,-8.393771745300292,-2.290203525543213
1758972475683697400,4.521697509765625,-7.127987255096435,-8.81006355895996,-4.00295553817749
1758972475693654500,4.531654541015625,-6.846668560028076,-8.634987562561035,-4.026448641967773
1758972475703612700,4.54161279296875,-8.46559779510498,-8.765770828247069,-5.0574517318725585
1758972475713569300,4.5515693359375,-7.953687552642822,-6.100874742889404,-4.114136277770996
1758972475723526400,4.5615263671875,-9.612270752716064,-2.0534768363952636,-2.5870845314025877
1758972475733484500,4.571484619140625,-12.473790649414061,-0.8201637062072753,-2.7748797241210936
1758972475743441700,4.581441650390625,-7.312340782928467,0.08649053497314453,1.4680945304870605
1758972475753399600,4.591399658203125,1.495777487182617,1.2791022369384766,8.191611342620849
1758972475763356400,4.6013564453125,3.3710359375,1.5918448287963867,11.458499507904053
1758972475773314600,4.611314453125,-2.8886043029785156,1.8330606460571288,10.883741471862793
1758972475783271400,4.621271484375,-10.568305403137206,-0.8394669570922851,5.220107807159423
1758972475793229600,4.6312294921875,-10.590451768493653,-4.079121078491211,-1.4673463424682616
1758972475803186400,4.6411865234375,-3.1057284660339355,-3.772513628387451,-4.442740455627441
1758972475813144300,4.651144287109375,0.8804676605224608,-3.803787887573242,-4.92247861328125
1758972475823101400,4.661101318359375,0.6459855354309082,-6.3712698928833005,-5.2736780693054195
1758972475833059600,4.6710595703125,-0.6576572685241698,-10.069263994598389,-6.410474945068359
1758972475843016700,4.6810166015625,-2.0925322509765625,-14.717007967376707,-5.68203908996582
1758972475852974300,4.690974365234375,-3.2167595680236816,-19.26748749771118,-3.594893792724609
1758972475862931500,4.700931396484375,-4.894945294189453,-23.916578208923337,-2.597110250854492
1758972475872889600,4.7108896484375,-4.423736479949951,-27.691037126159667,-2.3540987823486326
1758972475882846700,4.7208466796875,-2.730586993408203,-29.631387934112546,-1.0691606788635253
1758972475892804600,4.7308046875,-2.2617723808288575,-29.23529719696045,-0.12898761444091797
1758972475902761500,4.740761474609375,-1.4463970779418944,-25.79961781463623,-1.7399860565185545
1758972475912719600,4.7507197265625,-0.39220015945434566,-22.591836502838134,-5.61829347076416
1758972475922676500,4.760676513671875,-3.050362552642822,-21.902007149505614,-5.009268423461914
1758972475932633300,4.77063330078125,-5.734711526489257,-21.122395233917235,-0.7613561279296874
1758972475942591500,4.780591552734375,-4.810549685668945,-18.973449606323243,3.3343747245788573
1758972475952548600,4.790548583984375,-2.9583354263305663,-19.038691601562498,5.021688344573974
1758972475962506500,4.800506591796875,-1.3229460548400878,-19.68976481552124,5.666177503967285
1758972475972463600,4.810463623046875,-0.028131869506835935,-18.518252015686034,4.61572152557373
1758972475982421500,4.82042138671875,0.8641571617126464,-16.463578078460692,3.656993398284912
1758972475992378400,4.83037841796875,1.4915876342773438,-13.763367518615722,2.5034371109008786
1758972476002336500,4.84033642578125,3.0324060401916504,-11.172093134307861,0.709880792236328
1758972476012293600,4.850293701171875,4.517708895111084,-7.587225061035156,-0.8836100502014159
1758972476022251500,4.86025146484375,4.945822079467773,-3.22409181060791,-3.0301614761352536
1758972476032208400,4.87020849609375,4.295945966339111,0.3935468978881836,-5.106083953094482
1758972476042166500,4.88016650390625,3.154510324859619,3.886088569641113,-6.281936243438721
1758972476052123600,4.89012353515625,2.811391299438476,8.03179838180542,-6.911611280059814
1758972476062081500,4.90008154296875,2.319382858276367,11.595268277740479,-5.625476075744628
1758972476072038400,4.910038330078125,1.2285247268676758,13.168558043670654,-4.4844893470764156
1758972476081996500,4.91999658203125,0.016160861206054686,12.695852853393554,-3.2799066368103027
1758972476091953400,4.929953369140625,-1.1791443176269532,10.462810892486571,-0.9398737892150878
1758972476101911600,4.93991162109375,0.16355390090942382,6.606500205993652,0.4198831161499023
1758972476111868700,4.94986865234375,2.9677625953674314,3.1344588859558105,-0.04115034103393554
1758972476121826300,4.959826416015625,3.5606267814636228,-0.2305915473937988,-1.5474024604797363
1758972476131783400,4.969783447265625,2.722955475616455,-4.201823913574218,-3.1384991012573242
1758972476141741600,4.979741455078125,-0.43978491744995113,-8.150461001586914,-3.0404864707946775
1758972476151698700,4.98969873046875,-5.597942756652832,-12.550554740142822,-2.091484787750244
1758972476161656600,4.999656494140625,-9.863063376617431,-18.663849404144287,-2.0967221038818358
1758972476171613400,5.009613525390625,-16.679205865478515,-24.615984368896484,-2.693027954864502
1758972476181571600,5.019571533203125,-22.581810783386228,-23.305009322357176,-1.5459060844421386
1758972476191528400,5.029528564453125,-14.002638047027586,-13.510330330657958,1.4829086532592772
1758972476201486600,5.039486572265625,2.287510048675537,-6.472275275421143,1.2930185340881346
1758972476211443500,5.049443359375,28.69824783706665,0.5624877525329589,1.8195932617187498
1758972476221400600,5.059400634765625,35.379417207336424,0.2711433380126953,-1.7151462142944336
1758972476231358500,5.0693583984375,11.371410422515869,-11.367669482421874,-7.709179708099365
1758972476241315600,5.079315673828125,11.98986263885498,-14.816666611480713,-5.054010066986084
1758972476251273500,5.0892734375,14.95912161026001,-15.735291860961913,-3.1968577667236326
1758972476261230600,5.099230712890625,13.705607403564452,-16.212635816955565,-1.27042325592041
1758972476271189200,5.109189208984375,-0.3895066825866699,-16.588824752807618,-2.3247698120117186
1758972476281146400,5.119146484375,-12.108375621032714,-15.239392842102049,-5.856067623138427
1758972476291104000,5.12910400390625,-1.6817770286560059,-13.845518563079834,-2.873790180206299
1758972476301061000,5.13906103515625,9.871293444824218,-11.758672541046142,2.404526654815674
1758972476311019300,5.149019287109375,11.930606147766113,-14.331541500091552,3.6750995483398436
1758972476320976400,5.158976318359375,4.289062636566162,-21.326650563049316,3.9208044937133786
1758972476330934300,5.168934326171875,-6.698976245117187,-29.20192801132202,3.2659903396606444
1758972476340891100,5.17889111328125,-8.56061767349243,-29.154343253326413,6.276250014495849
1758972476350849000,5.18884912109375,-6.078878015136718,-26.956615766906737,10.392930131530761
1758972476360806100,5.19880615234375,-6.081272216796875,-24.774151316070554,11.978340543365478
1758972476370764300,5.208764404296875,-5.307496167755127,-21.831078925323485,10.23401499633789
1758972476380721200,5.21872119140625,-5.738751741790771,-19.936666861724852,7.629722140502929
1758972476390679000,5.228678955078125,-9.133580058288574,-17.681328897857664,5.422268209838867
1758972476400636200,5.23863623046875,-13.233500763702391,-13.918242438507079,3.5271079582214355
1758972476410594300,5.24859423828125,-14.804695603179931,-11.526734255218505,0.9000701866149902
1758972476420551200,5.25855126953125,-13.213449324798583,-10.5077021736145,-2.1164742675781247
1758972476430509000,5.268509033203125,-11.458349870300292,-10.044573789978028,-3.6186861717224117
1758972476440466200,5.278466064453125,-10.30449430770874,-10.15126540145874,-4.451120161437988
1758972476450424300,5.28842431640625,-5.868637181854248,-8.483105394744873,-3.839700912475586
1758972476460381200,5.298381103515625,-0.7205050621032715,-5.9205614303588865,-2.9638720176696776
1758972476470339000,5.308339111328125,0.8586205703735351,-2.8296470870971677,-0.967856021118164
1758972476480296200,5.318296142578125,0.2284966209411621,-0.04219780426025391,1.3631985702514648
1758972476490254000,5.328254150390625,-5.3019595764160155,0.8322843521118164,2.155828957366943
1758972476500211200,5.338211181640625,-11.130942793273926,0.9382277755737304,3.282749751281738
1758972476510169300,5.34816943359375,-7.953238639831542,2.0688895095825193,5.917269403076172
1758972476520126200,5.358126220703125,-1.1628338188171385,1.642123063659668,9.141361213684082
1758972476530084000,5.368083984375,-0.12060790863037109,0.018704700469970702,9.83807389678955
1758972476540041200,5.378041259765625,-5.2353708427429195,-1.357362703704834,6.965929730224609
1758972476549999400,5.387999267578125,-12.417676548004149,-3.9791631591796874,1.1182418128967284
1758972476559956000,5.3979560546875,-10.744129587554932,-5.255422281646728,-4.771045358276367
1758972476569914000,5.4079140625,-1.8314146324157714,-4.42433503036499,-8.574833245849609
1758972476579871200,5.417871337890625,3.2481834648132324,-3.500472464752197,-9.903615167236328
1758972476589829000,5.4278291015625,0.5829881042480468,-3.7535096527099605,-8.172906642150878
1758972476599786200,5.4377861328125,-1.0075099861145018,-7.892336135101318,-6.912359468078613
1758972476609744100,5.447744140625,-1.0357914932250976,-14.687678997039795,-5.570559075164795
1758972476619701200,5.457701171875,-1.444751064300537,-20.941483370971678,-2.5635914276123044
1758972476629659100,5.4676591796875,-3.280205912017822,-26.60436884765625,0.5674257934570313
1758972476639616300,5.4776162109375,-4.712985968017578,-28.07665323104858,1.3449427825927733
1758972476649574400,5.487574462890625,-3.775207105255127,-27.67038713684082,0.3386298973083496
1758972476659531000,5.497531005859375,-2.85388837890625,-25.71103235321045,-0.7492354820251464
1758972476669489200,5.5074892578125,-3.5935470542907715,-24.216302329254148,-3.719541916656494
1758972476679446300,5.5174462890625,-3.1191958503723143,-24.288577291870116,-4.7572786987304685
1758972476689404200,5.527404052734375,-4.462342981719971,-23.83308042602539,-1.7317559883117675
1758972476699361000,5.537361083984375,-6.566247690582275,-21.537340309143065,4.7578772491455075
1758972476709319200,5.547319091796875,-5.270086766815186,-21.308544412994383,7.517194662475585
1758972476719276300,5.5572763671875,-2.362777763366699,-20.96722103881836,7.041347082519531
1758972476729234200,5.567234130859375,-0.7757213378906249,-19.265991121673583,5.410746114349365
1758972476739191300,5.57719140625,-0.4391863670349121,-17.871518292236328,4.150797490692138
1758972476749149200,5.587149169921875,-0.5448305152893066,-16.544532022094725,3.470395306396484
1758972476759106000,5.59710595703125,0.6661866119384765,-14.647725756835937,1.7542016288757323
1758972476769064200,5.607064208984375,1.9614497100830077,-12.474089924621582,-0.4885667762756347
1758972476779021300,5.617021240234375,3.099742961883545,-9.970353538513184,-2.231844860076904
1758972476788979200,5.626979248046875,4.32811805114746,-6.411223133087158,-4.1277532997131345
1758972476798936000,5.63693603515625,3.995174382781982,-2.7232547508239744,-5.868038631439209
1758972476808894200,5.646894287109375,3.0521582038879393,0.639700756072998,-6.826168208312988
1758972476818851300,5.656851318359375,2.6218004554748533,5.153668711090088,-7.5451768943786615
1758972476828809200,5.666809326171875,3.726724521636963,10.287585258483887,-6.2021794006347655
1758972476838766000,5.67676611328125,4.139873945617675,13.40049632949829,-3.639635436248779
1758972476848724200,5.68672412109375,3.0514100158691404,12.686724959564208,-2.2680571601867676
1758972476858681000,5.69668115234375,2.976591213989258,10.181941110229491,-1.7905635665893553
1758972476868639200,5.70663916015625,3.6947020744323726,7.874678897857666,0.19512743530273435
1758972476878596000,5.71659619140625,4.389170193481445,3.9336733276367184,1.0645219131469725
1758972476888554000,5.726553955078125,5.015104290008544,-0.29343934097290036,-0.8152256652832031
1758972476898511000,5.736510986328125,4.667795411682128,-4.241627516174316,-2.6042928558349607
1758972476908469200,5.74646923828125,2.75183553314209,-8.277204051971434,-3.8895302345275877
1758972476918426400,5.75642626953125,-0.9044096771240234,-12.55085401535034,-4.046500080871581
1758972476928384000,5.766384033203125,-7.941866181945801,-16.722600770568846,-1.7133505630493162
1758972476938341000,5.776341064453125,-24.173954887390135,-23.63391277542114,-2.742109088897705
1758972476948299300,5.78629931640625,-37.28385499038696,-26.2006465927124,-1.608155327606201
1758972476958256000,5.796256103515625,-19.739743775177,-18.234988031768797,3.365648983764648
1758972476968214300,5.80621435546875,11.378144114685059,-10.33546929168701,2.4480711975097655
1758972476978171100,5.816171142578125,37.76449097366333,-0.6868366012573242,2.5746646102905273
1758972476988129000,5.82612890625,29.078626625823972,-1.4086884017944334,-1.9943699829101562
1758972476998086100,5.836086181640625,11.912350360107421,-6.361393811035156,-4.070442097473144
1758972477008044300,5.846044189453125,10.032902056884765,-6.3986535743713375,-2.2749404899597168
1758972477018001200,5.856001220703125,9.025840983581542,-8.723872299194335,-2.751087345123291
1758972477027959000,5.865958984375,8.601768014526368,-10.702679971313476,-4.305073860168457
1758972477037916200,5.875916259765625,5.436034869384765,-12.726827837371825,-3.5742438034057615
1758972477047874300,5.885874267578125,-0.7736264114379883,-15.746365043640136,-1.959205146026611
1758972477057831200,5.8958310546875,2.6240450195312497,-18.75871964492798,0.7665934440612793
1758972477067789000,5.9057890625,2.829497449493408,-19.543718514251708,5.393986702728271
1758972477077746200,5.91574609375,3.1337106979370115,-20.83718596115112,8.63154589767456
1758972477087704000,5.9257041015625,-0.5862801315307616,-26.43737328186035,10.619182188415527
1758972477097661200,5.9356611328125,-5.61170941619873,-31.990724032592773,9.458892208862304
1758972477107619300,5.945619384765625,-6.010343992614746,-30.20405104370117,7.638999671936035
1758972477117576200,5.955576171875,-6.947673942565918,-27.01946356048584,8.136993617248535
1758972477127534000,5.9655341796875,-7.546822908020019,-22.714090425109863,7.82709413986206
1758972477137491200,5.9754912109375,-5.934627365112305,-19.564817416381835,6.0428153526306145
1758972477147449300,5.985449462890625,-5.935076277923583,-17.797298040771484,2.9507039085388183
1758972477157406200,5.99540625,-7.664138789367676,-15.197943225860595,0.9829694190979004
1758972477167364000,6.005364013671875,-11.427075611114502,-13.321038761901855,-1.1789946800231932
1758972477177321200,6.0153212890625,-13.169904782104492,-12.55130292816162,-3.4166754066467284
1758972477187279000,6.025279052734375,-11.186009431457519,-11.26801083831787,-4.228908319854736
1758972477197236000,6.035236083984375,-8.40215145111084,-10.434379747772216,-3.744381758880615
1758972477207194000,6.045194091796875,-5.628468827819824,-8.211513143920898,-2.819920642852783
1758972477217151200,6.055151123046875,-4.923974989318848,-6.068702658081055,-1.9336171157836912
1758972477227109000,6.065109130859375,-3.4204163467407223,-4.304774584960938,0.06015431671142578
1758972477237066200,6.075066162109375,-3.034650604248047,-2.344222700500488,2.3116017028808593
1758972477247024000,6.085024169921875,-8.010400204467773,-0.7166144844055176,2.422932080078125
1758972477256981200,6.094981201171875,-12.171373052215575,-0.10803834991455077,0.9180266990661621
1758972477266939100,6.104939208984375,-9.755773214721678,0.0026934768676757813,2.2863129478454587
1758972477276896300,6.114896240234375,-3.6264673271179197,0.6114192489624023,6.133046827697753
1758972477286854100,6.124854248046875,-0.09202712631225586,0.17223288192749023,8.658779941558837
1758972477296811300,6.134811279296875,-2.244863331604004,-0.8282441368103027,8.617180687713622
1758972477306769400,6.144769287109375,-9.043797496032715,-2.41964005279541,3.8711248092651367
1758972477316726300,6.154726318359375,-10.670208611297607,-3.56227279510498,-2.4896704513549803
1758972477326684200,6.16468408203125,-1.3485340850830076,-3.528753971862793,-5.660940187835693
1758972477336641300,6.174641357421875,3.029413288116455,-3.6399347114562985,-5.250933153533936
1758972477346599400,6.184599365234375,-0.19018939437866209,-4.2235213661193844,-4.478354205322265
1758972477356556300,6.194556396484375,-2.4890719009399414,-6.096684889984131,-4.2320507095336914
1758972477366514200,6.20451416015625,-1.5269021087646484,-10.589105030059814,-2.2158336364746094
1758972477376471300,6.21447119140625,-0.1331774673461914,-17.820791144561767,-0.7600093894958496
1758972477386429200,6.22442919921875,-1.4185644836425781,-23.58303599014282,1.5650596977233886
1758972477396386000,6.234385986328125,-4.00879140472412,-27.094581637573242,2.440140404510498
1758972477406344200,6.24434423828125,-3.5084032577514646,-28.714408698272702,-0.8345289161682128
1758972477416301300,6.25430126953125,-1.9289783500671385,-28.32101143798828,-3.586813362121582
1758972477426259200,6.26425927734375,-1.8673276573181152,-25.731532704925534,-5.013009363555908
1758972477436217300,6.27421728515625,-0.9382277755737304,-24.271518605041503,-7.597699693298339
1758972477446174200,6.28417431640625,0.1475426773071289,-24.56705287246704,-10.288034171295166
1758972477456132000,6.294132080078125,-2.3395839347839353,-25.050382332611083,-7.174524549865723
1758972477466089200,6.304089111328125,-5.082740486907959,-22.65752741088867,2.231844860076904
1758972477476047400,6.31404736328125,-3.991583080291748,-21.856218042755124,7.38012661743164
1758972477486004500,6.32400439453125,-1.39821376953125,-22.353463800048825,7.7224974548339835
1758972477495962000,6.333962158203125,-0.0704793113708496,-20.942081921386716,7.324162153625488
1758972477505919200,6.343919189453125,0.4843769233703613,-18.280328225708008,6.692541828155517
1758972477515877000,6.353877197265625,1.447893453979492,-15.593435412597655,4.321384358978271
1758972477525834200,6.363834228515625,2.2520459365844725,-13.156886310577391,2.656666017150879
1758972477535792400,6.37379248046875,3.844489315795898,-10.535534767913818,0.6660369743347168
1758972477545749200,6.383749267578125,5.161599504089355,-6.635080988311767,-1.7872715393066405
1758972477555707100,6.39370703125,5.4607250740051265,-2.052429373168945,-4.351012604522705
1758972477565664300,6.403664306640625,5.3853077217102046,2.114678616333008,-6.787112793731689
1758972477575622400,6.413622314453125,4.560056336975097,7.282413262176513,-9.234435803222656
1758972477585579300,6.423579345703125,3.977966058349609,12.04058978652954,-10.169072276306151
1758972477595537200,6.433537109375,4.166359801483154,14.749479327392578,-10.031555318450927
1758972477605494300,6.443494384765625,4.023156614685059,15.103372260284424,-9.068038787841797
1758972477615452400,6.453452392578125,3.700986853790283,13.836689944458007,-5.969044013977051
1758972477625409300,6.4634091796875,4.384232152557373,10.345195735931396,-1.7313070755004882
1758972477635367200,6.4733671875,6.579565437316894,4.894197106170654,0.23523031311035156
1758972477645324300,6.48332421875,6.776638161468505,0.6034884559631347,-0.3591302490234375
1758972477655282200,6.4932822265625,3.5782840187072753,-3.7997476722717285,-1.2541127571105957
1758972477665239300,6.5032392578125,-2.0073884544372556,-9.459939672088623,-1.6009727226257324
1758972477675197400,6.513197509765625,-10.191069004058837,-15.572785423278807,0.37933132553100585
1758972477685154300,6.523154296875,-16.59151822967529,-23.167941277313233,2.0548235748291015
1758972477695112200,6.5331123046875,-23.491906689453124,-29.697078842163084,1.3986626823425292
1758972477705069300,6.5430693359375,-30.50347588882446,-24.065467624664304,1.2931681716918944
1758972477715027500,6.55302734375,-22.691794422149655,-11.905616667938231,3.768024500274658
1758972477724984000,6.562984130859375,5.442618923950195,-6.202628313446045,3.741688282012939
1758972477734942200,6.572942138671875,43.231351189422604,0.023044190979003905,6.332813028717041
1758972477744899300,6.5828994140625,36.04066577835083,-8.594585409545898,-0.745045629119873
1758972477754857200,6.592857177734375,17.25560991516113,-12.738948483276367,-2.2062568298339844
1758972477764814300,6.602814453125,13.634379904174803,-10.522665933990478,-0.8020575561523438
1758972477774772200,6.612772216796875,7.377283502960204,-10.335768566894531,-4.759972175598144
1758972477784729300,6.622729248046875,2.7259482276916502,-13.650840040588378,-9.992799179077148
1758972477794687200,6.632687255859375,-8.436418462371826,-14.63904677581787,-12.163292621612548
1758972477804644400,6.642644287109375,-10.543315923309326,-13.825766399383545,-12.750320941162109
1758972477814602500,6.6526025390625,1.2304700157165527,-12.164489722442626,-7.9098437347412105
1758972477824559000,6.66255908203125,7.754669539642333,-12.753463330841063,-2.4631845954895017
1758972477834517200,6.672517333984375,9.814880068206786,-18.73762074279785,2.5941174987792968
1758972477844474400,6.682474365234375,9.928455009460448,-28.02802100982666,9.343970529174804
1758972477854432300,6.692432373046875,2.8197710052490232,-34.18740405578613,15.313313818359374
1758972477864390400,6.702390380859375,-3.566911560821533,-34.43101407470703,18.014871116638183
1758972477874347300,6.71234716796875,-8.329726850891113,-31.332767488861084,15.56455535507202
1758972477884305200,6.72230517578125,-11.7978775932312,-25.12280693283081,11.540500914764404
1758972477894262300,6.73226220703125,-14.35189221420288,-19.0624839805603,9.039607643127441
1758972477904220400,6.742220458984375,-14.178013318634033,-14.019247821044921,5.572205088806152
1758972477914177300,6.75217724609375,-13.039570429229736,-10.194660306549071,2.270900274658203
1758972477924135200,6.76213525390625,-9.695169985198975,-8.81694688873291,-0.8376713058471679
1758972477934092300,6.77209228515625,-8.177695045471191,-8.692747677612305,-2.8194717300415038
1758972477944050400,6.782050537109375,-8.581566938018799,-9.133729695892333,-3.07101254196167
1758972477954007000,6.792007080078125,-6.337152519226074,-9.79408044128418,-3.278410260772705
1758972477963965200,6.801965087890625,-3.074005294036865,-9.139415924835205,-2.6466402976989745
1758972477973922300,6.81192236328125,-2.8215666564941406,-7.647678652954101,-2.5758617111206052
1758972477983880200,6.821880126953125,-2.5890298202514646,-5.421370384216308,-1.4674959800720213
1758972477993837300,6.83183740234375,-6.031592532348633,-3.0205846694946286,-0.09816226806640624
1758972478003795200,6.841795166015625,-10.98729069366455,-1.6897078216552734,0.16924012985229492
1758972478013752300,6.85175244140625,-9.845406139373779,0.14260463638305662,2.103156520843506
1758972478023710200,6.861710205078125,-4.229806145477295,2.0241478660583496,5.555146401977539
1758972478033667300,6.871667236328125,-1.0543465560913086,1.8180968856811521,8.213907345581054
1758972478043625500,6.88162548828125,-2.4378958404541016,1.029207438659668,9.077914869689941
1758972478053582000,6.89158203125,-7.2246531471252435,0.027383681488037107,6.688800888061523
1758972478063540200,6.901540283203125,-10.031704956054687,-3.315520386505127,0.7636006919860839
1758972478073497300,6.911497314453125,-5.156661463165283,-4.1091982368469235,-3.3056443046569823
1758972478083455200,6.921455322265625,-0.10953472595214843,-2.5143606559753415,-4.118176493072509
1758972478093412000,6.931412109375,-1.1213842025756835,-2.0950760902404784,-3.4208652595520017
1758972478103370200,6.941370361328125,-1.583914035797119,-3.584718435668945,-3.5302503479003904
1758972478113327400,6.951327392578125,-1.3187562019348145,-7.381473355865478,-3.239504483795166
1758972478123285200,6.96128515625,-1.3600561805725098,-13.52813720550537,-2.1739351074218747
1758972478133242400,6.971242431640625,-1.4665981544494628,-19.253571200561524,-1.210418576812744
1758972478143200300,6.9812001953125,-2.8796260467529295,-23.07935581588745,-0.5072714767456055
1758972478153157000,6.9911572265625,-3.446902202606201,-24.877999813079832,0.3800795135498047
1758972478163115300,7.001115234375,-2.2348376121520994,-26.151116545867918,0.8213608070373535
1758972478173073400,7.011073486328125,-0.7990648040771484,-27.77797657394409,0.9235632904052734
1758972478183030300,7.0210302734375,0.1580173095703125,-27.845014220428464,-0.44547114639282226
1758972478192988200,7.03098828125,0.977432827758789,-27.681609957122802,-3.54311918182373
1758972478202945300,7.0409453125,2.578704825592041,-27.220576499938964,-4.846013797760009
1758972478212903200,7.050903076171875,-2.093430076599121,-23.88515431213379,-1.731456713104248
1758972478222860300,7.0608603515625,-6.541258210754394,-21.871481078338622,2.1068974609374997
1758972478232818400,7.070818359375,-4.495113616943359,-21.065832219696045,4.509778102111816
1758972478242775300,7.080775390625,-1.8854338073730468,-19.826383947753904,5.267842202758788
1758972478252733200,7.090733154296875,-0.5877765075683593,-18.43056437988281,4.951059395599365
1758972478262690300,7.100690185546875,-0.6061819328308106,-16.88091735534668,4.215889848327636
1758972478272648000,7.11064794921875,-0.507570751953125,-15.008950932312011,2.5393501358032227
1758972478282605000,7.12060498046875,0.7719803977966309,-13.202974692535399,0.900818374633789
1758972478292563000,7.13056298828125,1.4217068733215332,-11.701510976409912,-0.002992752075195312
1758972478302519800,7.140519775390625,2.347514727783203,-9.538798689270019,-1.0369885940551757
1758972478312478000,7.15047802734375,3.3743279647827147,-6.767061354827881,-2.868403226470947
1758972478322434800,7.160434814453125,3.5175311515808105,-3.1880291481018066,-5.341014990997314
1758972478332393000,7.17039306640625,2.9076082786560056,1.0045172340393065,-6.975805812072753
1758972478342349800,7.180349853515625,3.1120132453918457,5.380818593597412,-7.389104873657226
1758972478352307700,7.1903076171875,4.083161293792724,9.181164816284179,-7.197718378448486
1758972478362264800,7.200264892578125,4.046200805664062,12.76797817840576,-6.107758072662353
1758972478372223000,7.210222900390625,3.2206501457214354,14.667627558135985,-4.4014404769897455
1758972478382180000,7.22018017578125,2.932897033691406,14.400374797821044,-1.9304747261047361
1758972478392137700,7.2301376953125,3.972429467010498,11.500996587371825,1.1546037506103515
1758972478402094800,7.2400947265625,5.394136340332031,6.758681649017333,1.4649521408081054
1758972478412053000,7.250052978515625,5.202300932312012,2.333448793029785,-0.14021043472290037
1758972478422009900,7.260009765625,3.7473745109558103,-2.077568490600586,-1.3609540061950682
1758972478431968000,7.269968017578125,-0.5904699844360352,-7.487566416931152,-2.867056488037109
1758972478441926000,7.27992578125,-10.223091451263427,-13.973757989501951,-3.0514100158691404
1758972478451882800,7.2898828125,-24.6553390586853,-26.60960616378784,-3.09001651763916
1758972478461841000,7.2998408203125,-26.528053669738767,-36.39680327529907,-3.962254109954834
1758972478471798000,7.309798095703125,-27.526585399627685,-26.97517082977295,1.8816928672790527
1758972478481756000,7.319755859375,-18.880524654388427,-13.869161304473876,4.930259768676757
1758972478491712800,7.329712646484375,13.070096500396728,-4.704606262207031,3.8613983650207517
1758972478501671000,7.3396708984375,50.62629192962646,8.330475038909912,9.208847772979736
1758972478511628000,7.3496279296875,37.644032702636714,11.784410208892822,7.425317173767089
1758972478521586000,7.3595859375,9.154529322814941,3.5295021598815914,-0.4186860153198242
1758972478531542800,7.369542724609375,2.2260089935302734,-4.114884465789794,-7.183203530883788
1758972478541501000,7.3795009765625,-5.118354236602783,-13.55387487335205,-13.80975517578125
1758972478551457800,7.389457763671875,7.9286980728149405,-24.865130979156493,-13.814393941497801
1758972478561416000,7.399416015625,26.122086850738523,-27.322629345703124,-1.0461164878845215
1758972478571373000,7.409373046875,-0.3368342460632324,-27.980436251831055,3.5440170074462887
1758972478581330700,7.41933056640625,-15.950021822357177,-26.159795526885986,2.980032878875732
1758972478591287800,7.429287841796875,-0.7056909393310546,-21.622334468078613,2.672377965545654
1758972478601246000,7.439245849609375,2.587982357025146,-19.32479869995117,3.750666538238525
1758972478611203000,7.449203125,1.6347908210754394,-16.709731936645507,5.471947894287109
1758972478621161000,7.459160888671875,1.5738883163452146,-16.238972035217284,6.115688865661621
1758972478631117800,7.469117919921875,1.7100585357666014,-19.162441899871826,2.5602994003295896
1758972478641076000,7.479075927734375,-1.546803910064697,-23.893234742736816,0.7742249618530272
1758972478651033900,7.489033935546875,-4.867112699890137,-24.976760631561277,3.8467338798522945
1758972478660991000,7.498990966796875,-7.378181328582763,-23.320421995544432,6.680720457458496
1758972478670948900,7.508948974609375,-7.377582778167724,-21.099201405334473,7.712621372985839
1758972478680905700,7.51890576171875,-6.430376746368408,-18.92347064666748,6.723965724945068
1758972478690863900,7.52886376953125,-8.698433906555175,-15.069105249023437,6.837989579010009
1758972478700821000,7.538821044921875,-11.00674358215332,-10.26588780593872,6.572981382751465
1758972478710779000,7.54877880859375,-12.808380331420897,-7.983764710998535,2.2954408416748047
1758972478720735700,7.55873583984375,-9.980229620361328,-8.26792652053833,-2.4061726684570313
1758972478730694000,7.56869384765625,-4.759223987579346,-8.959551525115966,-5.069871652984619
1758972478740651000,7.578651123046875,-1.1987468437194824,-8.374767769622803,-5.261258148193359
1758972478750609000,7.58860888671875,-2.618358790588379,-6.81823741531372,-5.0477252876281735
1758972478760566000,7.59856591796875,-5.435436318969726,-5.065532162475586,-4.094234476470947
1758972478770524000,7.60852392578125,-8.035539321899414,-2.920177837371826,-1.9399018951416014
1758972478780480800,7.618480712890625,-12.019939797210693,-1.4223054237365722,-0.323666136932373
1758972478790439000,7.62843896484375,-11.806107661437988,-0.3253121505737305,1.732055263519287
1758972478800396000,7.63839599609375,-6.380248149108886,1.0302549018859863,4.753388121032715
1758972478810354000,7.64835400390625,-1.5255553703308105,0.8943839576721191,6.504297722625732
1758972478820311800,7.658311767578125,-2.1691467041015624,0.6206967803955078,6.405087991333008
1758972478830269000,7.66826904296875,-5.699546689605713,-0.3290530906677246,3.334075449371338
1758972478840226800,7.678226806640625,-4.912003981018066,-2.029085906982422,-0.385616104888916
1758972478850184000,7.688183837890625,-1.753004528045654,-2.1226094093322754,-1.8553566490173339
1758972478860142000,7.69814208984375,-2.1472996139526366,-1.8312649948120117,-2.342427049255371
1758972478870099000,7.708098876953125,-2.6050410438537597,-3.739892630767822,-2.8974329216003416
1758972478880056800,7.718056884765625,-0.12075754623413085,-7.717260138702392,-3.123086428070068
1758972478890014000,7.728013916015625,1.8662801940917968,-12.384008087158202,-2.2168810997009274
1758972478899971800,7.737971923828125,1.1390414398193358,-16.949750653076173,-1.670853483581543
1758972478909928700,7.7479287109375,-1.5779285316467284,-20.780024396514893,-3.464858715057373
1758972478919886800,7.757886962890625,-2.900425673675537,-24.077737908172605,-5.266046551513671
1758972478929844000,7.767843994140625,-1.9194015434265135,-25.777172174072263,-4.899135147094726
1758972478939801900,7.7778017578125,-1.3640963958740233,-24.339753352355956,-2.3719056571960446
1758972478949758700,7.7877587890625,-2.0828058067321775,-21.49065337677002,-0.8099883491516113
1758972478959716900,7.797716796875,-2.757222486877441,-20.060716435241698,-1.686715069580078
1758972478969674000,7.807674072265625,-2.5667338172912597,-20.527286483764648,-3.129520845031738
1758972478979631900,7.8176318359375,-1.4655506912231444,-21.81566625213623,-2.9026702377319333
1758972478989590000,7.827590087890625,-2.2711995498657225,-20.874445724487302,0.6117185241699218
1758972478999547000,7.837546875,-4.030039944458007,-18.727295748138427,3.3810616569519043
1758972479009504800,7.8475048828125,-2.9230209518432617,-18.714726189422606,3.8230911384582518
1758972479019462000,7.8574619140625,-0.8626607856750488,-18.09417904663086,3.749469437408447
1758972479029419800,7.867419677734375,0.42541970748901364,-17.156849096679686,3.3042975662231444
1758972479039377000,7.877376953125,0.9488520454406738,-16.902165895080564,2.337937921142578
1758972479049334800,7.887334716796875,1.2491747161865234,-16.877026777648926,0.22700024490356444
1758972479059292000,7.8972919921875,1.1553519386291504,-16.24735174102783,-1.3447931449890136
1758972479069249800,7.907249755859375,1.5387234794616698,-14.090924233245849,-2.7974750022888184
1758972479079207000,7.91720703125,2.2508488357543945,-10.794108547210692,-3.5116952850341794
1758972479089165000,7.9271650390625,2.3229741607666012,-6.7730468589782715,-3.928136736297607
1758972479099122000,7.937121826171875,1.6023194610595701,-3.084180651092529,-5.371840337371826
1758972479109079800,7.947079833984375,0.9080009796142577,0.7381622993469238,-6.559663636016845
1758972479119038000,7.957037841796875,0.36750995483398435,4.811597148895263,-6.282834069061279
1758972479128994800,7.966994873046875,0.35523967132568357,7.761702507019042,-5.3484968711853025
1758972479138953000,7.976952880859375,0.30615853729248044,8.789263932037352,-4.024503353118896
1758972479148909800,7.986909912109375,-0.10369885940551757,8.493430389404296,-2.1396680961608885
1758972479158867700,7.99686767578125,-0.5122095176696777,6.700173345947265,-0.6905775413513183
1758972479168824800,8.006824951171875,-0.45340193939208984,4.627243621063232,-0.2841618095397949
1758972479178783000,8.016782958984376,-0.03666121292114258,2.6669910118103024,-0.234931037902832
1758972479188739800,8.02673974609375,-0.5565022483825683,-0.20081366424560546,-0.994042601776123
1758972479198697700,8.03669775390625,-2.7027543991088865,-4.180425736236572,-1.6000748970031737
1758972479208654800,8.04665478515625,-6.792050834655761,-7.870189769744872,-0.5764040496826172
1758972479218613000,8.056613037109376,-11.518953099822998,-10.952724407196044,0.421978042602539
1758972479228570000,8.066570068359376,-17.48739856338501,-13.45257021560669,2.9315502952575683
1758972479238527700,8.07652783203125,-18.554464315795897,-13.414262989044188,4.177432984161377
1758972479248486000,8.08648583984375,-5.479429774475097,-9.727042794799804,2.9026702377319333
1758972479258442800,8.09644287109375,10.44530329284668,-5.231330627441406,1.5099930595397948
1758972479268401000,8.10640087890625,21.61634896392822,0.8153753028869628,0.5155015449523925
1758972479278358500,8.116358642578126,23.550265354919432,5.501875415039062,-1.4291887535095213
1758972479288316400,8.12631640625,11.592724438476562,4.060266740417481,-5.73336478805542
1758972479298273500,8.1362734375,1.2891279563903808,-1.9533692794799804,-7.847594491577148
1758972479308231700,8.146231689453124,-11.86207212524414,-7.3861121215820305,-10.171765753173828
1758972479318188500,8.1561884765625,-7.457489258575439,-16.95214485473633,-13.467234700775146
1758972479328146400,8.166146484375,25.181614511108396,-22.074838581848145,-6.04595774230957
1758972479338103600,8.176103515625,8.83639977722168,-26.412982352447507,6.443395217895508
1758972479348061400,8.1860615234375,-6.951714157867431,-36.8608294845581,18.327164795684812
1758972479358019600,8.19601953125,-0.5696703575134276,-33.39327729263305,16.965013688659667
1758972479367976400,8.2059765625,-1.5566799919128418,-21.498584169769284,8.913463143157959
1758972479377934300,8.215934326171874,-5.048473475646972,-13.97525436553955,3.0617350105285643
1758972479387891500,8.225891357421874,-7.256226681518554,-11.610531313323975,0.2262520568847656
1758972479397849600,8.235849609375,-5.724685807037353,-12.867487184906006,-1.9223942955017088
1758972479407806500,8.245806396484374,-1.0473135887145995,-14.636951849365234,-2.469469374847412
1758972479417764400,8.255764404296874,2.9599814399719238,-15.793650526428221,-1.2101193016052245
1758972479427721500,8.265721435546874,5.247341851043701,-18.350807537078857,-0.058657940673828124
1758972479437679600,8.2756796875,3.4433109001159665,-22.406136236572266,-0.4837783729553222
1758972479447636500,8.285636474609374,-1.6940473121643065,-23.85103693847656,-1.7212813560485838
1758972479457594400,8.295594482421874,-8.97631093673706,-20.37315975189209,0.924461116027832
1758972479467552500,8.305552490234374,-12.480374703979491,-15.798738204956054,3.648015142059326
1758972479477509400,8.31550927734375,-9.415048390960694,-12.566117050933837,3.367594272613525
1758972479487467500,8.325467529296875,-5.622333686065674,-10.52087028274536,1.6326958946228027
1758972479497424600,8.335424560546874,-4.932504332733154,-9.281870923614502,0.0896329246520996
1758972479507382300,8.34538232421875,-5.663783302307128,-9.220220230865477,-1.5690999130249021
1758972479517339400,8.35533935546875,-5.048174200439453,-9.29593685836792,-2.8761843818664548
1758972479527297500,8.365297607421875,-4.371064043426514,-7.337928813171386,-2.449717211151123
1758972479537254700,8.375254638671874,-4.4562078399658205,-5.333533110809326,-0.8363245674133301
1758972479547212500,8.385212646484375,-4.809651860046387,-2.8878561149597166,0.21772271347045896
1758972479557169400,8.39516943359375,-5.72049595413208,-0.3491045295715332,0.1441010124206543
1758972479567127600,8.40512744140625,-6.45416912536621,1.006761798095703,-0.3666121292114258
1758972479577085400,8.41508544921875,-6.296301453399658,1.491288359069824,-0.08319850769042968
1758972479587042600,8.42504248046875,-3.4186206954956053,0.5358522590637207,2.0676924087524413
1758972479597000700,8.435000732421875,0.1514332550048828,-0.5545569595336913,4.554819020843506
1758972479606957300,8.444957275390625,-0.6054337448120117,-0.7122749938964843,5.607669200897217
1758972479616915500,8.45491552734375,-4.2597336662292475,-0.42063130416870115,5.0394952194213865
1758972479626872600,8.46487255859375,-5.877465800476074,-1.5242086318969725,2.244863331604004
1758972479636830500,8.47483056640625,-4.385429253387451,-2.5740660598754883,-1.553986515045166
1758972479646787300,8.484787353515625,-4.621108479309082,-2.9617770912170407,-5.021837982177734
1758972479656745500,8.494745361328125,-4.670638526153565,-4.292653939056396,-7.631966704559326
1758972479666703400,8.504703369140625,-2.327762564086914,-7.643339162445068,-8.46544815750122
1758972479676660500,8.514660400390625,-0.28954876327514645,-13.034632388305663,-7.320271575927734
1758972479686618600,8.52461865234375,0.4215291297912597,-17.584064455413817,-3.482665589904785
1758972479696575500,8.534575439453125,0.1767220100402832,-22.19724214172363,-0.7948749511718749
1758972479706533400,8.544533447265625,-0.2581248664855957,-25.26945178451538,1.1757026527404784
1758972479716490500,8.554490478515625,1.1584943283081055,-26.513239546966552,4.001309524536133
1758972479726448600,8.56444873046875,1.8960580772399902,-24.364144281768798,3.394529041290283
1758972479736405500,8.574405517578125,1.1839327209472656,-20.494964761352538,-3.123086428070068
1758972479746363400,8.58436328125,-0.7447463539123534,-20.658069749450682,-7.816918782806396
1758972479756320500,8.594320556640625,-2.2135890724182126,-21.06658040771484,-8.271068910217284
1758972479766278400,8.6042783203125,-2.0573674140930174,-20.849605882263184,-7.04808077468872
1758972479776236500,8.614236572265625,-0.8315361640930176,-20.619163972473142,-4.530877004241943
1758972479786193700,8.624193603515625,0.029328970336914062,-19.193267246246336,-2.553116795349121
1758972479796151300,8.6341513671875,-0.020649989318847654,-17.357363485717773,-2.037166337585449
1758972479806108400,8.6441083984375,-1.3006500518798827,-16.264560065460206,0.14918869094848633
1758972479816066600,8.654066650390625,-0.9564835632324218,-15.725565416717528,2.461987494659424
1758972479826023700,8.664023681640625,0.014814122772216796,-14.488361708831786,4.228160131835938
1758972479835981600,8.673981689453125,1.0957961723327636,-13.340641287994384,4.455160376739502
1758972479845938400,8.6839384765625,1.617133583831787,-12.859257116699219,2.982576718139648
1758972479855896600,8.693896484375,1.5674538993835447,-12.247538592529295,1.9035399574279783
1758972479865854500,8.7038544921875,1.3046902671813965,-10.93012912902832,0.6388029304504395
1758972479875811600,8.7138115234375,0.8616133224487305,-8.466944533538818,-0.5158008201599121
1758972479885769700,8.723769775390625,1.3730746520996093,-6.327725350189208,-2.2149358108520505
1758972479895726300,8.733726318359375,1.7214309936523438,-4.061314203643799,-2.84086990737915
1758972479905684500,8.7436845703125,0.6030395431518555,-1.444751064300537,-2.270750637054443
1758972479915641600,8.7536416015625,-0.5536591339111328,2.240224565887451,-1.262193187713623
1758972479925599500,8.763599609375,-0.2506429862976074,4.463839357757568,-1.2011410453796385
1758972479935556400,8.773556396484375,-0.4070142822265625,5.136610024261475,-1.540519130706787
1758972479945514500,8.783514404296875,-1.1113584831237793,4.606593631744384,-2.7632079910278318
1758972479955472400,8.793472412109375,-1.849520782470703,3.771017252349853,-3.488351818847656
1758972479965429500,8.803429443359375,-1.7452233726501465,2.726546778106689,-3.296815686035156
1758972479975387600,8.8133876953125,-2.415150924682617,-0.06599018325805664,-3.171569011688232
1758972479985344500,8.823344482421875,-4.7667058677673335,-2.7205612739562985,-2.8784289459228516
1758972479995302400,8.833302490234376,-9.374197325134277,-6.328323900604247,-1.4241010749816894
1758972480005259500,8.843259521484375,-14.306552020263672,-9.171139096832276,1.4519336692810059
1758972480015217700,8.8532177734375,-15.249568199157714,-11.56788459625244,3.312826909637451
1758972480025174500,8.863174560546875,-17.09789188079834,-13.122469661712646,3.135506349182129
1758972480035132400,8.87313232421875,-17.518822460174558,-12.184241886138915,1.2261305252075194
1758972480045090600,8.883090576171876,-2.1980267616271973,-10.970830557250975,-0.8883984535217284
1758972480055047400,8.89304736328125,21.20260098953247,-6.978948201751709,-1.2791022369384766
1758972480065005600,8.903005615234376,21.66857248764038,0.09576806640624999,-0.5704185455322265
1758972480074962700,8.912962646484376,11.71587618637085,0.31962592163085934,-3.4452561889648434
1758972480084920300,8.92292041015625,7.791031477355957,-3.522319554901123,-5.242553447723388
1758972480094877400,8.93287744140625,0.32710780181884763,-6.95919603805542,-5.966350537109375
1758972480104835600,8.942835693359376,-0.9977835418701171,-11.871499294281005,-6.559364360809326
1758972480114792700,8.952792724609376,-1.3756184913635252,-20.656723011016844,-1.1864765602111815
1758972480124750600,8.96275048828125,1.580771646118164,-29.99485767364502,1.7387889556884764
1758972480134708500,8.97270849609375,-1.520766967010498,-30.457088231658933,2.8899510414123535
1758972480144665600,8.98266552734375,-4.767454055786133,-24.37012978591919,2.672377965545654
1758972480154623500,8.99262353515625,-2.1724387313842772,-16.91757856826782,2.743455827331543
1758972480164580600,9.00258056640625,1.2101193016052245,-12.610858694458008,2.5794530136108396
1758972480174538500,9.01253857421875,2.5528175201416015,-11.14066923751831,2.7192145355224606
1758972480184495400,9.022495361328126,2.168248878479004,-11.098770708465576,2.690184840393066
1758972480194453500,9.03245361328125,0.6405985816955566,-12.878111454772949,1.2952630981445312
1758972480204410600,9.04241064453125,-0.946757118988037,-14.741847809600829,-0.3962403747558593
1758972480214368500,9.052368408203124,-1.2401964599609374,-16.614562420654295,-2.536058108520508
1758972480224326700,9.06232666015625,-1.2840402778625488,-17.539921362304685,-3.8048353507995603
1758972480234283500,9.072283447265624,-2.739415612030029,-16.30615931930542,-4.022857339477539
1758972480244241400,9.082241455078124,-3.574393441009521,-13.55357559814453,-3.2330700668334957
1758972480254198500,9.092198486328124,-2.6892870147705077,-10.947636728668213,-1.891718586730957
1758972480264156700,9.10215673828125,-1.6059107635498047,-9.27019919052124,-0.840813695526123
1758972480274113500,9.112113525390624,-0.5852326683044433,-8.681075944519042,-1.0564414825439452
1758972480284071400,9.122071533203124,-0.27293898925781246,-9.575310264587403,-1.8628385292053222
1758972480294028300,9.1320283203125,-0.7653963432312011,-10.270376934051512,-2.3241712615966796
1758972480303986400,9.141986328125,-1.7708114028930664,-10.141838232421874,-2.3403321228027343
1758972480313944300,9.1519443359375,-2.78355870513916,-9.507075517272948,-1.9964649093627929
1758972480323901400,9.1619013671875,-2.8600235206604,-8.608052793884276,-1.34718734664917
1758972480333859300,9.171859375,-2.795679351043701,-6.619069764709472,-1.075744733428955
1758972480343816200,9.181816162109374,-2.8758851066589353,-5.1399020515441896,-1.3754688537597655
1758972480353774300,9.1917744140625,-3.4726398704528805,-4.503493322753906,-2.2807763565063475
1758972480363731500,9.2017314453125,-4.332158266448975,-3.9393595565795896,-2.801365579986572
1758972480373689300,9.211689453125,-4.133439528656005,-3.877259951019287,-3.0301614761352536
1758972480383646500,9.221646484375,-0.4483142608642578,-5.080196647644042,-4.080767092132568
1758972480393604400,9.231604248046875,4.859032269287109,-11.61921029434204,-7.901763304138183
1758972480403562200,9.241562255859375,-5.35642766418457,-17.30977872772217,-6.8876692634582515
1758972480413519400,9.251519287109375,-12.943802362823485,-5.834669445800781,2.4871266120910644
1758972480423477500,9.2614775390625,-9.514258122253418,1.5367781906127929,5.747430722808837
1758972480433434400,9.271434326171875,-5.4613236244201655,-0.11282675323486327,4.203021014404297
1758972480443392300,9.281392333984375,-6.2769982025146485,-5.189881011199951,2.740762350463867
1758972480453349400,9.291349365234375,-5.645377877044678,-9.718363813781737,2.188749230194092
1758972480463307300,9.301307373046875,-1.6306009681701659,-9.30910496749878,1.744774459838867
1758972480473265400,9.311265380859375,2.2082021186828613,-7.700650364685058,-0.23687632675170897
1758972480483222500,9.321222412109375,3.2558149826049805,-8.55448253173828,-3.264344326019287
1758972480493180200,9.33118017578125,1.1239280418395996,-9.912443785858153,-5.620687672424316
1758972480503137300,9.34113720703125,-1.9758149200439452,-10.166977349853514,-5.167734645843505
1758972480513095400,9.351095458984375,-4.040364939117431,-10.861445468902588,-3.997269309234619
1758972480523052500,9.361052490234375,-5.0748096939086915,-11.609483850097655,-2.350058567047119
1758972480533010400,9.371010498046875,-4.377947373199462,-13.950564160919189,-1.575683967590332
1758972480542967300,9.38096728515625,-2.448220835113525,-17.974768238830567,-1.9443910232543944
1758972480552925400,9.390925537109375,1.3443442321777344,-19.615095651245117,-1.7790414710998534
1758972480562883300,9.40088330078125,9.587131635284424,-15.310919616699218,0.8084919731140137
1758972480572840400,9.41084033203125,6.828113497161865,-14.432546882629394,-1.103278052520752
1758972480582798600,9.420798583984375,1.14278237991333,-14.533103352355957,-5.182997681427001
1758972480592755200,9.430755126953125,-3.887584945678711,-12.013655017852782,-5.0285716743469235
1758972480602713300,9.44071337890625,-7.914632138061523,-9.793182615661621,-1.8308160820007322
1758972480612670500,9.45067041015625,-3.582174596405029,-9.082104722595215,1.1035773277282714
1758972480622628400,9.46062841796875,1.3679869735717773,-10.184784224700927,2.3024738090515133
1758972480632586500,9.47058642578125,3.469946393585205,-12.482768905639647,2.455403440093994
1758972480642543400,9.48054345703125,1.742380258178711,-14.078953224945067,1.9068319847106932
1758972480652501200,9.490501220703125,-0.26560674667358397,-13.901034114074706,0.5436334144592285
1758972480662458400,9.500458251953125,-1.4018050720214843,-11.793687740325927,-0.7282862174987793
1758972480672416500,9.51041650390625,-1.0899603057861327,-4.593275885009765,-2.4800936447143553
1758972480682373400,9.520373291015625,1.9620482604980467,-8.307730123138427,-1.7190367919921874
1758972480692331300,9.530331298828125,2.4034791915893554,-16.767492051696777,-2.690184840393066
1758972480702288400,9.540288330078125,2.0049942527770996,-13.682862487792969,-3.7761049308776853
1758972480712246500,9.55024658203125,0.0896329246520996,-10.812364334869384,-2.8685528640747067
1758972480722204400,9.560204345703125,-1.1614870803833006,-8.742876274871826,-3.192817551422119
1758972480732161300,9.570161376953125,-1.252616381072998,-6.459256803894043,-3.574692716217041
1758972480742119400,9.580119384765625,-0.6848913124084473,-4.752939208221435,-3.62631768951416
1758972480752076300,9.590076171875,0.15861585998535155,-5.08782816543579,-3.3770214416503905
1758972480762034400,9.600034423828125,1.1430816551208496,-6.491279251098632,-2.401683540344238
1758972480771991600,9.609991455078125,1.7124527374267577,-8.80347950439453,-1.6229694503784178
1758972480781949200,9.61994921875,1.713649838256836,-10.862343294525147,-0.9645639938354491
1758972480791907300,9.6299072265625,1.4172177452087402,-11.19887826538086,0.31797990798950193
1758972480801864400,9.639864501953125,-0.534355883026123,-11.455656393432616,1.4220061485290527
1758972480811822300,9.649822265625,-2.4461259086608886,-12.049717680358887,2.0952257278442383
1758972480821779500,9.659779541015626,-3.8302737434387204,-11.844115612792969,3.2785598983764648
1758972480831737300,9.6697373046875,-5.010465524291992,-9.877578224182129,2.0145710594177246
1758972480841694500,9.679694580078126,-5.4141877792358395,-9.734973587799072,0.6913257293701172
1758972480851652400,9.68965234375,-4.689193589019775,-11.21773260345459,0.4599859939575195
1758972480861609500,9.699609375,-4.408024531555175,-11.91369709854126,0.4948515556335449
1758972480871567400,9.7095673828125,-4.086453321075439,-11.490821230316161,0.9564835632324218
1758972480881525200,9.719525146484376,-3.995174382781982,-11.682058087921142,1.140837091064453
1758972480891482400,9.729482421875,-4.815487726593017,-12.253224821472168,1.1471218704223631
1758972480901440300,9.739440185546876,-4.783016366577148,-14.004583335876465,0.6798036338806152
1758972480911397400,9.7493974609375,-2.4908675521850583,-16.088735881042478,-0.2337339370727539
1758972480921355500,9.75935546875,3.252074042510986,-16.697012740325928,-2.88561155090332
1758972480931312400,9.7693125,8.415918110656738,-14.622586639404297,-6.2116065696716305
1758972480941270300,9.779270263671876,9.833435131072997,-13.108403726959228,-7.4500073783874505
1758972480951228400,9.789228515625,6.615927375030517,-12.364555198669432,-7.029376074218749
1758972480961185500,9.799185546875,-5.807884314727783,-10.98100591430664,-5.848585742950439
1758972480971143400,9.809143310546874,-4.975599962615966,-9.928006096649169,-3.399766357421875
1758972480981100300,9.819100341796876,2.6357167526245115,-10.399214910888672,-0.7942764007568359
1758972480991058400,9.829058349609374,7.14444739151001,-12.398822209930419,0.2458545829772949
1758972481001015600,9.839015625,6.788459532165527,-13.333309045410155,2.8760347442626952
1758972481010973400,9.848973388671874,3.840299462890625,-12.084583242034912,8.948328704833983
1758972481020931600,9.858931640625,-1.5676035369873047,-9.643993924713135,15.466093811798094
1758972481030888200,9.86888818359375,-0.3284545402526855,-4.030638494873046,19.889680654144286
1758972481040846300,9.878846435546874,0.24944588546752927,-1.1797428680419921,18.581548722076416
1758972481050803500,9.888803466796874,4.142268147277832,-13.878887748718261,5.667075329589843
1758972481060761300,9.89876123046875,8.079981690216064,-20.095432359313964,-0.23388357467651366
1758972481070718200,9.90871826171875,2.9095535675048825,-15.323638813018798,-0.1379658706665039
1758972481080676400,9.91867626953125,-1.9276316116333008,-7.299920861816406,5.465214202117919
1758972481090633500,9.928633544921874,4.505737886810302,-8.21690009765625,8.049156343841553
1758972481100591400,9.93859130859375,11.314398495483397,-9.4496146774292,7.289595867156982
1758972481110549500,9.948549560546875,14.545074360656738,-9.057564155578612,8.665214358520508
1758972481120506400,9.95850634765625,6.5780690612792965,-4.809801497650146,12.783839764404297
1758972481130464300,9.96846435546875,5.521777216339111,-1.1367968757629394,17.447445323181153
1758972481140421400,9.97842138671875,8.11365015106201,-3.622427111816406,14.929194089508055
1758972481150379500,9.988379638671875,9.692476508331298,-5.897666876983642,9.937433265686035
1758972481160336400,9.99833642578125,12.60277826385498,-5.087229615020751,8.69559079208374
1758972481170294300,10.008294189453125,11.66440085067749,-4.638316803741454,6.994959425354003
1758972481180252400,10.01825244140625,7.56492905807495,-3.257311358642578,5.4321442916870115
1758972481190209300,10.028209228515625,6.329969914245605,-1.1276689819335937,4.793042086029052
1758972481200167400,10.03816748046875,5.990891104125976,0.7368155609130859,3.7708676147460936
1758972481210124500,10.04812451171875,6.3694742416381835,1.192013151550293,2.3139959045410157
1758972481220082200,10.058082275390625,6.8122519111633295,1.4935329231262207,0.6769605194091797
1758972481230039300,10.068039306640625,6.238391700744629,1.366939510345459,-1.0076596237182616
1758972481239997400,10.07799755859375,5.862352402496337,0.8933364944458008,-1.8701707717895506
1758972481249955300,10.087955322265625,6.726509564208984,1.147870058441162,-1.560271294403076
1758972481259912400,10.097912353515625,7.7130702857971185,1.5973814201354979,-0.9759364517211914
1758972481269870300,10.107870361328125,8.415469197845459,1.4149731811523436,-0.49889177093505854
1758972481279826700,10.11782666015625,9.528174419403076,1.04701431350708,-0.02633621826171875
1758972481289784600,10.12778466796875,9.62693523788452,0.19422960968017577,-0.06778583450317383
1758972481299741700,10.13774169921875,8.641272341918945,-0.5373486351013184,-0.4025251541137695
1758972481309699800,10.147699951171875,7.3940429145812985,-0.6060322952270507,-0.635211627960205
1758972481319657700,10.15765771484375,6.3842883644104,-0.5871779571533203,-0.656909080505371
1758972481329614800,10.16761474609375,5.802048448181152,-0.25139117431640623,-0.2201169151306152
1758972481339572700,10.17757275390625,5.80997924118042,0.6332663391113281,0.3094505645751953
1758972481349529900,10.18752978515625,6.104466045379638,1.3920786277770996,0.5452794281005859
1758972481359487700,10.19748779296875,5.753715502166748,0.5575497116088867,0.04563946914672851
1758972481369444900,10.20744482421875,11.506233903503418,-2.813635863494873,2.5378537597656248
1758972481379402800,10.21740283203125,18.307562269592285,-8.233659509277343,5.8463411788940425
1758972481389360600,10.227360595703125,3.7729625411987304,-3.878457051849365,6.008249066162109
1758972481399317800,10.23731787109375,2.699911284637451,-2.709488091278076,1.2907739700317382
1758972481409275600,10.247275634765625,4.816535189819335,-3.1479262702941893,-1.8734627990722654
1758972481419232800,10.257232666015625,5.660191999816894,-2.860771708679199,-1.7881693649291992
1758972481429191000,10.26719091796875,8.087613208007811,-0.9985317298889159,-1.1436802055358886
1758972481439147800,10.277147705078125,10.415076496887206,0.5342062454223633,-0.9964368034362793
1758972481449105700,10.287105712890625,11.420940469360351,-0.8485948509216308,-1.14278237991333
1758972481459063800,10.297063720703125,7.480832724761963,-1.5638625968933104,-0.6922235549926757
1758972481469021000,10.30702099609375,7.537096463775634,-1.323544605255127,-0.6386532928466796
1758972481478978800,10.316978759765625,8.516474580383301,-1.5456068092346191,-0.6100725105285644
1758972481488935700,10.326935791015625,9.05891089401245,-1.5957354064941405,-0.24630349578857422
1758972481498893800,10.336893798828125,9.725696056365965,-1.8107646430969238,0.5403413871765136
1758972481508850700,10.3468505859375,9.887155030822754,-2.0515315475463867,1.0347440299987793
1758972481518808800,10.356808837890625,9.820117384338378,-1.8360533981323242,0.9204209007263183
1758972481528767000,10.36676708984375,9.923666606140136,-1.5548843406677244,0.7166144844055176
1758972481538723600,10.3767236328125,9.847949978637695,-1.2261305252075194,0.6458358978271485
1758972481548681700,10.386681640625,9.872340908050537,-0.6814496475219726,0.5386953735351562
1758972481558638800,10.396638916015625,10.129867224121092,-0.31259295425415035,0.3763385734558105
1758972481568596700,10.4065966796875,10.14483098449707,-0.20530279235839843,0.25902269210815426
1758972481578553600,10.4165537109375,9.826402163696288,-0.17073650588989256,0.07556698989868163
1758972481588511700,10.42651171875,9.349207845306395,-0.2768295669555664,0.07347206344604491
1758972481598469600,10.4364697265625,8.742876274871826,-0.5934627365112304,0.3570353225708008
1758972481608426800,10.4464267578125,8.081178791046142,-1.022773021697998,0.661398208618164
1758972481618385000,10.456385009765626,7.70618695602417,-1.424998900604248,0.8228571830749511
1758972481628341800,10.466341796875,7.681796026611328,-1.6124948181152343,1.1258733306884765
1758972481638299600,10.476299560546876,8.182633086395263,-1.6262614776611328,1.5578770927429197
1758972481648256800,10.4862568359375,8.997260201263428,-0.9979331794738769,2.0663456703186034
1758972481658215000,10.49621484375,9.904961905670165,0.2902969512939453,2.2541408630371094
1758972481668172800,10.5061728515625,10.256310999298096,1.1489175216674803,1.9101240119934082
1758972481678129700,10.516129638671876,9.630676177978515,1.1938088027954101,1.3106757713317871
1758972481688087800,10.526087890625,8.9378540725708,0.7915829238891601,0.7154173835754394
1758972481698044700,10.536044677734376,8.358606908416748,0.6055833824157715,0.5410895751953124
1758972481708002800,10.5460029296875,8.036586785125731,0.6192004043579101,0.7462427299499511
1758972481717959700,10.555959716796876,8.023119400787353,0.7318775199890136,0.8198644309997558
1758972481727917600,10.56591748046875,8.027159616088866,0.8692448402404784,1.0407295341491698
1758972481737875700,10.575875732421874,8.619874164581299,0.9781810157775879,1.415422093963623
1758972481747832800,10.585832763671876,9.55780266494751,0.9838672447204589,1.7145476638793944
1758972481757790700,10.595790771484374,10.207529140472412,1.0613795234680174,1.7977461715698242
1758972481767747600,10.60574755859375,10.351031602478027,1.118541088104248,1.3383587280273437
1758972481777705700,10.615705810546874,10.021978511810302,1.1953051788330078,0.9733926124572754
1758972481787662800,10.625662841796874,9.630975453186034,1.21939683303833,0.8315361640930176
1758972481797620700,10.635620849609374,9.0274869972229,1.2018892333984375,0.8901941047668457
1758972481807579000,10.645578857421874,8.38239928741455,1.3723264640808104,0.8702923034667969
1758972481817536000,10.655535888671874,8.327781562042237,1.5568296295166015,0.7746738746643066
1758972481827493600,10.66549365234375,8.794201972961424,1.7741034301757812,0.8089408859252929
1758972481837450800,10.67545068359375,9.407416873168945,1.8721160606384277,1.003619408416748
1758972481847409000,10.685408935546874,9.846902515411376,1.835604485321045,1.1975497428894042
1758972481857365800,10.69536572265625,10.11984150466919,1.7791911087036132,1.2265794380187987
1758972481867324000,10.705323974609374,10.123732082366942,1.6576853744506834,1.2566565963745115
1758972481877281800,10.71528173828125,9.737816702270507,1.5560814414978026,1.2470797897338866
1758972481887238700,10.72523876953125,9.342174877929686,1.5390227546691893,1.120486376953125
1758972481897196800,10.73519677734375,9.05831234359741,1.5964835945129394,0.9213187263488769
1758972481907154000,10.74515380859375,8.90643017578125,1.7839795120239257,0.8375216682434081
1758972481917111800,10.75511181640625,9.0144685256958,2.094627177429199,0.7474398307800293
1758972481927069700,10.765069580078125,9.115024995422363,2.4015339027404785,0.6682815383911133
1758972481937026800,10.77502685546875,9.143905052947998,2.5555109970092773,0.5994482406616211
1758972481946984700,10.784984619140625,9.175179312133789,2.45809691696167,0.584185205078125
1758972481956941800,10.79494189453125,9.507973342895507,2.3599346488952637,0.7600093894958496
1758972481966900000,10.80489990234375,9.999682508850096,2.205059729003906,0.9350853858947753
1758972481976856800,10.81485693359375,9.920524216461182,2.134879692840576,0.86191259765625
1758972481986814700,10.824814697265625,8.869020774841308,2.4129063606262204,0.5310638557434082
1758972481996772900,10.83477294921875,6.2024786758422845,3.1048306404113766,0.5044283622741699
1758972482006729700,10.844729736328125,7.504176190948486,3.612251754760742,0.6362590911865234
1758972482016687900,10.85468798828125,10.663325281524658,3.0137013397216794,0.7130231819152831
1758972482026644700,10.864644775390625,10.696544829559326,2.9542952110290526,0.7945756759643554
1758972482036602600,10.8746025390625,9.342623790740966,2.8302456375122067,0.43978491744995113
