time,seconds_elapsed,z,y,x
1758972601417274000,0.053274169921875,-0.8268184879213571,-0.9738720665372907,3.7220255501657724
1758972601427231200,0.063231201171875,-1.908046621197462,-0.9871716930933296,4.835957098647952
1758972601437189400,0.073189453125,-1.738922226679325,-1.6312772599965333,3.6633331227004526
1758972601447146500,0.083146484375,-1.158101529598236,-2.653486218070984,1.5504704697482288
1758972601457103400,0.093103271484375,-1.0624766710549591,-3.7680999035984275,-0.14948007511049508
1758972601467060200,0.103060302734375,-0.8642401638209819,-4.874763214643299,-1.1701987946271897
1758972601477018400,0.113018310546875,-1.1644149505287409,-6.051055357709527,-1.4780007152125239
1758972601486975200,0.122975341796875,-0.819146053597331,-6.205723941373825,-1.480359845559299
1758972601496932400,0.132932373046875,-0.23725626598000524,-5.946876021310687,-0.8035232447907328
1758972601506889200,0.14288916015625,-0.32088147464990613,-5.127550519493222,0.028884733700752258
1758972601516846300,0.152846435546875,-0.9990186366230249,-3.929821328383684,0.18594138154536485
1758972601526804200,0.16280419921875,-1.283536419993639,-3.380194810989499,-0.4357797734618187
1758972601536761300,0.17276123046875,-1.4410849430084227,-2.788560458949208,-0.32500001588463784
1758972601546718500,0.182718505859375,-1.0413730927497147,-2.502443715949356,-0.2964928833246231
1758972601556675000,0.192675048828125,-0.8055734553188085,-2.68217630598247,-1.3916513422757386
1758972601566633200,0.20263330078125,-1.6725637946307659,-3.0655969466537236,-2.820250897720456
1758972601576590300,0.21259033203125,-1.4814239676594734,-3.850933085107803,-4.005428650292754
1758972601586547500,0.22254736328125,0.13116378943622112,-5.021139478519559,-5.736416576841473
1758972601596504300,0.23250439453125,0.5997533610880375,-5.498080114409327,-7.03696667547822
1758972601606462200,0.242462158203125,0.6499784044593572,-5.455248688420653,-7.206362872675061
1758972601616419300,0.25241943359375,0.5286439351201057,-4.532999403223395,-6.34133769595623
1758972601626376400,0.26237646484375,0.5456845017701387,-3.7295670515865087,-4.9348693082988255
1758972601636333300,0.272333251953125,1.4295359595119952,-2.44251867794916,-4.8930958669304845
1758972601646291200,0.282291259765625,2.0981138505011794,-0.9749819274753332,-4.323744073846936
1758972601656248300,0.292248291015625,1.263683134010434,-2.2395735546328126,-0.3910188407152891
1758972601666205400,0.302205322265625,1.167640926837921,-1.8478730152636766,2.9869495263963937
1758972601676162300,0.312162353515625,1.9123653611794114,-0.22307006584778427,5.722943931806087
1758972601686120200,0.3221201171875,1.7471464496672153,1.1463321813493967,7.936508454304933
1758972601696077300,0.332077392578125,0.7269266195833682,2.8993238499134777,8.118096024554967
1758972601706034200,0.3420341796875,-0.3754471775740385,4.8960208144664765,7.567011709567904
1758972601715991300,0.3519912109375,-1.818781945335865,6.020616380304098,5.948636016720533
1758972601725949200,0.36194921875,-2.319819496127963,6.363300521439314,3.4088854834228752
1758972601735906300,0.37190625,-2.8389816094145175,6.6342410303562875,2.4460277089834213
1758972601745863200,0.38186328125,-3.279840585836768,6.285448050951957,1.6875258014410732
1758972601755820300,0.3918203125,-3.022696547082066,5.173503876894713,1.2088310153603552
1758972601765778200,0.401778076171875,-2.7510698094666,4.166882071791589,1.485499838796258
1758972601775735300,0.4117353515625,-1.2085402157202363,2.808010717089474,2.0586188754588366
1758972601785692200,0.421692138671875,-0.3139405694708228,1.8974425173357128,2.195954631528258
1758972601795649300,0.431649169921875,-1.788374093721062,0.7765984129860997,0.9935662164360284
1758972601805607400,0.441607421875,-18.185358616203068,-2.6055449017226695,4.718512037962674
1758972601815564300,0.451564208984375,-34.70284714854955,-4.62064553797245,11.355254237484932
1758972601825521200,0.461521240234375,-11.764116777926683,4.034663804866374,5.087500248655677
1758972601835478300,0.471478271484375,-4.423265939828753,5.937102230793237,4.493953340992332
1758972601845436400,0.4814365234375,-0.09534837968945503,2.9979256784409283,5.498300479161739
1758972601855393500,0.4913935546875,2.186456735342741,1.998462220659852,7.390075764515996
1758972601865350100,0.50135009765625,8.36636234484911,2.33105225328207,11.871910797691344
1758972601875307300,0.511307373046875,12.60928633057475,0.7070055290609598,10.838912150055169
1758972601885265400,0.521265380859375,6.420258087936044,0.5281394927293062,5.0460348503232
1758972601895222300,0.53122216796875,-2.567749716335535,-1.7470131786763667,0.8025070534855127
1758972601905179100,0.54117919921875,-1.3197206630527973,-5.59572683416903,-5.658018747431039
1758972601915136300,0.55113623046875,3.8257846153259276,-7.779780015501379,-9.218516349557042
1758972601925094400,0.561094482421875,0.661771133583784,-6.146596045100688,-6.896781375196576
1758972601935051300,0.57105126953125,-1.8791449363619088,-2.9931653321713205,-2.766391297239065
1758972601945008400,0.58100830078125,-0.38997897627353667,-2.027104962298274,-0.7959054632633924
1758972601954965200,0.59096533203125,0.25050620817542074,-0.9258382495999335,-0.6891045461893082
1758972601964923400,0.60092333984375,-0.44114568440914154,-0.5965881750553846,-1.1236486403763293
1758972601974880300,0.61088037109375,-0.7869220194060355,-0.7288134562432765,-0.2867424736827612
1758972601984837400,0.62083740234375,-2.781180870091915,-4.790412322047352,1.307818628334999
1758972601994794500,0.63079443359375,-4.986361010605097,-9.306513197439909,-1.0683961242318152
1758972602004752400,0.64075244140625,0.8003168499648571,-7.355179807701706,-1.2580991963982582
1758972602014709200,0.650709228515625,2.0599042390942572,-3.1135031916886566,0.8299059325426816
1758972602024666400,0.660666259765625,0.18642273532152176,-2.12821438973248,0.9836182383954525
1758972602034623500,0.67062353515625,-0.00045694998726248737,-1.3455039236068724,0.83494451123178
1758972602044581400,0.680581298828125,0.17074001302123068,-1.0414408972889184,1.3825409841030836
1758972602054538200,0.690538330078125,0.41524084330201144,-0.785837073713541,1.0597364324361085
1758972602064495400,0.700495361328125,-0.28653730649948117,0.0374532400816679,0.23543314220607278
1758972602074452500,0.710452392578125,-0.8171626977603882,1.3801315848737954,-0.05551672003865242
1758972602084410000,0.72041015625,0.6013222909051925,1.6105039365589617,0.888884191212058
1758972602094367200,0.7303671875,0.39052842684984207,2.2523311832666395,1.466150410681963
1758972602104324400,0.740324462890625,0.19973237181492148,1.8544342734754085,0.6046960781872273
1758972602114281500,0.750281494140625,-0.3623579058330506,1.3485124577730894,-0.47723348135650157
1758972602124239000,0.760239013671875,-0.09045227821096777,1.3088789510428904,-0.09917056832611561
1758972602134196200,0.7701962890625,0.5814683473348617,0.2128033772468567,0.6426297952622175
1758972602144153300,0.7801533203125,0.6105307756900787,-0.49107320613861083,1.0276152010321618
1758972602154110200,0.790110107421875,0.10906243226528167,-0.9014385523587465,0.817708129748702
1758972602164068000,0.800068115234375,0.21931385511942206,-2.3667624490886925,-0.15875146906375884
1758972602174025200,0.810025146484375,-0.7033844159543514,-2.7663609021008013,-0.14963701923787592
1758972602183982300,0.819982421875,-1.6171546266198158,-1.7757231403321028,-0.3467085743457079
1758972602193939200,0.829939208984375,-1.2708289141118525,-0.9627952305972576,-0.7133557748705148
1758972602203897300,0.8398974609375,-0.7668518027365208,-0.7435831553518771,-0.4333522540539503
1758972602213854200,0.849854248046875,0.3046528454372659,-0.7411503752470016,-0.38123862045705315
1758972602223811300,0.859811279296875,0.5245850516507402,-1.080362456357479,-0.13160042728781698
1758972602233768200,0.869768310546875,-0.3118156132061034,-0.6965151147067546,0.15859773980677128
1758972602243726300,0.879726318359375,-0.8475895463366061,0.23852467848062514,0.744224960386753
1758972602253683500,0.889683349609375,0.0766927059929818,0.30393969219923017,0.7351672091841698
1758972602263640300,0.899640380859375,0.23678408189099281,1.3628040179759264,1.2594184623032807
1758972602273597200,0.90959716796875,0.6505459752142428,2.5514894864082334,1.4573346515417098
1758972602283555300,0.919555419921875,1.3943676154971123,4.292735187599063,0.8351046702295541
1758972602293512400,0.929512451171875,1.7063398075044154,4.783569324284792,0.9375538218349218
1758972602303469300,0.93946923828125,2.6454467040002343,3.6850621394276617,2.0051737009972332
1758972602313426200,0.94942626953125,1.4560639009535312,3.9803655207067727,2.0516922910660504
1758972602323384300,0.95938427734375,-0.5460100804626942,4.908859837773442,0.9143652539491652
1758972602333341400,0.969341552734375,0.04237089580483734,6.268536663639545,-0.3249994313627481
1758972602343298300,0.97929833984375,0.3167875198671594,5.91466126640439,-0.8937421526372432
1758972602353255200,0.989255126953125,-0.5110638912985102,4.5160792480826375,-2.5202093820035456
1758972602363213300,0.99921337890625,-0.2402513561427593,3.0470477290064095,-4.414495773395895
1758972602373170400,1.00917041015625,1.2730910138249396,3.0605256347388026,-4.8367964720815415
1758972602383127300,1.019127197265625,1.50071435906291,3.0604233434081074,-4.1757437159001825
1758972602393084000,1.029083984375,2.8220646691441535,2.0806103425145146,-2.700614464470744
1758972602403041800,1.039041748046875,3.8069033892452713,2.11141055444777,-1.3027899865180252
1758972602412999000,1.0489990234375,2.0217700310111044,2.0298405247420073,0.22524258758127688
1758972602422956000,1.0589560546875,1.5114356595635414,0.7476572729229927,1.0982196000874043
1758972602432913000,1.068912841796875,1.977258689111471,0.06151216106116771,1.474372880104184
1758972602442870800,1.078870849609375,2.0937737754702566,-1.4522083945691584,0.5722165348649024
1758972602452828000,1.088827880859375,1.4279624265849589,-3.062307841980457,-1.5606734454631805
1758972602462785000,1.098784912109375,0.19081483280062675,-3.9899090095996854,-3.249265999352932
1758972602472742000,1.108741943359375,0.03275426861047744,-3.3823312384963033,-2.860706826749444
1758972602482699800,1.11869970703125,0.042809214156866074,-2.6682559171795845,0.003870411692559719
1758972602492657000,1.128656982421875,0.5664128170222044,-2.5907746180921793,1.1755144366919994
1758972602502614000,1.138614013671875,-0.9074936146140098,-0.735155518746376,0.4995227623149752
1758972602512571000,1.14857080078125,-2.070891497054696,1.0042208814412354,-1.776086420686543
1758972602522528800,1.15852880859375,-2.2576631919443604,1.9413941795259713,-4.075772937107086
1758972602532486000,1.16848583984375,-1.424739957407117,2.760975117409229,-4.6969405498847365
1758972602542443000,1.178443115234375,0.1090612632215023,3.041647915789485,-4.0155888097792864
1758972602552400000,1.18839990234375,0.9585708909004926,4.168265927365422,-2.644269184653461
1758972602562357000,1.19835693359375,1.7461796504616736,2.827432918179035,-2.5309593240767714
1758972602572315000,1.20831494140625,1.6475439196646213,-0.5517828186452388,-3.067671414840221
1758972602582271700,1.218271728515625,3.8156174415767192,-0.8643412861078977,-2.735415436477959
1758972602592228900,1.228228759765625,-0.5759843629658222,1.8682535399913787,-1.6998127438232302
1758972602602187000,1.23818701171875,-8.602088917043805,-1.8547142594605683,-0.2531949358027428
1758972602612143900,1.248143798828125,-9.40785526458621,-26.269381690764426,1.3509008142143488
1758972602622100700,1.258100830078125,-4.0464591643393035,-31.144266193699835,5.310283752647042
1758972602632057900,1.268057861328125,-0.47071087465472516,-4.838767479893565,12.825297563952207
1758972602642015000,1.278014892578125,2.5220938805758952,11.49703352895975,12.155318573993444
1758972602651973000,1.28797314453125,6.644691112700104,5.590027745744585,8.8923490434587
1758972602661929700,1.2979296875,4.477060658380389,-0.2047165169030428,3.638279053203761
1758972602671886800,1.307886962890625,-2.2857973995387555,-3.226163940706849,-1.331386112535745
1758972602681844000,1.317843994140625,-5.401868395888805,-2.346930790415406,-3.0604250969737765
1758972602691802000,1.327802001953125,-3.2061388052880764,-2.226212407147884,-3.61837228346765
1758972602701759000,1.337759033203125,-0.8152678969897329,-0.655370618891716,-1.4854771885730325
1758972602711715800,1.3477158203125,0.6478988217063247,0.4107002772629261,0.1746852435156703
1758972602721673000,1.3576728515625,1.2191780757211148,0.027536241701245308,0.014878054853901266
1758972602731631000,1.367631103515625,0.22338366184160113,-1.153034309336543,-0.7805947891458869
1758972602741588000,1.377587890625,-1.1984249182887374,-1.5736346338450908,-1.2924701064251363
1758972602751544800,1.387544921875,-2.0699176835864783,-1.191474222368002,-1.4329428453460336
1758972602761502000,1.397501953125,-2.3477247172720728,-0.8728390653401613,-1.686053098540008
1758972602771459800,1.4074599609375,-2.537873633509874,-0.9327642494708299,-1.8813135125726461
1758972602781417000,1.4174169921875,-2.5973680250078437,-1.3766589403271674,-1.8361242714114485
1758972602791374000,1.4273740234375,-2.3120753117419777,-2.2357973970949647,-1.6926672559827565
1758972602801331000,1.4373310546875,-1.8819689077414572,-4.131617573925853,-1.489457782641798
1758972602811288800,1.447288818359375,-2.009463507145643,-4.469086610761285,-0.9366554847557097
1758972602821246000,1.457245849609375,-1.959059161684662,-2.498475689101219,-0.25336254745461045
1758972602831203000,1.467203125,-1.3694418485552071,0.4664946451991796,0.30716793353073296
1758972602841160000,1.477159912109375,-0.5234955393809825,4.833642391964793,1.3160966273367405
1758972602851117800,1.487117919921875,0.4573398633629083,6.901531200072169,1.374376966869831
1758972602861075000,1.497074951171875,-0.8181868531763553,4.415828483304381,0.03343180254586041
1758972602871032000,1.507031982421875,-2.4046745388537643,2.5486662456810474,0.2804645624570548
1758972602880989000,1.516989013671875,-3.8260003039032218,0.22835925829708575,1.2177611946605145
1758972602890946800,1.52694677734375,-4.162912291377783,-2.137559725704789,1.5292625542856753
1758972602900904000,1.536904052734375,-3.896235869646072,-3.5138194375813003,1.4517667882815002
1758972602910861000,1.546861083984375,-3.9081735601991414,-3.4322570066601035,1.013125853234902
1758972602920818000,1.55681787109375,-4.8902878237724305,-3.21170812985301,0.3870789439830929
1758972602930775800,1.56677587890625,-5.665327024617791,-3.063047262170911,0.27958215359933675
1758972602940733000,1.57673291015625,-6.319332200375199,-3.0435557952374217,0.47215603196173905
1758972602950690000,1.58668994140625,-7.397214530354738,-3.3233354441702363,0.44897418607771394
1758972602960647000,1.59664697265625,-8.488847153267264,-3.300571823698282,0.34666999590098857
1758972602970604800,1.606604736328125,-8.893080864864586,-2.928307367813587,0.6392177948616444
1758972602980562000,1.61656201171875,-8.607737152063846,-2.8593647644907234,0.4722157993249595
1758972602990518800,1.626518798828125,-7.650580219614505,-3.1747721916437146,-0.3989801749832928
1758972603000476000,1.636475830078125,-5.6112605033874505,-3.290674114540219,-1.4681114816218614
1758972603010433800,1.646433837890625,-2.161439198464155,-2.775177245762944,-2.0157775125980377
1758972603020391000,1.656390869140625,1.7147417251467705,-2.0698276672154665,-1.831279753989726
1758972603030347800,1.66634765625,5.040189631426334,-1.3082546816647052,-0.23609204450622198
1758972603040305000,1.676304931640625,6.699579471707343,-1.0349275698721407,2.2177138972632586
1758972603050263000,1.686262939453125,5.022267605766654,-1.715473546552658,4.207952041065693
1758972603060220000,1.696219970703125,1.659525449359417,-2.4038760819524527,5.564392369228601
1758972603070176800,1.7061767578125,-0.4602922834277153,-3.564546585255861,6.347846931719779
1758972603080134000,1.7161337890625,-1.0514169323801994,-4.847945058083534,5.988766367056965
1758972603090092000,1.726092041015625,-1.539965003955364,-4.914379477977753,4.485862973517179
1758972603100049000,1.736048828125,-0.973294412779808,-3.6463632831990718,2.2738133856259286
1758972603110005800,1.746005859375,0.7334405315220356,-2.1727789231240746,-0.13725859917998312
1758972603119963000,1.755962890625,2.1290020329788324,-0.49352819807529447,-1.5628769468568264
1758972603129920000,1.765919921875,2.983037613649666,1.52941672193408,-2.4519807721689344
1758972603139878100,1.775878173828125,3.207087776575982,3.1004227608412505,-3.06856924046278
1758972603149834800,1.785834716796875,3.13337752045989,3.585131108123064,-2.7873534212470052
1758972603159791900,1.7957919921875,3.3361855733931063,3.6010949854522942,-1.325977969881892
1758972603169749000,1.8057490234375,3.367770213702321,3.149579298198223,-0.2719368264779448
1758972603179707000,1.815706787109375,3.2252485794276,2.789554146161675,0.2715571795105934
1758972603189664000,1.8256640625,2.967705896744132,2.959786794182658,0.42459903875589367
1758972603199620900,1.835620849609375,2.7340526236921545,3.0268846464216708,0.00983341175019741
1758972603209578000,1.845577880859375,2.658245687557757,3.1229157476782796,-0.13730273058265446
1758972603219536000,1.855535888671875,2.6503666247457263,3.4809383277207613,-0.13339870888143776
1758972603229493000,1.865492919921875,2.562214294040203,3.7771383655786512,-0.10967062729150057
1758972603239449900,1.875449951171875,2.5283541100144387,4.150580048549175,-0.43143239190727467
1758972603249406700,1.88540673828125,2.1440870816469193,4.877534140661359,-0.9016238457977771
1758972603259364900,1.89536474609375,1.5280395883619784,5.725974677804112,-1.6215980158947407
1758972603269322000,1.905322021484375,0.4136895222067833,6.415640365007519,-2.5937089179784056
1758972603279279000,1.915279052734375,-1.3402198457241057,6.749417561587691,-3.404894952481985
1758972603289235700,1.925235595703125,-2.9572563989222047,6.499810932600498,-3.8987759095177053
1758972603299193900,1.93519384765625,-4.413755184161663,5.86328120777905,-3.747603059014678
1758972603309151000,1.94515087890625,-5.384361965292692,4.8360628971099855,-3.297660904687643
1758972603319108000,1.955108154296875,-5.489752431046963,3.4562966384172435,-2.7592881872355934
1758972603329065000,1.96506494140625,-5.041175135332345,1.8765917447477578,-1.9974742325358092
1758972603339022800,1.97502294921875,-4.313995710031688,0.23252397676110267,-1.142285682437569
1758972603348980000,1.98497998046875,-3.7085847615733742,-1.2227291923314332,-0.3084501553609967
1758972603358937000,1.99493701171875,-4.153381369705498,-1.9296908822506664,0.7627753470778464
1758972603368894000,2.00489404296875,-4.990926126563549,-1.3794728287041187,1.7513732735820113
1758972603378851800,2.014851806640625,-2.9829791614606975,0.2533767951756716,2.558361125743389
1758972603388809200,2.024809326171875,2.3767992744565007,2.0915730505555867,3.014151421576738
1758972603398766300,2.034766357421875,9.179183287078141,3.8802041877776383,2.5814900723963974
1758972603408723500,2.044723388671875,14.137489585065842,4.2218607394307845,-0.3312337226424366
1758972603418681300,2.054681396484375,14.442916300952433,2.2296400435090065,-4.189752367508411
1758972603428638200,2.06463818359375,7.6798834709882735,1.0942840142041443,-5.281892355421185
1758972603438595300,2.07459521484375,1.6106421759858727,-0.00220247848033905,-3.7458217285558577
1758972603448552400,2.084552490234375,-13.106278405368327,-1.5664198801606892,0.848332546723634
1758972603458510300,2.09451025390625,-16.032387970876695,-4.653728307884931,4.201912760901451
1758972603468467200,2.10446728515625,8.488276075381041,1.2691484136790037,3.0291923388421536
1758972603478424300,2.11442431640625,8.602485807406902,1.218145371672511,3.1824586544930935
1758972603488381400,2.12438134765625,7.706106292003393,6.154139884608983,2.387344779998809
1758972603498338300,2.13433837890625,6.062628306603432,7.578627913081646,0.8914280304759741
1758972603508296200,2.144296142578125,3.714556821720302,5.015766553309559,-0.7880737467244266
1758972603518253300,2.15425341796875,5.139399362719058,-0.8478565997749566,-4.707484447991848
1758972603528210400,2.16421044921875,7.805249387800693,-3.600933072888851,-4.055369616025686
1758972603538167300,2.174167236328125,6.176163500368594,-6.032466392573714,-1.775834199491143
1758972603548125200,2.184125244140625,4.30607573068738,-9.62501566799879,0.46648397767469285
1758972603558082300,2.194082275390625,2.514011404146254,-12.47466743224859,2.4832635069221256
1758972603568039400,2.204039306640625,-0.6820366536296903,-13.430566473591327,5.282681459972262
1758972603577996300,2.213996337890625,-2.735023514550924,-11.529635821878909,9.064064038991928
1758972603587954200,2.2239541015625,-2.1287971580564973,-8.003467774856091,11.34712470704317
1758972603597911300,2.233911376953125,0.11507484268890693,-5.303551814043521,11.190021589708328
1758972603607868200,2.2438681640625,0.9975064784944057,-4.350672997304797,10.080708933198451
1758972603617825300,2.2538251953125,-1.2176485280662774,-4.25862950437963,7.826701341152191
1758972603627783400,2.263783447265625,-3.9475691665202377,-5.042892460644245,5.39969572802484
1758972603637740300,2.273740234375,-5.849531499367952,-6.305562618219852,4.463621331092715
1758972603647697200,2.283697265625,-6.9264055290877815,-7.421830500695109,3.9879277726545928
1758972603657654300,2.293654296875,-7.8282438944190735,-8.079182064270972,3.2134882912680505
1758972603667612400,2.3036123046875,-8.652486978894471,-6.765666101077199,2.408208412068337
1758972603677569300,2.3135693359375,-9.036900722256302,-4.365189598435164,1.034146137170866
1758972603687526100,2.323526123046875,-9.736538352897762,-1.8898545464247465,-0.6867215235102921
1758972603697483300,2.333483154296875,-10.671783313268422,-0.2604775670915842,-2.5520459512472153
1758972603707441400,2.34344140625,-11.013722773516177,0.5321802925527096,-4.132992661671341
1758972603717398500,2.3533984375,-11.214165850883722,1.5845646086603402,-3.849749428281188
1758972603727355100,2.363355224609375,-12.11172259337306,2.515924836552143,-2.11162960402593
1758972603737312300,2.373312255859375,-13.66954357201457,2.2629040152072903,-1.111217028826475
1758972603747270400,2.3832705078125,-14.476308867466448,2.0280174009680745,-0.3638898646406829
1758972603757227300,2.393227294921875,-12.907417044234275,3.183672706457972,1.0801567777175456
1758972603767184400,2.403184326171875,-9.300196853899955,4.436366244420409,1.2128349903047084
1758972603777141200,2.413141357421875,-6.926393838649988,5.73295328464508,0.828031809233874
1758972603787099400,2.423099365234375,-5.75781416965723,7.9182012287199495,1.4839081856906413
1758972603797056300,2.43305615234375,-3.9871471436709163,9.82337667839527,2.136612507982552
1758972603807013400,2.443013427734375,-1.3323400522597133,10.501805516791343,2.575161161635816
1758972603816970200,2.45297021484375,-0.06367796079292894,10.062859972774982,3.4357445565149187
1758972603826928400,2.462928466796875,-1.2530232083082198,7.6931310750961295,3.324052068006992
1758972603836885200,2.47288525390625,-2.300770512264967,3.402973044508695,1.6480800723679363
1758972603846842400,2.48284228515625,-2.3000533039063216,-0.8505746265619992,-0.1844889907799661
1758972603856799500,2.492799560546875,-1.8548107055723666,-3.876521115350723,-1.6887725866317749
1758972603866757400,2.50275732421875,-1.9613374818801879,-7.530963075587153,-3.287201762254536
1758972603876714200,2.51271435546875,-2.2198002020180225,-10.865658702683449,-3.2066061305388804
1758972603886671400,2.52267138671875,-2.7186814515590667,-13.159710720348357,-2.1937771413587033
1758972603896628500,2.53262841796875,-3.569837677401304,-15.368604912948607,-2.2409639860779045
1758972603906586400,2.54258642578125,-3.085775226807594,-15.700211195230484,-2.906901007169485
1758972603916543200,2.552543212890625,-1.0861249654069542,-14.817331797391175,-2.7093264709755775
1758972603926500400,2.562500244140625,0.3431973513543606,-14.346594107794761,-2.1057877461299297
1758972603936457500,2.57245751953125,-0.03001169190406799,-13.59470255830288,-0.06882043824791907
1758972603946415000,2.5824150390625,0.17936083411127327,-13.162048807907103,2.3361535219438374
1758972603956372200,2.592372314453125,0.9854890007033944,-11.941664132875204,3.916808994336426
1758972603966329300,2.602329345703125,0.973617068862915,-10.920573365175724,4.707997658210992
1758972603976286500,2.612286376953125,0.6241553964167833,-11.3515834400177,4.734083701103925
1758972603986244000,2.622244140625,0.4752262331873178,-11.779797162139415,3.4443741454333066
1758972603996201200,2.632201171875,1.4089344855099915,-10.615597900187968,2.3082022697009146
1758972604006158300,2.642158447265625,2.660191853189468,-8.612177180337905,2.9411174572870133
1758972604016115200,2.652115234375,3.7989249577119946,-5.556535810509324,3.296122150813043
1758972604026073300,2.6620732421875,4.719135138297081,-2.830318702748418,3.012709990596771
1758972604036030200,2.6720302734375,5.82652121065855,-0.06916764425039292,2.4746339180037378
1758972604045987300,2.6819873046875,7.178740121734142,3.771282040765881,1.1157707466080784
1758972604055944200,2.691944091796875,8.15968183439672,7.6313126245647664,-0.4831602410569787
1758972604065902300,2.70190234375,8.722869259631633,10.339147103416918,-1.7920327623590826
1758972604075859200,2.711859130859375,8.033590525919198,11.79784135287404,-2.7476962413802744
1758972604085816300,2.72181640625,8.07452576289773,14.226002565777302,-3.2848131135523317
1758972604095773200,2.731773193359375,7.891540016287565,16.565048740422725,-4.11513522568047
1758972604105731300,2.7417314453125,7.372942843407392,17.91483837852478,-4.764513910681009
1758972604115688400,2.7516884765625,6.924443873625993,18.41426790959835,-3.873914147722721
1758972604125645300,2.761645263671875,6.0751131096452475,18.29990853996873,-1.162116902719438
1758972604135602200,2.771602294921875,5.986264028847217,16.700817977827786,1.8453361902624368
1758972604145560300,2.781560302734375,5.512735831749439,13.505861076289415,2.1649954296410083
1758972604155517400,2.791517333984375,3.260438550752401,10.572210009360314,1.2786714443057774
1758972604165474300,2.801474365234375,0.643854076360166,8.266817097991705,1.188358209239319
1758972604175431200,2.81143115234375,-3.1677707884490487,3.8041263257473705,0.005936185115948319
1758972604185389300,2.821389404296875,-11.17093811905384,-3.6115684486716986,-0.22462920492328703
1758972604195346400,2.831346435546875,-21.989199110746384,-11.713900502383709,-1.2065868896953762
1758972604205303300,2.84130322265625,-26.78581613265276,-12.951237481260298,-1.8844477189451454
1758972604215260200,2.85126025390625,-13.977673117119073,-6.1864692058056585,1.9379722422532737
1758972604225218300,2.86121826171875,14.985874008107185,2.0678484760969877,3.8703488564565776
1758972604235175400,2.871175537109375,35.92558043253422,14.30226630576849,4.9438060634702445
1758972604245132300,2.88113232421875,26.90144157669544,15.394776296037435,-1.3084506426282225
1758972604255089400,2.89108935546875,10.821328562569617,1.0856874507725238,-7.184742577019334
1758972604265047300,2.90104736328125,11.832871749722957,-2.574375856477022,-5.405983429992198
1758972604275004400,2.91100439453125,16.80357458794713,-5.012354114517569,-2.246766096485406
1758972604284961300,2.920961181640625,16.602140161454678,-7.458388253241777,3.3678894561678168
1758972604294918400,2.93091845703125,8.063209419113397,-10.615960303759575,7.701611318671703
1758972604304876300,2.940876220703125,8.798803329277039,-12.505142065489292,5.70641365276575
1758972604314833400,2.95083349609375,4.742826979529857,-14.59842718065977,7.494057532516122
1758972604324790300,2.960790283203125,2.9192370493903756,-14.313274021995067,7.1619573292374605
1758972604334748200,2.970748046875,2.0415151804447174,-13.102815697693824,4.87308388325423
1758972604344705300,2.980705322265625,1.8365571098707616,-11.79774899841547,3.580817044316232
1758972604354662400,2.990662353515625,-0.5982045242108405,-11.520057846194504,1.019199181799218
1758972604364619300,3.000619384765625,-4.397386233162879,-11.365090571844577,-0.7287005704533308
1758972604374577400,3.010577392578125,-7.9031123806595796,-11.686902605342864,-0.38255364857837554
1758972604384534300,3.0205341796875,-8.809967697370052,-11.528829181671142,0.2788771471351385
1758972604394491600,3.03049169921875,-9.571070142799615,-10.866299338674544,0.41230690874196585
1758972604404448800,3.04044873046875,-10.222032297599315,-9.646236735203862,2.2975758078768846
1758972604414406700,3.05040673828125,-7.3885595147341485,-8.100370398250222,4.518920024466515
1758972604424363800,3.06036376953125,-5.591186852651834,-7.332236154487728,5.115449747332931
1758972604434320600,3.070320556640625,-6.818129863286018,-6.465337000590562,5.236034275087714
1758972604444277800,3.08027783203125,-7.987138571345806,-3.549299916285276,6.686405517357588
1758972604454236000,3.09023583984375,-10.346348413097857,-0.3634358372628689,6.82679715386629
1758972604464192800,3.10019287109375,-11.739143664711714,1.2560007628142833,3.8145802074834703
1758972604474149600,3.110149658203125,-9.93091233948469,2.448182256668806,1.1627219559404998
1758972604484106800,3.120106689453125,-8.13793411296904,3.5585663418024778,-0.647276452024281
1758972604494065000,3.13006494140625,-6.580970627939701,4.315015992990136,-2.1267558614872395
1758972604504021800,3.140021728515625,-6.649599927529692,5.693220993715524,-1.5462768174506722
1758972604513978600,3.149978515625,-8.379800503093003,6.28221564490199,-0.7637215418867767
1758972604523935700,3.159935791015625,-9.166889622694253,6.699125882720947,-0.6556443212665617
1758972604533894000,3.169893798828125,-8.406329613578318,7.743871082252263,-0.8941047754045576
1758972604543850800,3.179850830078125,-7.087790269264579,8.759608798485994,-0.11668598594628274
1758972604553807600,3.1898076171875,-6.085449210220575,9.613459085717796,1.8440008500054477
1758972604563765800,3.199765869140625,-8.137315688809752,9.72357950260341,3.639473231424391
1758972604573723000,3.209722900390625,-12.566533230519294,7.396480955383181,2.7181732097759843
1758972604583679700,3.2196796875,-13.614749321031569,4.062964893460274,-0.638619463642314
1758972604593636900,3.229636962890625,-7.902863374334573,3.55110199727118,-3.89679993326962
1758972604603594800,3.2395947265625,-0.7633224595665932,5.796871337804198,-6.5125067480444905
1758972604613551900,3.2495517578125,-1.2329478040069342,8.295182776254414,-8.172459482905268
1758972604623508700,3.2595087890625,-2.679332022467255,8.28709825399816,-9.753154556655883
1758972604633465900,3.2694658203125,-0.5622265077808871,4.662147176662087,-9.11607362769246
1758972604643423700,3.279423828125,0.6214356160640716,-0.8846382242053746,-6.106956693151593
1758972604653380900,3.289380859375,-0.10024784216880797,-5.544987996056675,-1.9928930422253905
1758972604663337700,3.299337646484375,-1.0025964220445602,-9.32439430656731,1.728159132863581
1758972604673294800,3.309294921875,-2.0968751024864614,-14.418431848037242,4.51340856756866
1758972604683252700,3.319252685546875,-1.8924936627566813,-19.469500600874422,5.56480504168272
1758972604693209600,3.329209716796875,-0.4119561225429177,-21.037366003668307,4.105719162559509
1758972604703166700,3.339166748046875,1.5600819093108176,-20.37118406790495,0.5376432341337204
1758972604713123800,3.349123779296875,3.2295559212327003,-18.00676496707201,-3.166955380412936
1758972604723081700,3.359081787109375,3.7802988754361864,-15.717779585146904,-5.775022494089603
1758972604733038600,3.36903857421875,1.6587915821269155,-15.14341902399063,-4.736796467193961
1758972604742995700,3.37899560546875,0.8634884686708449,-13.440154970669745,0.657739101588726
1758972604752953900,3.388953857421875,0.4929302321821451,-11.11012212356329,4.955521051183343
1758972604762910700,3.39891064453125,1.5894591027036309,-10.268296036124228,6.520126575398445
1758972604772867600,3.40886767578125,2.5527710506513714,-9.009421763700246,6.796194510331749
1758972604782824700,3.41882470703125,2.650056243622303,-6.930765477862954,3.6227024216264483
1758972604792782800,3.428782958984375,2.222587202388048,-4.743495672571659,1.263463061518967
1758972604802740000,3.438739990234375,2.922897033202648,-2.5294617789953944,0.04624181895405054
1758972604812696600,3.448696533203125,4.063367629042268,-0.1313473293095827,-0.5060016029402613
1758972604822653700,3.45865380859375,5.31079170216918,1.8402625402599573,-1.0208043519735335
1758972604832611800,3.46861181640625,6.053643036115169,4.061008498695492,-1.927584557621181
1758972604842569000,3.47856884765625,5.814264955675601,6.6530737411200995,-2.565733115816116
1758972604852525800,3.48852587890625,5.701507176023721,9.57279565141797,-2.5893951464325187
1758972604862482700,3.498482666015625,6.043640697538852,12.449764461660385,-2.5773773763805625
1758972604872440800,3.50844091796875,6.5813569969087835,14.995734892386198,-2.4668968940109015
1758972604882397700,3.518397705078125,7.299830845445394,17.237608979046342,-2.496486268849671
1758972604892354800,3.528354736328125,7.365345227885246,18.935102632272244,-2.208579865954071
1758972604902311700,3.538311767578125,5.87055324460864,19.398015911853314,-1.0014188296325504
1758972604912269800,3.548269775390625,5.406460399854183,17.884653668141365,0.8157692706406116
1758972604922226700,3.558226806640625,6.766661541855335,14.683998847222327,1.1056787569869309
1758972604932183800,3.568183837890625,7.163290039145946,11.619553993213176,-0.18367270596101878
1758972604942141700,3.5781416015625,5.19545968811512,8.82768806297779,-0.8636727391965687
1758972604952098800,3.588098876953125,1.899391021054983,5.705957725691795,-0.9419309409406036
1758972604962055700,3.5980556640625,0.13569675669074058,-0.07418401110768318,0.2908983147205785
1758972604972012800,3.6080126953125,-8.404242870432139,-7.960632257214188,2.311532290906459
1758972604981970700,3.617970703125,-37.86566002233028,-21.66689607886076,6.40511897099316
1758972604991927800,3.627927734375,-35.93258300477266,-23.422636169350145,7.809877632123231
1758972605001884700,3.637884765625,-3.7232580145701766,-11.678420023679733,8.827364822372793
1758972605011841800,3.647841796875,23.09990994361639,-3.6129742238163947,8.386125614461303
1758972605021799700,3.657799560546875,43.337808992147444,7.7311121384441845,6.56094256991148
1758972605031756800,3.6677568359375,25.29432903614044,9.095748048022388,-1.23959498693645
1758972605041713700,3.677713623046875,12.346886270987987,8.672809635955094,-5.227352371460199
1758972605051671800,3.687671875,14.702759661793708,9.891416195398568,-3.6357460275948044
1758972605061629000,3.69762890625,13.596364938557148,4.9073722295641895,-6.174587629354
1758972605071585500,3.70758544921875,13.070412142217158,0.8766822967648505,-9.043937781286239
1758972605081542700,3.717542724609375,7.718629088968038,-3.921562618604302,-10.949503691583871
1758972605091500800,3.727500732421875,-0.4011149950549006,-9.636939914548396,-10.573507647955417
1758972605101458000,3.7374580078125,15.39674262767434,-7.353729608893394,-2.364332445462793
1758972605111414800,3.747414794921875,14.453390933215617,-7.295144148933887,1.3764590338408946
1758972605121371600,3.75737158203125,5.250113653844594,-14.169952761775255,6.500125405377149
1758972605131329800,3.767329833984375,-5.608633662015199,-21.04138751426935,13.858070586138963
1758972605141287000,3.777286865234375,-6.9890160067796705,-24.193424142491818,12.930622563254833
1758972605151243800,3.787243896484375,-5.3817281096577645,-25.45136201084852,11.092314079672098
1758972605161200600,3.79720068359375,-5.739178442770243,-18.983162022042272,11.873678391885758
1758972605171158800,3.80715869140625,-8.44728355525732,-11.601279500854014,10.235493836718797
1758972605181116000,3.817115966796875,-8.156040847545862,-8.284822125759721,6.447193441134691
1758972605191072800,3.82707275390625,-5.201273927351832,-6.944495312529802,3.5504324274465437
1758972605201030700,3.83703076171875,-5.851043072974681,-5.462177610900998,2.003924577718973
1758972605210987800,3.84698779296875,-10.429811124682425,-4.5085482680559155,0.5257115714626387
1758972605220944600,3.856944580078125,-12.964293362188338,-3.380934815701842,-0.8500662386484443
1758972605230901800,3.86690185546875,-11.322273174381255,-2.0739713428914546,-1.625631509194523
1758972605240859600,3.876859619140625,-8.690194485998154,-0.5557248342692852,-1.779557019406557
1758972605250816800,3.886816650390625,-6.242988380885124,1.5078133774131535,-1.5229107010409235
1758972605260773600,3.896773681640625,-5.2613768061369655,3.9258646997123954,-0.7971612354781478
1758972605270730800,3.906730712890625,-6.19976474070847,5.167566888061166,-0.8928709227606654
1758972605280688600,3.916688720703125,-8.218169094678759,5.5906105140686035,-0.9791914349291473
1758972605290645800,3.926645751953125,-10.415179372739791,6.813533767667412,0.32120164651498195
1758972605300602600,3.9366025390625,-10.532439139986037,7.78669958563149,1.6923749950379132
1758972605310560800,3.946560791015625,-9.446785591483115,7.50209704658687,3.460550788730383
1758972605320518000,3.956517822265625,-7.842420303809642,9.041326722005008,5.875288456436992
1758972605330474800,3.966474853515625,-7.498354352927207,10.724915183997153,7.974161600872874
1758972605340431600,3.976431640625,-9.69258522940278,11.12632740843296,8.408502281442285
1758972605350389800,3.9863896484375,-12.874118001222609,9.223546160417795,4.840881987829506
1758972605360347000,3.996346923828125,-13.075078964984415,6.684794575029612,-0.933488618222624
1758972605370303700,4.0063037109375,-6.782890207600593,6.74887746336162,-4.772481236298382
1758972605380260600,4.016260498046875,-0.06950272142365574,7.292688572475313,-5.67868276527524
1758972605390218500,4.026218505859375,-0.7960417299289256,5.004264331564307,-5.457414342021941
1758972605400175400,4.03617529296875,-1.5326806921660898,1.245758770263195,-5.125407077723741
1758972605410132500,4.046132568359375,-0.9634399582415819,-3.7021681725293396,-2.953184034916758
1758972605420089600,4.056089599609375,-1.2306196533203124,-10.129023174512385,-0.3264689924586564
1758972605430047500,4.066047607421875,-3.283577434277534,-15.052306089913845,1.5008910308040677
1758972605440004400,4.07600439453125,-5.886407816344499,-17.318175969189404,2.0365169337660074
1758972605449961500,4.08596142578125,-4.261047671437264,-18.494317013347146,1.9432931450150905
1758972605459919400,4.09591943359375,-1.1238286731183529,-17.981950843811035,3.085853552740812
1758972605469876500,4.10587646484375,1.047088840048015,-16.652615964716674,2.062398686258495
1758972605479833300,4.115833251953125,2.6893372836530207,-15.422542254841327,-0.4463483676187694
1758972605489790500,4.12579052734375,4.085869091446697,-15.440485907810926,-2.621027133014798
1758972605499748400,4.135748291015625,2.5055749997124073,-14.71980432009697,-2.1713994514644144
1758972605509705500,4.14570556640625,-1.2101204706490039,-12.966311131751537,1.3192644437178969
1758972605519662300,4.155662353515625,-0.8042395763665438,-11.009880126613378,5.1090217601120465
1758972605529619500,4.165619384765625,2.7422178099691865,-10.483877061390876,6.934871744138002
1758972605539577600,4.17557763671875,5.498786801373958,-10.355302119404078,7.632254289329052
1758972605549534200,4.1855341796875,6.170653797036409,-9.500690784671901,5.372539425551891
1758972605559491300,4.1954912109375,5.620031254342198,-8.813969334226845,4.49072970277071
1758972605569449500,4.205449462890625,6.7614370852053165,-6.759441527473927,3.2988787560448047
1758972605579406600,4.215406494140625,7.809151071414351,-2.7860470148235557,1.4826520481497047
1758972605589363500,4.225363525390625,8.046817087239026,3.0020979956895113,0.6723240917801857
1758972605599320300,4.2353203125,7.354086751767992,8.13913062927723,0.39584932961165903
1758972605609278500,4.245278564453125,7.073878648290037,11.644297973847388,-0.7599073904260992
1758972605619235600,4.255235595703125,7.899752548837661,14.637468566715716,-1.9190642742961643
1758972605629192400,4.2651923828125,8.671974938696623,18.08278320786953,-2.215979474686086
1758972605639149300,4.2751494140625,8.569799343335628,20.64586025621891,-2.793745752632618
1758972605649107500,4.285107421875,8.36641612086296,20.966000557112693,-3.4961087165847418
1758972605659064600,4.295064697265625,7.752112840896844,20.17751559923887,-2.9921269290342924
1758972605669021400,4.305021484375,7.203838322633504,18.365586588537692,0.012402239324897526
1758972605678978600,4.314978515625,9.064503599452971,14.053238937973976,2.7670728497624397
1758972605688936400,4.3249365234375,11.396743601214885,9.817367793369293,2.2117300005480645
1758972605698893300,4.334893310546875,8.955490267026423,6.490200808212161,0.4098795354645699
1758972605708850400,4.344850341796875,1.5164523186817764,0.7979255709141493,-2.604727447859943
1758972605718808300,4.354808349609375,-12.889466377002,-8.385818155947327,-5.56724717413783
1758972605728765400,4.364765380859375,-33.01774769747257,-24.948691890418527,-4.348744951851666
1758972605738722300,4.374722412109375,-29.209823733007905,-31.308481773388383,0.9880031024161726
1758972605748679400,4.384679443359375,-22.19672542437315,-15.143521899843215,12.565946370542049
1758972605758637300,4.39463720703125,-6.122502052807808,-2.0035744491070506,13.039944523239136
1758972605768594400,4.404594482421875,19.230847327578065,6.737116882941127,11.236927133268118
1758972605778551300,4.41455126953125,50.81868847866058,19.437357742160557,12.447660182857513
1758972605788509400,4.424509521484375,33.442323355352876,20.25293762770891,5.472964377853274
1758972605798466600,4.434466552734375,7.6720099611341945,9.20165990730226,-6.34984190492928
1758972605808423400,4.44442333984375,12.605504473948479,3.927336525830626,-8.127468833056092
1758972605818380300,4.45438037109375,16.034132184195517,0.9490537054926157,-7.400961900189518
1758972605828338400,4.46433837890625,17.030051101237536,-5.309110032692551,-8.492524380475283
1758972605838295600,4.474295654296875,17.3189639046967,-9.734500125068426,-3.779367732065916
1758972605848252400,4.48425244140625,12.033095046859978,-11.245906558537483,0.790362588313967
1758972605858209300,4.494209228515625,8.260210831594467,-8.646511996138095,7.4039043833822005
1758972605868167400,4.50416748046875,5.741664998888969,-8.026302706998587,10.174051233762501
1758972605878124500,4.51412451171875,4.3164241062223905,-13.98135092884898,6.486054794448614
1758972605888081400,4.524081298828125,-2.2781562371358275,-19.978768804395198,4.259512716954946
1758972605898039300,4.534039306640625,-9.854943198525906,-20.224929676842688,7.876804219448566
1758972605907996400,4.543996337890625,-9.559829786860941,-18.266852658063172,10.092866988503932
1758972605917953500,4.55395361328125,-6.172137313592434,-16.420861218762397,9.10400909588933
1758972605927910400,4.563910400390625,-7.542057885575294,-14.148651615071296,8.86245484045446
1758972605937868300,4.573868408203125,-8.04300600451827,-11.666928323328495,7.211342414653301
1758972605947825400,4.583825439453125,-6.310930282732844,-9.340013315981626,6.053931789928674
1758972605957782500,4.593782470703125,-5.261581388798356,-7.129502335834503,5.873173071718216
1758972605967739400,4.603739501953125,-6.167246618941426,-4.635089073866605,4.076397206485272
1758972605977697300,4.613697265625,-11.038455063712597,-1.7334388268321752,2.0226541203692556
1758972605987654400,4.623654296875,-15.775779354172943,-0.016315174984931943,-0.3770905608668923
1758972605997611500,4.633611572265625,-13.587559700810909,0.17454992669820785,-3.116303636062145
1758972606007569400,4.6435693359375,-7.111729947778582,1.3540811978161333,-3.9579260176226496
1758972606017526300,4.6535263671875,-3.5466827195242043,3.5479303814977405,-3.716127139776945
1758972606027483400,4.6634833984375,-4.010288365283608,6.099751291817427,-2.5812603552937508
1758972606037440500,4.6734404296875,-5.215016621500253,8.261059557378292,-1.1200140832662582
1758972606047398400,4.6833984375,-8.184400680589675,9.288221169424057,0.6444086415030061
1758972606057355500,4.69335546875,-12.538278611415624,8.99235080191195,2.4778408973515034
1758972606067312400,4.7033125,-12.669137864947318,9.445312011799215,5.0788440639913075
1758972606077269200,4.713269287109375,-8.478993867772816,10.498120690798759,8.449290803426504
1758972606087227400,4.723227294921875,-7.138686343765259,10.092930116868018,10.513011970460415
1758972606097184500,4.7331845703125,-10.735092879140376,8.259923831346631,8.798359092640876
1758972606107141400,4.743141357421875,-14.113214390987157,4.42334660384953,1.5924689520440996
1758972606117099500,4.753099609375,-11.378836188602447,3.7306338040351865,-4.42815838804543
1758972606127056400,4.763056396484375,-2.387070931493491,6.306035496428609,-7.013752973151207
1758972606137013500,4.773013427734375,0.5461765230707823,8.396020401009917,-6.193254920423031
1758972606146970600,4.782970703125,-1.9585159947186708,5.684443228498101,-4.764243277046084
1758972606156928500,4.792928466796875,-0.9049918609261512,0.7787871552020311,-3.274135359932482
1758972606166885400,4.802885498046875,-0.9850701907694339,-4.301595370402932,-0.9223352829802781
1758972606176842500,4.812842529296875,-1.328949094647169,-9.663450904855132,0.21979725472219286
1758972606186799600,4.822799560546875,-1.2136521519064902,-13.695086009550094,1.5895738151244818
1758972606196757200,4.83275732421875,-1.766192510920763,-16.347068837320805,3.1421143691450357
1758972606206714400,4.84271435546875,-0.5720949543118476,-18.721137225508688,3.7366760068088767
1758972606216671500,4.85267138671875,0.38345074354857206,-18.885956031787394,3.730543203142285
1758972606226629400,4.86262939453125,1.959962686395645,-16.359549548709392,2.31049505681321
1758972606236586200,4.872586181640625,4.153598519587517,-14.33033387786746,-0.6786524180188774
1758972606246543400,4.88254345703125,4.738378475688398,-14.227615846192835,-3.6262551456719634
1758972606256500500,4.89250048828125,2.695612418399751,-13.79039347270727,-4.120044625031948
1758972606266458600,4.902458740234375,0.4944964585855603,-12.387886974418162,0.12937690601944923
1758972606276415200,4.912415283203125,2.022155230936408,-10.429267519325018,4.161879441198707
1758972606286372400,4.922372314453125,3.8211020104676483,-9.625728200182317,5.48035741071403
1758972606296329500,4.93232958984375,4.570058383290469,-8.907880374589562,5.622279910051822
1758972606306287600,4.94228759765625,3.6550346654325723,-8.35858528110683,4.499052125436068
1758972606316244500,4.952244384765625,3.719676064430177,-6.753657098853588,4.517720001026988
1758972606326201300,4.962201416015625,5.643809020292759,-4.166168078303337,4.525085561358928
1758972606336159500,4.972159423828125,7.045397234693169,-0.5552525405824185,4.164586946591735
1758972606346116600,4.98211669921875,7.959878808498382,3.226361509105563,2.3376995823420583
1758972606356073500,4.992073486328125,8.434950727906823,6.894127645817399,-0.6635781830057501
1758972606366030300,5.0020302734375,8.321701365345715,9.99066918131113,-2.6715958752572533
1758972606375988500,5.011988525390625,7.889363841292262,12.828092747628688,-4.810797522950172
1758972606385945300,5.0219453125,7.38755004543066,16.149939999067783,-6.301060046103596
1758972606395902000,5.03190185546875,7.072012854418158,19.48522423970699,-6.60965545515418
1758972606405859000,5.041859130859375,6.061342358446121,20.85872442374229,-5.425810997012257
1758972606415816700,5.051816650390625,5.41756280862689,20.206860936188697,-2.1431059616550803
1758972606425773800,5.06177392578125,6.809760678869486,17.47678247682452,2.1334027521558103
1758972606435731000,5.07173095703125,9.043520432657003,13.840702102708816,4.33108449973762
1758972606445689000,5.081689208984375,8.148160323429106,10.679102696371078,4.045087583725154
1758972606455645700,5.091645751953125,5.002563957387209,7.051705394926667,1.785785976924002
1758972606465602800,5.101602783203125,-1.8074609253764151,0.9993471379250287,-1.492426130928099
1758972606475560000,5.111559814453125,-19.024597609758377,-8.308473634982109,-3.938288127955794
1758972606485518000,5.12151806640625,-30.93966482760906,-22.737263210904597,-5.179693963706493
1758972606495474700,5.131474609375,-25.00871761231422,-21.709781280863282,-2.092463861915469
1758972606505431800,5.141431884765625,-23.434127869701385,-8.294547985482215,6.142822956302762
1758972606515390000,5.151389892578125,-2.04200471752733,-2.454379942265153,6.742342508634924
1758972606525347000,5.16134716796875,32.42956436266899,3.7839486301153897,6.371521821817756
1758972606535304000,5.171303955078125,50.988789024734494,14.740656553989648,8.299196103549003
1758972606545260800,5.1812607421875,25.403101545548438,9.019875937697291,-1.2150564657464622
1758972606555219000,5.191218994140625,13.639875578981638,4.363748751977086,-4.674370698419213
1758972606565175800,5.20117578125,15.801109025740622,2.6784850502490998,-2.9132684963747857
1758972606575133000,5.2111328125,18.59539370755553,-0.43539808066785335,-3.6579786099299785
1758972606585090000,5.221090087890625,17.287868509209154,-1.686950047379732,-2.324573412656784
1758972606595048000,5.2310478515625,6.405844362658262,-5.036043617662787,0.23206899953521787
1758972606605004800,5.2410048828125,0.3499950486704707,-10.281141489171981,0.9364102778229861
1758972606614962000,5.2509619140625,5.177058939027786,-11.360510258316992,2.612251998145878
1758972606624919800,5.260919921875,4.341835610854625,-10.406586900961399,3.989409827905893
1758972606634877000,5.270876953125,4.119090685307979,-10.958148770332336,3.844529063284397
1758972606644833800,5.280833740234375,-3.912721725022793,-17.20460804219842,4.343693805941939
1758972606654791000,5.290791015625,-10.637907931673526,-22.683533958804606,6.894250979936123
1758972606664748800,5.300748779296875,-7.432317407917976,-21.44344738895893,8.79167508483231
1758972606674706000,5.310705810546875,-3.9145290667057036,-20.213201829648018,10.484006825250386
1758972606684662800,5.320662841796875,-3.553614272353053,-16.48805084093809,10.442405233317613
1758972606694620000,5.330619873046875,-3.94551340303421,-11.621480577361583,7.451154210335016
1758972606704578000,5.340578125,-5.428333208966255,-8.481731768304108,5.654855314964055
1758972606714535000,5.350534912109375,-10.486299320101738,-5.394717355090379,3.679627547158301
1758972606724491800,5.36049169921875,-16.864059744048117,-2.828768550696969,0.22437954101115465
1758972606734450000,5.370449951171875,-16.201750850325823,-1.33163263464272,-2.0418430972248314
1758972606744407000,5.380406982421875,-11.779900037992,-0.4913268886387348,-3.621893443331122
1758972606754363600,5.39036376953125,-7.838029959896207,0.2633551683545112,-3.829239724215865
1758972606764320800,5.40032080078125,-3.8861359159141777,3.095878103148937,-0.5359091768827289
1758972606774279000,5.41027880859375,-3.1918115892499683,5.237227284264565,1.7876219601795076
1758972606784236000,5.420236083984375,-3.773928755882382,5.1515743691593405,1.6288205144941805
1758972606794193000,5.43019287109375,-6.651759735912084,7.15587830158472,2.043016817179322
1758972606804149800,5.440149658203125,-13.675048599171637,9.44200361790359,1.375798231844604
1758972606814108000,5.45010791015625,-17.561565038836,9.354156992146372,1.4829657902739941
1758972606824065000,5.46006494140625,-13.527557359790801,9.197624952697753,3.6785444280967114
1758972606834022000,5.47002197265625,-8.731087637400627,9.395476260006427,6.832955676496028
1758972606843979800,5.479979736328125,-8.451523092523217,8.084386647176743,8.587473531714082
1758972606853937000,5.48993701171875,-11.942180850225686,5.383689765119552,4.530156581012904
1758972606863894000,5.49989404296875,-11.918141802990435,4.385733204770088,-1.5665122346192597
1758972606873851000,5.509850830078125,-4.719679912698268,5.852635895124077,-5.1719607391059395
1758972606883808800,5.519808837890625,1.5731915662527083,8.104719241109489,-4.7471319832473995
1758972606893766000,5.529765869140625,0.19691504937186835,7.245359835067391,-4.758605563420057
1758972606903723000,5.539722900390625,-1.3103554533362387,4.808187048190832,-6.4856579040855165
1758972606913680000,5.549679931640625,-0.859859172257781,1.2651964611828326,-6.5885822719872
1758972606923637800,5.5596376953125,-0.8217629580974578,-5.572150143748521,-4.624326856833696
1758972606933595000,5.569594970703125,-0.7841852148532867,-12.932291957771778,-0.7119911354538053
1758972606943551700,5.5795517578125,-0.5219675260961055,-17.275825020194052,4.10627796548605
1758972606953508900,5.5895087890625,-1.6642296815276145,-19.224216511261464,4.124715831713378
1758972606963467000,5.599467041015625,-0.8734852542892098,-18.254875804543495,1.0970042329482734
1758972606973423900,5.609423828125,0.4634229826688766,-16.046144109028578,-0.9958782927706837
1758972606983380700,5.619380615234375,1.5914613824367523,-16.017285094290973,-5.5636535335600374
1758972606993339000,5.6293388671875,2.5592881774604317,-15.71933207528591,-9.678080318710208
1758972607003296000,5.6392958984375,2.117329715363681,-16.68709924907684,-10.841712009906768
1758972607013252900,5.6492529296875,1.0036544797301292,-15.548376958209275,-3.2739576652780173
1758972607023209700,5.659209716796875,0.22437691066265106,-12.256827814400195,5.842609006628394
1758972607033168000,5.66916796875,3.3231261853337286,-12.349549352717398,9.003189006790517
1758972607043125000,5.679125,5.03945138027966,-10.698384904468059,7.773235123902559
1758972607053082000,5.68908203125,4.131331158199906,-7.606673273348808,6.8517866336941715
1758972607063038700,5.699038818359375,4.234046267265081,-4.970761874935031,5.796365726369619
1758972607072996900,5.708996826171875,6.027636488199233,-3.3429999295830726,3.720897715179622
1758972607082954000,5.7189541015625,7.378322198358178,-1.5285370164901018,2.252641125998646
1758972607092910800,5.728910888671875,7.837879153248667,1.4205629639834165,1.0978881761759518
1758972607102868700,5.73886865234375,7.892842915579676,4.950234050691128,-0.7622260426320135
1758972607112825900,5.748825927734375,8.146594973808526,8.688723244401812,-2.8268405052438377
1758972607122783000,5.758782958984375,8.32964092617333,12.303264571404457,-4.385177908974885
1758972607132739800,5.76873974609375,8.7778751075387,16.457978358757494,-5.465296035182476
1758972607142697700,5.77869775390625,8.751666315048933,20.107461819803714,-5.780955391269922
1758972607152654800,5.78865478515625,7.436960849809646,22.258450935924053,-5.365850741568208
1758972607162612000,5.798612060546875,6.912944574490189,22.746652970540524,-3.302494900715351
1758972607172568800,5.80856884765625,9.223083803603053,21.83819372576475,0.9073045217826962
1758972607182526700,5.818526611328125,11.706611514419317,17.323287028592823,3.3427105912476778
1758972607192483800,5.82848388671875,10.816860477244854,12.530264816308021,2.1606234981670975
1758972607202441000,5.83844091796875,7.9215949628114695,9.542089547508954,1.512897402679175
1758972607212398800,5.84839892578125,3.1460663216412064,4.91811398833096,0.09353446213528513
1758972607222356000,5.85835595703125,-4.647217026294768,-1.0990151343792676,0.13396489139683543
1758972607232312800,5.868312744140625,-18.016214347940682,-11.140152520167828,1.444634598314017
1758972607242270000,5.87827001953125,-30.287277608442306,-24.913866076231002,0.42735199072584507
1758972607252227800,5.888227783203125,-33.43117301578521,-25.00657592411041,0.7804254969935863
1758972607262185000,5.89818505859375,-19.45422821294069,-14.489487497991323,6.61107350525856
1758972607272141800,5.908141845703125,19.87911483646631,-6.09288199056983,6.805296685197949
1758972607282098700,5.9180986328125,53.39688827733993,8.273872277200221,10.18496542648673
1758972607292056800,5.928056884765625,39.406015486907954,13.617833258521555,6.714751906397939
1758972607302014000,5.938013916015625,13.514756330406666,10.49365961973667,-0.8791767439290881
1758972607311971000,5.94797119140625,10.61175408424139,6.694238695201277,-3.721755793313682
1758972607321927700,5.957927734375,16.214168433350324,-3.0579046385854483,-9.638744918143749
1758972607331885800,5.9678857421875,15.904085416090487,-2.944150833633542,-9.687804424867034
1758972607341843000,5.977843017578125,12.307547947812079,-5.924537348252534,-9.5941155028224
1758972607351800000,5.987800048828125,8.498333359014987,-6.0657841402858494,-8.00281778651476
1758972607361758000,5.997758056640625,3.229977653776109,-5.796444052302837,-5.173863357856869
1758972607371714800,6.00771484375,-3.3739947873055933,-9.620837505531311,-1.154595567303896
1758972607381672000,6.017671875,-2.107410525026172,-16.801808162796497,3.714611182256043
1758972607391629000,6.027629150390625,2.8203064272999763,-22.176781537497043,10.669012679511308
1758972607401586700,6.037586669921875,0.6431798303604126,-25.96991242197752,16.500104851347206
1758972607411543800,6.047543701171875,-2.203562183922529,-25.317277365529534,14.538026195710897
1758972607421501000,6.0575009765625,-6.8754755523175,-19.263325701856612,10.114541060173512
1758972607431458000,6.0674580078125,-13.047277934867143,-13.356291277068852,5.946941487762332
1758972607441415700,6.077415771484375,-14.43283446739912,-9.202555979359149,2.230183648866415
1758972607451372800,6.087372802734375,-12.004002223366498,-5.93237812488079,-0.30603911216389384
1758972607461330000,6.097329833984375,-9.57417512307763,-2.257182714951038,-1.6857060386680065
1758972607471288000,6.1072880859375,-10.231694444435835,0.5490735596865415,-2.0292466505020856
1758972607481245000,6.117244873046875,-11.617183172428607,0.8343307632476091,-2.6185008294075724
1758972607491201800,6.127201904296875,-11.056336757361889,-0.055944590061903,-3.28798706741333
1758972607501159000,6.137158935546875,-8.849533984082937,1.3922335260778664,-1.4538736974328756
1758972607511117000,6.147116943359375,-8.737249667161702,3.2947371261954306,-0.26491591486521066
1758972607521074000,6.157073974609375,-6.4447197444975375,3.739941146084666,0.978078505251184
1758972607531030800,6.16703076171875,-5.37877042889595,5.518613199350238,2.626154266770184
1758972607540988000,6.17698779296875,-12.99857089484334,7.283295305708051,3.4676363630771636
1758972607550946000,6.186946044921875,-18.98995533544421,7.414409410783648,3.9906089745625852
1758972607560903000,6.19690283203125,-13.70223705034852,9.156348354935645,7.126793661397695
1758972607570860000,6.206860107421875,-5.8653965924978255,9.976543625324965,10.109199699145554
1758972607580817000,6.21681689453125,-6.088592768943309,10.173465542829035,10.973708743035793
1758972607590774800,6.22677490234375,-13.87025552945137,8.673167363351583,6.344474240416288
1758972607600732000,6.23673193359375,-15.408083521378039,6.1514206887781615,-3.085099227242172
1758972607610689000,6.24668896484375,-3.3324849653095003,7.597409185919165,-6.687996001419425
1758972607620647000,6.25664697265625,4.035414038711786,8.809370900520682,-5.862190489932894
1758972607630603800,6.266603759765625,-0.8414671909987926,5.7754100321024655,-5.094695713117718
1758972607640561000,6.276560791015625,-2.202443409025669,1.9990408973306417,-4.667644312773644
1758972607650518000,6.28651806640625,-1.6852730540782213,-2.981611672499776,-3.1661803043872117
1758972607660476000,6.296475830078125,-1.6094149722784756,-9.628430444878338,-1.871129826080054
1758972607670432800,6.306432861328125,-2.0052888518095013,-14.83028597151041,-0.07819653468467294
1758972607680390000,6.316389892578125,-2.833880194622278,-17.266287961041925,1.2986796285897493
1758972607690347000,6.326346923828125,-2.1344939083933827,-18.205224177145958,1.1209566248133778
1758972607700305000,6.336304931640625,-1.1380945143580437,-17.966355799794197,1.058441862580925
1758972607710261800,6.34626171875,-0.5316612371146678,-17.343351326978205,-0.197552616623044
1758972607720219000,6.356218994140625,0.9783213010311126,-16.551915702605246,-3.3511294600248336
1758972607730177000,6.366177001953125,3.0999618653312324,-16.589672309547662,-6.731611271262168
1758972607740134000,6.3761337890625,1.8283569984108208,-16.87556547292471,-5.276460393500328
1758972607750090800,6.3860908203125,0.872433114887774,-14.139218600815534,2.4774194570690393
1758972607760047900,6.3960478515625,0.8566817112654447,-11.849338900399207,7.927101743534207
1758972607770006000,6.406006103515625,3.526170969632268,-12.58694473490715,9.61744552500546
1758972607779963000,6.415962890625,5.516550421601534,-11.455347765874862,9.054012600576877
1758972607789919700,6.425919677734375,6.002367022386193,-9.318850116443633,7.583078462749719
1758972607799876900,6.435876953125,7.038771094551682,-7.724169187438488,5.116383813312649
1758972607809835000,6.4458349609375,7.7912670396775,-5.86078120765686,2.9772096381485462
1758972607819792000,6.4557919921875,8.5813401435256,-3.2653748381108043,1.1920660507813094
1758972607829749000,6.4657490234375,9.039557958766817,0.18007716568708418,0.6827588304243981
1758972607839707000,6.475706787109375,10.256519089090823,4.67019838117063,-0.8564914493903517
1758972607849664000,6.4856640625,10.394994662845134,9.147401078370214,-3.44186888461411
1758972607859620900,6.495620849609375,10.266500384879112,13.51318045939207,-5.82223023546636
1758972607869578000,6.505577880859375,8.998794571223854,18.540198474556206,-7.233176060798764
1758972607879535900,6.515535888671875,7.497084186860919,22.80221528328657,-7.445722832936048
1758972607889493000,6.525492919921875,6.711409025710821,23.67117487684488,-6.694582978594303
1758972607899449900,6.535449951171875,6.251800632894039,22.278144647431372,-3.751187639503181
1758972607909407000,6.545406982421875,6.95688250041604,20.646129136288163,0.5835026296414435
1758972607919364900,6.55536474609375,8.786158951759338,17.486361621552703,3.301553235951066
1758972607929321700,6.56532177734375,8.495570908564329,13.204919981384277,3.4263995128035543
1758972607939278800,6.57527880859375,6.543329756331444,9.294318317255378,2.7831197292000054
1758972607949237000,6.585237060546875,3.025815263624489,4.552720587259531,1.494514189248532
1758972607959193900,6.59519384765625,-2.1263409970760345,-1.7595120102435349,0.6292706205386668
1758972607969150700,6.605150634765625,-9.769090961456298,-10.500966143357752,-0.599648183680512
1758972607979107800,6.61510791015625,-18.839318199253082,-21.649626964151857,-4.4211748127684
1758972607989066000,6.62506591796875,-24.139323134469983,-22.477302945685384,-5.699754194876551
1758972607999022800,6.63502294921875,-20.61629747712612,-10.935260062175988,2.0319817745544015
1758972608008979700,6.644979736328125,2.649179460787773,-2.7996844950318334,4.145091972526908
1758972608018936800,6.654936767578125,36.3876823957324,7.00065500664711,4.506994901134074
1758972608028895000,6.66489501953125,47.50502920985222,16.412359932398797,7.349576580867171
1758972608038852000,6.67485205078125,22.34398986926079,8.889856642121076,1.7252917607337235
1758972608048808700,6.68480859375,11.956897942364215,1.6847534141182898,-2.183456822874397
1758972608058765800,6.694765869140625,12.384467521363495,-3.2765397907257077,-3.8880250906616447
1758972608068724000,6.704723876953125,20.631922916281223,-7.6725091428279875,-3.583078851768374
1758972608078681000,6.71468115234375,10.735988366675377,-9.529073998591302,-1.1569822432447223
1758972608088638000,6.724637939453125,-0.6654945380210876,-10.030853892183304,-2.262019633588195
1758972608098595800,6.734595947265625,-0.24398878910541533,-8.810539944300055,-0.7994779149226844
1758972608108553000,6.744552978515625,3.9361856027185915,-7.826455841958523,1.6439992327950894
1758972608118509800,6.754509765625,7.4373852127015585,-6.941576794734597,2.7965508731812236
1758972608128467000,6.764467041015625,8.047746477043628,-7.593940633025765,4.3065117840170855
1758972608138424800,6.7744248046875,1.0768154314003884,-15.634005907917022,5.212614236533642
1758972608148382000,6.7843818359375,-5.07731027855277,-21.36946562242508,8.611207458522916
1758972608158338800,6.7943388671875,-5.7835319637596605,-23.563096779441832,9.625448214197158
1758972608168296700,6.804296630859375,-8.16904529054761,-22.740716566228866,8.204282023623586
1758972608178253800,6.81425390625,-11.627077958977221,-15.32132293729186,8.511174135887622
1758972608188211000,6.8242109375,-9.80959248319268,-9.38920726273954,8.44623901464045
1758972608198167800,6.834167724609375,-7.4986471983939404,-5.62448472661972,7.105972991687059
1758972608208126000,6.8441259765625,-8.392722528508305,-2.527109662911296,4.238471097970009
1758972608218082800,6.854082763671875,-11.606814923149347,-0.7476245396971702,0.20355004867324605
1758972608228040000,6.8640400390625,-16.29380837177634,0.7831243076235056,-4.862936583249271
1758972608237996800,6.873996826171875,-14.211797514814137,0.7085819845974445,-8.26013192113936
1758972608247955000,6.883954833984375,-7.721689645582437,2.1345517760604618,-8.86340527304709
1758972608257911800,6.893911865234375,-5.694933058330417,5.033826526135206,-7.494372005292773
1758972608267869000,6.903868896484375,-5.700299553799629,7.887284696930647,-4.30840621946156
1758972608277826800,6.913826904296875,-10.197489392495156,9.924040700149536,-1.1609869488414377
1758972608287784000,6.923783935546875,-15.870914967894553,9.044988751643896,0.1432040635809302
1758972608297741000,6.933740966796875,-13.959702576142549,9.019048254701495,3.7257360951215026
1758972608307697700,6.94369775390625,-8.990824030736087,10.59737250766754,8.560913441568612
1758972608317655800,6.95365576171875,-5.391074614673853,10.378531019300222,11.33157174860239
1758972608327613000,6.963613037109375,-8.182509167754649,9.279241159632802,10.236600921177864
1758972608337570000,6.973570068359375,-12.535677489006519,7.25196317885518,3.609953999212384
1758972608347527000,6.98352685546875,-7.886293347805738,6.969628000220656,-2.1978806311547756
1758972608357484800,6.99348486328125,0.5995965630911291,8.82090059479475,-3.1677690348833796
1758972608367442000,7.00344189453125,-0.18848259046077728,8.290372161102294,-3.335965793162584
1758972608377399000,7.01339892578125,-1.3138918107688426,5.4933209371834995,-4.906795306459069
1758972608387357000,7.02335693359375,-0.7136970625888556,1.986535636022687,-4.998565827661753
1758972608397313800,7.033313720703125,-1.2063649175077675,-3.164807262468338,-4.475111277878284
1758972608407271000,7.04327099609375,-1.869175915533304,-9.43135421359539,-4.169956949192286
1758972608417228000,7.05322802734375,-3.209382901775837,-14.041371974569559,-2.3593267461299896
1758972608427186000,7.06318603515625,-3.814280055493116,-16.394810247182846,0.40772973701953885
1758972608437142800,7.073142822265625,-1.2914696972109376,-19.14206663584113,1.3032647644229232
1758972608447100000,7.083099853515625,0.24639117407202718,-21.17503493721485,1.4736394512631
1758972608457057000,7.09305712890625,1.2645865125909448,-19.279772978788614,-0.13973638747036457
1758972608467015000,7.103014892578125,3.990927538992464,-16.28607280908823,-3.6343490202784534
1758972608476971800,7.1129716796875,5.620927326399087,-16.72647731974125,-6.911371041563153
1758972608486929000,7.122928955078125,1.4390318098708987,-15.914934142363071,-4.3115126610443
1758972608496887000,7.132886962890625,-1.6311936733663082,-12.065593294882774,2.947021128372848
1758972608506844200,7.14284423828125,0.2913338931262493,-11.25288574990034,8.48687906806469
1758972608516800800,7.15280078125,3.380143957585096,-11.147751304733752,10.176903700584173
1758972608526758000,7.1627578125,5.7423278467118735,-10.301648855149745,10.349071116060017
1758972608536716000,7.172716064453125,5.95009498335719,-9.3317230420202,8.42279617973268
1758972608546673000,7.1826728515625,5.3581660322844975,-7.318886259049177,6.273270706424117
1758972608556630000,7.192630126953125,6.781449945664406,-4.595410558950901,3.8461400056123733
1758972608566587000,7.2025869140625,8.918764756697415,-1.0493243440151214,1.9203949383780359
1758972608576545000,7.212544921875,9.320878407400846,3.9667385618925093,0.5282729098506271
1758972608586502000,7.222501953125,9.584313070732355,8.73562937248349,-1.912125414943695
1758972608596459000,7.232458984375,9.036667498022318,13.060789742869138,-4.448811299973726
1758972608606417000,7.2424169921875,7.59089235137105,18.358439054870605,-5.995040625020861
1758972608616374000,7.2523740234375,7.184300678470731,23.127087873399255,-5.762982512205839
1758972608626331000,7.262330810546875,8.077216901677847,24.49649874229431,-5.165452672386169
1758972608636288000,7.2722880859375,8.102752909472585,23.83695697519779,-3.2850615353554486
1758972608646246000,7.282245849609375,7.457387551766634,22.401078953182697,0.5808004580106586
1758972608656203000,7.292203125,7.941962043535709,18.600251084458826,4.107280128265917
1758972608666159900,7.302159912109375,8.085237711048126,13.153332417488098,3.8195945285141466
1758972608676118000,7.312117919921875,6.783149735319614,8.351187572070955,1.5957440281920134
1758972608686075000,7.322074951171875,2.2027987983345985,4.652457557296753,-0.06659914546925574
1758972608696031700,7.33203173828125,-4.678621926122903,-0.22560557567477224,-1.5118563691936433
1758972608705988900,7.34198876953125,-14.981398908519743,-7.43784990760386,-0.1863640822031535
1758972608715947000,7.351947021484375,-26.458027947354314,-22.445088775300977,0.011448591861873865
1758972608725904000,7.36190380859375,-24.77720252033472,-28.75031938508749,-0.6300381708450615
1758972608735860700,7.37186083984375,-13.944375243151187,-13.747473199391365,5.907656940600275
1758972608745817900,7.38181787109375,5.69776097523272,-4.485338657382131,5.466915745338797
1758972608755776000,7.39177587890625,31.044039394319057,1.7615227655440568,3.7561911468788978
1758972608765733000,7.401733154296875,45.736939340877534,8.962681639835237,1.3233756784290074
1758972608775689700,7.411689697265625,20.715334189939497,6.253880946299433,-7.854441580992937
1758972608785647900,7.42164794921875,6.080034199434518,3.495401737359166,-11.72283082781434
1758972608795605000,7.43160498046875,5.83733895727098,3.158471045184135,-13.253822251719235
1758972608805562000,7.44156201171875,18.754378985375165,0.8290338258832692,-13.051578846931458
1758972608815519000,7.45151904296875,21.536407412207126,0.8779752591848373,-6.58574558725655
1758972608825476900,7.461476806640625,11.517198365110158,0.723424748942256,-1.8305080389648676
1758972608835434000,7.47143408203125,5.3496659149646755,-1.7438304569870233,4.061504173257947
1758972608845391000,7.48139111328125,17.091414209216833,-5.415723902761936,3.266557618154585
1758972608855348000,7.491347900390625,17.125245167148112,-9.242965146636962,3.6190205182433126
1758972608865305900,7.501305908203125,6.60445204129219,-20.89297273030281,8.64545868769288
1758972608875263000,7.511262939453125,-4.32817416524887,-26.158715330433843,15.495595800614357
1758972608885219800,7.5212197265625,-7.234360886669158,-30.343323905313014,13.799183512884378
1758972608895177700,7.531177734375,-13.074853339534997,-31.1070718968153,7.631123239472508
1758972608905134800,7.541134765625,-14.115367769628762,-18.55962915121317,6.261787189379334
1758972608915092000,7.551092041015625,-11.81574525835514,-9.417951126664876,4.469911663408578
1758972608925048800,7.561048828125,-8.668782280135154,-6.364506974619626,1.1278841590542346
1758972608935007000,7.571007080078125,-4.570093746864796,-4.699077854174376,-0.9607162323661148
1758972608944963800,7.5809638671875,-9.114400726044178,-4.302425976008177,-3.614741525749862
1758972608954921000,7.5909208984375,-14.206640862703322,-3.2077737130135295,-3.863960908985138
1758972608964879000,7.600879150390625,-14.213537051957845,-1.6255787560939787,-2.6305527939900752
1758972608974836000,7.6108359375,-11.673467954230308,-0.16697218492031096,-0.9406135016664862
1758972608984792800,7.620792724609375,-8.197534302929043,2.960662992495298,2.5189357088059183
1758972608994750000,7.63075,-5.001115512144565,5.761042484053969,4.856817223586142
1758972609004707800,7.640707763671875,-3.196879394033551,7.328880998840928,4.849341480877995
1758972609014665000,7.6506650390625,-3.256723329621553,8.498192489239573,4.155869679389894
1758972609024622000,7.6606220703125,-6.5557204513490195,8.958516336849332,3.9328725326478478
1758972609034580000,7.670580078125,-12.084131991136074,7.201858546993136,5.0889218058913945
1758972609044536800,7.680536865234375,-12.60730830850005,6.952751684221625,6.50301411255598
1758972609054494000,7.690493896484375,-8.22131732957661,9.906883813643455,9.084249333408474
1758972609064451000,7.700451171875,-4.2202778541535135,11.16278754582405,11.33431081817746
1758972609074409000,7.710408935546875,-6.362292805701494,11.267816777050495,11.923708789467812
1758972609084365800,7.72036572265625,-12.357777082836627,11.033668998479843,9.116136756056546
1758972609094323000,7.730322998046875,-15.941557945394514,7.843003072133659,0.6672236268360168
1758972609104280000,7.740280029296875,-8.658236336201428,6.687756347444653,-5.046000948053598
1758972609114238000,7.750238037109375,1.0152342967562378,7.3237015503764145,-7.166237198513746
1758972609124194800,7.76019482421875,0.00942059316560626,6.7032187049925325,-7.208100071731209
1758972609134152000,7.77015185546875,-4.319693337151408,4.432513076123595,-5.662202755117416
1758972609144110000,7.780110107421875,-3.373760394027829,0.5177484470963478,-3.196308316147327
1758972609154067000,7.79006689453125,-1.6970722129434346,-4.898111649265885,-0.1739183507964015
1758972609164023800,7.80002392578125,-1.0622025302886962,-11.47585045567751,2.720413682179153
1758972609173981000,7.80998095703125,-1.1695978330593555,-16.713341943836213,5.452563394859433
1758972609183939000,7.81993896484375,-0.04857026190161705,-19.922154352247713,6.048621408560872
1758972609193896000,7.82989599609375,1.381874044626951,-21.099189714896678,4.5640363465219735
1758972609203852800,7.839852783203125,1.5587151510022579,-19.39401193690896,2.126649332372844
1758972609213811000,7.84981103515625,1.7679497298516331,-16.618538338547943,-2.0985100102119145
1758972609223768000,7.85976806640625,1.5587264030486345,-16.891672558116912,-4.5179982334464786
1758972609233725000,7.869724853515625,2.536089380441606,-18.21900018904209,-5.440536856979131
1758972609243681800,7.879681884765625,4.056287315392494,-17.654439721888302,-4.506860753360391
1758972609253640000,7.889639892578125,2.357524372883141,-13.48287533749938,0.5686873378254473
1758972609263597000,7.89959716796875,1.476366684269905,-11.097820275872945,2.740333311396837
1758972609273554000,7.909553955078125,2.7984552454978227,-10.633785883307457,3.2968788143992422
1758972609283511800,7.91951171875,3.9029675159886477,-10.095936897468567,4.754438506868482
1758972609293469000,7.929468994140625,4.80520715559721,-9.426148461645841,4.974282450276613
1758972609303426000,7.939426025390625,5.062631180337071,-9.21118878314793,4.679214631319046
1758972609313383000,7.9493828125,4.738203411382436,-8.435790101340412,3.568976384396851
1758972609323340800,7.9593408203125,5.691157631444931,-4.770245147809386,2.679284676194191
1758972609333298000,7.9692978515625,7.773537321719527,1.0958031865954398,1.9589241371281443
1758972609343255000,7.979255126953125,9.2770082860142,6.9216977897882455,-0.3711376438118517
1758972609353213000,7.989212890625,8.687121069902181,11.615848124432564,-3.7736391252860426
1758972609363169800,7.999169677734375,8.033705676731467,15.50300987626314,-6.2074921200901265
1758972609373127000,8.009126953125,9.13274653007388,23.61405072160959,-8.009985193926095
1758972609383083800,8.019083740234375,8.916937541270256,23.71914074311256,-8.201783192545175
1758972609393042200,8.029042236328126,8.639710499429702,24.815558846735954,-7.866311467006802
1758972609402999000,8.0389990234375,8.377249649566412,23.44734274058342,-6.0245899601101875
1758972609412956000,8.048955810546875,7.345935594016313,20.90265007470846,-3.6722979349225757
1758972609422913000,8.0589130859375,5.924845975810289,17.17981963790059,-1.9620355471469462
1758972609432871200,8.06887109375,4.5618601715266704,13.580215767788886,-0.7670140075609088
1758972609442828000,8.078828125,1.837018882163614,9.114448072317241,-1.609757502105832
1758972609452785000,8.088784912109375,-2.7160055103480816,3.460626192054152,-2.3269163225211202
1758972609462743000,8.098742919921875,-13.037351584136486,-3.8792297897875305,-1.069902875532955
1758972609472700200,8.1087001953125,-22.22223629772663,-17.129383582127094,1.1555416159823537
1758972609482657000,8.118656982421875,-25.55996383986473,-28.66973018311262,2.2809042206697163
1758972609492614100,8.1286142578125,-28.309554808950423,-21.409362748527524,8.149481342899799
1758972609502572000,8.138572021484375,-14.693559287250041,-6.452450046488642,11.532460231649875
1758972609512529000,8.14852880859375,18.15846242597103,2.5481004284918307,11.07231641678214
1758972609522486000,8.158486083984375,58.43468136901855,15.909591612291335,13.896498224210738
1758972609532444000,8.16844384765625,45.38341114964485,20.489711078608035,6.639928428342938
1758972609542401000,8.178401123046875,19.40255297076106,15.19452026567459,-4.084890601803362
1758972609552358000,8.18835791015625,20.29818663623333,6.01347001568079,-8.963772357681393
1758972609562315000,8.19831494140625,19.310051212674377,-2.8879788645565507,-11.787460244113205
1758972609572273000,8.20827294921875,18.835449833387134,-9.169221865034103,-15.852182210373877
1758972609582230000,8.21822998046875,14.539058461368082,-16.414373025786876,-17.34457531581521
1758972609592187000,8.228186767578125,-10.117803861361741,-19.238186584424973,-15.112988814413546
1758972609602145000,8.23814501953125,-20.828100152897832,-17.60841797542572,-7.443769945302606
1758972609612102100,8.24810205078125,7.035307802355289,-15.433683242058754,-4.214561230072379
1758972609622059000,8.25805908203125,6.034316404354572,-16.59275040181875,1.0637410649675876
1758972609632016000,8.268015869140624,1.326677642583847,-17.33220800167322,6.851843332317471
1758972609641974000,8.27797412109375,2.756823842948675,-16.688319730782506,10.014210215896368
1758972609651931100,8.28793115234375,2.910187189233303,-17.33828936741352,11.385131489354372
1758972609661888000,8.297887939453124,-3.377136007940769,-19.52091982246637,10.821058513456583
1758972609671846000,8.307845947265625,-8.854327063578367,-17.285951277410984,10.943894619530438
1758972609681803000,8.317802978515624,-10.111565843755006,-13.181175533181428,10.616153195983172
1758972609691760000,8.327760009765624,-10.152240383970737,-9.574160510030389,8.991573387798667
1758972609701717000,8.337717041015624,-11.424827539926767,-4.821429391601681,6.418021707186102
1758972609711675000,8.3476748046875,-12.162251003605126,-0.33779461552798745,4.9095980889201165
1758972609721632000,8.357632080078124,-12.154665078520773,2.5246219377487895,3.995646091946959
1758972609731589000,8.367589111328124,-10.78068792462349,2.6725936541229487,3.3337425641551612
1758972609741547000,8.377547119140624,-10.080026211631298,1.940085435014963,1.3522694722190498
1758972609751504000,8.38750390625,-8.498154495316744,3.4233810417652126,0.717597504093498
1758972609761461000,8.3974609375,-7.993960526320338,5.146416548004746,0.052383609644696114
1758972609771418000,8.407418212890626,-9.90079309555292,5.565779439672827,-1.3277525783389805
1758972609781376000,8.4173759765625,-12.440097638648748,5.213246104696393,-1.9605399017617104
1758972609791332900,8.427332763671876,-14.697212549060582,4.491255187949538,0.012842457373067736
1758972609801290000,8.4372900390625,-12.959278164374828,6.674779376971721,2.431260640223324
1758972609811248000,8.447248046875,-8.970131371319294,9.224180366668104,4.6827106567412615
1758972609821205000,8.457205078125,-7.3808438257902855,11.252731436121463,6.246651579567789
1758972609831161900,8.467161865234376,-9.998974068319797,13.166212941849231,5.461199121257662
1758972609841119000,8.477118896484376,-11.993602409905195,12.84616265732646,2.3018191445350644
1758972609851077000,8.4870771484375,-9.268378404834866,10.17040031003952,-0.609687310603261
1758972609861034000,8.497033935546876,-1.7785802833288906,8.636970260810852,-0.7001512061867863
1758972609870991000,8.5069912109375,0.6648351973295211,8.304857782572507,0.6247234055630863
1758972609880949000,8.516948974609376,-2.533752169665694,6.772572811725735,0.48415707007460296
1758972609890906000,8.526906005859376,-3.4120670360684393,3.670404668521881,-1.1609024854283778
1758972609900863000,8.536863037109375,-1.9253981534928082,-0.5273235001713037,-0.9300269334614276
1758972609910820000,8.546820068359375,1.3478010946333407,-7.975991154387593,0.9809876706961542
1758972609920778000,8.556778076171875,3.3275556922137737,-15.482373915469646,6.279413446962833
1758972609930735000,8.566735107421875,-1.6289561235725878,-21.271544177377223,6.3439294660151
1758972609940692000,8.57669189453125,-4.59091792370677,-22.18333052074909,-2.183191303806007
1758972609950649900,8.58664990234375,-1.2876561302721499,-19.896101042580604,-5.504414578127861
1758972609960607000,8.59660693359375,-0.7521502004280686,-16.871193249189854,-3.7443195072993634
1758972609970564000,8.606564208984375,-0.8094315920516848,-16.112226646745203,-5.81482726573348
1758972609980522000,8.61652197265625,2.0788649601519107,-16.929470081591607,-8.122975613290071
1758972609990479000,8.62647900390625,4.424950824175775,-16.524952876877784,-7.107124499809742
1758972610000436000,8.63643603515625,0.9544342294871807,-14.369093524372577,-0.9940651789341122
1758972610010392800,8.646392822265625,-2.1184297855600716,-11.882879935473204,5.082051335600018
1758972610020351000,8.65635107421875,-0.10570844566226005,-11.458882954263686,6.819148684939742
1758972610030308000,8.66630810546875,4.191498918914795,-11.282787551689147,7.501290990900993
1758972610040265000,8.676264892578125,5.832915880131721,-11.026952841967343,8.558295952546596
1758972610050223000,8.68622314453125,7.126032029375433,-11.32813709797859,7.497524331843852
1758972610060180000,8.696179931640625,7.105507127740979,-11.394336540073155,4.774657411293685
1758972610070137000,8.70613720703125,7.019577733781933,-9.196312116533518,3.517451364342868
1758972610080094200,8.71609423828125,7.7331942054152485,-4.418856891214848,2.0013168794386087
1758972610090052000,8.726052001953125,8.666213306429981,1.5381950716733932,-0.8357698561400174
1758972610100009000,8.736009033203125,8.831354184269905,7.395019066137075,-2.8128178251102565
1758972610109966000,8.745966064453125,9.622732525497675,12.888824571967124,-4.369757052481174
1758972610119924000,8.755924072265625,11.644931595575809,19.13684217919111,-5.035825590997934
1758972610129880800,8.765880859375,13.658803566813468,25.272905139839647,-4.296065208804607
1758972610139838000,8.775837890625,14.138307915711403,28.120974018812177,-3.603216215389967
1758972610149795000,8.785795166015625,12.039233695745468,26.403667411613462,-3.646066346079111
1758972610159753000,8.7957529296875,10.066484008491038,22.23892556672096,-2.4049874041952193
1758972610169709800,8.805709716796875,8.377654138714075,17.435892832553385,1.3132219486832617
1758972610179667000,8.8156669921875,6.8541106927275655,12.050672789126635,4.181966828198731
1758972610189625000,8.825625,5.115869434049725,8.565644561743735,4.458183816213905
1758972610199582200,8.835582275390625,2.248532083244622,6.1716971686095,3.7488045437589284
1758972610209538800,8.845538818359374,-2.6642516499742865,3.1608278374433514,2.6676851315543053
1758972610219496000,8.855495849609374,-12.655597999894619,-1.384862120527029,2.206951972491294
1758972610229454000,8.8654541015625,-23.69783375118971,-10.95730004454851,1.9580128675021231
1758972610239411200,8.8754111328125,-22.717569499397275,-21.507646597146987,-2.84104789429456
1758972610249368000,8.8853681640625,-23.104041344332693,-18.4227493222177,-1.820683979564905
1758972610259326000,8.895325927734374,-12.035283496814966,-7.317167764693498,5.061144741171598
1758972610269283000,8.905282958984374,10.431870979821682,0.5406295564681292,6.686394995963573
1758972610279240000,8.915239990234374,38.88123641052246,10.959268714272975,7.2838979477763175
1758972610289197000,8.925197021484376,51.51712199420928,21.198708073747156,8.851011655420065
1758972610299155000,8.935155029296874,23.37915475502014,18.79474606707692,-1.4966162760943174
1758972610309112000,8.945112060546874,6.372149598327279,10.197170243543386,-8.791268842118978
1758972610319069000,8.95506884765625,2.258104213710129,4.13162225010097,-9.691687403780222
1758972610329026800,8.96502685546875,-4.959931268841028,-5.360544451853633,-17.232604302626847
1758972610338984000,8.97498388671875,28.756496612417696,-15.803092893034218,-10.236163698804377
1758972610348941000,8.984941162109376,29.48964137586355,-18.395965360188484,-3.014211335070431
1758972610358898000,8.99489794921875,7.943935389435291,-19.013772264361382,6.2123909980475895
1758972610368856000,9.00485595703125,-14.657073430895805,-21.3622666508317,12.245733588933945
1758972610378813000,9.01481298828125,-4.363431356590986,-18.455885868144033,5.715128289619088
1758972610388770000,9.02477001953125,2.768039648967981,-16.12332554838657,4.419608586364984
1758972610398728700,9.034728759765626,0.5414261136732995,-14.213691365736722,6.675566727957129
1758972610408685600,9.044685546875,0.8090437617778777,-11.77868773959279,7.058626718622445
1758972610418642400,9.054642333984376,-1.043878865025565,-10.9013332426548,5.957092879420519
1758972610428600600,9.0646005859375,-4.326501263600588,-13.718897093248367,2.7631083300456405
1758972610438557700,9.0745576171875,-5.794362569853663,-14.75783097615242,0.5171769673513248
1758972610448514600,9.0845146484375,-6.472982546907663,-13.322224172294138,0.3737704034682363
1758972610458471400,9.094471435546875,-6.039097793412208,-10.52213986428976,0.947460956408456
1758972610468429600,9.1044296875,-6.360090911743044,-6.741738697522878,1.8773130447596311
1758972610478386400,9.114386474609375,-10.303736767339705,-2.1898259195148944,2.461149582530558
1758972610488343600,9.124343505859375,-15.467480297720432,0.2804728918939829,1.0218105333413927
1758972610498301400,9.134301513671875,-14.11870772770643,0.8657201732456684,-1.156350667342916
1758972610508258600,9.144258544921875,-9.611952188286185,2.1494944936484095,-1.5170356715276836
1758972610518215400,9.15421533203125,-5.85776039853096,4.046824490520358,-0.5916783738451078
1758972610528172500,9.164172607421875,-3.8758419009149074,6.078704412135481,0.28286307496614754
1758972610538130400,9.17413037109375,-4.354332104334235,7.512298122605681,0.05019282160215079
1758972610548087600,9.184087646484375,-5.194318116864562,8.949351618140936,-0.035164252361655234
1758972610558044400,9.19404443359375,-9.328801017093658,9.993590621715784,1.4008105080261826
1758972610568002600,9.20400244140625,-12.54872986280322,10.549364555823802,3.338127355110645
1758972610577959400,9.21395947265625,-10.624821655607223,11.075452961242199,6.231615338477492
1758972610587916500,9.22391650390625,-8.007131558060646,11.56645134857893,9.246303351148962
1758972610597873400,9.233873291015625,-7.980850284856557,10.989993522882461,10.216064329105615
1758972610607831600,9.24383154296875,-11.024001006424426,8.391579788213967,7.231334232324361
1758972610617788700,9.25378857421875,-11.480582744896411,5.651945564997196,1.0517294323954731
1758972610627745500,9.26374560546875,-6.146946173712611,6.146773739755154,-3.141045278608799
1758972610637703400,9.273703369140625,-1.2622311816364526,7.87616358345747,-5.434700405910611
1758972610647660500,9.28366064453125,-0.9948474884182215,8.643861189368367,-6.4937161228567355
1758972610657617700,9.29361767578125,-1.8169405552528797,5.663647108706831,-6.429668305838108
1758972610667574500,9.303574462890625,-0.2981208498526364,0.09153145174980164,-4.838643561252951
1758972610677532400,9.313532470703125,0.40819213036689905,-5.903333232182264,-2.295881863440573
1758972610687489500,9.323489501953125,0.397736750793457,-10.534185691392421,-0.4851493690475821
1758972610697446700,9.33344677734375,-1.1084580855071544,-13.71212014645934,-0.1660381189405918
1758972610707404500,9.343404541015625,-1.1842400333307683,-15.36490839651823,0.5529772891268134
1758972610717361400,9.353361328125,-0.08566986624002457,-16.810552610266207,-0.35384755938015877
1758972610727318500,9.363318603515625,0.20426599665656683,-16.888794372332097,-1.9152052607804535
1758972610737276700,9.373276611328125,-0.17509689305648207,-15.919792688310146,-2.614742061395943
1758972610747233300,9.3832333984375,-0.3937365752413869,-15.704517952513694,-5.543826551061868
1758972610757190400,9.3931904296875,0.1854983139529824,-16.291637457478046,-6.621706542953849
1758972610767147500,9.4031474609375,2.327827446016669,-16.956788296627998,-5.790722752046585
1758972610777105700,9.413105712890625,2.9953511517778035,-15.464704987788199,-2.458678516241908
1758972610787062500,9.4230625,1.8324308237209914,-10.679888293790817,4.214797961437702
1758972610797019400,9.433019287109374,1.2337398311674594,-9.655130820277332,6.330414150881767
1758972610806977500,9.4429775390625,2.879660241283476,-9.388168567341566,6.818294698458909
1758972610816934700,9.4529345703125,4.411761379995942,-7.869295451253652,6.6745590122193095
1758972610826891500,9.4628916015625,4.493616071861982,-6.499598166632652,6.0521852385222905
1758972610836848400,9.472848388671874,5.158959803235531,-5.877141975349187,4.722394724614918
1758972610846806500,9.482806640625,5.536109108552337,-4.759274256461858,2.763570102338493
1758972610856763600,9.492763671875,5.902918221640586,-1.9120681317985058,1.1011534615822136
1758972610866720500,9.502720458984374,6.973445512682199,2.27273333530426,0.5459170684169977
1758972610876678400,9.512678466796874,7.929450937008857,6.097016313895582,-0.6356321183945983
1758972610886635500,9.522635498046874,8.295233045136928,9.331339011138677,-2.5430706176310776
1758972610896592600,9.532592529296876,8.451633567160368,12.512020719087124,-3.7804277625128626
1758972610906550500,9.542550537109374,8.699268603813648,15.361769513970613,-4.501865721552074
1758972610916507400,9.55250732421875,8.905485003885627,18.29434272253513,-4.308887280976772
1758972610926464500,9.562464599609376,8.602616740310191,20.644017843222617,-3.427658572953939
1758972610936421400,9.57242138671875,7.8883865206927055,21.828745513939857,-2.9025241072595116
1758972610946379500,9.582379638671876,6.744530958589911,21.426536001646518,-2.245541230865568
1758972610956336400,9.59233642578125,6.031975394186377,19.35667501668334,-1.476862212701887
1758972610966293500,9.60229345703125,6.248952842247486,16.46405271023512,-1.0688692947015166
1758972610976251600,9.612251708984376,5.2904298821419475,13.319865041947365,-0.9352680489853024
1758972610986208500,9.62220849609375,0.7128478253483772,9.508051668828726,-1.3931713914498687
1758972610996165600,9.63216552734375,-6.0439002252578735,4.106826831540465,-1.1791704019162803
1758972611006122500,9.64212255859375,-19.97305685648918,-6.85538845757842,1.4847770774796605
1758972611016080600,9.65208056640625,-34.562316395831104,-27.01638196108341,1.12880171229057
1758972611026037500,9.66203759765625,-31.65553112399578,-31.616955017364024,0.3326900589305907
1758972611035994600,9.67199462890625,-26.654509135353564,-22.37975793273449,4.865847209998965
1758972611045952500,9.681952392578125,11.618408330309391,-14.164970297187566,4.237981853148341
1758972611055909400,9.691909423828125,50.01751939578056,1.045516768425703,4.518394539287686
1758972611065866500,9.701866455078125,38.98705591534376,8.306869122394918,-0.08497117991875856
1758972611075823600,9.71182373046875,21.414639812147616,5.895894606614113,-7.119216504141688
1758972611085781500,9.721781494140625,19.852376467144488,3.9699329740196463,-6.895045345184206
1758972611095738400,9.73173828125,15.29666429685354,-0.10692308214902878,-7.6514657702773805
1758972611105695500,9.741695556640625,3.4510914709895846,-4.494439078682661,-8.308467205241323
1758972611115653600,9.751653564453125,5.544814977577328,-7.035073409077524,-4.830473114278912
1758972611125610500,9.761610595703125,3.1762291124537585,-6.4393649394661185,0.8524929543387144
1758972611135567400,9.7715673828125,6.2720063855767245,-6.8037517938435075,5.429807957693934
1758972611145525500,9.781525390625,11.555932292652129,-7.279143446725606,8.621274679028987
1758972611155482600,9.791482666015625,8.913786383762956,-9.035608344358206,8.18500799883306
1758972611165439500,9.801439453125,3.1708313450634478,-11.605209826040268,6.923226899051666
1758972611175396400,9.811396240234375,-1.662639781987667,-13.942086255431175,6.725406571403146
1758972611185354500,9.8213544921875,-6.095404787045717,-15.118567491328715,7.342672792828083
1758972611195311600,9.8313115234375,-5.987063070270419,-13.316488843512534,4.458312995551526
1758972611205268700,9.841268798828125,-2.929954550498724,-9.375945045584439,0.9995317737769335
1758972611215226400,9.851226318359375,-1.436364051966369,-5.651389684680104,-0.08936908608414232
1758972611225183500,9.86118359375,-2.3661830417655407,-4.688917694687843,0.21154439016170798
1758972611235140600,9.871140625,-4.414538443493843,-4.158912408086657,0.06452811134885997
1758972611245098500,9.881098388671875,-6.438002418941259,-3.778121531397104,-1.0257090751498936
1758972611255055400,9.891055419921875,-7.149788752537965,-3.583976092869043,-2.282388029486686
1758972611265012500,9.901012451171875,-6.964662486767769,-2.591225868991017,-3.0519425153106448
1758972611274969600,9.910969482421875,-6.794471924322843,-1.2894564576923846,-3.2235368070736525
1758972611284927500,9.920927490234375,-6.392423740071058,-0.25381343302726744,-3.0732410316661
1758972611294884400,9.93088427734375,-6.17303864634633,1.2382780591189861,-3.8017405996546145
1758972611304841500,9.940841552734375,-5.863514432013035,3.262164059370756,-4.123188183754682
1758972611314799600,9.950799560546875,-4.547023836922645,5.048548294448852,-3.418434817534685
1758972611324756700,9.9607568359375,-4.286593616104126,7.376218504077196,-1.652751717440784
1758972611334713300,9.97071337890625,-3.7369787891477344,9.758465522545576,0.8275347464319318
1758972611344670500,9.98067041015625,-1.5799433786004782,10.456235021227597,4.184698006728291
1758972611354628600,9.990628662109375,0.11080021584331988,9.018194268220663,7.3839534822434185
1758972611364585500,10.00058544921875,-0.3205640792638063,9.088987467846273,7.511345936447381
1758972611374542600,10.01054248046875,-3.6528275107771155,9.381963282960653,5.526034289261698
1758972611384500500,10.02050048828125,-6.924623321846127,8.579936706468462,3.060310238422453
1758972611394457900,10.030457763671874,-7.069656646680832,6.377828228485584,2.0033105374738573
1758972611404415000,10.0404150390625,-4.320391840809584,5.0995741328090425,1.1646932560134677
1758972611414372600,10.05037255859375,0.15767709956420584,4.2440819235891105,-0.6156897658884525
1758972611424329700,10.060329833984374,2.489935824292898,3.216875303357839,-3.0059111242368814
1758972611434286800,10.070286865234374,0.3039280017614364,1.3080039217740296,-5.302469864025712
1758972611444244000,10.080243896484374,-0.9019044163048267,-2.50692203040719,-7.100801142007112
1758972611454201600,10.09020166015625,0.40784905255027115,-4.83610965886116,-6.6371648088485
1758972611464158700,10.10015869140625,-0.18560075141415,-6.444801577562093,-6.073889120808244
1758972611474115800,10.11011572265625,-0.988073610369116,-8.76306624546349,-5.686261676096916
1758972611484074000,10.120073974609374,1.4353601356208323,-10.746170737993717,-3.826571381789446
1758972611494030600,10.130030517578126,3.5982279055833812,-14.52561679599285,-2.0126327848315237
1758972611503987700,10.13998779296875,4.067090741218626,-16.615680026507377,-1.5126516112245618
1758972611513944800,10.14994482421875,3.9366894605875014,-12.830707898563146,-3.0807378171622752
1758972611523903000,10.159903076171876,3.607296470440924,-10.346701464319228,-4.815954759582877
1758972611533859800,10.16985986328125,2.6127403661847115,-10.182525632119178,-3.1583085480988022
1758972611543816700,10.179816650390626,3.248060422955453,-10.096499207526445,-0.7543027753520757
1758972611553774800,10.18977490234375,5.309127568349242,-4.988934660485387,4.877941260157526
1758972611563732000,10.19973193359375,6.522384583458304,-7.245725161248445,5.152164736267924
1758972611573688800,10.209688720703125,6.0230567591935396,-9.016044981232286,1.7688230055548249
1758972611583646700,10.219646728515626,5.311613539946079,-7.019961180141568,0.16429039849042892
1758972611593603800,10.229603759765626,4.61478015307039,-4.566246423786878,0.5051346108473838
1758972611603560700,10.239560791015625,5.290298364716768,-3.402923360148072,1.8916782547205686
1758972611613517800,10.249517822265625,6.111487906840443,-2.434375849634409,2.1996702910505235
1758972611623475700,10.259475830078125,5.683669906038046,-0.6469663631618022,1.5796489256985484
1758972611633432800,10.269432861328125,5.647203923428059,2.0861744063824412,1.374822957071662
1758972611643389700,10.2793896484375,6.359350322508812,6.490725124347209,3.698506727412343
1758972611653347800,10.289347900390625,6.603360154402256,9.747631409320235,3.748127082888782
1758972611663304700,10.2993046875,5.7162213455528015,7.884426969411969,-2.1201529560908674
1758972611673261800,10.30926171875,4.785658990040421,5.113845234745741,-5.241425904998183
1758972611683220000,10.319219970703125,4.694251456931233,4.681126017898321,-4.792180208502709
1758972611693176800,10.3291767578125,3.4612425703868266,6.145988726857304,-3.9917882474750277
1758972611703133700,10.3391337890625,1.8883640156060457,7.100799388441443,-3.4404870748668905
1758972611713090800,10.3490908203125,1.3416156839966773,7.867368867105245,-2.912273932379484
1758972611723048700,10.359048583984375,1.3206620355561376,7.465119607323408,-3.0551550476163625
1758972611733005800,10.369005859375,1.0843152856364846,7.153712063461541,-2.5108190378457307
1758972611742963000,10.378962890625,1.5330410499110818,6.362832319405674,-2.1218493847452105
1758972611752920800,10.3889208984375,-0.054148938816785806,3.8273458732932806,-2.7673659874901175
1758972611762877700,10.398877685546875,-4.254257865166664,1.6400515180826185,-2.410342793748528
1758972611772834800,10.408834716796875,-11.304880141031742,1.0149439355075358,-0.26019443930126723
1758972611782792000,10.4187919921875,-16.06434495162964,1.894225016593933,2.203693409086764
1758972611792749800,10.428749755859375,-18.850116656643152,2.0835364590942858,4.567229297344387
1758972611802706700,10.438706787109375,-14.976832623517513,0.7415770762264728,4.498928206795454
1758972611812663800,10.448663818359375,-10.836832421171664,2.7342420087844133,4.358104608610272
1758972611822621700,10.45862158203125,1.1982163901045917,2.9005606982320544,3.999138025715947
1758972611832578800,10.468578857421875,17.556816383004186,-2.873840449088812,-0.5238480426130816
1758972611842535700,10.47853564453125,24.381004231154918,-6.418933561334014,-0.7385499834902585
1758972611852493800,10.488493896484375,22.2250887645483,-5.310749616593122,2.896830279532075
1758972611862451000,10.498450927734375,11.635027456676958,-3.1681226706266403,0.5580168541966006
1758972611872407800,10.50840771484375,8.206489762800931,-1.4177192649900912,-5.682397401884198
1758972611882364700,10.51836474609375,10.493436332374811,-3.041390141636133,-8.445056526857615
1758972611892322800,10.52832275390625,5.93743365470469,-5.083165434321761,-2.087573021133989
1758972611902280000,10.538280029296875,-6.42224137070775,-5.772046108627319,7.253806760895252
1758972611912236800,10.54823681640625,-6.2851978755831714,-7.311858552369475,4.332221979334951
1758972611922194700,10.558194580078125,1.9883201813519,-9.175487355169654,1.4357725158140062
1758972611932151800,10.56815185546875,8.754050579836964,-9.637818450948595,1.2161946759961544
1758972611942109000,10.57810888671875,5.51780655914247,-7.257431381133198,1.1138265537377445
1758972611952065800,10.588065673828124,5.090452668720483,-4.734406941708922,0.8275677719186991
1758972611962023700,10.598023681640624,7.853450231868028,-2.747946124488115,0.1388353469774127
1758972611971980800,10.607980712890624,6.799005476099253,-3.9257910499542947,-1.3322681560672818
1758972611981938000,10.61793798828125,4.851079556716979,-5.218782696035504,-2.9942846915900705
1758972611991895800,10.627895751953124,4.799097732806206,-4.436967132923007,-2.12997219318524
1758972612001852700,10.637852783203124,4.1385158090069885,-3.840071499353647,-1.004669867317751
1758972612011809800,10.647809814453124,2.3415742318183184,-4.125445022770762,0.2510043852222152
1758972612021768000,10.657767822265624,0.7855705317318439,-3.921265096962452,2.170405764251947
1758972612031724800,10.667724853515624,1.2820303993448614,-3.7402269772887227,3.7318241828635332
1758972612041681700,10.677681640625,2.5205562957450747,-4.4528550224065775,3.303284005266428
1758972612051638800,10.687638671875,1.5110091047145426,-4.492766177034378,2.938824085652828
1758972612061597000,10.697596923828126,-0.4757715921103954,-4.0964322787761684,2.2135918488971886
1758972612071553800,10.7075537109375,-0.7240883274175226,-2.9154397029340267,0.9322869873479008
1758972612081510700,10.7175107421875,-0.20229367367029188,-1.6018004056215285,-0.8201767118193208
1758972612091468800,10.72746875,-0.4419218564134091,-2.0239105501711365,-2.3533643305942413
1758972612101426000,10.737426025390626,-0.05364040477275848,-3.204786806157231,-3.3213808029711243
1758972612111382800,10.7473828125,0.24465397501587866,-3.795684076094627,-2.525699503852427
1758972612121340000,10.75733984375,0.39006322049088776,-3.692131931683421,-1.3649129729539156
1758972612131297800,10.7672978515625,-0.7404395235639065,-3.606078619083762,-1.4124419091090559
1758972612141255000,10.7772548828125,-2.083442935591936,-2.9043133287638425,-1.3439523102506994
1758972612151211800,10.787211669921875,-1.39302906036973,-3.6678152365505694,-1.9001476846411822
1758972612161169700,10.797169677734376,-1.473556303024292,-3.2931279374331233,-3.495965216460824
1758972612171126800,10.807126708984375,-1.3885492846071719,-1.258944415050745,-5.6245805882096285
1758972612181084000,10.817083984375,0.020299276185035704,-0.42013212247490883,-6.30222792083919
1758972612191041800,10.827041748046875,0.5347732316553593,-0.04787701894044876,-6.109230483302474
1758972612200998700,10.83699853515625,-1.4416741410732268,0.3406967667102814,-4.94842027926743
1758972612210955800,10.846955810546875,-2.5915292358517643,0.27813305076956746,-2.890706828215718
1758972612220912600,10.85691259765625,-1.1714151846796272,0.4746522326916456,-1.5204975024193523
1758972612230870800,10.866870849609375,-0.6879128521867096,0.32020927447676656,0.5402864421188831
1758972612240828000,10.876827880859375,-0.10900281103253363,0.10738426991999149,2.6764795556455847
1758972612250784800,10.88678466796875,-1.596362890742719,0.2739367681235075,3.504044478020072
1758972612260743000,10.896742919921875,-1.2517542112857103,0.1183154137790203,2.7124866885721683
1758972612270699800,10.90669970703125,0.42932635953873394,-0.04974222829043865,2.2319576728016135
1758972612280657000,10.916656982421875,0.639616877181828,-0.42635961868762967,2.14712542642951
1758972612290614000,10.926614013671875,-0.2545186586871743,-0.7540139484733343,2.153645183587074
1758972612300572000,10.936572021484375,-0.4873609076172113,-0.6906961992949247,2.7927023810595273
1758972612310528800,10.94652880859375,-1.2795797913223503,-0.12677578361034392,3.922721140989661
1758972612320486000,10.95648583984375,-3.1965000393271445,0.9017290597379207,5.451698886984587
1758972612330443800,10.96644384765625,-3.873926422682404,1.5726894619494676,7.416890121683478
1758972612340400600,10.976400634765625,-4.154546029570699,2.3572452636808157,9.752038119846581
1758972612350357800,10.986357666015625,-3.9037458068847655,2.865536731123924,12.016859366852044
1758972612360316000,10.99631591796875,-2.994910714533925,3.8151813882470127,12.844237242221832
1758972612370272800,11.006272705078125,-0.4657727606654167,4.619534946382045,12.610197015678882
1758972612380229600,11.016229736328125,3.0856565688639876,4.838161915215849,11.929568036890029
1758972612390186800,11.026186767578125,6.457758089768886,4.703669858139753,10.18899512039423
1758972612400144100,11.03614404296875,9.328138169270753,4.412449362260103,8.5713822286129
1758972612410101200,11.046101318359375,10.916322721993923,4.307733434766531,6.613996114706993
1758972612420058400,11.056058349609375,10.76617775323391,4.093019839984178,5.323474658131599
1758972612430016300,11.066016357421875,9.355387410724163,4.11543333184421,4.731486962608993
1758972612439973000,11.07597314453125,7.661614823848009,3.9079415050089357,3.5427523943379517
1758972612449930200,11.08593017578125,6.659236355403065,3.1329256850391625,1.1277943618789315
1758972612459888000,11.09588818359375,5.4004538529157635,2.46915607111454,-0.963419207714498
1758972612469845200,11.10584521484375,3.696028939121961,1.988999103526771,-2.3301021129503843
1758972612479802000,11.115802001953124,1.5011375529110431,1.893691640369594,-3.416600587844848
1758972612489759200,11.12575927734375,-0.2834662284910679,1.890301121148467,-4.345391549770534
1758972612499717000,11.135717041015624,-1.9228613284915685,1.4790658602260052,-5.112800694128871
1758972612509674000,11.145674072265624,-2.939161939305067,0.5075993935257196,-5.841562127923965
1758972612519631000,11.155631103515624,-2.2315198659062383,-0.22853972943052647,-5.895528695911168
1758972612529589200,11.16558935546875,-1.5782582019925118,-0.4553121569275856,-5.933178335347772
1758972612539546400,11.17554638671875,-1.5769494574815035,-0.5173710651513189,-5.923950488275289
1758972612549503000,11.1855029296875,-1.7427613664507864,-0.9401093515366316,-5.584715026289224
1758972612559460000,11.195460205078126,-1.725138031476736,-1.075752697539702,-5.190477223527431
1758972612569418200,11.205418212890624,-1.803829875397682,-1.294910923705995,-4.85655828038901
1758972612579375400,11.215375244140626,-2.200789212077856,-1.3628965185649693,-4.551685983514785
1758972612589332200,11.225332275390626,-2.6654654096782204,-1.6671626662395893,-3.9644945823580025
1758972612599290000,11.2352900390625,-3.129864543902874,-2.420435440956801,-3.4712247429579492
1758972612609247200,11.245247314453126,-3.2733085537195206,-3.011904519432783,-3.4852813253611323
1758972612619204400,11.255204345703126,-3.499474685886502,-3.6694074741780756,-3.249149971757829
1758972612629161200,11.2651611328125,-3.709775140401721,-4.129630199500919,-2.9350933746919035
1758972612639119000,11.275119140625,-3.6262820336788892,-3.92824311928153,-2.6079803121760485
1758972612649076200,11.285076171875,-3.668173548468947,-3.7461674732536077,-2.2491475847944615
1758972612659033000,11.295033203125,-4.141430527409911,-3.6239480377733706,-2.1587337388977406
1758972612668991000,11.304990966796876,-4.786549801400303,-3.308578604543209,-2.142336876978725
1758972612678948000,11.314947998046875,-4.758038577187061,-3.418854796512425,-1.737218491501361
1758972612688905200,11.3249052734375,0.3952677303314209,-7.160235327750444,2.6163369293719527
1758972612698863400,11.33486328125,7.7217843381285665,-10.633320603883266,11.404302638292313
1758972612708820200,11.3448203125,-5.753255483439564,-4.426004424881935,3.6523031946420668
1758972612718777000,11.354777099609375,-3.0825369755387304,-2.3077052799642086,-4.5287931837052104
1758972612728734200,11.364734130859375,-2.5031962878823277,-4.14590971865058,-4.661898754858971
1758972612738692400,11.3746923828125,-2.427066987925768,-3.755025902491808,-1.7886491112701595
1758972612748649200,11.384649169921875,-2.184014018365741,-1.5365630865573883,0.18376432976722717
1758972612758606000,11.394606201171875,-2.360603341937065,-0.9415868036780506,1.0864146690685301
1758972612768564200,11.404564208984375,-1.2811983324348926,-1.6263491559445857,1.2720949885249138
1758972612778521000,11.41452099609375,0.34120763884186744,-1.5458768583476543,0.5162924030691385
1758972612788478200,11.424478271484375,1.6035779366880654,-1.870827628263086,-0.5399987112186849
1758972612798435300,11.434435302734375,0.8879220681816339,-3.210758574043214,-1.0841472355931996
1758972612808393200,11.444393310546875,0.2528296826869249,-3.9189495134964583,-1.0625094042807817
1758972612818350000,11.45435009765625,-0.11103168651163578,-3.3636288761138915,-0.9742690299656241
1758972612828307200,11.46430712890625,-0.17235972317755222,-2.671578339600563,-0.21881197001188993
1758972612838265000,11.47426513671875,-0.13378069393634795,-2.3592362913675604,0.3676802698995918
1758972612848222200,11.48422216796875,-0.3349503320127725,-2.2774767304390666,0.3677825612302869
1758972612858179000,11.494178955078125,-0.5774281320333481,-1.9226301500841974,0.709581663159281
1758972612868136200,11.50413623046875,-0.5713257235050201,-1.4190790090359746,1.364782478442043
1758972612878094000,11.514093994140625,-0.24834172361791132,-1.5476190258398652,1.4612320973716675
1758972612888051200,11.52405126953125,0.12023615270853041,-1.7208051168389618,1.1634425983652472
1758972612898008000,11.534008056640625,0.6067968498587608,-1.870915306546539,0.9900769860807805
1758972612907966200,11.54396630859375,0.5215794035613537,-2.564693835896253,0.5520099053993821
1758972612917923300,11.55392333984375,0.12238368613123893,-2.657305484098196,0.28587840419933197
1758972612927880200,11.563880126953125,0.16065174972712992,-2.1571904549784957,0.23595380507931113
1758972612937838000,11.573838134765625,-0.13746318184137343,-1.620026821055263,0.36302068059071896
1758972612947795200,11.583795166015625,-0.5194873997181654,-1.1475886111512779,0.6824510796494782
1758972612957752300,11.59375244140625,-0.7279343353211879,-0.9543271158508956,0.7277063717842102
1758972612967709200,11.603709228515624,-0.7591215007454156,-0.9954230963490903,0.6170194801222533
1758972612977667000,11.6136669921875,-0.6586532938241958,-0.9549471474453807,0.7079588111978024
1758972612987624200,11.623624267578125,-0.6504390077084302,-0.9215862912438809,0.5301797298526391
1758972612997581300,11.633581298828124,-0.4715753094643354,-0.9106456489041447,0.21865031317677347
1758972613007539200,11.643539306640625,-0.5916676697880029,-0.7771865881375968,0.3409686789868399
1758972613017496000,11.65349609375,-1.0268751963198184,-0.841655845438689,0.48452257891874756
1758972613027453200,11.663453125,-1.294364688000083,-1.0017566832847893,0.561288277082704
1758972613037410300,11.673410400390624,-1.4787082789599895,-0.7890363081462681,0.3891737973704934
1758972613047368200,11.6833681640625,-1.3430927708119154,-0.2672115515217185,0.11195793451108038
1758972613057325000,11.693324951171874,-0.8890396740347146,0.11360299830436706,-0.058882945068739354
1758972613067282200,11.7032822265625,-0.43000119006037707,0.1547363882035017,-0.07531728945393115
1758972613077240300,11.713240234375,-0.05044365455806255,-0.012841215264052151,-0.01802062719594687
1758972613087197200,11.723197265625,0.10729776068031788,-0.3126363550044596,0.07622059496920555
1758972613097154000,11.733154052734376,0.1398223121881485,-0.7364869134806096,0.1340018624063581
1758972613107111200,11.743111083984376,0.23063246392607686,-0.9111151661120355,0.2829486343577504
1758972613117069300,11.7530693359375,0.14172083928585053,-0.747802234351635,0.4481433978093788
1758972613127026200,11.763026123046876,0.002954173630475998,-0.620253566672653,0.46355406170263885
1758972613136983000,11.772983154296876,0.1157581305116415,-0.6274889247536659,0.4518388182612136
1758972613146941200,11.782941162109376,0.16115034689903257,-0.6679166506014764,0.3838420444210991
1758972613156898300,11.792898193359376,0.03314882088601589,-0.6478403695173561,0.28832316700294613
1758972613166855200,11.802855224609376,-0.12126315766870975,-0.5329905860222875,0.2188063074560836
1758972613176812300,11.812812255859376,-0.26935528555214405,-0.4981999892786145,0.058232664466463024
1758972613186770200,11.822770263671876,-0.3545236320108175,-0.5256089513383806,-0.0775163338681683
1758972613196727300,11.832727294921876,-0.3622971886217594,-0.5135707230202854,-0.09384575657416135
1758972613206684200,11.84268408203125,-0.4187275163739919,-0.5094410758696496,-0.11219634637683629
1758972613216642000,11.85264208984375,-0.4383189365506172,-0.35002851254865525,-0.23295173718649892
1758972613226599200,11.86259912109375,-0.3731394851535558,-0.24733795340284703,-0.1869611530471593
1758972613236556300,11.872556396484375,-0.45589784786105153,-0.2120567966632545,-0.020145145069248974
1758972613246513200,11.88251318359375,-0.4625742568850517,-0.17559359053224324,0.10334387195538729
1758972613256471000,11.892470947265625,-0.3080032883763313,-0.2738675022795796,0.25443638723120093
1758972613266428200,11.90242822265625,0.5710486601293087,-0.5624355839543044,0.41792420063447205
1758972613276385000,11.912385009765625,-0.3588023322433233,-0.3442508059300482,-0.13802746466062962
1758972613286343200,11.92234326171875,-1.9120798222362994,0.4349211108058691,-0.8948383503761141
1758972613296300300,11.93230029296875,1.0891302847027777,-0.24096710319668052,-0.6747792298473417
1758972613306257200,11.942257080078125,1.2739391550868748,-0.2521509066425264,-0.47425567112211137
1758972613316214000,11.952214111328125,0.9287813173145055,0.010349544578790663,-0.23609482098519802
1758972613326172200,11.962172119140625,1.198249415591359,-0.2452022565484047,-0.34365638370085505
