time,seconds_elapsed,z,y,x
1758972601417274000,0.053274169921875,9.657980949011444,1.3590392586149274,1.0231325026601552
1758972601427231200,0.063231201171875,9.61513140284419,1.485464913613349,1.2300522286958993
1758972601437189400,0.073189453125,9.554792961737514,1.6170615415088831,1.503802680467069
1758972601447146500,0.083146484375,9.47480990896225,1.7522190767563879,1.8243064078457651
1758972601457103400,0.093103271484375,9.376192298343778,1.8895492798678575,2.1649489601507783
1758972601467060200,0.103060302734375,9.259507700636982,2.0229696160592137,2.517834761826694
1758972601477018400,0.113018310546875,9.121843443265556,2.1413240466743706,2.8943206347987056
1758972601486975200,0.122975341796875,8.962424450203775,2.2325461402140556,3.2956136167690158
1758972601496932400,0.132932373046875,8.786651119190454,2.2874884213656186,3.705744569711387
1758972601506889200,0.14288916015625,8.60541776920557,2.300147704191506,4.102010955691338
1758972601516846300,0.152846435546875,8.425382689094542,2.272584574483335,4.474222220084071
1758972601526804200,0.16280419921875,8.25455382874608,2.218707730606198,4.807292729699611
1758972601536761300,0.17276123046875,8.105195626449584,2.1545457856886086,5.082727627426386
1758972601546718500,0.182718505859375,7.984108409869671,2.08211139472723,5.299924855718016
1758972601556675000,0.192675048828125,7.8951038462489835,1.9790293520458042,5.47002423274815
1758972601566633200,0.20263330078125,7.814289603346586,1.8421597521834074,5.631492559555173
1758972601576590300,0.21259033203125,7.713979801857471,1.6801405134953558,5.817390394219756
1758972601586547500,0.22254736328125,7.5874430877000085,1.4997177492409943,6.029257367399334
1758972601596504300,0.23250439453125,7.421420750850439,1.3010447502858935,6.27695728598237
1758972601606462200,0.242462158203125,7.194772972646355,1.0846334847401826,6.57489218480885
1758972601616419300,0.25241943359375,6.898468305370211,0.8486222503852099,6.9181906584501265
1758972601626376400,0.26237646484375,6.543396391826867,0.5856809965938329,7.280887660044431
1758972601636333300,0.272333251953125,6.171605398672819,0.2823501204753294,7.615901704943179
1758972601646291200,0.282291259765625,5.820558502861857,-0.07367841793941333,7.8921520107060665
1758972601656248300,0.292248291015625,5.485122433158755,-0.46976497210673984,8.11561122200191
1758972601666205400,0.302205322265625,5.164572966942191,-0.873436446711421,8.290638118562102
1758972601676162300,0.312162353515625,4.881929745271802,-1.2513089517362415,8.412571722838281
1758972601686120200,0.3221201171875,4.656594803231954,-1.5750439161211252,8.485620007914305
1758972601696077300,0.332077392578125,4.482257350240648,-1.8351015042349694,8.52714210487008
1758972601706034200,0.3420341796875,4.338000562736392,-2.0427309859752656,8.554494806697964
1758972601715991300,0.3519912109375,4.198917962999642,-2.2177264644838868,8.580278651773929
1758972601725949200,0.36194921875,4.046337876047194,-2.3920684475198386,8.606714823278784
1758972601735906300,0.37190625,3.8645974533230065,-2.587740657223761,8.633588801679014
1758972601745863200,0.38186328125,3.6376238041654227,-2.812059992480278,8.662009424999356
1758972601755820300,0.3918203125,3.3653663674309846,-3.0640628689542413,8.686554083669185
1758972601765778200,0.401778076171875,3.060670011645555,-3.328013665114343,8.702127500376104
1758972601775735300,0.4117353515625,2.7659689801737666,-3.5799914071470496,8.70077491672337
1758972601785692200,0.421692138671875,2.519449211286008,-3.801880008125305,8.681501476454734
1758972601795649300,0.431649169921875,2.307017882221937,-4.005178767184913,8.649080385321378
1758972601805607400,0.441607421875,1.9965150321148335,-4.221371202348172,8.623475403943658
1758972601815564300,0.451564208984375,1.4782120198756457,-4.453678029227256,8.611040285262465
1758972601825521200,0.461521240234375,0.9634238838896155,-4.705788165467977,8.549722185468672
1758972601835478300,0.471478271484375,0.4906402215488255,-4.987053084522485,8.429647945323586
1758972601845436400,0.4814365234375,0.11315515407216735,-5.270621604344249,8.269107254755497
1758972601855393500,0.4913935546875,-0.1087389541982673,-5.50492018956244,8.115073461863398
1758972601865350100,0.50135009765625,-0.09424616320175118,-5.63190757009685,8.027645938301086
1758972601875307300,0.511307373046875,0.17679825361426918,-5.66764114677906,8.00106012919247
1758972601885265400,0.521265380859375,0.5697630772981792,-5.6816579816937445,7.972735367462039
1758972601895222300,0.53122216796875,0.9090166594628244,-5.741750923606753,7.897873310962319
1758972601905179100,0.54117919921875,1.0683294156711547,-5.894046932920813,7.76461693316102
1758972601915136300,0.55113623046875,1.0416274328369646,-6.1453451682567595,7.5710057476401325
1758972601925094400,0.561094482421875,0.8437326517127454,-6.457828232395649,7.331777889326214
1758972601935051300,0.57105126953125,0.5077161883058026,-6.782958596661686,7.064282552427053
1758972601945008400,0.58100830078125,0.0984848784837406,-7.105576685845851,6.758066147467494
1758972601954965200,0.59096533203125,-0.3073685706693679,-7.4196005496859545,6.405111372208595
1758972601964923400,0.60092333984375,-0.6482165824186057,-7.699320577386021,6.03909428628087
1758972601974880300,0.61088037109375,-0.8153978069797158,-7.8458719055682415,5.826476786994934
1758972601984837400,0.62083740234375,-0.7541574485972523,-7.819399493706226,5.870147586417198
1758972601994794500,0.63079443359375,-0.695977719894424,-7.767435497713088,5.945833234259486
1758972602004752400,0.64075244140625,-0.6873406783219427,-7.749389553412795,5.9703369763970375
1758972602014709200,0.650709228515625,-0.6913187151074409,-7.737916557762026,5.984740180280804
1758972602024666400,0.660666259765625,-0.689054934893921,-7.720034864112734,6.008049159675836
1758972602034623500,0.67062353515625,-0.6717146546449512,-7.706672109192609,6.027136137461662
1758972602044581400,0.680581298828125,-0.6479338930197059,-7.70607414329946,6.030505906155705
1758972602054538200,0.690538330078125,-0.6224889245092868,-7.711184618180989,6.026651568815112
1758972602064495400,0.700495361328125,-0.6070989380778744,-7.712216299316286,6.026900575140118
1758972602074452500,0.710452392578125,-0.6305811186153442,-7.699626282334327,6.040571373096108
1758972602084410000,0.72041015625,-0.650403205742687,-7.677859271684288,6.066121993938088
1758972602094367200,0.7303671875,-0.6532922051824629,-7.649909188485145,6.101023211449385
1758972602104324400,0.740324462890625,-0.6522359741277992,-7.617127447345853,6.142013978007435
1758972602114281500,0.750281494140625,-0.6681966365866363,-7.581965533071756,6.183663500735164
1758972602124239000,0.760239013671875,-0.6976882501393556,-7.54697020753622,6.223088333150744
1758972602134196200,0.7701962890625,-0.7171895078144968,-7.513921339893341,6.260752001112699
1758972602144153300,0.7801533203125,-0.7051015220705419,-7.486107450294494,6.295349851763248
1758972602154110200,0.790110107421875,-0.6705033060938119,-7.475573781320453,6.311625863781571
1758972602164068000,0.800068115234375,-0.6209410374801606,-7.4946537448436015,6.294042276296019
1758972602174025200,0.810025146484375,-0.579009519473277,-7.517782691496611,6.270413563427328
1758972602183982300,0.819982421875,-0.5627658388219774,-7.538917833983898,6.246469793260097
1758972602193939200,0.829939208984375,-0.5632795970303938,-7.569691742432117,6.2090966326773165
1758972602203897300,0.8398974609375,-0.5697111279152334,-7.605596584028005,6.164472478052973
1758972602213854200,0.849854248046875,-0.5677157163143157,-7.651872597512602,6.107120943802594
1758972602223811300,0.859811279296875,-0.5543623137444258,-7.7112950928181405,6.033157297447324
1758972602233768200,0.869768310546875,-0.5409689444903284,-7.777912468063831,5.948263091754913
1758972602243726300,0.879726318359375,-0.5344633985212073,-7.843707421010732,5.86182691731751
1758972602253683500,0.889683349609375,-0.5294962045678868,-7.898797440069913,5.787835798433423
1758972602263640300,0.899640380859375,-0.5438402256103232,-7.933390030023455,5.738981458893418
1758972602273597200,0.90959716796875,-0.5763254314884543,-7.950264007934927,5.7124009104818105
1758972602283555300,0.919555419921875,-0.6080225557288155,-7.954965902015567,5.702562238034606
1758972602293512400,0.929512451171875,-0.6249089912630618,-7.953940650621056,5.702165347671508
1758972602303469300,0.93946923828125,-0.5975062397483736,-7.9376120316326615,5.727797217056155
1758972602313426200,0.94942626953125,-0.5432741161601617,-7.900720517086982,5.7839306076884265
1758972602323384300,0.95938427734375,-0.5020519154664129,-7.855224255803227,5.849254435992241
1758972602333341400,0.969341552734375,-0.47587037630975243,-7.809054625302553,5.912915299519896
1758972602343298300,0.97929833984375,-0.45610053082630037,-7.7578961004734035,5.981420095947384
1758972602353255200,0.989255126953125,-0.4479639861218631,-7.713686371868849,6.038938218936324
1758972602363213300,0.99921337890625,-0.45481524025611575,-7.69434220445156,6.063053254017233
1758972602373170400,1.00917041015625,-0.47178193795233964,-7.709767152598499,6.042127954888343
1758972602383127300,1.019127197265625,-0.5126571153067052,-7.7572502037853,5.97768032489717
1758972602393084000,1.029083984375,-0.5460763140993192,-7.826843964493274,5.883256658837199
1758972602403041800,1.039041748046875,-0.5256499044032767,-7.909418787327408,5.773662311652302
1758972602412999000,1.0489990234375,-0.474816300679557,-7.996340699455142,5.657161253818869
1758972602422956000,1.0589560546875,-0.41429231040552256,-8.087530790421367,5.530875299552083
1758972602432913000,1.068912841796875,-0.34456283102128654,-8.186834045216441,5.387708353111147
1758972602442870800,1.078870849609375,-0.2704401399130933,-8.299525773894786,5.21681402631104
1758972602452828000,1.088827880859375,-0.19644549563135952,-8.429560851562023,5.007426010465622
1758972602462785000,1.098784912109375,-0.13080991623094304,-8.57785347045362,4.7511783360287545
1758972602472742000,1.108741943359375,-0.07884277843264863,-8.735920464384556,4.455095202548802
1758972602482699800,1.11869970703125,-0.04550324814696796,-8.885113831508159,4.1500694686785335
1758972602492657000,1.128656982421875,0.0026588399499567457,-9.01062821688056,3.870265269826352
1758972602502614000,1.138614013671875,0.061741850764350965,-9.108304747256636,3.6339164740800856
1758972602512571000,1.14857080078125,0.10719742384469136,-9.1861057798177,3.4313773012161253
1758972602522528800,1.15852880859375,0.1254767933083698,-9.258072699397802,3.2315172844335436
1758972602532486000,1.16848583984375,0.12483834927435963,-9.329914531293511,3.0178567058354613
1758972602542443000,1.178443115234375,0.12751579745584166,-9.399450424334406,2.79364813747704
1758972602552400000,1.18839990234375,0.1575757763478905,-9.46229412626028,2.5710961041539906
1758972602562357000,1.19835693359375,0.22305106888636944,-9.518477201253175,2.349299273112416
1758972602572315000,1.20831494140625,0.34353414556067435,-9.571201075702906,2.108195099532604
1758972602582271700,1.218271728515625,0.5927061825228854,-9.622412792024015,1.7967388942234217
1758972602592228900,1.228228759765625,0.8650839211687446,-9.665120883893966,1.4168480351135133
1758972602602187000,1.23818701171875,1.0359629773344845,-9.701348966094852,0.9904594825923442
1758972602612143900,1.248143798828125,1.0637631306689233,-9.73462345918715,0.5252554617255926
1758972602622100700,1.258100830078125,0.9709576403953134,-9.758273799365758,0.060957869912963356
1758972602632057900,1.268057861328125,0.8899950750634074,-9.764066411292552,-0.20321630494054405
1758972602642015000,1.278014892578125,1.0000762559171765,-9.751659934183955,-0.27454225973598656
1758972602651973000,1.28797314453125,1.1880894753005355,-9.729452778550982,-0.31078217850513756
1758972602661929700,1.2979296875,1.3531192209161818,-9.70772726895511,-0.3154262779839337
1758972602671886800,1.307886962890625,1.478053760574013,-9.688159814175963,-0.3539821455452591
1758972602681844000,1.317843994140625,1.5416672778286038,-9.675852121266722,-0.41415984313227233
1758972602691802000,1.327802001953125,1.566709218496084,-9.668180855986476,-0.4920229811441153
1758972602701759000,1.337759033203125,1.5728829386949539,-9.662290628904104,-0.5801202571941539
1758972602711715800,1.3477158203125,1.579905969199538,-9.656509707415104,-0.6527774605933576
1758972602721673000,1.3576728515625,1.5987969860218465,-9.650430095240473,-0.6952803122147917
1758972602731631000,1.367631103515625,1.627034800121188,-9.644365096113086,-0.7136862489338964
1758972602741588000,1.377587890625,1.6537718542687594,-9.639458034849167,-0.7185096505023538
1758972602751544800,1.387544921875,1.6703852815479039,-9.636602060896157,-0.7183972031038254
1758972602761502000,1.397501953125,1.6774978900320827,-9.635460489645599,-0.7171264525156468
1758972602771459800,1.4074599609375,1.6758113982498646,-9.635542322710156,-0.7199865911871195
1758972602781417000,1.4174169921875,1.65973865371868,-9.6377161596179,-0.7280658527463674
1758972602791374000,1.4273740234375,1.6250890728808938,-9.64273369551897,-0.739691773936525
1758972602801331000,1.4373310546875,1.568178998787701,-9.65105144200921,-0.7539089537288993
1758972602811288800,1.447288818359375,1.4893231964766978,-9.66238941310346,-0.768464863956347
1758972602821246000,1.457245849609375,1.3922320647731423,-9.676338443478942,-0.7749472117129713
1758972602831203000,1.467203125,1.280706749525666,-9.691803139114379,-0.7740371841959655
1758972602841160000,1.477159912109375,1.1807036758981644,-9.705692548257112,-0.758845752543956
1758972602851117800,1.487117919921875,1.1286693911477923,-9.714269237944483,-0.7276431703548878
1758972602861075000,1.497074951171875,1.1029469939354806,-9.717339731431007,-0.7261044895455241
1758972602871032000,1.507031982421875,1.0717031298879534,-9.717803841811419,-0.7655896007809787
1758972602880989000,1.516989013671875,1.0177513210784643,-9.71837608874142,-0.8293019022349267
1758972602890946800,1.52694677734375,0.9383717140890657,-9.71972341169715,-0.9037775167003274
1758972602900904000,1.536904052734375,0.8321069497182965,-9.721626030448078,-0.9838498551942407
1758972602910861000,1.546861083984375,0.704282972229272,-9.72343161856532,-1.0626555347532034
1758972602920818000,1.55681787109375,0.5708486440451815,-9.723415251952408,-1.1400556583631782
1758972602930775800,1.56677587890625,0.44970801677759736,-9.720195120862126,-1.2190070300031453
1758972602940733000,1.57673291015625,0.34235739339888094,-9.714098557552695,-1.2998014722265303
1758972602950690000,1.58668994140625,0.23017211640533058,-9.705909990400075,-1.3830121087461709
1758972602960647000,1.59664697265625,0.08654585449011065,-9.695304425233601,-1.47104709668234
1758972602970604800,1.606604736328125,-0.10657377552101388,-9.681054366084933,-1.5608353580266237
1758972602980562000,1.61656201171875,-0.3509164378317073,-9.660214991673827,-1.6515099006861447
1758972602990518800,1.626518798828125,-0.6290178148213773,-9.628969374060631,-1.7486190064378082
1758972603000476000,1.636475830078125,-0.9118912650510668,-9.586239070358872,-1.8554891893558203
1758972603010433800,1.646433837890625,-1.1708405996620654,-9.536705516383051,-1.9623381833553313
1758972603020391000,1.656390869140625,-1.3840423285767436,-9.48803120958507,-2.057203017311543
1758972603030347800,1.66634765625,-1.5557279518850147,-9.44575215678215,-2.127883404212445
1758972603040305000,1.676304931640625,-1.717095887057483,-9.40873087837696,-2.167435954660922
1758972603050263000,1.686262939453125,-1.8845177154414354,-9.371927042114734,-2.187695337226987
1758972603060220000,1.696219970703125,-2.060554227435589,-9.331004080095887,-2.203831063991785
1758972603070176800,1.7061767578125,-2.2385715379834172,-9.28603155042529,-2.2200934858761725
1758972603080134000,1.7161337890625,-2.402368746129423,-9.240884833231569,-2.237201710934937
1758972603090092000,1.726092041015625,-2.5530726639464496,-9.195548730945587,-2.2570108655154706
1758972603100049000,1.736048828125,-2.707940277314186,-9.14705328784585,-2.2735139642879365
1758972603110005800,1.746005859375,-2.8741560909092425,-9.091790834829212,-2.2910601423725483
1758972603119963000,1.755962890625,-3.0407433681651947,-9.027762307032942,-2.328897705596685
1758972603129920000,1.765919921875,-3.1979166281267997,-8.955331861594319,-2.397025631535798
1758972603139878100,1.775878173828125,-3.347598363289237,-8.874939058974384,-2.4898694810584185
1758972603149834800,1.785834716796875,-3.489814584876597,-8.788180228453873,-2.599899589312076
1758972603159791900,1.7957919921875,-3.621244916294515,-8.702090675497054,-2.70750363946259
1758972603169749000,1.8057490234375,-3.739021985413134,-8.623921978667378,-2.7960832556694744
1758972603179707000,1.815706787109375,-3.843253051999211,-8.55823399322629,-2.85594852630645
1758972603189664000,1.8256640625,-3.9384047400727864,-8.506402683702111,-2.8810493575543163
1758972603199620900,1.835620849609375,-4.023180580082536,-8.46830471597612,-2.876141127246618
1758972603209578000,1.845577880859375,-4.0911747966393825,-8.445674951016903,-2.846620433729887
1758972603219536000,1.855535888671875,-4.134770777259766,-8.44262082414329,-2.792165789964795
1758972603229493000,1.865492919921875,-4.1456794170260425,-8.462740652108192,-2.7139909556552766
1758972603239449900,1.875449951171875,-4.121096472172439,-8.505334177687764,-2.616535666814446
1758972603249406700,1.88540673828125,-4.066181809680163,-8.567747086980939,-2.496047585171461
1758972603259364900,1.89536474609375,-3.983292806330323,-8.647349616006016,-2.350981088719517
1758972603269322000,1.905322021484375,-3.8730113536640998,-8.739363298314808,-2.1894567939415572
1758972603279279000,1.915279052734375,-3.7381814429357645,-8.836562858828902,-2.0276981058858334
1758972603289235700,1.925235595703125,-3.5850498595803972,-8.932768732130526,-1.8770859580054877
1758972603299193900,1.93519384765625,-3.4200729401305314,-9.024524640285968,-1.7411043930239973
1758972603309151000,1.94515087890625,-3.2444901632532477,-9.11105959892273,-1.6224235069334505
1758972603319108000,1.955108154296875,-3.0596427144244314,-9.192056212654709,-1.5215443811237812
1758972603329065000,1.96506494140625,-2.8653771566480395,-9.2674922696501,-1.4400006549030542
1758972603339022800,1.97502294921875,-2.667047418172657,-9.335877239090204,-1.3779108400844036
1758972603348980000,1.98497998046875,-2.482222473436594,-9.393162137845158,-1.3332241416178643
1758972603358937000,1.99493701171875,-2.3441825146205724,-9.432892090687155,-1.3022190547622738
1758972603368894000,2.00489404296875,-2.2858003221482037,-9.450100999641418,-1.2810624310955405
1758972603378851800,2.014851806640625,-2.3117976638443767,-9.446513788804412,-1.2607042643301187
1758972603388809200,2.024809326171875,-2.402387450829893,-9.428754260230065,-1.2237373464606702
1758972603398766300,2.034766357421875,-2.510732528606057,-9.410510163009166,-1.1440710314843803
1758972603408723500,2.044723388671875,-2.5630209342479704,-9.410094567945599,-1.0253806469131261
1758972603418681300,2.054681396484375,-2.50018950728178,-9.437682247573136,-0.9217183201257139
1758972603428638200,2.06463818359375,-2.3351281244188544,-9.482966911932825,-0.8893116959091275
1758972603438595300,2.07459521484375,-2.127041254299879,-9.527616785520314,-0.9330465735435485
1758972603448552400,2.084552490234375,-2.000236390725523,-9.544171029958129,-1.038371865107119
1758972603458510300,2.09451025390625,-2.0849849043369293,-9.510219660517572,-1.1742953432258219
1758972603468467200,2.10446728515625,-2.2641003853850066,-9.448640279439092,-1.329458943865448
1758972603478424300,2.11442431640625,-2.378309679019451,-9.3976372374326,-1.4827254056468606
1758972603488381400,2.12438134765625,-2.394868745762855,-9.374939667934179,-1.5954627270326018
1758972603498338300,2.13433837890625,-2.3272248039484023,-9.381461178657412,-1.656076039557904
1758972603508296200,2.144296142578125,-2.2059107928752897,-9.406583929476142,-1.6794503392741083
1758972603518253300,2.15425341796875,-2.0588104525081814,-9.436137356218696,-1.7002973124697804
1758972603528210400,2.16421044921875,-1.906086427040398,-9.4667703948915,-1.7080727687768638
1758972603538167300,2.174167236328125,-1.7459924573265015,-9.500366959545016,-1.6926156719259917
1758972603548125200,2.184125244140625,-1.5540909983329474,-9.539372689765692,-1.6599935052625834
1758972603558082300,2.194082275390625,-1.320053256008029,-9.581763386249541,-1.6179086598575114
1758972603568039400,2.204039306640625,-1.0609421549640596,-9.621108139166235,-1.5745121473319827
1758972603577996300,2.213996337890625,-0.8052526258666067,-9.65306511991918,-1.529810397426784
1758972603587954200,2.2239541015625,-0.5585449331913143,-9.678608141976595,-1.4774769835993646
1758972603597911300,2.233911376953125,-0.30466570491883904,-9.69881447918117,-1.4179377300463616
1758972603607868200,2.2438681640625,-0.016332677533937384,-9.712567110201716,-1.355040398237109
1758972603617825300,2.2538251953125,0.3086001948235556,-9.716025726222991,-1.2938228362083435
1758972603627783400,2.263783447265625,0.6509030450236052,-9.705687287560105,-1.2435114297278225
1758972603637740300,2.273740234375,0.9885538681667297,-9.682766430699825,-1.1988280191969125
1758972603647697200,2.283697265625,1.3084113335311411,-9.650922262671589,-1.1481051093060524
1758972603657654300,2.293654296875,1.5995784917883573,-9.613518706950545,-1.091776415297389
1758972603667612400,2.3036123046875,1.859986939166486,-9.573263853451609,-1.0312433284014464
1758972603677569300,2.3135693359375,2.1022453973479567,-9.529708789363504,-0.9672584205511957
1758972603687526100,2.323526123046875,2.328878270243853,-9.483350942814349,-0.9015317105349153
1758972603697483300,2.333483154296875,2.522968325322866,-9.438733802452683,-0.8457753365214914
1758972603707441400,2.34344140625,2.672922739946842,-9.39970469135642,-0.8194135454270989
1758972603717398500,2.3533984375,2.7835835473194717,-9.36721638020575,-0.8229838781945407
1758972603727355100,2.363355224609375,2.8548411495864388,-9.344636884129047,-0.8354828558921813
1758972603737312300,2.373312255859375,2.867803214751184,-9.338967021799087,-0.8542730426885187
1758972603747270400,2.3832705078125,2.8047254118084908,-9.35412484344244,-0.8968070931658149
1758972603757227300,2.393227294921875,2.6671172685384748,-9.387945864501594,-0.9608955344557761
1758972603767184400,2.403184326171875,2.475375384020805,-9.432914302518963,-1.0310250825408847
1758972603777141200,2.413141357421875,2.2514158219873903,-9.482571190613507,-1.0873536304190754
1758972603787099400,2.423099365234375,2.009092335745692,-9.534735677614808,-1.1057739609897137
1758972603797056300,2.43305615234375,1.7551530843816696,-9.58739817726612,-1.0824158086907119
1758972603807013400,2.443013427734375,1.4957438771739602,-9.636301032122969,-1.0367369573816656
1758972603816970200,2.45297021484375,1.2345920640826225,-9.678588852754235,-0.9854287949487567
1758972603826928400,2.462928466796875,0.9616788668531924,-9.714137135997413,-0.9386792456682771
1758972603836885200,2.47288525390625,0.6650816463712602,-9.741022804835438,-0.9168012489244342
1758972603846842400,2.48284228515625,0.34039913547057654,-9.756486331427096,-0.9303111572302878
1758972603856799500,2.492799560546875,-0.002791017530961835,-9.757709151220322,-0.9785180657122283
1758972603866757400,2.50275732421875,-0.3462240422317758,-9.742154439213872,-1.0681505519729106
1758972603876714200,2.51271435546875,-0.6697022919092327,-9.710558692988753,-1.1945349251128732
1758972603886671400,2.52267138671875,-0.9647983140479772,-9.66600760360062,-1.344553491014242
1758972603896628500,2.53262841796875,-1.2480448353737592,-9.607407530593871,-1.5200275468200444
1758972603906586400,2.54258642578125,-1.5517932427845895,-9.530932778200507,-1.7098682738915085
1758972603916543200,2.552543212890625,-1.9001928389571605,-9.436231464242935,-1.8754200706198811
1758972603926500400,2.562500244140625,-2.279807803735137,-9.328618061742185,-1.987399413245171
1758972603936457500,2.57245751953125,-2.649998083694279,-9.215305570816993,-2.0557344060637055
1758972603946415000,2.5824150390625,-2.98446676966995,-9.099986416244507,-2.110350085609406
1758972603956372200,2.592372314453125,-3.282126943208277,-8.984854893198609,-2.1611106971621514
1758972603966329300,2.602329345703125,-3.5457378398895263,-8.872292928379773,-2.209199459157139
1758972603976286500,2.612286376953125,-3.7836037622004746,-8.761208050376176,-2.2574320135369894
1758972603986244000,2.622244140625,-4.005178182663023,-8.646933436420559,-2.3150595882497726
1758972603996201200,2.632201171875,-4.205361147789657,-8.5318790702641,-2.3858640399217603
1758972604006158300,2.642158447265625,-4.370400318820774,-8.427056759786606,-2.460631111614406
1758972604016115200,2.652115234375,-4.492345905795693,-8.343599308899044,-2.5245903735667468
1758972604026073300,2.6620732421875,-4.572490286612511,-8.284163954111934,-2.575917825222015
1758972604036030200,2.6720302734375,-4.615803358638287,-8.244398345434664,-2.625767897801101
1758972604045987300,2.6819873046875,-4.634003032195568,-8.222402202203869,-2.662425019069016
1758972604055944200,2.691944091796875,-4.638409742721915,-8.219836151108145,-2.662670810523629
1758972604065902300,2.70190234375,-4.625939844988286,-8.242723690220712,-2.613147777941823
1758972604075859200,2.711859130859375,-4.586240579545498,-8.291983687952161,-2.5258330671042204
1758972604085816300,2.72181640625,-4.50911028585285,-8.37143073415458,-2.3994703943394122
1758972604095773200,2.731773193359375,-4.386279148215055,-8.482073713609577,-2.2327910548858343
1758972604105731300,2.7417314453125,-4.2251659184560175,-8.609025438308715,-2.0501319098815323
1758972604115688400,2.7516884765625,-4.0391313056692475,-8.73570711389482,-1.8823450475774703
1758972604125645300,2.761645263671875,-3.8356370240375397,-8.858375462186336,-1.7284328352384268
1758972604135602200,2.771602294921875,-3.6071760589316484,-8.983259148439764,-1.568357131833583
1758972604145560300,2.781560302734375,-3.3413442713305352,-9.111901894965767,-1.4067815452598034
1758972604155517400,2.791517333984375,-3.0470553277909755,-9.234150556540488,-1.2713393478520214
1758972604165474300,2.801474365234375,-2.747460094536841,-9.34151553723812,-1.1653140913255513
1758972604175431200,2.81143115234375,-2.493318452468514,-9.42227015890777,-1.0837759180627762
1758972604185389300,2.821389404296875,-2.39580558822155,-9.453588841757178,-1.0296328975301234
1758972604195346400,2.831346435546875,-2.556005794788897,-9.408943644344806,-1.0530905646808444
1758972604205303300,2.84130322265625,-2.9806960189595815,-9.264560892373323,-1.2057185093630105
1758972604215260200,2.85126025390625,-3.556262156513333,-9.028533875927328,-1.417383311033994
1758972604225218300,2.86121826171875,-4.021628382204473,-8.806030942443012,-1.5654811380058526
1758972604235175400,2.871175537109375,-4.2070463243976235,-8.732154974371195,-1.4901697303034365
1758972604245132300,2.88113232421875,-4.130638792021572,-8.803838400834799,-1.265166504435986
1758972604255089400,2.89108935546875,-3.9427877774626015,-8.903953556534647,-1.1594993406321852
1758972604265047300,2.90104736328125,-3.7008164656594396,-9.003685265874863,-1.1866004788517952
1758972604275004400,2.91100439453125,-3.366117185798287,-9.124957191371918,-1.2549033229663968
1758972604284961300,2.920961181640625,-2.970902062436938,-9.256429608365893,-1.2894225554227827
1758972604294918400,2.93091845703125,-2.606224700680375,-9.366644133275747,-1.2821576789863407
1758972604304876300,2.940876220703125,-2.2915124161846934,-9.449387882936,-1.2760929721198975
1758972604314833400,2.95083349609375,-2.077631911225617,-9.50160614595115,-1.2543193855986
1758972604324790300,2.960790283203125,-1.9521289240300654,-9.530729364582896,-1.2348115520521998
1758972604334748200,2.970748046875,-1.861202306305617,-9.549773672270774,-1.2280616394005714
1758972604344705300,2.980705322265625,-1.7544065037980674,-9.572596913975477,-1.2074153764087705
1758972604354662400,2.990662353515625,-1.6110452038288114,-9.604583120822905,-1.151928028595075
1758972604364619300,3.000619384765625,-1.4042137405984103,-9.646424366730452,-1.070093210473284
1758972604374577400,3.010577392578125,-1.0720014552474022,-9.699152917355299,-0.9734623166926205
1758972604384534300,3.0205341796875,-0.6222894564144313,-9.748891053992509,-0.861566049240902
1758972604394491600,3.03049169921875,-0.15238087458591906,-9.776955118960142,-0.7471960120867938
1758972604404448800,3.04044873046875,0.2590114035291597,-9.78166052017212,-0.6499161528781056
1758972604414406700,3.05040673828125,0.5959100931307301,-9.770998256382345,-0.5855457528416067
1758972604424363800,3.06036376953125,0.8793981315948068,-9.750691381412745,-0.5666161575745791
1758972604434320600,3.070320556640625,1.1260653461292385,-9.72380454353094,-0.5915822930594906
1758972604444277800,3.08027783203125,1.364327720411867,-9.691232645750045,-0.6236885095573962
1758972604454236000,3.09023583984375,1.6128985766105353,-9.652557170397042,-0.6301544176358729
1758972604464192800,3.10019287109375,1.8570758740253746,-9.610417818325757,-0.6012623408788815
1758972604474149600,3.110149658203125,2.076733647211641,-9.568088496640325,-0.5560910737657919
1758972604484106800,3.120106689453125,2.2725886661365626,-9.525514260283112,-0.5198968207692727
1758972604494065000,3.13006494140625,2.4584552288800476,-9.479459780594706,-0.5159939315792172
1758972604504021800,3.140021728515625,2.628537947036326,-9.432215798860788,-0.5426640214378013
1758972604513978600,3.149978515625,2.750434726433456,-9.394828609752654,-0.5854111301438882
1758972604523935700,3.159935791015625,2.8138755174696444,-9.373299499511718,-0.6274981309734284
1758972604533894000,3.169893798828125,2.8374168443158267,-9.364446330970525,-0.6531481936018914
1758972604543850800,3.179850830078125,2.826559934736788,-9.367736604687572,-0.6530497747287154
1758972604553807600,3.1898076171875,2.771126509067416,-9.386160150128603,-0.6255017695244401
1758972604563765800,3.199765869140625,2.6510022923007606,-9.4246035702914,-0.5651687352452427
1758972604573723000,3.209722900390625,2.435169191969186,-9.487217555114626,-0.4827371202740818
1758972604583679700,3.2196796875,2.129315336711705,-9.563343932461738,-0.42290973396208137
1758972604593636900,3.229636962890625,1.7924118248045444,-9.632076107904314,-0.42518323185201734
1758972604603594800,3.2395947265625,1.4940027325950562,-9.679667295640707,-0.4923288687555119
1758972604613551900,3.2495517578125,1.2226224440213291,-9.712250299337505,-0.5897201889820397
1758972604623508700,3.2595087890625,0.9219879308473319,-9.738732063549756,-0.690951708425954
1758972604633465900,3.2694658203125,0.5604306373400614,-9.758205410304665,-0.7960705906972289
1758972604643423700,3.279423828125,0.13872350236708297,-9.762975108924508,-0.9140393099304288
1758972604653380900,3.289380859375,-0.3226286471107975,-9.746029234820604,-1.0398123462390154
1758972604663337700,3.299337646484375,-0.788715040302649,-9.705917004662751,-1.1590871065694839
1758972604673294800,3.309294921875,-1.2256782513953746,-9.647334467312692,-1.2637285805873573
1758972604683252700,3.319252685546875,-1.6289276281304657,-9.575158873417973,-1.354002725752443
1758972604693209600,3.329209716796875,-2.0082827729284762,-9.492297050336003,-1.4260089544296264
1758972604703166700,3.339166748046875,-2.3775522847808896,-9.39951647530794,-1.4719802858792244
1758972604713123800,3.349123779296875,-2.7511645020127293,-9.294315979167818,-1.4890186605721711
1758972604723081700,3.359081787109375,-3.116955085708201,-9.176828832906484,-1.4969156974323092
1758972604733038600,3.36903857421875,-3.436186162802577,-9.052830697315931,-1.5521727436214685
1758972604742995700,3.37899560546875,-3.702413379462063,-8.924232958975434,-1.6794645139299331
1758972604752953900,3.388953857421875,-3.962578227342665,-8.778661874002218,-1.8448548364862798
1758972604762910700,3.39891064453125,-4.212307021404802,-8.623750713753699,-2.014388980849087
1758972604772867600,3.40886767578125,-4.4322190616130825,-8.47887345626354,-2.1527898819319904
1758972604782824700,3.41882470703125,-4.612852692139149,-8.353069732555747,-2.2623469658464193
1758972604792782800,3.428782958984375,-4.747422782887518,-8.247741810643673,-2.3679380687393246
1758972604802740000,3.438739990234375,-4.8345177134945985,-8.163940660884975,-2.4794988936915994
1758972604812696600,3.448696533203125,-4.883381405384839,-8.106351226225495,-2.570996150910854
1758972604822653700,3.45865380859375,-4.899886257722973,-8.085536401733755,-2.6049142026036978
1758972604832611800,3.46861181640625,-4.882727033129334,-8.109451530328393,-2.562440211750567
1758972604842569000,3.47856884765625,-4.829500469854474,-8.174738533753157,-2.453561027097702
1758972604852525800,3.48852587890625,-4.735745789097249,-8.272594512349366,-2.3037543503813445
1758972604862482700,3.498482666015625,-4.6053234656780955,-8.393238661336898,-2.1248348302967845
1758972604872440800,3.50844091796875,-4.445280495499074,-8.527799691995979,-1.9200290276750922
1758972604882397700,3.518397705078125,-4.258746993279457,-8.669511763453484,-1.6950132345870137
1758972604892354800,3.528354736328125,-4.045784333817661,-8.813166201150416,-1.4594864227481186
1758972604902311700,3.538311767578125,-3.8063027930036184,-8.953459637981652,-1.2320717518247664
1758972604912269800,3.548269775390625,-3.5386841219857335,-9.088654874891041,-1.02196966942586
1758972604922226700,3.558226806640625,-3.2298277239114044,-9.221476952928304,-0.8384258505415171
1758972604932183800,3.568183837890625,-2.8784178400069473,-9.349252853491901,-0.6903606106650084
1758972604942141700,3.5781416015625,-2.5040780391529203,-9.463497656831144,-0.5849687201386318
1758972604952098800,3.588098876953125,-2.1554213994793594,-9.55209305512905,-0.5311017766010016
1758972604962055700,3.5980556640625,-1.8894490343637764,-9.608416415375471,-0.5279244252065196
1758972604972012800,3.6080126953125,-1.8073264853417872,-9.622533788055181,-0.5574803726997226
1758972604981970700,3.617970703125,-2.179009341946244,-9.54122387059033,-0.622373919827491
1758972604991927800,3.627927734375,-2.958530072119832,-9.317471229305863,-0.7760124297916888
1758972605001884700,3.637884765625,-3.758921740886569,-9.009576662001013,-0.9318861514620482
1758972605011841800,3.647841796875,-4.275049893304705,-8.772828345543145,-0.965297641872242
1758972605021799700,3.657799560546875,-4.38624261559695,-8.739071037369966,-0.7482698518633842
1758972605031756800,3.6677568359375,-4.266355130195618,-8.817271882903576,-0.47360601157434284
1758972605041713700,3.677713623046875,-4.13761798338443,-8.884996927130222,-0.32764453904405233
1758972605051671800,3.687671875,-4.055297135311365,-8.92625482019186,-0.21667408120036125
1758972605061629000,3.69762890625,-3.9623979023396965,-8.969586596918106,-0.12784890186772682
1758972605071585500,3.70758544921875,-3.7870448425650594,-9.045548139092325,-0.08201069527850485
1758972605081542700,3.717542724609375,-3.483286352151632,-9.166340172117948,-0.12367873091045767
1758972605091500800,3.727500732421875,-3.0442911237746477,-9.317055049720405,-0.30843835532534863
1758972605101458000,3.7374580078125,-2.547661452552676,-9.456858072686195,-0.4976363640464842
1758972605111414800,3.747414794921875,-2.03750974419564,-9.570359364181757,-0.6535594778165221
1758972605121371600,3.75737158203125,-1.573666928679496,-9.650705989572405,-0.7468588160216808
1758972605131329800,3.767329833984375,-1.305820294124633,-9.693875853735207,-0.7028299969419837
1758972605141287000,3.777286865234375,-1.1722188292127103,-9.719394910395145,-0.5741483431776985
1758972605151243800,3.787243896484375,-0.9424065225630998,-9.750134332051873,-0.46594924974348395
1758972605161200600,3.79720068359375,-0.4963696685789153,-9.785416073313355,-0.4118872220251709
1758972605171158800,3.80715869140625,-0.005296365971359773,-9.799292622974514,-0.3797628853486851
1758972605181116000,3.817115966796875,0.3889516790524125,-9.792896784457565,-0.3439244965851307
1758972605191072800,3.82707275390625,0.7046639343708753,-9.776160169190169,-0.31706297580767423
1758972605201030700,3.83703076171875,1.0264275986827909,-9.747587570178508,-0.3184063167080283
1758972605210987800,3.84698779296875,1.3656629145383834,-9.704929162669181,-0.345997101608105
1758972605220944600,3.856944580078125,1.6666538399346171,-9.656392218515276,-0.38309710780531164
1758972605230901800,3.86690185546875,1.9022867424964904,-9.610781390941142,-0.4296413072394207
1758972605240859600,3.876859619140625,2.0857892064571377,-9.569353986531496,-0.4973289420651272
1758972605250816800,3.886816650390625,2.2395845144182442,-9.529138295999168,-0.5917680979551747
1758972605260773600,3.896773681640625,2.3792066278591752,-9.487743624815344,-0.7017586413834244
1758972605270730800,3.906730712890625,2.5035662902384996,-9.446154892364143,-0.8201801458854228
1758972605280688600,3.916688720703125,2.598079972669482,-9.409511799621582,-0.9388632969982922
1758972605290645800,3.926645751953125,2.6446485393598675,-9.387301136857271,-1.0270423695802688
1758972605300602600,3.9366025390625,2.6444416186109185,-9.381835857188701,-1.0763167611632496
1758972605310560800,3.946560791015625,2.612835935513675,-9.388726785746217,-1.093283604989946
1758972605320518000,3.956517822265625,2.5507863065749405,-9.407789798134564,-1.0758118803810328
1758972605330474800,3.966474853515625,2.436862551883608,-9.443269692316651,-1.0279841804750263
1758972605340431600,3.976431640625,2.2463187911093234,-9.49797100431919,-0.9555022240448743
1758972605350389800,3.9863896484375,1.9836423987992107,-9.563672433763742,-0.8784780941404402
1758972605360347000,3.996346923828125,1.6882560154117643,-9.624424716368317,-0.8310380053125321
1758972605370303700,4.0063037109375,1.4053634951554237,-9.670400870123505,-0.8238152144521474
1758972605380260600,4.016260498046875,1.1473423082400114,-9.70275123410821,-0.842972846321389
1758972605390218500,4.026218505859375,0.8663714036960154,-9.728772395071386,-0.8779425259590148
1758972605400175400,4.03617529296875,0.5302584211120381,-9.747269590270518,-0.93805848342143
1758972605410132500,4.046132568359375,0.15180545845129526,-9.753244573026896,-1.010716161744669
1758972605420089600,4.056089599609375,-0.23433265188457442,-9.744944362193346,-1.0730912232454866
1758972605430047500,4.066047607421875,-0.6119378294764086,-9.721696173074841,-1.133381295165792
1758972605440004400,4.07600439453125,-0.9868968216747045,-9.680787824103236,-1.216054171546921
1758972605449961500,4.08596142578125,-1.3729576015911995,-9.620942719471454,-1.312570791298151
1758972605459919400,4.09591943359375,-1.7652241042800247,-9.546580429187417,-1.3846237817265092
1758972605469876500,4.10587646484375,-2.1562033436372876,-9.461391624462603,-1.4153655414707957
1758972605479833300,4.115833251953125,-2.5319182322368023,-9.366722459208965,-1.422774648683518
1758972605489790500,4.12579052734375,-2.876198702652752,-9.26423297559321,-1.4393890988759697
1758972605499748400,4.135748291015625,-3.1898677617058158,-9.151734723660349,-1.4969664047062397
1758972605509705500,4.14570556640625,-3.4955326702624556,-9.01769800913632,-1.6225798665389417
1758972605519662300,4.155662353515625,-3.790384216120839,-8.863491197764873,-1.800534633244574
1758972605529619500,4.165619384765625,-4.042568878902495,-8.710437063559889,-1.9890495185397563
1758972605539577600,4.17557763671875,-4.233301001855731,-8.581785549205541,-2.1453424885354937
1758972605549534200,4.1855341796875,-4.3739553809538485,-8.482007662636041,-2.2570839307516812
1758972605559491300,4.1954912109375,-4.450314690274,-8.410966041207313,-2.3708140625670553
1758972605569449500,4.205449462890625,-4.468689720398188,-8.362485795676708,-2.50400380487293
1758972605579406600,4.215406494140625,-4.469389393100142,-8.326341884627938,-2.6204969716608524
1758972605589363500,4.225363525390625,-4.477511032496392,-8.302710249149799,-2.6809093547865745
1758972605599320300,4.2353203125,-4.472813522329926,-8.306574523362517,-2.6767753237217664
1758972605609278500,4.245278564453125,-4.421701466991007,-8.347930031579732,-2.632675777493417
1758972605619235600,4.255235595703125,-4.316080991873145,-8.425711190396546,-2.5591397089004517
1758972605629192400,4.2651923828125,-4.16279684830457,-8.53680366718471,-2.4422397148773074
1758972605639149300,4.2751494140625,-3.9759252001717686,-8.673205357274412,-2.2666985851846633
1758972605649107500,4.285107421875,-3.7638624121591446,-8.81961581568122,-2.053800223130733
1758972605659064600,4.295064697265625,-3.5384678488865493,-8.96068140592873,-1.8318901409730315
1758972605669021400,4.305021484375,-3.2973990388810632,-9.093442109167576,-1.6145719166502355
1758972605678978600,4.314978515625,-3.005079057326913,-9.227726660972833,-1.4103089887335896
1758972605688936400,4.3249365234375,-2.648330735003948,-9.362617946499585,-1.2239720319993794
1758972605698893300,4.334893310546875,-2.261900537253171,-9.483252158614993,-1.0593068088471889
1758972605708850400,4.344850341796875,-1.9300505093432963,-9.56998000947535,-0.9277671718358993
1758972605718808300,4.354808349609375,-1.796716828522086,-9.602566520303487,-0.8560965317886322
1758972605728765400,4.364765380859375,-2.0258811195917428,-9.5536999058038,-0.8905163955237716
1758972605738722300,4.374722412109375,-2.5058663838744164,-9.417487600806355,-1.0963407275382429
1758972605748679400,4.384679443359375,-3.064197016727924,-9.211943400907517,-1.386071642447263
1758972605758637300,4.39463720703125,-3.537951716057956,-8.98999985487163,-1.6831984397612512
1758972605768594400,4.404594482421875,-3.886108735646307,-8.806603189373016,-1.8741018276281654
1758972605778551300,4.41455126953125,-4.088811282378435,-8.745001011940836,-1.7253771009296177
1758972605788509400,4.424509521484375,-4.126071630236506,-8.789498909837008,-1.374988669027388
1758972605798466600,4.434466552734375,-4.0829523272171615,-8.83699306693971,-1.1863566601585596
1758972605808423400,4.44442333984375,-4.006130368821323,-8.8798917129457,-1.1264195663943886
1758972605818380300,4.45438037109375,-3.867697465164959,-8.948229920634628,-1.0679276299372316
1758972605828338400,4.46433837890625,-3.607408406382799,-9.063730861514806,-1.0028794037044049
1758972605838295600,4.474295654296875,-3.2280393791899082,-9.212312818741799,-0.9399030153095722
1758972605848252400,4.48425244140625,-2.7726225928440686,-9.363681191816925,-0.8969046352561563
1758972605858209300,4.494209228515625,-2.3209449930265547,-9.491360646268724,-0.8352624180745333
1758972605868167400,4.50416748046875,-1.9288987089596688,-9.587838906770944,-0.7232396746989339
1758972605878124500,4.51412451171875,-1.6094801464691757,-9.654209029257297,-0.61337725116238
1758972605888081400,4.524081298828125,-1.4002347539648412,-9.689877139487862,-0.5621168733939528
1758972605898039300,4.534039306640625,-1.2879710414402186,-9.705734633833169,-0.5569818851256743
1758972605907996400,4.543996337890625,-1.0855386168863623,-9.728547354143858,-0.5893823353298008
1758972605917953500,4.55395361328125,-0.656725029175356,-9.76317559993267,-0.6476888322174549
1758972605927910400,4.563910400390625,-0.1440776224119123,-9.782143335253,-0.6777271198675036
1758972605937868300,4.573868408203125,0.2931246307342313,-9.778384859502316,-0.6838505711838603
1758972605947825400,4.583825439453125,0.6142269998595118,-9.762872817593813,-0.6924165933467448
1758972605957782500,4.593782470703125,0.8917147384628653,-9.740491474437713,-0.7057377741474657
1758972605967739400,4.603739501953125,1.1843147060021757,-9.70767407746315,-0.7272083591341972
1758972605977697300,4.613697265625,1.479754427012056,-9.664456867027281,-0.760909918532148
1758972605987654400,4.623654296875,1.7454580581888555,-9.617802083358168,-0.7884365886874497
1758972605997611500,4.633611572265625,1.9482986982174217,-9.57672948373556,-0.8128807095922529
1758972606007569400,4.6435693359375,2.100366743994504,-9.54075449951291,-0.8560655521284788
1758972606017526300,4.6535263671875,2.2262803578175605,-9.504852580526471,-0.933711467193067
1758972606027483400,4.6634833984375,2.3367411125734447,-9.4674957865566,-1.0375756732281296
1758972606037440500,4.6734404296875,2.431756899307668,-9.431526063030958,-1.141608952219784
1758972606047398400,4.6833984375,2.4984710129261014,-9.405387413167952,-1.2110864661369471
1758972606057355500,4.69335546875,2.517198217488825,-9.397719070497155,-1.2316586409792303
1758972606067312400,4.7033125,2.4797148745298383,-9.409548624500632,-1.2172961344320326
1758972606077269200,4.713269287109375,2.386947889635712,-9.43748818630576,-1.186031008400768
1758972606087227400,4.723227294921875,2.238952500125021,-9.4797152166605,-1.1368692103467881
1758972606097184500,4.7331845703125,2.0225931839622557,-9.53708019491434,-1.060000271004066
1758972606107141400,4.743141357421875,1.7428231796406208,-9.60021031256616,-0.9843418764948845
1758972606117099500,4.753099609375,1.4376615444310008,-9.654936174488068,-0.9411383292581885
1758972606127056400,4.763056396484375,1.1661778685480355,-9.691737088140846,-0.9384382765192538
1758972606137013500,4.773013427734375,0.924461846680194,-9.716720722749828,-0.9492465977162122
1758972606146970600,4.782970703125,0.6503842087812721,-9.737676417016983,-0.9617891222946345
1758972606156928500,4.792928466796875,0.32215354041233657,-9.74986019128561,-1.0034054003398865
1758972606166885400,4.802885498046875,-0.04353862440995872,-9.747879246601462,-1.0711365820463745
1758972606176842500,4.812842529296875,-0.41567605638150124,-9.730032039743662,-1.1506930069074035
1758972606186799600,4.822799560546875,-0.7870026834268122,-9.695666244283318,-1.2430132709473372
1758972606196757200,4.83275732421875,-1.172690465312451,-9.642290043404698,-1.3496055137068033
1758972606206714400,4.84271435546875,-1.5775988613009453,-9.569050035148859,-1.4542536366611718
1758972606216671500,4.85267138671875,-1.9835256405517459,-9.480994735077022,-1.5319181833609938
1758972606226629400,4.86262939453125,-2.3728128351688382,-9.385002212265134,-1.5690407301835714
1758972606236586200,4.872586181640625,-2.7359318615674972,-9.284425284272432,-1.576236779167503
1758972606246543400,4.88254345703125,-3.075455785106122,-9.174508865526319,-1.5938528076179324
1758972606256500500,4.89250048828125,-3.3867888024270534,-9.05119052889347,-1.666142237150669
1758972606266458600,4.902458740234375,-3.6518510669603943,-8.922156152701378,-1.7970884383134542
1758972606276415200,4.912415283203125,-3.8707781877845524,-8.80111102169752,-1.930783061401546
1758972606286372400,4.922372314453125,-4.039274221271277,-8.704879429432749,-2.01983877068758
1758972606296329500,4.93232958984375,-4.151820696260034,-8.643711551764607,-2.054020880144089
1758972606306287600,4.94228759765625,-4.215726474459469,-8.608073252150415,-2.0734261300988495
1758972606316244500,4.952244384765625,-4.2341295616343615,-8.585542271390556,-2.1286054348766803
1758972606326201300,4.962201416015625,-4.22524512117207,-8.568442668029665,-2.2134845891304313
1758972606336159500,4.972159423828125,-4.211112258662284,-8.55678087180853,-2.284390893741697
1758972606346116600,4.98211669921875,-4.1967926414087415,-8.557500418254733,-2.307921699193865
1758972606356073500,4.992073486328125,-4.172524461592734,-8.579347508403659,-2.270516389907151
1758972606366030300,5.0020302734375,-4.1183801989510656,-8.628815011405944,-2.18010371305421
1758972606375988500,5.011988525390625,-4.021381129445135,-8.704678353902697,-2.0560719674549994
1758972606385945300,5.0219453125,-3.8831878797635433,-8.800341206368804,-1.9092562892481684
1758972606395902000,5.03190185546875,-3.7150428516715763,-8.907492836576699,-1.7393749388828872
1758972606405859000,5.041859130859375,-3.5279783113151786,-9.014908086156845,-1.5669037181548773
1758972606415816700,5.051816650390625,-3.3221877354398366,-9.118864719715713,-1.407046187545359
1758972606425773800,5.06177392578125,-3.082287676952779,-9.224866595366597,-1.253683133521676
1758972606435731000,5.07173095703125,-2.7888185253635047,-9.33705797330737,-1.101007038848847
1758972606445689000,5.081689208984375,-2.4572923225805163,-9.445189262202382,-0.9594105565950274
1758972606455645700,5.091645751953125,-2.1328142847433686,-9.535538810691238,-0.8336418311353773
1758972606465602800,5.101602783203125,-1.8972673068992791,-9.593932547470926,-0.726100982414186
1758972606475560000,5.111559814453125,-1.898629973554611,-9.598059272012113,-0.6654622431866825
1758972606485518000,5.12151806640625,-2.247712291294336,-9.519218375009297,-0.7089943647906184
1758972606495474700,5.131474609375,-2.8081647386074065,-9.354086849519609,-0.8863719161301851
1758972606505431800,5.141431884765625,-3.442731931184232,-9.114590111136437,-1.1145505571633576
1758972606515390000,5.151389892578125,-3.980456413860619,-8.861215654048323,-1.3435674025863409
1758972606525347000,5.16134716796875,-4.299788905502855,-8.696101664215325,-1.4352765489906072
1758972606535304000,5.171303955078125,-4.375329299655556,-8.694698227158188,-1.195450067196414
1758972606545260800,5.1812607421875,-4.269332684701681,-8.77865836687088,-0.9371808238040655
1758972606555219000,5.191218994140625,-4.0865611653640865,-8.873674738126992,-0.8533918028745799
1758972606565175800,5.20117578125,-3.8577839739158746,-8.976882599145174,-0.8387450725585222
1758972606575133000,5.2111328125,-3.578511982244253,-9.095320177999138,-0.7998754628729075
1758972606585090000,5.221090087890625,-3.244530787524581,-9.225823457700013,-0.7263878365315497
1758972606595048000,5.2310478515625,-2.915397617357969,-9.341136182531715,-0.6434225530751049
1758972606605004800,5.2410048828125,-2.622541336970031,-9.430770860749483,-0.5943389713564887
1758972606614962000,5.2509619140625,-2.330053451503068,-9.50809959962368,-0.5807719260359182
1758972606624919800,5.260919921875,-2.0109305109582842,-9.580359364670514,-0.585902493857406
1758972606634877000,5.270876953125,-1.6280733493886888,-9.651438395500183,-0.6078677304932847
1758972606644833800,5.280833740234375,-1.2177528652235865,-9.708912679347396,-0.6515355707734822
1758972606654791000,5.290791015625,-0.8252309264689683,-9.748170338502526,-0.6801004248701036
1758972606664748800,5.300748779296875,-0.4285943920023739,-9.774399004736543,-0.6691960959527641
1758972606674706000,5.310705810546875,-0.021089061156124807,-9.786442493751645,-0.6288740224365145
1758972606684662800,5.320662841796875,0.3748622538255527,-9.78262556581199,-0.5745538552386685
1758972606694620000,5.330619873046875,0.7357866562567651,-9.764278592738508,-0.5365503243304789
1758972606704578000,5.340578125,1.0719339429691432,-9.73365373737216,-0.5266251426436007
1758972606714535000,5.350534912109375,1.4037464153476058,-9.69144658076167,-0.5251174414943903
1758972606724491800,5.36049169921875,1.7190885221794248,-9.640981883415579,-0.5163225424790755
1758972606734450000,5.370449951171875,1.9988979817286132,-9.587871639996767,-0.49750722124148156
1758972606744407000,5.380406982421875,2.2220976653054354,-9.538732053774595,-0.49523547691721465
1758972606754363600,5.39036376953125,2.3880786472313105,-9.495545822998881,-0.549605365008302
1758972606764320800,5.40032080078125,2.522338795247674,-9.454279162108898,-0.6517644110932945
1758972606774279000,5.41027880859375,2.6396488313764332,-9.413463167595863,-0.7676920529529452
1758972606784236000,5.420236083984375,2.7471152266219256,-9.37285117122233,-0.879435614060983
1758972606794193000,5.43019287109375,2.848720036357641,-9.335948550760746,-0.9461732546854764
1758972606804149800,5.440149658203125,2.9247838698625563,-9.312715559211373,-0.9430462817713617
1758972606814108000,5.45010791015625,2.9395769498467446,-9.313455563923716,-0.8881564614593982
1758972606824065000,5.46006494140625,2.8802430096074936,-9.337537281256914,-0.8276489473961294
1758972606834022000,5.47002197265625,2.753962900559604,-9.378717432907223,-0.7910381494879722
1758972606843979800,5.479979736328125,2.555203246234357,-9.437110585165023,-0.7630731609806418
1758972606853937000,5.48993701171875,2.2714016483090815,-9.511743509083987,-0.7334018800120801
1758972606863894000,5.49989404296875,1.9253420393913983,-9.588633272019027,-0.7221948418211191
1758972606873851000,5.509850830078125,1.5847722600616514,-9.649092124634981,-0.7442612738091499
1758972606883808800,5.519808837890625,1.2877294877693057,-9.690728203359246,-0.7758424069870263
1758972606893766000,5.529765869140625,0.9886636852167546,-9.723957688266038,-0.7984864927325397
1758972606903723000,5.539722900390625,0.6417744936071336,-9.75041782516837,-0.829376501841098
1758972606913680000,5.549679931640625,0.251582404305879,-9.763115394178032,-0.888060380673781
1758972606923637800,5.5596376953125,-0.16150619286568835,-9.755977212861179,-0.9824442992452531
1758972606933595000,5.569594970703125,-0.5941264976495877,-9.726432553946971,-1.101766040522605
1758972606943551700,5.5795517578125,-1.0547636124595998,-9.675852705788612,-1.1982207009535282
1758972606953508900,5.5895087890625,-1.5299340238064527,-9.604365678679942,-1.2593053573176265
1758972606963467000,5.599467041015625,-1.988183987751603,-9.516518468400836,-1.2858471811540424
1758972606973423900,5.609423828125,-2.4224780527003107,-9.418884023600816,-1.2596093087002633
1758972606983380700,5.619380615234375,-2.8331539261743424,-9.312021731728315,-1.195776230410859
1758972606993339000,5.6293388671875,-3.214251969116926,-9.196375829419493,-1.1250066308565436
1758972607003296000,5.6392958984375,-3.53215355117321,-9.079897567939758,-1.1179233215320854
1758972607013252900,5.6492529296875,-3.7845194157406685,-8.963160363262892,-1.2286379779838026
1758972607023209700,5.659209716796875,-4.0381902254268525,-8.829654979136585,-1.378620011267066
1758972607033168000,5.66916796875,-4.28320075879544,-8.691592662358284,-1.5102356361240148
1758972607043125000,5.679125,-4.497314634118974,-8.565062962463498,-1.6075674447156487
1758972607053082000,5.68908203125,-4.664939145468175,-8.45722393451333,-1.698267706338316
1758972607063038700,5.699038818359375,-4.779625555095076,-8.366140226531028,-1.8257322028651832
1758972607072996900,5.708996826171875,-4.84624672973305,-8.290424183550476,-1.9882433167234062
1758972607082954000,5.7189541015625,-4.882966102582216,-8.23217540819943,-2.135026261704415
1758972607092910800,5.728910888671875,-4.903935825374722,-8.195855556061863,-2.224809408482164
1758972607102868700,5.73886865234375,-4.89904366941899,-8.191086441963911,-2.252971819257736
1758972607112825900,5.748825927734375,-4.850677113395929,-8.228587612840533,-2.2207349986501037
1758972607122783000,5.758782958984375,-4.752255025349557,-8.31078483453393,-2.125405031400174
1758972607132739800,5.76873974609375,-4.60223719010055,-8.432913669121264,-1.9686998273417353
1758972607142697700,5.77869775390625,-4.409033416336775,-8.578632638132571,-1.7714041080892085
1758972607152654800,5.78865478515625,-4.191472323168814,-8.72492794572711,-1.5740427762545643
1758972607162612000,5.798612060546875,-3.9587987088039513,-8.862226292395592,-1.3997164291791617
1758972607172568800,5.80856884765625,-3.692476799598336,-9.001230858460069,-1.2303719621695577
1758972607182526700,5.818526611328125,-3.3521938743859527,-9.1535227761209,-1.0706131426941603
1758972607192483800,5.82848388671875,-2.9445754887863993,-9.305275764599442,-0.9548437601361424
1758972607202441000,5.83844091796875,-2.5334438343688843,-9.434200835198164,-0.8648170138608664
1758972607212398800,5.84839892578125,-2.194221377994865,-9.525755083301663,-0.7847106269668788
1758972607222356000,5.85835595703125,-2.0002837369985875,-9.573439210018515,-0.7200954583890735
1758972607232312800,5.868312744140625,-2.0837068472251294,-9.558469019901752,-0.6813331084702163
1758972607242270000,5.87827001953125,-2.5387229438155887,-9.44532311771512,-0.7149555382173508
1758972607252227800,5.888227783203125,-3.253234610722959,-9.209858411327003,-0.874846678835526
1758972607262185000,5.89818505859375,-3.9552269877970216,-8.90784647231996,-1.0848067224152385
1758972607272141800,5.908141845703125,-4.316205202774703,-8.714956586810946,-1.2610738282948732
1758972607282098700,5.9180986328125,-4.3202407419011,-8.730714712435006,-1.1315905392915009
1758972607292056800,5.928056884765625,-4.122664159880578,-8.866988392230867,-0.7419666600659489
1758972607302014000,5.938013916015625,-3.9026340462505815,-8.986658143228292,-0.4240171472147107
1758972607311971000,5.94797119140625,-3.7233363405033946,-9.069138273516296,-0.240648082109075
1758972607321927700,5.957927734375,-3.5151737747997043,-9.153870566645264,-0.14351432597334496
1758972607331885800,5.9678857421875,-3.2050901730179784,-9.26762554064095,-0.09445433519287035
1758972607341843000,5.977843017578125,-2.808103948330879,-9.39521088706851,-0.1223032321730163
1758972607351800000,5.987800048828125,-2.3789038455203175,-9.510593170005082,-0.24460840057479216
1758972607361758000,5.997758056640625,-1.9761644641339777,-9.595430092552304,-0.4391927967756986
1758972607371714800,6.00771484375,-1.6674458670951424,-9.641263038444519,-0.6603589286983013
1758972607381672000,6.017671875,-1.4645890065841376,-9.660403792244196,-0.8378280307788402
1758972607391629000,6.027629150390625,-1.2652725951589643,-9.681960959535836,-0.9105464263133705
1758972607401586700,6.037586669921875,-0.9423056194718926,-9.724341719147562,-0.848310407957062
1758972607411543800,6.047543701171875,-0.45609695062972605,-9.770197461393474,-0.7110622571058571
1758972607421501000,6.0575009765625,0.07863657920290716,-9.79001216893196,-0.5655670869130641
1758972607431458000,6.0674580078125,0.5666037730170413,-9.779927997291088,-0.4498549509676173
1758972607441415700,6.077415771484375,0.9898417160201817,-9.749196174418925,-0.3791665634233504
1758972607451372800,6.087372802734375,1.360130122591555,-9.705649878159164,-0.3475780141239986
1758972607461330000,6.097329833984375,1.6988975286744534,-9.652174893081188,-0.34592378064356744
1758972607471288000,6.1072880859375,2.010903915212303,-9.59122445755601,-0.3674988854506984
1758972607481245000,6.117244873046875,2.2914678463906046,-9.526329668319224,-0.41061325656659897
1758972607491201800,6.127201904296875,2.5280402217596767,-9.462802660304307,-0.4845267071045935
1758972607501159000,6.137158935546875,2.7140932469859718,-9.405177569809556,-0.5888291584264487
1758972607511117000,6.147116943359375,2.8335972860276697,-9.3604464476794,-0.7232906742338091
1758972607521074000,6.157073974609375,2.891275275753438,-9.33010274734199,-0.8718359527122229
1758972607531030800,6.16703076171875,2.9377327832847833,-9.304745018723606,-0.9807393219582736
1758972607540988000,6.17698779296875,2.992454845814407,-9.284998700246215,-1.0022073496617376
1758972607550946000,6.186946044921875,2.99818403711617,-9.287422128000856,-0.9617940907306969
1758972607560903000,6.19690283203125,2.911270892816782,-9.319003845700621,-0.9225191881798207
1758972607570860000,6.206860107421875,2.7539813129991293,-9.367966906312107,-0.9094801122561097
1758972607580817000,6.21681689453125,2.5454732948586343,-9.428567797747254,-0.8905287435486913
1758972607590774800,6.22677490234375,2.2698988425306976,-9.502758238595723,-0.8458910718556493
1758972607600732000,6.23673193359375,1.9396523042947054,-9.578870587417482,-0.80832158498317
1758972607610689000,6.24668896484375,1.6330504071488976,-9.636669865435362,-0.7988220082972198
1758972607620647000,6.25664697265625,1.381467071261257,-9.675473351082205,-0.804463886641711
1758972607630603800,6.266603759765625,1.1160522669631987,-9.709382634946703,-0.8079092047899961
1758972607640561000,6.276560791015625,0.789564788999781,-9.739494864615798,-0.8301908138986677
1758972607650518000,6.28651806640625,0.4096122993631288,-9.758384274002909,-0.8812175290416926
1758972607660476000,6.296475830078125,0.006796000261834706,-9.76026409640014,-0.9526814675357193
1758972607670432800,6.306432861328125,-0.398788926727511,-9.743203071483968,-1.0398957136735318
1758972607680390000,6.316389892578125,-0.8053058904238045,-9.707385323649644,-1.1351255084846168
1758972607690347000,6.326346923828125,-1.2281624694265425,-9.652209964394569,-1.223458310323581
1758972607700305000,6.336304931640625,-1.6689568561799824,-9.579532266196608,-1.271825085542351
1758972607710261800,6.34626171875,-2.115726810211688,-9.4917587056756,-1.2651551062591373
1758972607720219000,6.356218994140625,-2.5480194722101093,-9.390307917457818,-1.2247886821445078
1758972607730177000,6.366177001953125,-2.9444875182420014,-9.279377353233098,-1.180477173665911
1758972607740134000,6.3761337890625,-3.270115018375218,-9.169755533519387,-1.1799530036613344
1758972607750090800,6.3860908203125,-3.5279023234695193,-9.065083445167541,-1.2444054559580982
1758972607760047900,6.3960478515625,-3.775362880338728,-8.95223097296953,-1.3321234868995844
1758972607770006000,6.406006103515625,-4.014437886178493,-8.834574899882078,-1.4159578082755206
1758972607779963000,6.415962890625,-4.227570933771133,-8.722982656878232,-1.485791369088739
1758972607789919700,6.425919677734375,-4.407380096171796,-8.623148656207322,-1.5449020219661294
1758972607799876900,6.435876953125,-4.546257236464322,-8.537097681695222,-1.6186043870367108
1758972607809835000,6.4458349609375,-4.640049618883431,-8.462830083957314,-1.7380609336748718
1758972607819792000,6.4557919921875,-4.703630695173144,-8.394387246850133,-1.8922202526427805
1758972607829749000,6.4657490234375,-4.755881983675063,-8.330387360626458,-2.0387745034344493
1758972607839707000,6.475706787109375,-4.796243220157921,-8.286490935754776,-2.121446795293689
1758972607849664000,6.4856640625,-4.815756898923218,-8.275763205513357,-2.119113822301477
1758972607859620900,6.495620849609375,-4.799191256308555,-8.305791848552227,-2.037634247358143
1758972607869578000,6.505577880859375,-4.7230502659142015,-8.382948737990855,-1.8945682770736514
1758972607879535900,6.515535888671875,-4.5755599033162,-8.504792325896025,-1.7038688873462378
1758972607889493000,6.525492919921875,-4.367934805490076,-8.651899534395337,-1.4953817658632993
1758972607899449900,6.535449951171875,-4.115724131484329,-8.805971905732154,-1.2984829369738697
1758972607909407000,6.545406982421875,-3.836339619348943,-8.957187718594074,-1.10528888088651
1758972607919364900,6.55536474609375,-3.5226562395095824,-9.10650558888018,-0.9125888919264078
1758972607929321700,6.56532177734375,-3.167124891760945,-9.251195214843749,-0.7450433640975505
1758972607939278800,6.57527880859375,-2.7967028488725423,-9.379761389002203,-0.6073889705330133
1758972607949237000,6.585237060546875,-2.461531275324523,-9.479836797213554,-0.4938875329069793
1758972607959193900,6.59519384765625,-2.23604450372383,-9.540072362467646,-0.3968834584323689
1758972607969150700,6.605150634765625,-2.226757473810017,-9.545085806715488,-0.3213713039934635
1758972607979107800,6.61510791015625,-2.5118732230737804,-9.474096207734942,-0.3199428055603057
1758972607989066000,6.62506591796875,-3.0564135232448577,-9.30737010653019,-0.4490047638790682
1758972607999022800,6.63502294921875,-3.7352781227096914,-9.044203738746047,-0.648432636322081
1758972608008979700,6.644979736328125,-4.266612904348969,-8.784660237634181,-0.8922698881275951
1758972608018936800,6.654936767578125,-4.482100698374212,-8.66641847361326,-0.9870692556321621
1758972608028895000,6.66489501953125,-4.410746065473556,-8.729813964203,-0.7113529106155038
1758972608038852000,6.67485205078125,-4.155090219449996,-8.874292577764392,-0.39052418906614184
1758972608048808700,6.68480859375,-3.8131723865121603,-9.03270911578536,-0.2007190630310215
1758972608058765800,6.694765869140625,-3.4115982495129105,-9.1936607252419,-0.08949191787936724
1758972608068724000,6.704723876953125,-2.944458584408462,-9.354155238580702,0.018262121501355432
1758972608078681000,6.71468115234375,-2.5092118949100373,-9.479391976055503,0.124033910156833
1758972608088638000,6.724637939453125,-2.200813761997223,-9.555212648454308,0.1572170077717863
1758972608098595800,6.734595947265625,-2.008056855218112,-9.598326983037591,0.10111909031169489
1758972608108553000,6.744552978515625,-1.844551615756005,-9.631613751089573,-0.005617189715339918
1758972608118509800,6.754509765625,-1.632793071386963,-9.668944826096295,-0.12596873241062276
1758972608128467000,6.764467041015625,-1.3299157477222383,-9.713294255432485,-0.2315805218985304
1758972608138424800,6.7744248046875,-0.9804494721662252,-9.752911395549773,-0.29971233856147156
1758972608148382000,6.7843818359375,-0.5938055220669135,-9.783884041440487,-0.3055723714349791
1758972608158338800,6.7943388671875,-0.15857704407861456,-9.801748783954977,-0.2663643235752359
1758972608168296700,6.804296630859375,0.2506724681204185,-9.800673263677954,-0.2330867800093256
1758972608178253800,6.81425390625,0.5757415306532755,-9.786818341326713,-0.23890772298146037
1758972608188211000,6.8242109375,0.8657521027538925,-9.76470470919609,-0.2671971394038759
1758972608198167800,6.834167724609375,1.1791518433462829,-9.731475808811187,-0.2799545305756852
1758972608208126000,6.8441259765625,1.522560864689946,-9.684366267111898,-0.25541743415780366
1758972608218082800,6.854082763671875,1.8657060474656522,-9.625403790533541,-0.20280191545337437
1758972608228040000,6.8640400390625,2.1497622046738862,-9.566851648321748,-0.155758881385345
1758972608237996800,6.873996826171875,2.342393439246714,-9.52148865802884,-0.1575815667678602
1758972608247955000,6.883954833984375,2.479884093616903,-9.484901094865798,-0.2391997099316679
1758972608257911800,6.893911865234375,2.5912998110100625,-9.449931488293409,-0.39287626861762254
1758972608267869000,6.903868896484375,2.6843539422824976,-9.415385075569151,-0.5614000668941065
1758972608277826800,6.913826904296875,2.7536168636009095,-9.387889750400186,-0.6749169578175991
1758972608287784000,6.923783935546875,2.7674495741203424,-9.38002676194012,-0.7257432550176978
1758972608297741000,6.933740966796875,2.7080025288954377,-9.394937330824137,-0.7564769775860011
1758972608307697700,6.94369775390625,2.581396548894048,-9.427804996681212,-0.7894841980442404
1758972608317655800,6.95365576171875,2.401614566761255,-9.47277460374236,-0.8180337815064936
1758972608327613000,6.963613037109375,2.1667779291436076,-9.52958487072289,-0.8139215238820761
1758972608337570000,6.973570068359375,1.8774397398792206,-9.592745383512973,-0.7904824153013527
1758972608347527000,6.98352685546875,1.5786197287812829,-9.647392334979772,-0.7785610182959586
1758972608357484800,6.99348486328125,1.3259401220895348,-9.685804775482415,-0.7729370409343391
1758972608367442000,7.00344189453125,1.0876550975836812,-9.71641852493286,-0.7606629580337554
1758972608377399000,7.01339892578125,0.8093136647604405,-9.742581140193343,-0.7729992925155907
1758972608387357000,7.02335693359375,0.47278066666610535,-9.76006068278253,-0.829519636638835
1758972608397313800,7.033313720703125,0.09246264078584499,-9.762983292230963,-0.919773031276837
1758972608407271000,7.04327099609375,-0.2953316209929064,-9.74784651337564,-1.030847460951656
1758972608417228000,7.05322802734375,-0.6802965319640935,-9.713597037771343,-1.1634417215824127
1758972608427186000,7.06318603515625,-1.0740809649351983,-9.660089903989434,-1.303610216859728
1758972608437142800,7.073142822265625,-1.487450680603087,-9.589102643096446,-1.4166903603337704
1758972608447100000,7.083099853515625,-1.9202379942506551,-9.504414189109205,-1.4660079334713518
1758972608457057000,7.09305712890625,-2.3570900731191036,-9.410692533838748,-1.4329546819142995
1758972608467015000,7.103014892578125,-2.759110200320184,-9.31527518056631,-1.335415075790882
1758972608476971800,7.1129716796875,-3.0901068262711164,-9.223374895504117,-1.245374447120726
1758972608486929000,7.122928955078125,-3.3690582076862454,-9.125722330525518,-1.2413893230073154
1758972608496887000,7.132886962890625,-3.651013447092473,-9.005775516152381,-1.3177668986365199
1758972608506844200,7.14284423828125,-3.9272286815419792,-8.87112680720985,-1.431915401994437
1758972608516800800,7.15280078125,-4.169931230229139,-8.741181745913623,-1.540718744932115
1758972608526758000,7.1627578125,-4.35937769728601,-8.635139538252353,-1.6126289658889172
1758972608536716000,7.172716064453125,-4.48858392291367,-8.556853937044739,-1.6742898877710104
1758972608546673000,7.1826728515625,-4.56538600756526,-8.495264619094133,-1.7771096262544392
1758972608556630000,7.192630126953125,-4.610657227921486,-8.438174366128445,-1.9259901280365883
1758972608566587000,7.2025869140625,-4.646460947230458,-8.385326573038101,-2.0656930516287684
1758972608576545000,7.212544921875,-4.67059001083672,-8.351568095821142,-2.146453372386843
1758972608586502000,7.222501953125,-4.665875257274508,-8.35315507275164,-2.150535673264414
1758972608596459000,7.232458984375,-4.614577031713724,-8.397633096903562,-2.0870602493062616
1758972608606417000,7.2424169921875,-4.512098946274817,-8.482357206726073,-1.9649317069798706
1758972608616374000,7.2523740234375,-4.35585186124742,-8.603562496727704,-1.7820453290909528
1758972608626331000,7.262330810546875,-4.142345011906325,-8.751028601667285,-1.5591111645825206
1758972608636288000,7.2722880859375,-3.879380304174125,-8.908959986519813,-1.3233276015035806
1758972608646246000,7.282245849609375,-3.5859637595549225,-9.063878161031008,-1.0758014320522546
1758972608656203000,7.292203125,-3.2539658476069566,-9.214680716916918,-0.8195921899296342
1758972608666159900,7.302159912109375,-2.865129903888702,-9.359869524574279,-0.5952033331008628
1758972608676118000,7.312117919921875,-2.4330352486804125,-9.489929736682772,-0.4381475620390847
1758972608686075000,7.322074951171875,-2.0203911438733337,-9.590199206161499,-0.34131310851033775
1758972608696031700,7.33203173828125,-1.7135966467648744,-9.651225629532336,-0.29636439810674636
1758972608705988900,7.34198876953125,-1.6328643830575047,-9.66542834240794,-0.2891842225453816
1758972608715947000,7.351947021484375,-1.909221510195732,-9.612821956858038,-0.34484124610386785
1758972608725904000,7.36190380859375,-2.474349548104405,-9.475206214803457,-0.5181312724014744
1758972608735860700,7.37186083984375,-3.1626442392155525,-9.256315626597404,-0.6990711558651179
1758972608745817900,7.38181787109375,-3.7571111843332647,-9.021102849143743,-0.8211174267355352
1758972608755776000,7.39177587890625,-4.095503181232512,-8.873346821346878,-0.8129688993323594
1758972608765733000,7.401733154296875,-4.16551955126673,-8.863322270938754,-0.5102450126636773
1758972608775689700,7.411689697265625,-4.075633236375451,-8.91817848124206,-0.16029815051648766
1758972608785647900,7.42164794921875,-3.9717900000631805,-8.966302168419956,0.026557064788031857
1758972608795605000,7.43160498046875,-3.852246798054874,-9.017831864649057,0.09648738452359103
1758972608805562000,7.44156201171875,-3.6047684132680295,-9.119405986985564,0.11166752759660593
1758972608815519000,7.45151904296875,-3.236926157739758,-9.256333746775985,0.11391896891836076
1758972608825476900,7.461476806640625,-2.7997604828774927,-9.398215914103389,0.0725652873320505
1758972608835434000,7.47143408203125,-2.322047985832393,-9.527771683821081,-0.0061755040181131335
1758972608845391000,7.48139111328125,-1.7809429208070038,-9.642758245438337,-0.1259635173793882
1758972608855348000,7.491347900390625,-1.1928807281650602,-9.728987499126792,-0.3069417966246605
1758972608865305900,7.501305908203125,-0.7151653815757483,-9.767621473425626,-0.5024797854896634
1758972608875263000,7.511262939453125,-0.5016789174355566,-9.7763057151407,-0.5852565971693023
1758972608885219800,7.5212197265625,-0.49531884435173124,-9.777808520919084,-0.5652331787835806
1758972608895177700,7.531177734375,-0.36574579470567403,-9.782602769458293,-0.5807980833904818
1758972608905134800,7.541134765625,0.06035650191975291,-9.787268423181771,-0.6132669957209378
1758972608915092000,7.551092041015625,0.5499795320829376,-9.772622058191894,-0.6031261985220014
1758972608925048800,7.561048828125,0.937755628017336,-9.744130123201012,-0.5855975560940802
1758972608935007000,7.571007080078125,1.2360181513629853,-9.711471716180442,-0.5744157984748482
1758972608944963800,7.5809638671875,1.4938067716315389,-9.673577162072062,-0.6006997385600581
1758972608954921000,7.5909208984375,1.731652527937293,-9.629037763121724,-0.6733504391532391
1758972608964879000,7.600879150390625,1.9326289815291762,-9.582575871676205,-0.7807355127908289
1758972608974836000,7.6108359375,2.0788541464969517,-9.538821485623716,-0.9271629223324358
1758972608984792800,7.620792724609375,2.175668360955268,-9.499826276797055,-1.0909436908002943
1758972608994750000,7.63075,2.2437438260547817,-9.465771446982025,-1.2390293158777057
1758972609004707800,7.640707763671875,2.2984549287989733,-9.435479184570909,-1.3635332090333103
1758972609014665000,7.6506650390625,2.348872279872,-9.40724093208015,-1.4686778833329677
1758972609024622000,7.6606220703125,2.4010322368286547,-9.382140393093227,-1.5430102168701587
1758972609034580000,7.670580078125,2.4540540713116523,-9.365917572566866,-1.5580729075759647
1758972609044536800,7.680536865234375,2.4756454331338404,-9.365358185118437,-1.5269652371287346
1758972609054494000,7.690493896484375,2.4372255399771032,-9.381804293006658,-1.4872981203898787
1758972609064451000,7.700451171875,2.3321504237823185,-9.414272730413078,-1.4501491239517927
1758972609074409000,7.710408935546875,2.1618154844306408,-9.464533429619669,-1.3854802524253724
1758972609084365800,7.72036572265625,1.937462539165467,-9.52861397986412,-1.2736302352681754
1758972609094323000,7.730322998046875,1.6842368428982792,-9.590919921651482,-1.1610277192432432
1758972609104280000,7.740280029296875,1.4431601418472826,-9.638758946669101,-1.0871955903131514
1758972609114238000,7.750238037109375,1.2365120723597705,-9.67046692109704,-1.0599400652494282
1758972609124194800,7.76019482421875,1.0227797436997295,-9.694922147917747,-1.064315138528496
1758972609134152000,7.77015185546875,0.7448509833306074,-9.718311791333555,-1.081664478866756
1758972609144110000,7.780110107421875,0.4169213437348604,-9.733628602930903,-1.1193896677576005
1758972609154067000,7.79006689453125,0.08233270290764048,-9.736296360835432,-1.1696777664277702
1758972609164023800,7.80002392578125,-0.2550578618641011,-9.727948219206928,-1.213413593910262
1758972609173981000,7.80998095703125,-0.6184213097441941,-9.708169752025604,-1.2407136157028376
1758972609183939000,7.81993896484375,-1.00188586262241,-9.674218967106938,-1.255429831058532
1758972609193896000,7.82989599609375,-1.389206433341652,-9.626647653114794,-1.2522567539803684
1758972609203852800,7.839852783203125,-1.774492283362895,-9.568646715044975,-1.2093711866516619
1758972609213811000,7.84981103515625,-2.143540553680062,-9.501303363612294,-1.1405453415762632
1758972609223768000,7.85976806640625,-2.4957570777922866,-9.422696275365352,-1.074407639606297
1758972609233725000,7.869724853515625,-2.8298279966220257,-9.330930430337785,-1.0470016732212155
1758972609243681800,7.879681884765625,-3.1194062782526015,-9.233791075578331,-1.0847970047388225
1758972609253640000,7.889639892578125,-3.3548592942029236,-9.140534115210174,-1.168733982771635
1758972609263597000,7.89959716796875,-3.562764085753262,-9.049536331945657,-1.2581727000258862
1758972609273554000,7.909553955078125,-3.747158237856626,-8.966196369957924,-1.317772159333527
1758972609283511800,7.91951171875,-3.885608969430625,-8.903549067386985,-1.341354256581515
1758972609293469000,7.929468994140625,-3.97860815564543,-8.864203145426512,-1.3292593296401203
1758972609303426000,7.939426025390625,-4.038361490340531,-8.84438259266913,-1.2801964619159698
1758972609313383000,7.9493828125,-4.076506219817698,-8.833585888844729,-1.23298375210315
1758972609323340800,7.9593408203125,-4.116819525505602,-8.817745345634222,-1.2122374628029764
1758972609333298000,7.9692978515625,-4.170263823184371,-8.796754580053687,-1.181706496265158
1758972609343255000,7.979255126953125,-4.2132708980008955,-8.786779714006185,-1.1005481161002069
1758972609353213000,7.989212890625,-4.211011136375367,-8.803409946289658,-0.9683767570566385
1758972609363169800,7.999169677734375,-4.14058443197459,-8.852217524078489,-0.8150006243556738
1758972609373127000,8.009126953125,-3.995239264711737,-8.932655919405818,-0.6450539536692201
1758972609383083800,8.019083740234375,-3.7794299836471676,-9.037746525430679,-0.4532555531913414
1758972609393042200,8.029042236328126,-3.4977138136938213,-9.158228177332878,-0.2515287196235731
1758972609402999000,8.0389990234375,-3.153999744988978,-9.28534123007357,-0.07164632302334066
1758972609412956000,8.048955810546875,-2.764780354911089,-9.408684701147674,0.0548088959962828
1758972609422913000,8.0589130859375,-2.3510509390853342,-9.520169976645708,0.09650360500602982
1758972609432871200,8.06887109375,-1.9438002177543936,-9.611827100601792,0.06925382926308084
1758972609442828000,8.078828125,-1.6041835013657808,-9.674542792233824,0.014919772820489015
1758972609452785000,8.088784912109375,-1.4120473568335175,-9.704406015577911,-0.03212069939769571
1758972609462743000,8.098742919921875,-1.466722657611966,-9.696043260902165,-0.07662056320537812
1758972609472700200,8.1087001953125,-1.8284169119045137,-9.633450318866968,-0.1546155748354271
1758972609482657000,8.118656982421875,-2.4418710276953877,-9.492945869633555,-0.30269508069930595
1758972609492614100,8.1286142578125,-3.1505554497539996,-9.274576090431212,-0.47606509516425427
1758972609502572000,8.138572021484375,-3.7886300659298895,-9.025764411213993,-0.5935024839997292
1758972609512529000,8.14852880859375,-4.187696896283328,-8.849190869733691,-0.5704504019752145
1758972609522486000,8.158486083984375,-4.19478977715373,-8.861810112810135,-0.2060045839522034
1758972609532444000,8.16844384765625,-3.857929227605462,-9.009064620825647,0.3514397675860673
1758972609542401000,8.178401123046875,-3.445348251162469,-9.14945976446569,0.7663773901578038
1758972609552358000,8.18835791015625,-3.07205649805665,-9.260307911103963,0.9897343101229518
1758972609562315000,8.19831494140625,-2.6775319873079657,-9.370932185858488,1.0894188923858106
1758972609572273000,8.20827294921875,-2.1927561277478933,-9.491335511827469,1.129936707669869
1758972609582230000,8.21822998046875,-1.6263810123875737,-9.609252281677723,1.0897418407298625
1758972609592187000,8.228186767578125,-1.1989883243251591,-9.689754389891029,0.9173175278834999
1758972609602145000,8.23814501953125,-1.1096692879278212,-9.721543028339743,0.6562081656944007
1758972609612102100,8.24810205078125,-1.1376408523064105,-9.733715112170577,0.36184191913492975
1758972609622059000,8.25805908203125,-1.2020687546838074,-9.732244455096126,0.09400503878910094
1758972609632016000,8.268015869140624,-1.1788359823301433,-9.735140176537632,-0.08822352364505641
1758972609641974000,8.27797412109375,-0.7922321815781295,-9.773144620761276,-0.1685051849075593
1758972609651931100,8.28793115234375,-0.176008692405466,-9.803876443633436,-0.1530337581372354
1758972609661888000,8.297887939453124,0.4008441787568852,-9.797725519788264,-0.11957571603842079
1758972609671846000,8.307845947265625,0.7881118867777287,-9.774063489171862,-0.1301835462272167
1758972609681803000,8.317802978515624,1.054749803129956,-9.747943544009328,-0.18835704611865803
1758972609691760000,8.327760009765624,1.340680156712234,-9.710684365195036,-0.2748837118511088
1758972609701717000,8.337717041015624,1.674441278940439,-9.655708912426233,-0.36592860392667353
1758972609711675000,8.3476748046875,2.02175950961709,-9.586320903423427,-0.43049554944857954
1758972609721632000,8.357632080078124,2.3246713200733065,-9.515091650468111,-0.4788629822544753
1758972609731589000,8.367589111328124,2.551966164009273,-9.453721528226136,-0.5338733602061867
1758972609741547000,8.377547119140624,2.706782339450717,-9.405804761797189,-0.6120121733542532
1758972609751504000,8.38750390625,2.822399892447889,-9.365040789732337,-0.7074221470378339
1758972609761461000,8.3974609375,2.9172058358237147,-9.327889747467637,-0.8067069163281471
1758972609771418000,8.407418212890626,2.978257685896754,-9.299985841497778,-0.9003514147091657
1758972609781376000,8.4173759765625,3.0030525199353693,-9.284436390188336,-0.9753500301353633
1758972609791332900,8.427332763671876,2.9807375200137494,-9.286691475638747,-1.0212502691101282
1758972609801290000,8.4372900390625,2.8964485867381096,-9.309149391162395,-1.0586349009349942
1758972609811248000,8.447248046875,2.7570281333491207,-9.345985376128553,-1.1053243905913084
1758972609821205000,8.457205078125,2.573436237539351,-9.393034712073206,-1.1483490741297602
1758972609831161900,8.467161865234376,2.3459091922827064,-9.450561602890492,-1.1636070682119577
1758972609841119000,8.477118896484376,2.078914936773479,-9.514183303451537,-1.152752204459533
1758972609851077000,8.4870771484375,1.7879944467537103,-9.574394318786263,-1.1421201896775512
1758972609861034000,8.497033935546876,1.5147693340308963,-9.622034606361389,-1.1368000906333326
1758972609870991000,8.5069912109375,1.2773115541294215,-9.659078681120276,-1.1140385890532285
1758972609880949000,8.516948974609376,1.0340843970462679,-9.693199561908841,-1.0690903901062905
1758972609890906000,8.526906005859376,0.7444773277126252,-9.72354501581192,-1.0338321027856319
1758972609900863000,8.536863037109375,0.3995436540849507,-9.743801037377118,-1.0339665428202598
1758972609910820000,8.546820068359375,0.010309936370898503,-9.748733817604183,-1.06418625145182
1758972609920778000,8.556778076171875,-0.39660434923004356,-9.740840434005856,-1.062597594020888
1758972609930735000,8.566735107421875,-0.8086399302173405,-9.719898768264054,-1.0198232319816947
1758972609940692000,8.57669189453125,-1.2163682059321552,-9.67975322035849,-0.9966078491542488
1758972609950649900,8.58664990234375,-1.6004996982865034,-9.624255789542197,-0.9912044557407498
1758972609960607000,8.59660693359375,-1.9702074554257094,-9.55795113350749,-0.9665716803960501
1758972609970564000,8.606564208984375,-2.3365486587412656,-9.47984264243245,-0.9184161367751658
1758972609980522000,8.61652197265625,-2.6829519665300845,-9.392234501606225,-0.8706929201569408
1758972609990479000,8.62647900390625,-2.9897774432986974,-9.301151378145814,-0.8486577600900084
1758972610000436000,8.63643603515625,-3.253616595777869,-9.208255652305484,-0.8901714545436203
1758972610010392800,8.646392822265625,-3.5016593364492055,-9.104092097997665,-1.0120577856119721
1758972610020351000,8.65635107421875,-3.768258893552422,-8.97922010218203,-1.1594058171298354
1758972610030308000,8.66630810546875,-4.010287488500774,-8.853645511054992,-1.3041994149245322
1758972610040265000,8.676264892578125,-4.182413110661506,-8.748554905030131,-1.4630791865430772
1758972610050223000,8.68622314453125,-4.282768504858017,-8.669284384438395,-1.6345738173238933
1758972610060180000,8.696179931640625,-4.346938194690645,-8.604580733859539,-1.7988146775841711
1758972610070137000,8.70613720703125,-4.392989167247713,-8.549810448274016,-1.9423662394285202
1758972610080094200,8.71609423828125,-4.433086784358323,-8.505491998597979,-2.043215262360871
1758972610090052000,8.726052001953125,-4.470224674880504,-8.476890173491835,-2.080816532611102
1758972610100009000,8.736009033203125,-4.497102160412073,-8.467323888245225,-2.0617771933592857
1758972610109966000,8.745966064453125,-4.5007861096218225,-8.476160105651617,-2.016924929067492
1758972610119924000,8.755924072265625,-4.469508051043748,-8.507932377487421,-1.9516519541680812
1758972610129880800,8.765880859375,-4.39354358626008,-8.570954943111538,-1.8455111084379254
1758972610139838000,8.775837890625,-4.251452160096168,-8.671976692262291,-1.700688503744453
1758972610149795000,8.785795166015625,-4.045593779681623,-8.798954135924577,-1.543366190700978
1758972610159753000,8.7957529296875,-3.796668995478749,-8.935245935899019,-1.384584911020845
1758972610169709800,8.805709716796875,-3.5181726643547413,-9.071899554923176,-1.222092794124037
1758972610179667000,8.8156669921875,-3.2128295350983738,-9.204115483760834,-1.0641174970645457
1758972610189625000,8.825625,-2.890908780528605,-9.325207376515865,-0.9238934722077101
1758972610199582200,8.835582275390625,-2.5837206079274413,-9.425715915447473,-0.8066300516996532
1758972610209538800,8.845538818359374,-2.334691632697731,-9.498128825229406,-0.7107244034536182
1758972610219496000,8.855495849609374,-2.2343916219502686,-9.528058684068919,-0.6276766293454915
1758972610229454000,8.8654541015625,-2.3828030449159443,-9.496362984600662,-0.5583027219332755
1758972610239411200,8.8754111328125,-2.702267492374778,-9.407480001533031,-0.6061533643234521
1758972610249368000,8.8853681640625,-3.134913936246931,-9.258710997301339,-0.7867512659490108
1758972610259326000,8.895325927734374,-3.631624856011569,-9.060071754485369,-0.9470083903353661
1758972610269283000,8.905282958984374,-4.056261888690293,-8.870805320170522,-1.012885395542532
1758972610279240000,8.915239990234374,-4.247911126488447,-8.793412868410348,-0.8952696544654667
1758972610289197000,8.925197021484376,-4.166698824179172,-8.864829168370365,-0.47310131345521655
1758972610299155000,8.935155029296874,-3.929708807919919,-8.984805208837985,-0.0328297358663287
1758972610309112000,8.945112060546874,-3.6919893083423374,-9.082817839300631,0.20491331811677663
1758972610319069000,8.95506884765625,-3.4897704534739256,-9.160042533278464,0.2923510160132311
1758972610329026800,8.96502685546875,-3.223748696258664,-9.25845205410421,0.24275089960722251
1758972610338984000,8.97498388671875,-2.741551162753999,-9.412940605026483,0.22555740741780025
1758972610348941000,8.984941162109376,-2.058373960787058,-9.585966098636389,0.20671054026447236
1758972610358898000,8.99489794921875,-1.444575999994576,-9.698092010125517,0.17489033763371406
1758972610368856000,9.00485595703125,-1.260626669049263,-9.72359879182577,0.18121997904665768
1758972610378813000,9.01481298828125,-1.3672395162053406,-9.709354577895999,0.17176466162754223
1758972610388770000,9.02477001953125,-1.531135362420231,-9.685719435286522,0.11336350872637703
1758972610398728700,9.034728759765626,-1.542053062275797,-9.684632224571704,0.019518759082502217
1758972610408685600,9.044685546875,-1.1906197244305163,-9.733812727326153,-0.07548862286626827
1758972610418642400,9.054642333984376,-0.6185944012887775,-9.786512636378406,-0.1089561862786766
1758972610428600600,9.0646005859375,-0.07733399957120418,-9.805780815950035,-0.10524543126039207
1758972610438557700,9.0745576171875,0.28829759417027234,-9.801739431604743,-0.11480139604238793
1758972610448514600,9.0845146484375,0.5174060633994638,-9.791849321231245,-0.14961334610134364
1758972610458471400,9.094471435546875,0.7452188667949289,-9.776051448118686,-0.20944831293160093
1758972610468429600,9.1044296875,1.0475072115905582,-9.746529585558175,-0.2797820783519186
1758972610478386400,9.114386474609375,1.3955105019219218,-9.7014255384624,-0.3244742749774828
1758972610488343600,9.124343505859375,1.6991738613978027,-9.652275430846213,-0.3417075146554038
1758972610498301400,9.134301513671875,1.9121695463463664,-9.61113853381574,-0.37414248818363993
1758972610508258600,9.144258544921875,2.056151170171052,-9.577953472572565,-0.45324262064453213
1758972610518215400,9.15421533203125,2.1729336752943693,-9.545855622044206,-0.5704071473553777
1758972610528172500,9.164172607421875,2.2835481593072413,-9.511390457862616,-0.6994540177028625
1758972610538130400,9.17413037109375,2.381958703046292,-9.477039275449513,-0.8260639432270079
1758972610548087600,9.184087646484375,2.4773478531375526,-9.443305348151922,-0.9258084389835596
1758972610558044400,9.19404443359375,2.5569515512064096,-9.417785122448205,-0.96835783316046
1758972610568002600,9.20400244140625,2.591544725681841,-9.409126599696277,-0.9605354689717293
1758972610577959400,9.21395947265625,2.569829152958095,-9.417467142540216,-0.9368380017157644
1758972610587916500,9.22391650390625,2.500167879971862,-9.438754260718822,-0.9107403414502739
1758972610597873400,9.233873291015625,2.3814107137747107,-9.472816689318417,-0.8746376391947269
1758972610607831600,9.24383154296875,2.196878176113963,-9.521343696600198,-0.829537976013124
1758972610617788700,9.25378857421875,1.951660868126899,-9.577388824427127,-0.796896520127356
1758972610627745500,9.26374560546875,1.6950776781253516,-9.626895490396022,-0.7873907328963279
1758972610637703400,9.273703369140625,1.4642420928426085,-9.664332948386669,-0.7918702894631773
1758972610647660500,9.28366064453125,1.241001054342091,-9.69491571817696,-0.7993217745129019
1758972610657617700,9.29361767578125,0.9761271519877016,-9.724064655771851,-0.8124928062532096
1758972610667574500,9.303574462890625,0.6544079844046383,-9.748543263468147,-0.8414503859944641
1758972610677532400,9.313532470703125,0.2985466557829641,-9.763125915572047,-0.8732932388484478
1758972610687489500,9.323489501953125,-0.068684034585068,-9.765950909864902,-0.8898707180313765
1758972610697446700,9.33344677734375,-0.4522622678376734,-9.753899237543344,-0.9095569768846035
1758972610707404500,9.343404541015625,-0.845893409943208,-9.725126147523522,-0.936348537698388
1758972610717361400,9.353361328125,-1.23637807071656,-9.681437812444567,-0.9547333585642278
1758972610727318500,9.363318603515625,-1.6217833093337715,-9.625342415735124,-0.9449676782879978
1758972610737276700,9.373276611328125,-1.9979400964818894,-9.559301379072666,-0.8935115587517619
1758972610747233300,9.3832333984375,-2.3588477304413913,-9.482633734455705,-0.8281916759707033
1758972610757190400,9.3931904296875,-2.701056363019347,-9.394553884464502,-0.7855044807583094
1758972610767147500,9.4031474609375,-3.0124186064347622,-9.299222455909847,-0.7874957276407629
1758972610777105700,9.413105712890625,-3.2679905735671517,-9.206645294499397,-0.8534002784419804
1758972610787062500,9.4230625,-3.4809885966032743,-9.118663059663772,-0.9503042170103638
1758972610797019400,9.433019287109374,-3.689442254208028,-9.027123424607515,-1.0341407303433865
1758972610806977500,9.4429775390625,-3.8861227641716596,-8.936900717368722,-1.095554399466142
1758972610816934700,9.4529345703125,-4.056073672641814,-8.85659851564169,-1.1310846355959772
1758972610826891500,9.4628916015625,-4.1968844113454224,-8.789024862584471,-1.1443712565399706
1758972610836848400,9.472848388671874,-4.307523006886243,-8.735271060565113,-1.1448593323178589
1758972610846806500,9.482806640625,-4.3937756414502855,-8.69254894016981,-1.1422467386666684
1758972610856763600,9.492763671875,-4.471035699002445,-8.653094881659745,-1.142004381278157
1758972610866720500,9.502720458984374,-4.545725321544706,-8.617068459510802,-1.1193282929591835
1758972610876678400,9.512678466796874,-4.605700482296943,-8.593270235294103,-1.055272804090753
1758972610886635500,9.522635498046874,-4.63898812713176,-8.587191207641363,-0.9541098198384046
1758972610896592600,9.532592529296876,-4.6337800370946525,-8.603337455800174,-0.8252680436089634
1758972610906550500,9.542550537109374,-4.578398633873462,-8.645584944421053,-0.6800845697138458
1758972610916507400,9.55250732421875,-4.464838890188932,-8.715590208539366,-0.5235096409715712
1758972610926464500,9.562464599609376,-4.2884138172686095,-8.81187206968665,-0.36161461318507787
1758972610936421400,9.57242138671875,-4.047487338343262,-8.929832094156742,-0.2151751844121143
1758972610946379500,9.582379638671876,-3.7519288132593034,-9.059887630090117,-0.10900637296279891
1758972610956336400,9.59233642578125,-3.4209485539212823,-9.190444101282953,-0.05662372686590533
1758972610966293500,9.60229345703125,-3.071398034147918,-9.313172070807218,-0.041890724772191607
1758972610976251600,9.612251708984376,-2.7220500512093304,-9.42120925167799,-0.040967892572539855
1758972610986208500,9.62220849609375,-2.4287425199225545,-9.501018701452017,-0.04738992041009478
1758972610996165600,9.63216552734375,-2.2907649588182566,-9.535230767655372,-0.04651134291070048
1758972611006122500,9.64212255859375,-2.453728200358152,-9.4946152641505,-0.043467719164793375
1758972611016080600,9.65208056640625,-3.0396675556272266,-9.323112450063228,-0.10198853922314009
1758972611026037500,9.66203759765625,-3.873523394839465,-9.005316666468977,-0.26550297577185555
1758972611035994600,9.67199462890625,-4.683346032035351,-8.605550455674528,-0.42565052057020364
1758972611045952500,9.681952392578125,-5.139847691008448,-8.334389582005143,-0.5387907236684113
1758972611055909400,9.691909423828125,-5.1931262767314905,-8.3065300996989,-0.4509452304223552
1758972611065866500,9.701866455078125,-5.034133400127291,-8.412363633045553,-0.24497960850736125
1758972611075823600,9.71182373046875,-4.898239951820671,-8.491808925682307,-0.2585161856244318
1758972611085781500,9.721781494140625,-4.83848778616935,-8.519665485379099,-0.41804358923044055
1758972611095738400,9.73173828125,-4.772052781753242,-8.550061208164692,-0.5425398836014792
1758972611105695500,9.741695556640625,-4.6957779358461496,-8.589275612699986,-0.5868897513290867
1758972611115653600,9.751653564453125,-4.604641328632831,-8.63587252870202,-0.623967107303068
1758972611125610500,9.761610595703125,-4.4695463372275235,-8.702014687651396,-0.6844499253164976
1758972611135567400,9.7715673828125,-4.292001320366561,-8.787290001615881,-0.7298407534644007
1758972611145525500,9.781525390625,-4.078092612226307,-8.88755362587571,-0.7422561445318162
1758972611155482600,9.791482666015625,-3.8282019056007264,-8.996319705542922,-0.7625337203416973
1758972611165439500,9.801439453125,-3.5729078786268826,-9.098499392557144,-0.7886836953163147
1758972611175396400,9.811396240234375,-3.3410926346570253,-9.18530381578505,-0.7985605078168213
1758972611185354500,9.8213544921875,-3.1269109547942877,-9.262038680419325,-0.7794182196471839
1758972611195311600,9.8313115234375,-2.8954259656921026,-9.340143079841136,-0.7407166600048541
1758972611205268700,9.841268798828125,-2.631027133503556,-9.421231463509798,-0.6989097547583282
1758972611215226400,9.851226318359375,-2.3557515179917217,-9.49702232529223,-0.653731034991145
1758972611225183500,9.86118359375,-2.0814954547859728,-9.56466261384487,-0.5958138296820223
1758972611235140600,9.871140625,-1.7957212416134773,-9.62660147588551,-0.5237659903528169
1758972611245098500,9.881098388671875,-1.488451235947758,-9.682679921460151,-0.4479221197415143
1758972611255055400,9.891055419921875,-1.1793391826119273,-9.728084412807226,-0.3793655565941706
1758972611265012500,9.901012451171875,-0.8992430150758475,-9.760011582943797,-0.3223853033415973
1758972611274969600,9.910969482421875,-0.6672068948969244,-9.779835058310628,-0.2829212531604804
1758972611284927500,9.920927490234375,-0.4816287571733817,-9.7913589073658,-0.26023575769234447
1758972611294884400,9.93088427734375,-0.3323063933752477,-9.79769804725945,-0.25508445761008186
1758972611304841500,9.940841552734375,-0.2119222287644632,-9.800577986609936,-0.2722666246878914
1758972611314799600,9.950799560546875,-0.11269154601525515,-9.801188227462768,-0.3072420216802507
1758972611324756700,9.9607568359375,-0.023418565832905004,-9.800497322589159,-0.34655630639344454
1758972611334713300,9.97071337890625,0.06861305170808918,-9.799016144120692,-0.38071671547479924
1758972611344670500,9.98067041015625,0.15569266601502896,-9.7972304297477,-0.4005124991171062
1758972611354628600,9.990628662109375,0.21825296615594997,-9.796459445375204,-0.39004162971358747
1758972611364585500,10.00058544921875,0.24769034703709183,-9.797521521648765,-0.34295678406413643
1758972611374542600,10.01054248046875,0.23869610779108477,-9.799899941217898,-0.2745026583779603
1758972611384500500,10.02050048828125,0.18883600700832903,-9.802475929185748,-0.21495127599574623
1758972611394457900,10.030457763671874,0.09729262735871598,-9.804530523627996,-0.1792282389738597
1758972611404415000,10.0404150390625,-0.03211753475965233,-9.805227858242391,-0.16391701686708254
1758972611414372600,10.05037255859375,-0.18999885850893333,-9.803269709911941,-0.17379828634699807
1758972611424329700,10.060329833984374,-0.36927221526615317,-9.797337981775403,-0.21488851295784114
1758972611434286800,10.070286865234374,-0.5779144907781854,-9.785423087576032,-0.28619561692234124
1758972611444244000,10.080243896484374,-0.8148880308266728,-9.765007491534949,-0.3885609992343932
1758972611454201600,10.09020166015625,-1.0647582791861145,-9.735599610742925,-0.5047384146040306
1758972611464158700,10.10015869140625,-1.329330349049717,-9.696456517878174,-0.6180540838669986
1758972611474115800,10.11011572265625,-1.6079897617809473,-9.645053662899135,-0.746808620204404
1758972611484074000,10.120073974609374,-1.8830756999395786,-9.581798457562924,-0.9019768970191478
1758972611494030600,10.130030517578126,-2.1612584350697697,-9.507378299611807,-1.053142367933318
1758972611503987700,10.13998779296875,-2.4652199007093905,-9.423357369622588,-1.1372806406918912
1758972611513944800,10.14994482421875,-2.785975995413959,-9.334362158352135,-1.1306631953135131
1758972611523903000,10.159903076171876,-3.1024191953554747,-9.239663182482122,-1.0835075494501738
1758972611533859800,10.16985986328125,-3.41150589505434,-9.134941409769654,-1.0415702227570116
1758972611543816700,10.179816650390626,-3.7080452478691934,-9.019851972299813,-1.0310231097795068
1758972611553774800,10.18977490234375,-3.994561219319701,-8.880227813032269,-1.1642354292433708
1758972611563732000,10.19973193359375,-4.24879112419337,-8.746495634412765,-1.2716129040963946
1758972611573688800,10.209688720703125,-4.422832224586606,-8.651666310161351,-1.3257459146916866
1758972611583646700,10.219646728515626,-4.518234672550856,-8.59143074490726,-1.3940123723186553
1758972611593603800,10.229603759765626,-4.575424878759682,-8.546943952926993,-1.478377147309482
1758972611603560700,10.239560791015625,-4.630246310010552,-8.507330319941044,-1.5350916988305747
1758972611613517800,10.249517822265625,-4.696366257128119,-8.473757136163115,-1.5198668033003806
1758972611623475700,10.259475830078125,-4.753971473878622,-8.45593740183413,-1.4377924773342907
1758972611633432800,10.269432861328125,-4.780502630190551,-8.459688863322139,-1.3231979837745427
1758972611643389700,10.2793896484375,-4.76137064421922,-8.489284960162639,-1.1965662848100065
1758972611653347800,10.289347900390625,-4.676625199347734,-8.554269765770435,-1.0601863681606947
1758972611663304700,10.2993046875,-4.550993909597397,-8.639349849423766,-0.9058187402043492
1758972611673261800,10.30926171875,-4.4036338953807945,-8.729088572537899,-0.7624835975896567
1758972611683220000,10.319219970703125,-4.24608654140979,-8.816659888485074,-0.6384677802119404
1758972611693176800,10.3291767578125,-4.096453613825142,-8.89483033888042,-0.5209825336467474
1758972611703133700,10.3391337890625,-3.9647342363327738,-8.960044861590863,-0.41088578989766533
1758972611713090800,10.3490908203125,-3.84924206328094,-9.014341099923849,-0.30882516268584875
1758972611723048700,10.359048583984375,-3.746586867709458,-9.0599566036731,-0.22505091920038683
1758972611733005800,10.369005859375,-3.6395284687429665,-9.104240566557646,-0.1925341856728308
1758972611742963000,10.378962890625,-3.51633814240396,-9.151627756154536,-0.23120202570864928
1758972611752920800,10.3889208984375,-3.383325802491605,-9.199635707998276,-0.3003543262594379
1758972611762877700,10.398877685546875,-3.262039556208253,-9.240445272770524,-0.379051704872027
1758972611772834800,10.408834716796875,-3.2090701825648544,-9.25444164941907,-0.47707014402095227
1758972611782792000,10.4187919921875,-3.2641952729374166,-9.228414058715105,-0.5931440624834969
1758972611792749800,10.428749755859375,-3.4424446386754513,-9.156009332239627,-0.6981996337275952
1758972611802706700,10.438706787109375,-3.698688513720035,-9.051849869585038,-0.7443709447287022
1758972611812663800,10.448663818359375,-3.964571446986496,-8.94136061938703,-0.7103888878889382
1758972611822621700,10.45862158203125,-4.170468113584816,-8.852994353669882,-0.6340875193011015
1758972611832578800,10.468578857421875,-4.280220281679928,-8.805226640322804,-0.564017519383505
1758972611842535700,10.47853564453125,-4.2602825322836635,-8.81806624815166,-0.5119716903258115
1758972611852493800,10.488493896484375,-4.1624841290935874,-8.866964426833391,-0.470157332425192
1758972611862451000,10.498450927734375,-4.07264253012687,-8.908381309849023,-0.4740704142156988
1758972611872407800,10.50840771484375,-3.9947891828566786,-8.939596532323955,-0.5437240884173661
1758972611882364700,10.51836474609375,-3.8903774990066884,-8.977052695015072,-0.6692203536111861
1758972611892322800,10.52832275390625,-3.7938743963241577,-9.008355595773457,-0.791454329073429
1758972611902280000,10.538280029296875,-3.790524501374364,-9.005114421895145,-0.8427331192813813
1758972611912236800,10.54823681640625,-3.8448192784026265,-8.979187368956207,-0.8728997094862162
1758972611922194700,10.558194580078125,-3.865972833329439,-8.96732391268313,-0.9009676469113678
1758972611932151800,10.56815185546875,-3.8133164711579677,-8.990268734940885,-0.8967184650342911
1758972611942109000,10.57810888671875,-3.735323715417087,-9.027330929878353,-0.8515120535425841
1758972611952065800,10.588065673828124,-3.6703918090403076,-9.061732381173968,-0.7639720825817435
1758972611962023700,10.598023681640624,-3.5940161331072447,-9.102156161499023,-0.6357821213245392
1758972611971980800,10.607980712890624,-3.474806693097949,-9.157325091013313,-0.48942032436504956
1758972611981938000,10.61793798828125,-3.3193887523710726,-9.221395119863748,-0.34338209680411963
1758972611991895800,10.627895751953124,-3.140664462597668,-9.288392434337734,-0.17998364218473434
1758972612001852700,10.637852783203124,-2.9442575088784095,-9.354223043119907,0.01496673321777489
1758972612011809800,10.647809814453124,-2.7304817794680596,-9.415858538299798,0.23756251891758293
1758972612021768000,10.657767822265624,-2.503410515154898,-9.469206097605824,0.4873075699947774
1758972612031724800,10.667724853515624,-2.26904091052711,-9.508986903852223,0.7752604423806071
1758972612041681700,10.677681640625,-2.030343651958555,-9.531528406006098,1.0945653153635562
1758972612051638800,10.687638671875,-1.7959193945340812,-9.534113161802292,1.4302943766638636
1758972612061597000,10.697596923828126,-1.586683792771399,-9.51535234723091,1.7637756590373812
1758972612071553800,10.7075537109375,-1.4172262207761406,-9.476201071059704,2.088896524822712
1758972612081510700,10.7175107421875,-1.2792678027637303,-9.421403312945365,2.4022949502408504
1758972612091468800,10.72746875,-1.1750623090103267,-9.352586966350675,2.7053116823762653
1758972612101426000,10.737426025390626,-1.0978211753543465,-9.27648513892293,2.9852947449266907
1758972612111382800,10.7473828125,-1.0233685764383524,-9.195703044724464,3.2499455060496922
1758972612121340000,10.75733984375,-0.9048159198373555,-9.107269558990001,3.522686926908791
1758972612131297800,10.7672978515625,-0.7378298525221645,-9.01540317619741,3.7879382842734453
1758972612141255000,10.7772548828125,-0.5714279783030971,-8.91855315977335,4.037728453134
1758972612151211800,10.787211669921875,-0.41219946631211785,-8.818395333975554,4.27040732819587
1758972612161169700,10.797169677734376,-0.24832351210778578,-8.717234468615054,4.485368760259449
1758972612171126800,10.807126708984375,-0.0777493023738265,-8.625365747734904,4.665552308930456
1758972612181084000,10.817083984375,0.12140768070593476,-8.547649470847844,4.805552608034015
1758972612191041800,10.827041748046875,0.35362518533375115,-8.484159287711977,4.905545598658919
1758972612200998700,10.83699853515625,0.6054990651331842,-8.432798518308998,4.969069684064388
1758972612210955800,10.846955810546875,0.8542365100704133,-8.388789865234493,5.006881820586323
1758972612220912600,10.85691259765625,1.093005372570455,-8.347085981971025,5.030097861000895
1758972612230870800,10.866870849609375,1.3395841781690716,-8.300531151545048,5.047480372956395
1758972612240828000,10.876827880859375,1.6104663810275495,-8.24168382577896,5.06472259965837
1758972612250784800,10.88678466796875,1.9110501869276164,-8.167319197407364,5.080664849677682
1758972612260743000,10.896742919921875,2.252231230023503,-8.077838832968473,5.08393174251914
1758972612270699800,10.90669970703125,2.6406387191966174,-7.965896461352705,5.073650002479553
1758972612280657000,10.916656982421875,3.062118164627254,-7.828398208197951,5.050742005100846
1758972612290614000,10.926614013671875,3.5010558175981044,-7.673575310754775,5.002922269305587
1758972612300572000,10.936572021484375,3.945037017694115,-7.507050869601964,4.924557757642865
1758972612310528800,10.94652880859375,4.376778913941979,-7.329666596260666,4.825991000428796
1758972612320486000,10.95648583984375,4.777720598256588,-7.14625531771481,4.719618245638907
1758972612330443800,10.96644384765625,5.139112362471223,-6.95964261277914,4.617713576173782
1758972612340400600,10.976400634765625,5.451604194438457,-6.774846017354727,4.533414998286962
1758972612350357800,10.986357666015625,5.706279797253012,-6.600940233778953,4.4761967350274325
1758972612360316000,10.99631591796875,5.895036528480053,-6.446857341048121,4.4561137319415804
1758972612370272800,11.006272705078125,6.028999593245983,-6.309691680848598,4.473180309815705
1758972612380229600,11.016229736328125,6.136508950850367,-6.1754731800168745,4.514108824792504
1758972612390186800,11.026186767578125,6.240040052473545,-6.031553953903913,4.566470003409683
1758972612400144100,11.03614404296875,6.361814082273841,-5.860642675969005,4.620669211108982
1758972612410101200,11.046101318359375,6.5167573912262915,-5.651479116529226,4.665088198550046
1758972612420058400,11.056058349609375,6.703562988385558,-5.395914455920457,4.702843636448681
1758972612430016300,11.066016357421875,6.9130626479119055,-5.090022460609674,4.740423425519466
1758972612439973000,11.07597314453125,7.13170832144618,-4.738729481083155,4.780540039591491
1758972612449930200,11.08593017578125,7.354923787114024,-4.360552294023335,4.802193945255875
1758972612459888000,11.09588818359375,7.579860085225105,-3.9665795719385146,4.793992226360738
1758972612469845200,11.10584521484375,7.797785043269395,-3.56004430540055,4.763508825291693
1758972612479802000,11.115802001953124,7.9926202176272865,-3.1451109206125136,4.732513675308227
1758972612489759200,11.12575927734375,8.155900562292336,-2.7333593807309864,4.709609477321803
1758972612499717000,11.135717041015624,8.2862004283756,-2.341876283504814,4.693067215582728
1758972612509674000,11.145674072265624,8.38282832648158,-1.992902248445153,4.682618594543635
1758972612519631000,11.155631103515624,8.462728961670399,-1.6860734106756745,4.65937274351269
1758972612529589200,11.16558935546875,8.542092421242595,-1.4063291253171861,4.607089598567784
1758972612539546400,11.17554638671875,8.624880594566465,-1.1488437257789075,4.523492154687643
1758972612549503000,11.1855029296875,8.710337110316752,-0.9128530227553099,4.412155055488646
1758972612559460000,11.195460205078126,8.795214949396252,-0.6956571096379309,4.281428780686855
1758972612569418200,11.205418212890624,8.87914469397068,-0.49400659270938485,4.133659016625583
1758972612579375400,11.215375244140626,8.96006941151023,-0.3069095017902553,3.9740848330020904
1758972612589332200,11.225332275390626,9.036735302561521,-0.13612005100357347,3.80647727278769
1758972612599290000,11.2352900390625,9.109532243224978,0.013963523550069657,3.6313369789808987
1758972612609247200,11.245247314453126,9.180252962136269,0.13377493091584183,3.446076273176074
1758972612619204400,11.255204345703126,9.248551422336696,0.22026065271655096,3.253639099870622
1758972612629161200,11.2651611328125,9.311158977419137,0.27541447599325325,3.0654274353057143
1758972612639119000,11.275119140625,9.369223628374934,0.30297300259154286,2.8803204587578772
1758972612649076200,11.285076171875,9.42518107791841,0.30644798522572964,2.6911770663008094
1758972612659033000,11.295033203125,9.477208202275634,0.28179210300007834,2.5046958787903186
1758972612668991000,11.304990966796876,9.521233221963048,0.2266425357733853,2.337763587488979
1758972612678948000,11.314947998046875,9.555569206807016,0.1480760809309315,2.199897816196084
1758972612688905200,11.3249052734375,9.588553192520141,0.10242796268686652,2.0541518130473793
1758972612698863400,11.33486328125,9.625254152929783,0.1931049895644188,1.8675059364944695
1758972612708820200,11.3448203125,9.65011796055138,0.31231691379174586,1.7169933034658431
1758972612718777000,11.354777099609375,9.669285017836094,0.43169864162802696,1.5776402162246406
1758972612728734200,11.364734130859375,9.683855394980311,0.5568516463421285,1.4433435355901718
1758972612738692400,11.3746923828125,9.695114455619454,0.6907471257645637,1.3030749409392475
1758972612748649200,11.384649169921875,9.703452660375833,0.8224924414157867,1.1562403388362377
1758972612758606000,11.394606201171875,9.70571476008892,0.9320099970374256,1.0492132117908448
1758972612768564200,11.404564208984375,9.700408470374345,1.012835053594783,1.0230466510076075
1758972612778521000,11.41452099609375,9.692143330854178,1.0644926139872521,1.0486176570504904
1758972612788478200,11.424478271484375,9.683137602099777,1.1036356337867677,1.0905154554508625
1758972612798435300,11.434435302734375,9.67514601882398,1.1367813859328626,1.1267939526647328
1758972612808393200,11.444393310546875,9.67173474907577,1.1629242005143314,1.1293974131613969
1758972612818350000,11.45435009765625,9.672575291553139,1.1852047136444597,1.0986178786899894
1758972612828307200,11.46430712890625,9.675245387545228,1.2102173551522195,1.0466071940109134
1758972612838265000,11.47426513671875,9.678415249752998,1.2421915793009102,0.9775617879007011
1758972612848222200,11.48422216796875,9.681314478325843,1.2787952168159187,0.8984507687196135
1758972612858179000,11.494178955078125,9.683025958418845,1.3157000292345882,0.8236052249632775
1758972612868136200,11.50413623046875,9.683357382330298,1.351442666006088,0.7593232338625937
1758972612878094000,11.514093994140625,9.682992640671133,1.3837658497229217,0.7037246807593852
1758972612888051200,11.52405126953125,9.681326168763636,1.4127012906976044,0.6682713092580437
1758972612898008000,11.534008056640625,9.67809434723556,1.4413056000217794,0.6538416557587683
1758972612907966200,11.54396630859375,9.674427056899667,1.469196792640537,0.6459886772360652
1758972612917923300,11.55392333984375,9.670798345008492,1.4967162293374539,0.6370862627256662
1758972612927880200,11.563880126953125,9.666797877195476,1.528113968772441,0.6231156050402671
1758972612937838000,11.573838134765625,9.662195351836084,1.5646607615336774,0.6034885655609891
1758972612947795200,11.583795166015625,9.657107088786363,1.605030619714409,0.5783953696303069
1758972612957752300,11.59375244140625,9.651123922723531,1.649393785315007,0.5528922046592458
1758972612967709200,11.603709228515624,9.643704586377739,1.69782200839743,0.5354893075028434
1758972612977667000,11.6136669921875,9.634964230561256,1.748325722579658,0.530292359914258
1758972612987624200,11.623624267578125,9.625852118822932,1.794871346785873,0.5401780498409643
1758972612997581300,11.633581298828124,9.61772492646873,1.8313658248379825,0.5620090656379237
1758972613007539200,11.643539306640625,9.611971477508545,1.8542779138699172,0.5848391389422118
1758972613017496000,11.65349609375,9.609639235168695,1.8617353902690112,0.5993025851132348
1758972613027453200,11.663453125,9.610922845238447,1.85528942900002,0.598702390730381
1758972613037410300,11.673410400390624,9.615552258604765,1.8370980848796665,0.5801785997852683
1758972613047368200,11.6833681640625,9.622391749235987,1.8102745214924216,0.5503380997296422
1758972613057325000,11.693324951171874,9.629671384850143,1.780659427690506,0.518719264889881
1758972613067282200,11.7032822265625,9.635856210964917,1.7555372613936662,0.4886163510384038
1758972613077240300,11.713240234375,9.639520578691362,1.7419037267081439,0.46453923681508746
1758972613087197200,11.723197265625,9.639795888501405,1.7431717008173464,0.4539453620864078
1758972613097154000,11.733154052734376,9.636600891852378,1.7588110223673283,0.46140616295374925
1758972613107111200,11.743111083984376,9.630485623842477,1.7866447857104242,0.4816995208546519
1758972613117069300,11.7530693359375,9.622581718850135,1.8220505917429923,0.506394876574166
1758972613127026200,11.763026123046876,9.61425462000966,1.8589536505959927,0.5298899896584451
1758972613136983000,11.772983154296876,9.606795536175369,1.892824502146244,0.545046897986345
1758972613146941200,11.782941162109376,9.601355975469946,1.9194854223176836,0.5476520024508238
1758972613156898300,11.792898193359376,9.598424598193168,1.9362199917584657,0.5400705708784982
1758972613166855200,11.802855224609376,9.597812019252776,1.9431752177238464,0.525790372319892
1758972613176812300,11.812812255859376,9.598960604766011,1.9423525031641125,0.5075471153492108
1758972613186770200,11.822770263671876,9.600929859012364,1.937289959077537,0.48931898288242515
1758972613196727300,11.832727294921876,9.602717911472917,1.9322846981361508,0.4737755959875881
1758972613206684200,11.84268408203125,9.603483635148406,1.930998311587423,0.4633958024010062
1758972613216642000,11.85264208984375,9.602873978817462,1.9342418235532939,0.4624958213539794
1758972613226599200,11.86259912109375,9.601140286892653,1.940936206625402,0.47037473803553725
1758972613236556300,11.872556396484375,9.598605799978971,1.9499479267291724,0.48462026713956147
1758972613246513200,11.88251318359375,9.596154315173626,1.9580767265185712,0.5001445840077474
1758972613256471000,11.892470947265625,9.595111528122425,1.960432934255898,0.5108103183962405
1758972613266428200,11.90242822265625,9.59413303847909,1.970525435333699,0.48992710484340785
1758972613276385000,11.912385009765625,9.588749007353186,2.0089691477574405,0.4362552089538425
1758972613286343200,11.92234326171875,9.582952303773164,2.038887754550576,0.42467699936293063
1758972613296300300,11.93230029296875,9.577786299312114,2.0604107273116705,0.43715467854421586
1758972613306257200,11.942257080078125,9.5764325466156,2.0617183027788997,0.46004002569969743
1758972613316214000,11.952214111328125,9.579070493903755,2.041780553382635,0.49287294903695583
1758972613326172200,11.962172119140625,9.582391747280955,2.0200538747429846,0.5172360040621832
