time,seconds_elapsed,z,y,x
1758972601413539300,0.049539306640625,0.49582386016845703,-1.7020094394683838,1.2192147970199585
1758972601423496200,0.05949609375,0.3633134961128235,-2.1563663482666016,1.3753578662872314
1758972601433454300,0.069454345703125,0.16397614777088165,-2.9507031440734863,1.40328049659729
1758972601443411500,0.079411376953125,0.24875016510486603,-3.390728235244751,1.4737792015075684
1758972601453368000,0.0893681640625,0.6363272070884705,-3.5303916931152344,1.6016924381256104
1758972601463325200,0.0993251953125,1.2572429180145264,-3.5471086502075195,1.7522292137145996
1758972601473283300,0.109283447265625,1.9298818111419678,-3.719099998474121,1.8470680713653564
1758972601483240400,0.119240478515625,2.4864907264709473,-3.889676332473755,1.8365254402160645
1758972601493197300,0.129197265625,3.0366079807281494,-3.8888604640960693,1.7835400104522705
1758972601503154200,0.139154296875,3.44499135017395,-3.640540599822998,1.6494117975234985
1758972601513111300,0.149111328125,3.5422475337982178,-3.421239137649536,1.4166547060012817
1758972601523069400,0.1590693359375,3.3869690895080566,-3.0405991077423096,1.21664297580719
1758972601533026300,0.1690263671875,2.942186117172241,-2.5166234970092773,1.0000587701797485
1758972601542983200,0.178983154296875,2.534837245941162,-1.9534560441970825,0.7318947315216064
1758972601552940300,0.188940185546875,2.5081610679626465,-1.4389586448669434,0.3416540026664734
1758972601562898400,0.1988984375,2.7167716026306152,-1.396479606628418,0.11765286326408386
1758972601572855300,0.208855224609375,3.059880256652832,-1.7765388488769531,0.12552863359451294
1758972601582812400,0.2188125,3.555384635925293,-2.0792462825775146,0.36360296607017517
1758972601592769300,0.228769287109375,4.127213954925537,-2.6264495849609375,0.7028569579124451
1758972601602727400,0.2387275390625,4.757288932800293,-3.431007146835327,1.1976288557052612
1758972601612684300,0.248684326171875,5.351097583770752,-4.276748180389404,1.7573227882385254
1758972601622641400,0.258641357421875,5.89145040512085,-4.882088661193848,2.2905466556549072
1758972601632598500,0.2685986328125,6.458639621734619,-4.839251518249512,2.7524657249450684
1758972601642556200,0.27855615234375,7.084609031677246,-4.440865993499756,3.1398870944976807
1758972601652513300,0.28851318359375,7.347728729248047,-4.3062663078308105,3.3406848907470703
1758972601662470400,0.298470458984375,7.140039443969727,-4.191558361053467,3.4368274211883545
1758972601672427500,0.308427490234375,6.5858330726623535,-3.7907135486602783,3.5244810581207275
1758972601682385200,0.31838525390625,5.747214317321777,-3.1921961307525635,3.564035415649414
1758972601692342300,0.32834228515625,4.832178592681885,-2.691279888153076,3.4868552684783936
1758972601702299400,0.33829931640625,4.1129255294799805,-2.4354605674743652,3.4007980823516846
1758972601712256300,0.34825634765625,3.6360204219818115,-2.454155683517456,3.289245843887329
1758972601722214100,0.358214111328125,3.551224708557129,-2.650909900665283,3.1465210914611816
1758972601732171300,0.368171142578125,3.6938507556915283,-3.0380098819732666,3.0178780555725098
1758972601742128400,0.37812841796875,3.926837682723999,-3.6385674476623535,2.96217942237854
1758972601752085200,0.388085205078125,4.144802093505859,-4.219302177429199,2.9474358558654785
1758972601762043100,0.398043212890625,4.2188920974731445,-4.752753734588623,3.150965929031372
1758972601772000300,0.408000244140625,4.07392692565918,-4.803704261779785,3.594241142272949
1758972601781957400,0.417957275390625,3.715416431427002,-4.485373497009277,4.008669376373291
1758972601791914200,0.427914306640625,3.5196144580841064,-4.325717449188232,4.289346694946289
1758972601801872100,0.4378720703125,3.208467483520508,-5.045604228973389,2.5990777015686035
1758972601811829200,0.447829345703125,2.1965067386627197,-5.1144118309021,-2.515312671661377
1758972601821786400,0.457786376953125,2.3174164295196533,-3.2226176261901855,-5.0128068923950195
1758972601831743200,0.4677431640625,3.0029029846191406,-2.757599353790283,-4.928299903869629
1758972601841701400,0.477701416015625,3.3293938636779785,-2.144670248031616,-3.570101261138916
1758972601851658200,0.487658203125,2.8177335262298584,-1.2121436595916748,-2.008444309234619
1758972601861615400,0.497615478515625,1.3857697248458862,0.8628516793251038,-0.3098795711994171
1758972601871572200,0.507572265625,0.30627524852752686,2.8431642055511475,1.3870285749435425
1758972601881530400,0.5175302734375,0.27831417322158813,3.594144105911255,2.138814926147461
1758972601891487500,0.527487548828125,0.9987927079200745,3.2416861057281494,1.2356511354446411
1758972601901444000,0.537444091796875,2.1690895557403564,1.6237013339996338,0.22582566738128662
1758972601911401200,0.547401123046875,3.473630905151367,-0.6009572148323059,-0.05371542647480965
1758972601921359400,0.557359375,4.27549934387207,-2.612544536590576,-0.439192533493042
1758972601931316500,0.56731640625,4.4952073097229,-4.222313404083252,-0.7711678147315979
1758972601941273000,0.577273193359375,4.67401647567749,-5.238457202911377,-0.8380802869796753
1758972601951230200,0.587230224609375,4.853381156921387,-5.289251327514648,-0.8736039400100708
1758972601961188400,0.597188232421875,4.6215901374816895,-4.080080986022949,-1.1028296947479248
1758972601971145500,0.6071455078125,2.2577507495880127,-1.2186046838760376,-0.8685145974159241
1758972601981102300,0.617102294921875,-0.8947182297706604,1.3010923862457275,0.20641495287418365
1758972601991059200,0.62705908203125,-0.8854494094848633,0.3053934574127197,0.4205717146396637
1758972602001017300,0.637017333984375,-0.24794429540634155,-0.41295987367630005,0.34903842210769653
1758972602010974500,0.646974365234375,-0.2216213345527649,-0.3269379138946533,0.19703024625778198
1758972602020931300,0.656931396484375,-0.32581645250320435,-0.06096374988555908,0.08986224234104156
1758972602030888200,0.66688818359375,-0.2003922164440155,0.36434945464134216,-0.025136511772871017
1758972602040846300,0.676846435546875,0.05499054864048958,0.7425942420959473,-0.2742674946784973
1758972602050803200,0.68680322265625,0.15118499100208282,1.1076891422271729,-0.5272840261459351
1758972602060760300,0.69676025390625,0.09436192363500595,1.3395627737045288,-0.8490644693374634
1758972602070717400,0.706717529296875,-0.09572146832942963,1.2764427661895752,-1.3948569297790527
1758972602080675300,0.71667529296875,-0.2317783683538437,1.4611300230026245,-1.371358871459961
1758972602090632200,0.726632080078125,-0.3544590175151825,1.3287290334701538,-1.0678578615188599
1758972602100589300,0.73658935546875,-0.46291571855545044,1.0098257064819336,-0.7867177724838257
1758972602110546400,0.74654638671875,-0.5010324716567993,0.5302982330322266,-0.6860699653625488
1758972602120504300,0.75650439453125,-0.48884159326553345,0.34217706322669983,-0.6995306611061096
1758972602130461200,0.766461181640625,-0.4410780668258667,0.5825886130332947,-0.7141199707984924
1758972602140418300,0.776418212890625,-0.38534635305404663,0.8304979801177979,-0.474229633808136
1758972602150375400,0.78637548828125,-0.14388686418533325,0.4700649678707123,0.10406488180160522
1758972602160333300,0.796333251953125,0.2971680164337158,-0.353781521320343,1.0026692152023315
1758972602170290200,0.806290283203125,0.19843240082263947,-1.1658653020858765,1.51646888256073
1758972602180247300,0.816247314453125,0.1872018426656723,-1.9216389656066895,1.7643226385116577
1758972602190204400,0.826204345703125,0.34318506717681885,-2.4253616333007812,1.9756990671157837
1758972602200162300,0.836162353515625,0.40469449758529663,-2.5785531997680664,1.9957941770553589
1758972602210119200,0.846119140625,0.6191274523735046,-2.175860643386841,1.7969013452529907
1758972602220076300,0.856076171875,0.8958748579025269,-1.4250478744506836,1.3170233964920044
1758972602230033400,0.866033447265625,1.062857985496521,-0.7501040697097778,0.7448443174362183
1758972602239991300,0.8759912109375,1.0897114276885986,-0.4057363271713257,0.3790147006511688
1758972602249948200,0.8859482421875,0.9074942469596863,-0.18378235399723053,0.20981235802173615
1758972602259905300,0.8959052734375,0.5668607354164124,-0.07244516909122467,-0.18652114272117615
1758972602269862400,0.9058623046875,0.31906402111053467,0.15970072150230408,-0.5479635000228882
1758972602279820300,0.9158203125,0.13362278044223785,0.547076404094696,-0.7951192259788513
1758972602289777200,0.925777099609375,0.09687035530805588,1.0315279960632324,-0.9280359745025635
1758972602299734300,0.935734375,-0.2601436972618103,1.5708900690078735,-0.686498761177063
1758972602309691100,0.945691162109375,-0.6487804055213928,1.5793988704681396,-0.4264626204967499
1758972602319649300,0.955649169921875,-0.7637940645217896,1.2081587314605713,-0.40440845489501953
1758972602329606400,0.9656064453125,-0.7454331517219543,0.9739680886268616,-0.41005462408065796
1758972602339563300,0.975563232421875,-0.8457784056663513,0.8799643516540527,-0.41813012957572937
1758972602349520100,0.98552001953125,-0.6958144903182983,0.4137937128543854,-0.23380370438098907
1758972602359478300,0.995478271484375,-0.26483431458473206,-0.33727017045021057,0.15694087743759155
1758972602369435400,1.005435302734375,0.29045313596725464,-1.0523587465286255,0.604016125202179
1758972602379392500,1.015392578125,0.8085620403289795,-1.608132243156433,0.6487354040145874
1758972602389348900,1.025348876953125,1.1882872581481934,-1.1059333086013794,0.4331604838371277
1758972602399307000,1.03530712890625,1.4321649074554443,0.1481713503599167,0.2650143504142761
1758972602409263900,1.045263916015625,1.521185040473938,0.6810283660888672,0.19178088009357452
1758972602419221000,1.055220947265625,1.62228262424469,0.5453804731369019,0.37890443205833435
1758972602429178000,1.06517822265625,1.8043560981750488,0.2681422233581543,0.7066090703010559
1758972602439136000,1.075135986328125,2.1216349601745605,-0.009733321145176888,0.9138869047164917
1758972602449092900,1.0850927734375,2.56929612159729,-0.0871221199631691,0.9373711943626404
1758972602459050000,1.095050048828125,3.0956053733825684,-0.18477463722229004,0.8693950772285461
1758972602469007000,1.105007080078125,3.4918174743652344,-0.3052842915058136,0.7405305504798889
1758972602478965000,1.114965087890625,3.4739890098571777,-0.42400240898132324,0.553952693939209
1758972602488921900,1.124921875,3.0987441539764404,-0.21992570161819458,0.6786749362945557
1758972602498879000,1.13487890625,2.555109977722168,-0.31764933466911316,0.7953962087631226
1758972602508836000,1.144836181640625,2.180701971054077,-0.7843453884124756,0.7818649411201477
1758972602518793700,1.154793701171875,2.190119743347168,-1.281121850013733,0.6106892228126526
1758972602528750800,1.164750732421875,2.360755681991577,-1.6207306385040283,0.5152273774147034
1758972602538708000,1.1747080078125,2.4343807697296143,-1.5171689987182617,0.49376657605171204
1758972602548664800,1.184664794921875,2.373817205429077,-1.4373098611831665,0.7740182280540466
1758972602558622000,1.1946220703125,2.3551690578460693,-1.1388773918151855,1.0159351825714111
1758972602568579800,1.204579833984375,2.584385871887207,-1.1633368730545044,1.562398076057434
1758972602578537000,1.214536865234375,3.4069535732269287,-0.8481294512748718,2.9957103729248047
1758972602588493800,1.224493896484375,4.060695171356201,-0.08758657425642014,2.8505916595458984
1758972602598452000,1.234451904296875,4.547656536102295,-0.8456143736839294,1.7157825231552124
1758972602608408800,1.244408935546875,5.275362014770508,-3.4671714305877686,0.33691784739494324
1758972602618366000,1.254365966796875,5.312393665313721,-5.093969821929932,-0.993589460849762
1758972602628322800,1.26432275390625,2.7972395420074463,-5.820014476776123,-0.9212782382965088
1758972602638280000,1.274280029296875,1.23932945728302,-6.523360729217529,1.3290209770202637
1758972602648237800,1.28423779296875,0.7848652601242065,-4.267704486846924,1.8361515998840332
1758972602658195000,1.29419482421875,0.2138960361480713,-1.2859877347946167,1.6360360383987427
1758972602668151800,1.30415185546875,0.43394559621810913,0.0950269103050232,1.2320119142532349
1758972602678109000,1.31410888671875,0.6645652055740356,-0.08240991830825806,0.5850429534912109
1758972602688067000,1.324067138671875,0.9615228772163391,-0.7492995262145996,0.1698273867368698
1758972602698024000,1.33402392578125,1.1436207294464111,-1.3237718343734741,-0.03911411389708519
1758972602707980800,1.343980712890625,1.0024393796920776,-1.6687144041061401,-0.039572976529598236
1758972602717938000,1.35393798828125,0.6930810213088989,-1.7723424434661865,0.08851788192987442
1758972602727896000,1.36389599609375,0.45248785614967346,-1.716997742652893,0.1770714521408081
1758972602737853000,1.37385302734375,0.2973320782184601,-1.5167863368988037,0.15978620946407318
1758972602747809800,1.383809814453125,0.18688492476940155,-1.115388035774231,0.0721205323934555
1758972602757767000,1.393766845703125,0.07780291885137558,-0.5391066074371338,0.020777450874447823
1758972602767725000,1.40372509765625,0.02221209555864334,0.07382149249315262,-0.02279612608253956
1758972602777682000,1.413681884765625,-0.02196548692882061,0.652427613735199,-0.14832742512226105
1758972602787638800,1.423638671875,-0.055388957262039185,1.1205286979675293,-0.2955288589000702
1758972602797596000,1.433595947265625,-0.1080646812915802,1.5604989528656006,-0.5091729760169983
1758972602807554000,1.443553955078125,-0.13480176031589508,1.857983112335205,-0.7039472460746765
1758972602817511000,1.453510986328125,-0.25103142857551575,2.0496034622192383,-0.8693671226501465
1758972602827468000,1.463468017578125,-0.32539406418800354,2.269465923309326,-1.0011358261108398
1758972602837425000,1.4734248046875,-0.4772006571292877,2.3397223949432373,-0.8264870047569275
1758972602847383000,1.483383056640625,-0.5996679663658142,2.1987977027893066,-0.2946667969226837
1758972602857340000,1.49333984375,-0.1859094202518463,1.957069754600525,-0.09208811819553375
1758972602867297000,1.503297119140625,0.30871015787124634,1.4469119310379028,-0.22827711701393127
1758972602877254000,1.51325390625,0.6354140043258667,0.47210973501205444,-0.5542970299720764
1758972602887212000,1.5232119140625,0.8525061011314392,-0.6814488768577576,-0.9141380190849304
1758972602897169000,1.5331689453125,0.9815998673439026,-1.6006252765655518,-1.2941029071807861
1758972602907126000,1.5431259765625,0.9781622886657715,-2.154402494430542,-1.579606056213379
1758972602917083100,1.553083251953125,0.965796709060669,-2.586355447769165,-1.6816307306289673
1758972602927040800,1.563040771484375,0.9671362638473511,-2.897609233856201,-1.58370840549469
1758972602936998000,1.572997802734375,0.9506041407585144,-2.865933418273926,-1.4624322652816772
1758972602946955000,1.582955078125,0.9344561100006104,-2.522472620010376,-1.5212801694869995
1758972602956912000,1.592912109375,0.9515535831451416,-2.0215296745300293,-1.8355950117111206
1758972602966869800,1.602869873046875,0.9290852546691895,-1.5739681720733643,-2.321378469467163
1758972602976827000,1.612826904296875,0.9095858931541443,-1.2223418951034546,-2.816650152206421
1758972602986784000,1.622783935546875,0.9678680896759033,-1.0197871923446655,-3.122800350189209
1758972602996740900,1.632740966796875,1.0651895999908447,-0.8452407121658325,-3.1248703002929688
1758972603006698800,1.64269873046875,1.0462747812271118,-0.656907320022583,-2.8227908611297607
1758972603016656000,1.65265576171875,0.8892835378646851,-0.7222862839698792,-2.3347980976104736
1758972603026613000,1.662613037109375,0.5977768898010254,-0.746126651763916,-1.931954264640808
1758972603036569900,1.67256982421875,0.30178409814834595,-0.4225001037120819,-1.8177871704101562
1758972603046527700,1.68252783203125,0.10270614176988602,-0.48235252499580383,-1.913811206817627
1758972603056484900,1.69248486328125,-0.08197662234306335,-1.1805521249771118,-2.1877877712249756
1758972603066442000,1.70244189453125,-0.30240246653556824,-2.0647053718566895,-2.4195899963378906
1758972603076398800,1.71239892578125,-0.5161195397377014,-2.7801589965820312,-2.419776201248169
1758972603086357000,1.72235693359375,-0.6034682989120483,-3.054894208908081,-2.3720810413360596
1758972603096313900,1.73231396484375,-0.6396662592887878,-2.7999067306518555,-2.4054641723632812
1758972603106271000,1.74227099609375,-0.5500274300575256,-2.407015323638916,-2.4590084552764893
1758972603116227800,1.752227783203125,-0.35585343837738037,-2.4733633995056152,-2.478010416030884
1758972603126185000,1.76218505859375,-0.20367802679538727,-2.8852977752685547,-2.5050079822540283
1758972603136142800,1.772142822265625,-0.0733751505613327,-3.1236727237701416,-2.54282283782959
1758972603146100000,1.782099853515625,0.10916909575462341,-3.0103697776794434,-2.4836227893829346
1758972603156056800,1.792056884765625,0.2052122801542282,-2.4989359378814697,-2.262890338897705
1758972603166014000,1.802013916015625,0.26499250531196594,-1.7152960300445557,-1.899309754371643
1758972603175972000,1.81197216796875,0.27893391251564026,-0.853573203086853,-1.4836467504501343
1758972603185928700,1.8219287109375,0.19279848039150238,-0.09185376018285751,-1.1477547883987427
1758972603195885800,1.8318857421875,0.09517711400985718,0.4128413796424866,-0.8500509262084961
1758972603205843000,1.841843017578125,-0.030726753175258636,0.739100456237793,-0.5328298211097717
1758972603215801000,1.851801025390625,-0.20452624559402466,0.9869227409362793,-0.15582288801670074
1758972603225758000,1.861758056640625,-0.42145082354545593,1.1081397533416748,0.2786097824573517
1758972603235714800,1.87171484375,-0.5838527679443359,1.215356707572937,0.723404586315155
1758972603245672000,1.881671875,-0.7109095454216003,1.553759217262268,1.14788019657135
1758972603255630000,1.891630126953125,-0.8111770153045654,1.9675023555755615,1.554857611656189
1758972603265587000,1.9015869140625,-0.8619435429573059,2.2835488319396973,1.9024150371551514
1758972603275543800,1.911543701171875,-0.8675026297569275,2.2620112895965576,2.111567974090576
1758972603285501000,1.9215009765625,-0.8543514013290405,2.0256471633911133,2.1964781284332275
1758972603295459000,1.931458984375,-0.839158833026886,1.702868103981018,2.2173337936401367
1758972603305416000,1.941416015625,-0.7858580946922302,1.3730148077011108,2.2185208797454834
1758972603315373000,1.951373046875,-0.670660138130188,1.2031378746032715,2.2469048500061035
1758972603325330000,1.961329833984375,-0.4960784614086151,1.1384555101394653,2.311397075653076
1758972603335287800,1.971287841796875,-0.29880213737487793,1.1685646772384644,2.325331687927246
1758972603345245000,1.981244873046875,-0.09860087186098099,1.3034378290176392,2.159590244293213
1758972603355202000,1.9912021484375,0.05017581954598427,1.430821418762207,1.6214946508407593
1758972603365159000,2.001158935546875,0.12706980109214783,1.3793174028396606,0.7114784121513367
1758972603375116800,2.01111669921875,0.13134364783763885,1.4226739406585693,-0.19522061944007874
1758972603385074400,2.021074462890625,0.09209956973791122,2.020651340484619,-0.7838484644889832
1758972603395031300,2.03103125,-0.07355810701847076,3.2373251914978027,-0.7523424625396729
1758972603404988400,2.040988525390625,-0.13479216396808624,4.385347366333008,0.025197232142090797
1758972603414946300,2.0509462890625,0.18295596539974213,4.671471118927002,1.3234648704528809
1758972603424903400,2.0609033203125,0.537966251373291,3.020814895629883,2.163865804672241
1758972603434860300,2.0708603515625,0.6112101078033447,0.2562080919742584,2.2918052673339844
1758972603444817400,2.0808173828125,0.42608046531677246,-3.6242330074310303,0.8129876852035522
1758972603454775300,2.090775390625,0.384458988904953,-5.01272439956665,-1.8370463848114014
1758972603464732400,2.100732421875,0.9873448610305786,-3.0478596687316895,-2.3832294940948486
1758972603474689300,2.110689208984375,1.3933919668197632,-0.8992325663566589,-1.2399626970291138
1758972603484646400,2.120646484375,1.3007539510726929,0.6026216745376587,0.06120956316590309
1758972603494603500,2.130603515625,0.9365586638450623,1.482229471206665,1.0971944332122803
1758972603504561200,2.14056103515625,0.6613553166389465,1.9022458791732788,1.6973323822021484
1758972603514518300,2.150518310546875,0.90556800365448,2.972348213195801,2.1317310333251953
1758972603524475400,2.160475341796875,1.0463831424713135,4.7508673667907715,2.47232723236084
1758972603534432500,2.1704326171875,0.8993761539459229,5.743633270263672,2.7311770915985107
1758972603544390100,2.18039013671875,0.5800577998161316,5.52457857131958,3.040846109390259
1758972603554347300,2.19034716796875,0.19543340802192688,4.418973922729492,3.274000644683838
1758972603564304400,2.200304443359375,-0.12026596069335938,2.7291629314422607,3.194157361984253
1758972603574261200,2.21026123046875,-0.3920583128929138,0.8132740259170532,2.774152994155884
1758972603584219100,2.22021923828125,-0.6076659560203552,-0.7565843462944031,2.4295074939727783
1758972603594176300,2.23017626953125,-0.6772977709770203,-1.2602077722549438,2.450326919555664
1758972603604133400,2.24013330078125,-0.6703789234161377,-1.1826040744781494,2.8683483600616455
1758972603614090200,2.25009033203125,-0.6110796332359314,-0.940466582775116,3.2793309688568115
1758972603624048000,2.260048095703125,-0.4594607949256897,-0.7133175730705261,3.4672343730926514
1758972603634005200,2.270005126953125,-0.4046313762664795,-0.5989582538604736,3.4084668159484863
1758972603643962400,2.27996240234375,-0.4653303921222687,-0.587647020816803,3.2269039154052734
1758972603653919200,2.289919189453125,-0.5333099961280823,-0.33989471197128296,2.952569007873535
1758972603663877400,2.29987744140625,-0.6391139030456543,-0.01956145092844963,2.6766908168792725
1758972603673834200,2.309834228515625,-0.6832004189491272,0.05342381075024605,2.5342204570770264
1758972603683791400,2.319791259765625,-0.6735967993736267,-0.11582593619823456,2.3684206008911133
1758972603693748200,2.329748291015625,-0.4903976619243622,-0.32456421852111816,1.9798372983932495
1758972603703706400,2.339706298828125,-0.06764908134937286,-0.5809584856033325,1.4828799962997437
1758972603713663200,2.349663330078125,0.3260902166366577,-0.8202280402183533,1.0640332698822021
1758972603723620400,2.359620361328125,0.39770635962486267,-0.8711476922035217,0.6386955380439758
1758972603733577200,2.3695771484375,0.39940518140792847,-0.6162938475608826,-0.0012950951931998134
1758972603743535400,2.379535400390625,0.5038785934448242,-0.00038535939529538155,-0.7903332710266113
1758972603753492500,2.389492431640625,0.42691856622695923,0.9908937811851501,-1.4813960790634155
1758972603763449000,2.399448974609375,0.20666076242923737,2.0303752422332764,-1.898055076599121
1758972603773406200,2.40940625,0.006248041987419128,2.3310251235961914,-2.155595541000366
1758972603783364400,2.4193642578125,-0.22160403430461884,1.6330722570419312,-2.3865532875061035
1758972603793321500,2.429321533203125,-0.4013892412185669,0.5365385413169861,-2.6180059909820557
1758972603803278000,2.439278076171875,-0.44995570182800293,-0.24932940304279327,-2.7271077632904053
1758972603813235200,2.449235107421875,-0.4346281588077545,-0.7311764359474182,-2.7907302379608154
1758972603823193300,2.459193359375,-0.32750436663627625,-1.3660274744033813,-2.976893424987793
1758972603833150500,2.469150390625,-0.004746019374579191,-2.198237895965576,-3.3052172660827637
1758972603843107300,2.479107421875,0.32998910546302795,-2.996084690093994,-3.6667346954345703
1758972603853064200,2.489064208984375,0.5867910385131836,-3.6053507328033447,-3.911041498184204
1758972603863022300,2.499022216796875,0.891598641872406,-4.1940083503723145,-3.9785332679748535
1758972603872979500,2.5089794921875,1.0821049213409424,-4.796292304992676,-3.874490976333618
1758972603882936300,2.518936279296875,1.1180781126022339,-5.235101222991943,-3.709357261657715
1758972603892893400,2.5288935546875,1.2715595960617065,-5.095982074737549,-3.6803817749023438
1758972603902851300,2.538851318359375,1.4517098665237427,-3.7218315601348877,-3.8732616901397705
1758972603912808400,2.548808349609375,1.452069640159607,-1.3836733102798462,-4.032349586486816
1758972603922765300,2.558765380859375,1.333330750465393,0.9722314476966858,-3.9186065196990967
1758972603932722400,2.568722412109375,1.1958719491958618,1.8799043893814087,-3.5754177570343018
1758972603942680300,2.578680419921875,1.0076208114624023,1.3031193017959595,-3.3247456550598145
1758972603952637200,2.58863720703125,0.6215975284576416,0.18715177476406097,-3.2306249141693115
1758972603962594300,2.59859423828125,0.1250133067369461,-1.08982515335083,-3.188417911529541
1758972603972551400,2.608551513671875,-0.32868361473083496,-2.077043056488037,-3.2096900939941406
1758972603982509300,2.61850927734375,-0.5369516015052795,-2.7133967876434326,-3.260650157928467
1758972603992466200,2.628466064453125,-0.6173228621482849,-3.045431137084961,-3.1532392501831055
1758972604002423300,2.63842333984375,-0.7239918112754822,-3.1800100803375244,-2.8174922466278076
1758972604012380400,2.64838037109375,-0.9190505146980286,-3.128404140472412,-2.333406925201416
1758972604022338300,2.65833837890625,-1.1267973184585571,-3.140033721923828,-1.8752243518829346
1758972604032295200,2.668295166015625,-1.1973159313201904,-3.2499561309814453,-1.4980642795562744
1758972604042252300,2.678252197265625,-1.1784753799438477,-2.865053653717041,-1.1122636795043945
1758972604052209400,2.68820947265625,-1.196149230003357,-2.0186033248901367,-0.6951337456703186
1758972604062167300,2.698167236328125,-1.1986802816390991,-0.8941880464553833,-0.11236994713544846
1758972604072124200,2.708124267578125,-1.1112172603607178,-0.019357185810804367,0.5162713527679443
1758972604082081300,2.718081298828125,-1.2090319395065308,0.6975790858268738,1.1923112869262695
1758972604092038400,2.728038330078125,-1.4386355876922607,1.164777398109436,1.8502966165542603
1758972604101996300,2.737996337890625,-1.4149361848831177,1.4959135055541992,2.313082695007324
1758972604111953200,2.747953125,-1.0962543487548828,1.7021487951278687,2.5634474754333496
1758972604121910300,2.75791015625,-0.8646746277809143,1.958707332611084,2.732274055480957
1758972604131867400,2.767867431640625,-0.8099517226219177,2.443324089050293,3.0668694972991943
1758972604141825300,2.7778251953125,-0.6413834691047668,3.0248591899871826,3.4902665615081787
1758972604151782400,2.787782470703125,-0.3224653899669647,3.22515869140625,3.7183706760406494
1758972604161739300,2.7977392578125,-0.18998591601848602,2.985252857208252,3.6291708946228027
1758972604171696000,2.807696044921875,-0.1721390038728714,2.4249634742736816,2.9569664001464844
1758972604181654300,2.817654296875,-0.05018913373351097,2.000899314880371,1.0119519233703613
1758972604191611400,2.827611328125,0.5424091815948486,0.6712718605995178,-1.9996919631958008
1758972604201568300,2.837568359375,1.3487815856933594,-1.7347098588943481,-5.155457019805908
1758972604211525000,2.847525146484375,1.4882487058639526,-2.495400905609131,-6.92703104019165
1758972604221483300,2.857483154296875,1.2386220693588257,-0.7524220943450928,-5.145622253417969
1758972604231440400,2.8674404296875,0.4881606101989746,3.748806953430176,-0.973421037197113
1758972604241397500,2.8773974609375,0.3222140073776245,6.44650936126709,2.2376291751861572
1758972604251354000,2.88735400390625,1.2005200386047363,4.682618618011475,2.8558237552642822
1758972604261312300,2.897312255859375,1.3638945817947388,2.1167402267456055,3.02789568901062
1758972604271269400,2.907269287109375,0.859774112701416,0.15152880549430847,3.888584613800049
1758972604281226500,2.9172265625,0.28518033027648926,-0.012235893867909908,4.356335639953613
1758972604291183400,2.927183349609375,-0.14339818060398102,-0.10130424797534943,3.8836164474487305
1758972604301141200,2.937141357421875,-0.06234007328748703,-0.07103502750396729,3.266493082046509
1758972604311098400,2.947098388671875,-0.0785059928894043,0.7970505356788635,2.2161314487457275
1758972604321055500,2.957055419921875,0.12171445041894913,1.4822299480438232,1.3877322673797607
1758972604331013000,2.96701318359375,0.31252142786979675,1.7891888618469238,1.1535394191741943
1758972604340970200,2.97697021484375,0.06811992824077606,1.6695168018341064,1.3650835752487183
1758972604350927400,2.98692724609375,-0.41112229228019714,1.2401976585388184,1.70296049118042
1758972604360884200,2.99688427734375,-0.8022386431694031,0.5325757265090942,2.2849173545837402
1758972604370842000,3.006842041015625,-1.130461573600769,-0.8682999610900879,3.5550968647003174
1758972604380799200,3.01679931640625,-1.2999991178512573,-1.5155372619628906,4.661514759063721
1758972604390756900,3.0267568359375,-1.1878063678741455,-0.44627654552459717,4.797835826873779
1758972604400713700,3.036713623046875,-0.9815136194229126,0.8983142971992493,4.186887741088867
1758972604410671600,3.046671630859375,-0.697409451007843,1.7440091371536255,3.467400074005127
1758972604420628700,3.056628662109375,-0.27884575724601746,1.8675941228866577,2.9639878273010254
1758972604430585900,3.0665859375,0.1896146684885025,1.265317678451538,2.5616719722747803
1758972604440542700,3.076542724609375,0.3003387749195099,0.23321354389190674,2.479846715927124
1758972604450500600,3.08650048828125,0.15239965915679932,-0.8047678470611572,2.549795627593994
1758972604460457700,3.096457763671875,-0.04351312294602394,-1.6612857580184937,2.4225478172302246
1758972604470414800,3.106414794921875,-0.13437777757644653,-1.7171484231948853,2.1628806591033936
1758972604480371700,3.116371826171875,-0.14956524968147278,-0.9234777092933655,1.9706391096115112
1758972604490329900,3.126329833984375,-0.06318110227584839,0.31626662611961365,1.9767781496047974
1758972604500286700,3.13628662109375,-0.07101452350616455,1.4640251398086548,1.870322585105896
1758972604510243600,3.14624365234375,-0.17101648449897766,2.2584571838378906,1.3573695421218872
1758972604520200700,3.15620068359375,-0.1934613436460495,2.1615636348724365,0.7344310879707336
1758972604530158800,3.166158935546875,-0.07054553925991058,1.059494972229004,0.28077173233032227
1758972604540115700,3.17611572265625,0.06703069806098938,-0.33530476689338684,-0.18598344922065735
1758972604550072600,3.186072509765625,0.07773207873106003,-1.359769344329834,-0.745007336139679
1758972604560030700,3.19603076171875,-0.06825309246778488,-2.1604888439178467,-1.5000033378601074
1758972604569987800,3.20598779296875,-0.12188515812158585,-2.877692222595215,-2.5608904361724854
1758972604579945000,3.215945068359375,0.10850197821855545,-2.957152843475342,-3.493359088897705
1758972604589901600,3.225901611328125,0.49466726183891296,-1.891633152961731,-3.6336820125579834
1758972604599859700,3.235859619140625,0.8469512462615967,-0.33828750252723694,-3.034475803375244
1758972604609816800,3.24581689453125,1.0086687803268433,0.21568648517131805,-2.764442205429077
1758972604619774000,3.25577392578125,1.0775690078735352,-0.291027307510376,-3.1770596504211426
1758972604629730800,3.265730712890625,1.1486597061157227,-0.828385591506958,-3.8747975826263428
1758972604639688700,3.275688720703125,1.275660753250122,-1.092070460319519,-4.515893936157227
1758972604649645800,3.285645751953125,1.288062334060669,-1.202055811882019,-4.925158500671387
1758972604659602700,3.295602783203125,1.1516605615615845,-1.119712471961975,-4.945796966552734
1758972604669559800,3.305559814453125,0.939197301864624,-1.1215527057647705,-4.629701614379883
1758972604679517700,3.315517578125,0.7742754817008972,-0.9790390133857727,-4.302738666534424
1758972604689474800,3.325474853515625,0.6065274477005005,-0.673425018787384,-4.045628547668457
1758972604699431700,3.335431640625,0.44091346859931946,-0.028209000825881958,-3.9358229637145996
1758972604709388800,3.345388916015625,0.3836131691932678,0.882344126701355,-3.8931949138641357
1758972604719346700,3.3553466796875,0.5168812274932861,1.4136074781417847,-3.7544898986816406
1758972604729303800,3.3653037109375,0.8087287545204163,0.26629507541656494,-3.392062187194824
1758972604739260700,3.3752607421875,0.8347806334495544,-1.7359740734100342,-3.20940899848938
1758972604749218800,3.38521875,0.6282855272293091,-2.9666647911071777,-3.584855794906616
1758972604759175700,3.39517578125,0.3672046363353729,-3.369352340698242,-3.6230833530426025
1758972604769132800,3.4051328125,-0.009308280423283577,-3.0873515605926514,-3.308666467666626
1758972604779089700,3.415089599609375,-0.2064991146326065,-2.7055203914642334,-2.822556734085083
1758972604789047800,3.4250478515625,-0.2799927592277527,-2.7580411434173584,-2.3384828567504883
1758972604799004700,3.435004638671875,-0.26879337430000305,-2.830892324447632,-1.834684133529663
1758972604808961800,3.4449619140625,-0.37814968824386597,-2.453230142593384,-1.3240221738815308
1758972604818918700,3.454918701171875,-0.7090322971343994,-1.710650086402893,-0.7073864340782166
1758972604828876800,3.464876708984375,-1.12113356590271,-0.7716932892799377,0.013034575618803501
1758972604838834000,3.474833984375,-1.4433462619781494,0.021750835701823235,0.7156169414520264
1758972604848790500,3.48479052734375,-1.6266872882843018,0.43662551045417786,1.333716630935669
1758972604858747600,3.49474755859375,-1.716632604598999,0.8547865748405457,1.8462209701538086
1758972604868705800,3.504705810546875,-1.7390364408493042,1.3703172206878662,2.2585952281951904
1758972604878663000,3.514662841796875,-1.6902837753295898,1.9124414920806885,2.6072046756744385
1758972604888619800,3.524619873046875,-1.553812861442566,2.4671196937561035,2.914809465408325
1758972604898576600,3.53457666015625,-1.3923256397247314,2.6374616622924805,3.1258668899536133
1758972604908534800,3.54453466796875,-1.2576040029525757,2.6147119998931885,3.3313021659851074
1758972604918492000,3.554491943359375,-0.9792115688323975,2.712325096130371,3.711162567138672
1758972604928448800,3.56444873046875,-0.57218998670578,3.0086705684661865,4.096255779266357
1758972604938406700,3.57440673828125,-0.21485744416713715,3.025571823120117,4.223514080047607
1758972604948363800,3.58436376953125,0.11015473306179047,2.5432019233703613,3.7732276916503906
1758972604958321000,3.59432080078125,0.3543258607387543,1.5897926092147827,2.769364356994629
1758972604968277800,3.60427783203125,0.4181479811668396,0.3254132568836212,0.7041562795639038
1758972604978235600,3.614235595703125,0.158065527677536,-2.6179304122924805,-4.877692222595215
1758972604988192800,3.62419287109375,0.3448202311992645,-5.208209991455078,-9.216997146606445
1758972604998150000,3.63414990234375,0.5206272006034851,-2.991889476776123,-9.062809944152832
1758972605008106800,3.644106689453125,0.5762838125228882,0.8135733604431152,-5.313595294952393
1758972605018064600,3.654064697265625,0.24046720564365387,6.617904186248779,0.07782795280218124
1758972605028021800,3.664021728515625,0.7492750287055969,7.7158966064453125,2.1422905921936035
1758972605037978600,3.673978515625,1.2710703611373901,5.751673221588135,1.6363734006881714
1758972605047936800,3.683936767578125,0.63105708360672,4.099919319152832,0.958102285861969
1758972605057893600,3.6938935546875,0.09954603016376495,2.381387233734131,1.1085010766983032
1758972605067850800,3.703850830078125,-0.06352438032627106,0.9221024513244629,2.0923752784729004
1758972605077807600,3.7138076171875,0.19580546021461487,-0.8658397197723389,3.5218915939331055
1758972605087765800,3.723765869140625,1.1788536310195923,-3.1548056602478027,4.8365478515625
1758972605097723000,3.733722900390625,1.803317666053772,-0.5818594098091125,5.324059963226318
1758972605107679700,3.7436796875,2.037389039993286,1.7412301301956177,5.505758285522461
1758972605117636600,3.75363671875,1.3704997301101685,2.657536029815674,4.981553077697754
1758972605127594800,3.7635947265625,-0.24089384078979492,3.131237506866455,2.6752586364746094
1758972605137552000,3.7735517578125,-1.065562129020691,2.827983856201172,1.3738478422164917
1758972605147508700,3.7835087890625,-0.8665696978569031,1.7521562576293945,2.7113399505615234
1758972605157465600,3.793465576171875,-0.45889461040496826,0.23597444593906403,4.921651840209961
1758972605167423700,3.803423828125,-0.3150154650211334,-0.14518675208091736,5.028097152709961
1758972605177380900,3.813380859375,-0.3901033103466034,0.38244935870170593,3.880321741104126
1758972605187338000,3.823337890625,-0.3170727491378784,0.9992311000823975,3.170347213745117
1758972605197295600,3.833295654296875,-0.05016676336526871,1.1550168991088867,3.3906919956207275
1758972605207252700,3.843252685546875,0.2250634729862213,0.6937060356140137,3.5548179149627686
1758972605217209900,3.8532099609375,0.3980243504047394,-0.043111782521009445,3.049746036529541
1758972605227166700,3.863166748046875,0.5909242630004883,-0.4694604277610779,2.3390398025512695
1758972605237124600,3.87312451171875,0.7894075512886047,-0.20291262865066528,1.8428581953048706
1758972605247081700,3.883081787109375,0.9515122771263123,0.36843207478523254,1.6057065725326538
1758972605257038800,3.893038818359375,0.9169157147407532,1.0735090970993042,1.5355395078659058
1758972605266995700,3.90299560546875,0.8321177363395691,1.6950713396072388,1.4356739521026611
1758972605276953600,3.91295361328125,0.8163001537322998,1.6806738376617432,1.1277999877929688
1758972605286910700,3.92291064453125,0.6481380462646484,0.8586305379867554,0.5125940442085266
1758972605296867800,3.932867919921875,0.4617953300476074,0.06456221640110016,-0.05928995460271835
1758972605306826000,3.942825927734375,0.3117179572582245,-0.6022728085517883,-0.44509944319725037
1758972605316782600,3.952782470703125,0.02863830327987671,-0.9609236121177673,-0.8116814494132996
1758972605326739700,3.96273974609375,-0.30943506956100464,-0.8882707357406616,-1.3849095106124878
1758972605336696800,3.97269677734375,-0.6267581582069397,-0.7087944746017456,-2.2020699977874756
1758972605346654700,3.98265478515625,-0.6047617793083191,-0.9310088753700256,-2.9556772708892822
1758972605356611800,3.99261181640625,-0.19051508605480194,-1.3592422008514404,-3.247992515563965
1758972605366568700,4.002568603515625,0.1953953355550766,-1.3522306680679321,-3.032116413116455
1758972605376525600,4.012525634765625,0.37168169021606445,-1.103653907775879,-2.7180209159851074
1758972605386483500,4.0224833984375,0.5124257206916809,-1.3113197088241577,-3.0706889629364014
1758972605396440600,4.032440673828125,0.7836633920669556,-1.7277089357376099,-3.7112245559692383
1758972605406397400,4.0423974609375,0.8288021087646484,-2.099200963973999,-4.1676506996154785
1758972605416354300,4.052354248046875,0.5980181694030762,-2.521502733230591,-4.250082492828369
1758972605426312400,4.0623125,0.48444923758506775,-2.842674732208252,-4.207862854003906
1758972605436269600,4.07226953125,0.6369053721427917,-3.0102078914642334,-4.243170261383057
1758972605446226400,4.082226318359375,0.748960018157959,-2.3018369674682617,-4.3173828125
1758972605456184300,4.092184326171875,0.542597770690918,-0.9401235580444336,-4.257798194885254
1758972605466141400,4.102141357421875,0.3173702359199524,0.2570456564426422,-4.098769664764404
1758972605476098600,4.1120986328125,0.2637064754962921,0.8579599857330322,-3.856090784072876
1758972605486055400,4.122055419921875,0.4183104336261749,0.7243563532829285,-3.5546915531158447
1758972605496013300,4.132013427734375,0.5120222568511963,-0.5122838020324707,-3.4724440574645996
1758972605505970400,4.141970458984375,0.647878110408783,-2.320338726043701,-3.7850563526153564
1758972605515927300,4.15192724609375,0.5842317342758179,-3.605297327041626,-4.0075249671936035
1758972605525884400,4.161884521484375,0.3236984312534332,-4.106775283813477,-3.718280553817749
1758972605535842300,4.17184228515625,-0.19727632403373718,-4.0385518074035645,-3.1047260761260986
1758972605545799400,4.18179931640625,-0.5379577279090881,-3.478591203689575,-2.5098376274108887
1758972605555756300,4.19175634765625,-0.728792130947113,-4.029353141784668,-1.909095287322998
1758972605565714400,4.20171435546875,-0.7299769520759583,-4.435977458953857,-1.4356364011764526
1758972605575671600,4.211671630859375,-0.640319287776947,-3.7631893157958984,-1.1611003875732422
1758972605585628400,4.22162841796875,-0.7045376896858215,-2.4561519622802734,-0.9204670190811157
1758972605595585300,4.231585205078125,-1.0397920608520508,-1.6471941471099854,-0.4544077217578888
1758972605605543400,4.24154345703125,-1.3207707405090332,-1.387293815612793,0.2542751431465149
1758972605615500500,4.25150048828125,-1.4876058101654053,-1.0951067209243774,1.0064802169799805
1758972605625457400,4.26145751953125,-1.7923526763916016,-0.680298924446106,1.6834146976470947
1758972605635414300,4.271414306640625,-2.1565942764282227,-0.03290814906358719,2.2140743732452393
1758972605645372400,4.281372314453125,-2.1476550102233887,0.7799535989761353,2.6589577198028564
1758972605655329500,4.29132958984375,-1.790228009223938,1.753823161125183,2.927295684814453
1758972605665286700,4.30128662109375,-1.4528454542160034,2.5299832820892334,3.1854474544525146
1758972605675243300,4.3112431640625,-1.1599867343902588,3.09487247467041,3.7809014320373535
1758972605685201400,4.321201416015625,-0.7696160078048706,4.049803256988525,4.503681659698486
1758972605695158500,4.331158447265625,-0.46023842692375183,4.968677520751953,4.7490105628967285
1758972605705115400,4.341115478515625,-0.25444266200065613,5.064737796783447,3.93184494972229
1758972605715073300,4.3510732421875,-0.024595091119408607,3.456671714782715,1.4745099544525146
1758972605725030400,4.361030517578125,0.31972765922546387,-0.8938671350479126,-3.099212408065796
1758972605734987500,4.370987548828125,1.0013765096664429,-6.211031913757324,-6.00840425491333
1758972605744944400,4.3809443359375,0.5487589836120605,-8.624500274658203,-7.307070732116699
1758972605754902300,4.39090234375,0.4958374500274658,-7.524301052093506,-6.39370584487915
1758972605764859400,4.400859375,0.7881401777267456,-2.904667615890503,-4.382728576660156
1758972605774816500,4.41081640625,0.2615397274494171,5.885228633880615,-0.8658674359321594
1758972605784774700,4.420774658203125,0.3218608498573303,9.580236434936523,1.5045578479766846
1758972605794731300,4.430731201171875,1.1534239053726196,6.279569625854492,1.438977599143982
1758972605804688400,4.4406884765625,1.0217174291610718,3.416168689727783,1.3290441036224365
1758972605814645500,4.4506455078125,0.004597681108862162,1.5391193628311157,1.834528923034668
1758972605824603400,4.460603271484375,-0.5411772131919861,0.487498015165329,3.149075746536255
1758972605834560500,4.470560546875,-0.40250855684280396,0.8024469017982483,4.416830062866211
1758972605844517400,4.480517333984375,0.07437782734632492,1.5018223524093628,5.164087772369385
1758972605854474500,4.490474609375,0.10130691528320312,3.035099983215332,5.0493597984313965
1758972605864432400,4.500432373046875,-0.21485477685928345,4.8560566902160645,4.413068771362305
1758972605874389500,4.510389404296875,-0.11322002857923508,5.652198314666748,3.626513719558716
1758972605884346400,4.520346435546875,0.28204312920570374,4.747330665588379,2.2889761924743652
1758972605894304500,4.530304443359375,0.33984944224357605,2.527552366256714,1.1308269500732422
1758972605904261400,4.540261474609375,0.32745856046676636,-0.6410236954689026,2.3013384342193604
1758972605914218500,4.550218505859375,0.3588617444038391,-3.1459803581237793,4.5523176193237305
1758972605924175600,4.560175537109375,0.14185486733913422,-3.299208879470825,5.109846591949463
1758972605934133500,4.570133544921875,0.06973487138748169,-1.513188123703003,4.241500377655029
1758972605944090400,4.58009033203125,0.08980578929185867,0.29937684535980225,3.14066743850708
1758972605954047500,4.590047607421875,0.07747774571180344,0.7739295363426208,2.886129140853882
1758972605964004600,4.600004638671875,0.14937829971313477,0.8409402370452881,3.1113884449005127
1758972605973962200,4.609962158203125,0.24879410862922668,0.8152703046798706,3.138014078140259
1758972605983919400,4.61991943359375,0.26078498363494873,0.06319174915552139,2.725691318511963
1758972605993876500,4.62987646484375,0.31736624240875244,-0.34086623787879944,1.992713212966919
1758972606003834400,4.63983447265625,0.4472113251686096,0.17012353241443634,1.5527377128601074
1758972606013791200,4.649791259765625,0.5507502555847168,1.4387637376785278,1.4285856485366821
1758972606023748400,4.659748291015625,0.5803272724151611,2.309526205062866,1.3936446905136108
1758972606033705500,4.66970556640625,0.5747706294059753,2.090703248977661,1.2381826639175415
1758972606043663600,4.67966357421875,0.47898709774017334,0.7757599353790283,0.7663488388061523
1758972606053620200,4.6896201171875,0.4034377336502075,-0.9332581758499146,0.00974557176232338
1758972606063577300,4.699577392578125,0.26141348481178284,-1.7194747924804688,-0.7044316530227661
1758972606073534500,4.709534423828125,-0.059057727456092834,-1.1063151359558105,-1.2016547918319702
1758972606083492600,4.71949267578125,-0.546483039855957,0.03062022663652897,-1.6351425647735596
1758972606093449500,4.729449462890625,-0.9800028204917908,0.5484945178031921,-2.316540002822876
1758972606103406300,4.73940625,-0.7894530892372131,0.07975821197032928,-3.0191614627838135
1758972606113364500,4.749364501953125,-0.2945016622543335,-0.6435344815254211,-3.277641773223877
1758972606123321600,4.759321533203125,0.17221809923648834,-1.0163887739181519,-2.8412153720855713
1758972606133278500,4.769278564453125,0.27343660593032837,-1.5295820236206055,-2.608785390853882
1758972606143235300,4.7792353515625,0.32862767577171326,-2.5096817016601562,-3.139970541000366
1758972606153193500,4.789193359375,0.6280109286308289,-3.1359801292419434,-3.778090000152588
1758972606163150300,4.799150390625,0.7686287760734558,-3.501845121383667,-4.1908087730407715
1758972606173107500,4.809107421875,0.7291101217269897,-3.5391647815704346,-4.243699073791504
1758972606183064600,4.819064697265625,0.7819672226905823,-2.882744073867798,-4.195643424987793
1758972606193022500,4.8290224609375,0.9233858585357666,-1.9443405866622925,-4.297423362731934
1758972606202979300,4.838979248046875,0.9632536172866821,-0.917451798915863,-4.3877434730529785
1758972606212936400,4.8489365234375,0.7271921038627625,-0.28388339281082153,-4.32833194732666
1758972606222894300,4.858894287109375,0.3214821517467499,-0.04117113724350929,-4.141862392425537
1758972606232851500,4.8688515625,0.03301867097616196,-0.0037473340053111315,-3.8682262897491455
1758972606242808300,4.878808349609375,0.21888308227062225,0.017474064603447914,-3.6706957817077637
1758972606252765400,4.888765380859375,0.6003787517547607,-0.8159992098808289,-3.5478460788726807
1758972606262723300,4.898723388671875,0.5646631121635437,-2.5236237049102783,-3.3866586685180664
1758972606272680400,4.908680419921875,0.13238094747066498,-3.2053511142730713,-3.110581874847412
1758972606282637300,4.91863720703125,-0.4261726140975952,-3.0333423614501953,-2.556063652038574
1758972606292594400,4.928594482421875,-1.006386160850525,-2.72967267036438,-1.872259259223938
1758972606302552600,4.938552490234375,-1.2621135711669922,-3.0367789268493652,-1.4084726572036743
1758972606312509400,4.948509521484375,-1.2798787355422974,-4.079266548156738,-1.1386557817459106
1758972606322466300,4.95846630859375,-1.1518826484680176,-4.437689781188965,-0.9949197173118591
1758972606332424400,4.968424560546875,-1.0771671533584595,-3.8093788623809814,-0.8444004654884338
1758972606342381600,4.978381591796875,-1.0962703227996826,-2.6367383003234863,-0.5513736605644226
1758972606352338400,4.98833837890625,-1.2343051433563232,-1.435981273651123,-0.08807100355625153
1758972606362295300,4.99829541015625,-1.4867671728134155,-0.7291148900985718,0.49139848351478577
1758972606372253400,5.00825341796875,-1.680237889289856,-0.4302895963191986,1.0823390483856201
1758972606382210600,5.01821044921875,-1.83362877368927,-0.2699697017669678,1.5832871198654175
1758972606392167000,5.0281669921875,-1.861221432685852,0.23978222906589508,1.992329716682434
1758972606402124000,5.0381240234375,-1.5739721059799194,0.8845596313476562,2.274890899658203
1758972606412082000,5.04808203125,-1.22437584400177,1.3811867237091064,2.5192408561706543
1758972606422038800,5.058038818359375,-0.9646291732788086,2.030195713043213,2.977964401245117
1758972606431996000,5.067995849609375,-0.7046186327934265,3.0269970893859863,3.6318140029907227
1758972606441953800,5.077953857421875,-0.44209566712379456,3.8253026008605957,4.004180908203125
1758972606451911000,5.087910888671875,-0.2923940420150757,4.308770656585693,3.8199708461761475
1758972606461867800,5.09786767578125,-0.2170385718345642,4.33954381942749,2.708695650100708
1758972606471825000,5.107824951171875,-0.05491837486624718,2.6605279445648193,-0.16736236214637756
1758972606481783000,5.117782958984375,0.5340942740440369,-0.35414502024650574,-4.1994547843933105
1758972606491740000,5.127739990234375,1.1569708585739136,-3.483797311782837,-6.5211076736450195
1758972606501696800,5.13769677734375,0.8315480947494507,-4.888011455535889,-7.55649995803833
1758972606511655000,5.147655029296875,1.0718128681182861,-3.6429154872894287,-6.360657691955566
1758972606521612000,5.157612060546875,1.4095975160598755,1.2286733388900757,-3.14748215675354
1758972606531568600,5.167568603515625,0.7510942220687866,8.521522521972656,0.8393276929855347
1758972606541525800,5.17752587890625,1.0084682703018188,7.670333385467529,2.3394267559051514
1758972606551484000,5.18748388671875,0.7256554365158081,2.934870958328247,2.4431614875793457
1758972606561441000,5.19744091796875,-0.2821406126022339,-0.3870616853237152,2.586219072341919
1758972606571398000,5.20739794921875,-0.8825063109397888,-0.9493117332458496,3.072619915008545
1758972606581354800,5.217354736328125,-0.9596562385559082,-0.3068605959415436,3.7400174140930176
1758972606591313000,5.22731298828125,-0.5624225735664368,1.1532273292541504,3.5950846672058105
1758972606601270000,5.23727001953125,0.2673496901988983,2.409317970275879,3.237762689590454
1758972606611227000,5.247226806640625,0.9705544114112854,4.166176795959473,3.340712547302246
1758972606621184800,5.257184814453125,1.2862995862960815,5.433355331420898,3.739475965499878
1758972606631142000,5.267141845703125,1.300293207168579,5.711812973022461,4.448122501373291
1758972606641099000,5.27709912109375,0.9944022297859192,3.5369091033935547,4.4898681640625
1758972606651055900,5.287055908203125,0.2005096673965454,-0.5113562345504761,3.9820189476013184
1758972606661013800,5.297013671875,-0.3732460141181946,-3.46828556060791,3.853621244430542
1758972606670971000,5.306970947265625,-0.5167970657348633,-3.8931052684783936,3.941969156265259
1758972606680928000,5.316927978515625,-0.52309250831604,-2.1170215606689453,3.9194674491882324
1758972606690884900,5.326884765625,-0.3812696039676666,0.5071002244949341,3.672322988510132
1758972606700842800,5.3368427734375,-0.252806156873703,1.9859179258346558,3.5568130016326904
1758972606710800000,5.3467998046875,-0.2471008598804474,1.8382171392440796,3.5207948684692383
1758972606720756700,5.3567568359375,-0.16964362561702728,0.37393444776535034,3.2794909477233887
1758972606730715000,5.36671484375,-0.07540500909090042,-0.701218843460083,2.828917980194092
1758972606740672000,5.376672119140625,0.09638592600822449,-0.4124504029750824,2.2430999279022217
1758972606750628900,5.38662890625,0.5092805624008179,0.6634791493415833,1.7094628810882568
1758972606760585700,5.396585693359375,0.6203364729881287,2.0132362842559814,1.5191967487335205
1758972606770543900,5.4065439453125,0.43297699093818665,2.958714723587036,1.4538025856018066
1758972606780501000,5.4165009765625,0.3244262933731079,3.0460753440856934,1.4037871360778809
1758972606790457900,5.426457763671875,0.19292205572128296,1.4951063394546509,1.2425334453582764
1758972606800414700,5.436414794921875,0.2079494744539261,-1.1107972860336304,0.6702308058738708
1758972606810372900,5.446372802734375,0.29136553406715393,-3.0305869579315186,-0.2365662008523941
1758972606820330000,5.456330078125,0.34383246302604675,-3.1557607650756836,-1.0296305418014526
1758972606830287000,5.466287109375,0.20158371329307556,-1.8137527704238892,-1.5942598581314087
1758972606840244700,5.47624462890625,-0.18253891170024872,-0.379376620054245,-2.2410225868225098
1758972606850201900,5.486201904296875,-0.32684123516082764,0.041011881083250046,-3.128506898880005
1758972606860159000,5.496158935546875,-0.06595824658870697,-0.06952501833438873,-3.728283166885376
1758972606870116000,5.5061162109375,0.31046411395072937,-0.13009195029735565,-3.5404772758483887
1758972606880073700,5.51607373046875,0.45105984807014465,-0.7908602952957153,-3.060969591140747
1758972606890030800,5.52603076171875,0.4847336709499359,-2.344031810760498,-3.303466558456421
1758972606899988000,5.535988037109375,0.6458042860031128,-3.8537099361419678,-3.975095510482788
1758972606909944800,5.54594482421875,0.8391455411911011,-4.651879787445068,-4.480647087097168
1758972606919902700,5.55590283203125,1.0244137048721313,-4.464375972747803,-4.705375671386719
1758972606929859800,5.56585986328125,1.1291831731796265,-3.1207690238952637,-4.817864418029785
1758972606939817000,5.57581689453125,0.8372749090194702,-1.175166130065918,-4.9637579917907715
1758972606949773800,5.58577392578125,0.6390356421470642,0.33460327982902527,-4.927567005157471
1758972606959731700,5.595731689453125,0.491306334733963,1.3290934562683105,-4.601720809936523
1758972606969688800,5.605688720703125,0.1058228388428688,1.9733245372772217,-4.320192813873291
1758972606979646000,5.61564599609375,-0.07989536225795746,2.2688238620758057,-4.083444595336914
1758972606989604000,5.62560400390625,-0.023874972015619278,2.304542303085327,-3.824636459350586
1758972606999561000,5.63556103515625,0.4519166052341461,1.088118076324463,-3.2652273178100586
1758972607009517800,5.645517822265625,0.7498526573181152,-1.6274667978286743,-2.9478557109832764
1758972607019475000,5.655474853515625,0.38966548442840576,-3.0270254611968994,-3.349066972732544
1758972607029432800,5.665432861328125,-0.2126515507698059,-3.4939961433410645,-3.3844501972198486
1758972607039390000,5.675389892578125,-0.587871789932251,-3.2456095218658447,-3.0478618144989014
1758972607049346800,5.685346923828125,-0.8185305595397949,-3.460401773452759,-2.588691473007202
1758972607059304000,5.695303955078125,-0.8529868125915527,-4.38189172744751,-2.2159910202026367
1758972607069261800,5.70526171875,-0.62045818567276,-4.537354469299316,-1.7809008359909058
1758972607079219000,5.715218994140625,-0.4318925440311432,-3.6975178718566895,-1.3465677499771118
1758972607089176000,5.725176025390625,-0.5046141743659973,-2.5095746517181396,-0.9174802899360657
1758972607099134000,5.735134033203125,-0.723197340965271,-1.6337335109710693,-0.35092073678970337
1758972607109090800,5.7450908203125,-0.9857941269874573,-0.8338285684585571,0.4334219992160797
1758972607119048000,5.7550478515625,-1.266248345375061,-0.03200773522257805,1.2592309713363647
1758972607129005000,5.765005126953125,-1.6600172519683838,0.581895649433136,2.0186872482299805
1758972607138963000,5.774962890625,-1.8417998552322388,1.033854365348816,2.564798593521118
1758972607148919800,5.784919921875,-1.5919140577316284,1.381007432937622,2.807189464569092
1758972607158877000,5.794876953125,-1.1443030834197998,1.7259387969970703,2.952498435974121
1758972607168834000,5.804833984375,-0.9046697020530701,2.3793845176696777,3.392338752746582
1758972607178792000,5.8147919921875,-0.6458735466003418,2.871488094329834,4.2359514236450195
1758972607188748800,5.824748779296875,-0.20180635154247284,2.8905794620513916,4.837517738342285
1758972607198706000,5.834705810546875,-0.04381272941827774,3.129552125930786,4.690548896789551
1758972607208664000,5.8446640625,-0.017140105366706848,3.369220495223999,3.7678399085998535
1758972607218620700,5.85462060546875,-0.016040485352277756,3.003704071044922,2.0953621864318848
1758972607228577800,5.864577880859375,0.0322096012532711,1.9884252548217773,-1.1394009590148926
1758972607238535000,5.874534912109375,0.468403697013855,-0.06058744713664055,-5.325834274291992
1758972607248493000,5.8844931640625,0.9887962937355042,-2.97829270362854,-8.330559730529785
1758972607258450000,5.894449951171875,0.6831042766571045,-4.112385272979736,-8.235889434814453
1758972607268406800,5.90440673828125,0.696132481098175,-2.7594051361083984,-3.901228666305542
1758972607278364000,5.914364013671875,0.15248142182826996,4.649119853973389,1.173121690750122
1758972607288322000,5.924322021484375,-0.026586337015032768,9.857757568359375,3.529906749725342
1758972607298279000,5.93427880859375,0.267635703086853,8.222403526306152,2.8939626216888428
1758972607308235800,5.94423583984375,0.26461169123649597,5.025082588195801,2.069714069366455
1758972607318193000,5.95419287109375,0.19813944399356842,2.93583345413208,2.407186985015869
1758972607328151000,5.964151123046875,0.010115218348801136,1.4027698040008545,3.5591537952423096
1758972607338108000,5.97410791015625,0.6722612380981445,0.7795026898384094,4.384568691253662
1758972607348065000,5.98406494140625,1.5854051113128662,0.5880064964294434,4.600090026855469
1758972607358023000,5.99402294921875,2.2591605186462402,0.5136222839355469,4.202246189117432
1758972607367980000,6.00397998046875,2.2711899280548096,-0.32616719603538513,3.048452138900757
1758972607377937000,6.01393701171875,1.56434166431427,-1.4470211267471313,1.841325283050537
1758972607387894000,6.02389404296875,0.3108750581741333,-2.028635263442993,1.8792846202850342
1758972607397852000,6.033851806640625,-1.06121027469635,-2.0199780464172363,3.3885865211486816
1758972607407808800,6.043808837890625,-1.5566658973693848,-1.1088345050811768,5.14432954788208
1758972607417766000,6.053765869140625,-1.4938136339187622,0.14752420783042908,5.537484645843506
1758972607427723000,6.063722900390625,-1.1707167625427246,1.0091228485107422,4.960818290710449
1758972607437681000,6.073680908203125,-0.7510896921157837,0.8982735872268677,4.314640045166016
1758972607447637800,6.0836376953125,-0.37358132004737854,0.79670649766922,3.777829647064209
1758972607457595000,6.093594970703125,-0.11003169417381287,0.8252579569816589,3.510317325592041
1758972607467553000,6.103552978515625,0.027410319074988365,1.155962586402893,3.263552188873291
1758972607477510000,6.113510009765625,0.14420165121555328,1.4727405309677124,2.969550371170044
1758972607487466800,6.123466796875,0.3871506452560425,1.714103102684021,2.5163276195526123
1758972607497424000,6.133423828125,0.5758785009384155,2.062507390975952,2.0364437103271484
1758972607507382000,6.143382080078125,0.7465687394142151,2.4804935455322266,1.3592414855957031
1758972607517339000,6.1533388671875,0.8161209225654602,2.6590163707733154,0.7537941336631775
1758972607527295700,6.163295654296875,0.6248210072517395,1.5530972480773926,0.6669492721557617
1758972607537252900,6.1732529296875,0.3775654137134552,-0.9187487363815308,0.5223904848098755
1758972607547211000,6.1832109375,0.4073845446109772,-2.8515329360961914,-0.32943037152290344
1758972607557167900,6.19316796875,0.35969212651252747,-2.393400192260742,-1.3215340375900269
1758972607567124700,6.203124755859375,-0.00935994554311037,-0.2584161162376404,-1.7991336584091187
1758972607577081900,6.213081787109375,-0.6548643708229065,1.6195489168167114,-2.112607479095459
1758972607587040000,6.2230400390625,-0.9714514017105103,1.821302890777588,-2.8658876419067383
1758972607596996900,6.232996826171875,-0.4662475883960724,0.43976274132728577,-3.5220940113067627
1758972607606954000,6.2429541015625,0.08699135482311249,-0.7427934408187866,-3.203657388687134
1758972607616912000,6.252911865234375,0.26569852232933044,-1.2565630674362183,-2.6211435794830322
1758972607626869000,6.262868896484375,0.30231165885925293,-2.189819812774658,-2.978095531463623
1758972607636825900,6.272825927734375,0.5537974238395691,-3.033546209335327,-3.718428611755371
1758972607646783000,6.282782958984375,0.7717846035957336,-3.547412872314453,-4.298714637756348
1758972607656740900,6.292740966796875,0.8201121687889099,-3.761214256286621,-4.5223469734191895
1758972607666698000,6.302697998046875,0.8326788544654846,-3.3764476776123047,-4.526017665863037
1758972607676654800,6.31265478515625,0.8198277950286865,-2.6063573360443115,-4.4936604499816895
1758972607686612000,6.322612060546875,0.7840484380722046,-1.1414146423339844,-4.559275150299072
1758972607696569900,6.33256982421875,0.5043712854385376,0.4245006740093231,-4.573213577270508
1758972607706527000,6.34252685546875,0.18784473836421967,1.6598899364471436,-4.5003557205200195
1758972607716483800,6.35248388671875,0.13753868639469147,2.403078317642212,-4.2708516120910645
1758972607726442000,6.36244189453125,0.3870406746864319,2.9168338775634766,-3.8562424182891846
1758972607736398800,6.37239892578125,0.5382016897201538,1.2936664819717407,-3.2613301277160645
1758972607746355700,6.382355712890625,0.1795567125082016,-1.6366245746612549,-2.979442834854126
1758972607756312800,6.392312744140625,-0.3121935725212097,-3.248051643371582,-3.241640329360962
1758972607766271000,6.40227099609375,-0.775499701499939,-3.8929219245910645,-3.3067259788513184
1758972607776227800,6.412227783203125,-1.0802172422409058,-3.922258138656616,-3.051608085632324
1758972607786184700,6.422184814453125,-1.2241499423980713,-3.76987624168396,-2.7068045139312744
1758972607796141800,6.432141845703125,-1.161118745803833,-3.8937344551086426,-2.285987377166748
1758972607806100000,6.442099853515625,-0.8462889194488525,-4.321704387664795,-1.8954763412475586
1758972607816057000,6.45205712890625,-0.4589625298976898,-4.215549468994141,-1.6386102437973022
1758972607826013700,6.462013671875,-0.2883966565132141,-3.6020045280456543,-1.4820318222045898
1758972607835971800,6.471971923828125,-0.5318583250045776,-2.4507298469543457,-1.0914713144302368
1758972607845929000,6.481928955078125,-0.9286006093025208,-1.3110041618347168,-0.5460135340690613
1758972607855886000,6.491885986328125,-1.2810529470443726,-0.2985731065273285,0.1751992404460907
1758972607865843000,6.501843017578125,-1.6577982902526855,0.2446155995130539,1.0717017650604248
1758972607875800800,6.51180078125,-1.9769928455352783,0.6659266352653503,2.0005855560302734
1758972607885758000,6.521758056640625,-1.8686388731002808,1.1329089403152466,2.7183260917663574
1758972607895715000,6.531715087890625,-1.5549672842025757,1.3897995948791504,3.1726250648498535
1758972607905672000,6.541671875,-1.3556461334228516,1.8554024696350098,3.4303534030914307
1758972607915629800,6.5516298828125,-1.1532403230667114,2.4681684970855713,3.7995123863220215
1758972607925587000,6.5615869140625,-0.8877063989639282,2.491013765335083,4.168736934661865
1758972607935543800,6.571543701171875,-0.7155264019966125,2.302842617034912,4.158088684082031
1758972607945501700,6.581501708984375,-0.6021002531051636,2.0918025970458984,3.6387743949890137
1758972607955458800,6.591458740234375,-0.5095921158790588,2.044280767440796,2.3198742866516113
1758972607965416000,6.601416015625,-0.2464502602815628,2.322366714477539,-0.11679186671972275
1758972607975372800,6.611372802734375,0.48932069540023804,1.54427969455719,-3.372265577316284
1758972607985331000,6.6213310546875,1.290600299835205,-1.106935977935791,-6.258384704589844
1758972607995287800,6.631287841796875,0.9666954874992371,-3.3159878253936768,-7.876156330108643
1758972608005245000,6.641244873046875,1.0138648748397827,-4.192049026489258,-6.076169013977051
1758972608015201800,6.651201904296875,1.0396661758422852,0.3908042311668396,-1.983505368232727
1758972608025160000,6.661159912109375,0.2774102985858917,8.234224319458008,2.068514585494995
1758972608035116800,6.67111669921875,0.12154959887266159,7.625884532928467,3.557689905166626
1758972608045074000,6.681073974609375,-0.2841472923755646,3.6841719150543213,4.028590202331543
1758972608055030800,6.69103076171875,-0.9608829021453857,0.40689584612846375,4.504976749420166
1758972608064989000,6.700989013671875,-1.1600308418273926,0.0371851846575737,5.189600944519043
1758972608074946000,6.710946044921875,-0.8183510303497314,1.161099910736084,4.553061008453369
1758972608084903000,6.72090283203125,0.23106810450553894,1.8976197242736816,2.969775438308716
1758972608094860800,6.73086083984375,1.2333698272705078,2.4143259525299072,1.8428653478622437
1758972608104818000,6.74081787109375,1.8391228914260864,3.3598759174346924,1.6574862003326416
1758972608114775000,6.750775146484375,2.0943336486816406,4.602177143096924,2.3155837059020996
1758972608124732000,6.76073193359375,1.7742583751678467,4.6894707679748535,3.393479824066162
1758972608134689800,6.770689697265625,0.937699556350708,2.540438413619995,3.679572820663452
1758972608144647000,6.78064697265625,-0.13292129337787628,-1.1816760301589966,3.98799204826355
1758972608154604000,6.79060400390625,-0.5957286357879639,-3.9198436737060547,4.448426246643066
1758972608164562000,6.80056201171875,-0.28022393584251404,-3.6675069332122803,4.035212993621826
1758972608174518800,6.810518798828125,0.20989251136779785,-1.6286667585372925,3.152780055999756
1758972608184476000,6.820475830078125,0.3301299810409546,-0.14660249650478363,2.9479360580444336
1758972608194433000,6.83043310546875,0.0226251520216465,0.7539603114128113,3.295271396636963
1758972608204391000,6.840390869140625,-0.48691025376319885,1.2471489906311035,3.628354549407959
1758972608214347800,6.85034765625,-0.8525044918060303,1.510707974433899,3.6100213527679443
1758972608224305000,6.860304931640625,-0.7632110714912415,1.2968106269836426,2.8943686485290527
1758972608234262000,6.870261962890625,-0.24287256598472595,1.4118602275848389,1.916257619857788
1758972608244220000,6.880219970703125,0.3678259551525116,2.382627487182617,1.4513226747512817
1758972608254176800,6.8901767578125,0.8073891997337341,3.4890494346618652,1.2555896043777466
1758972608264134000,6.9001337890625,0.885402262210846,3.2817206382751465,1.15611732006073
1758972608274092000,6.910092041015625,0.728047251701355,1.316601037979126,0.7993792295455933
1758972608284049000,6.920048828125,0.8244872093200684,-1.2432847023010254,-0.03416329622268677
1758972608294005800,6.930005859375,0.9387450814247131,-2.131632089614868,-0.911255419254303
1758972608303963000,6.939962890625,0.6248406767845154,-0.9182206392288208,-1.5224759578704834
1758972608313921000,6.949921142578125,-0.012917662970721722,1.2051597833633423,-1.8694463968276978
1758972608323878000,6.9598779296875,-0.6615617275238037,2.424727439880371,-2.337904691696167
1758972608333835000,6.9698349609375,-0.6755803227424622,1.971636176109314,-2.9656083583831787
1758972608343791900,6.9797919921875,-0.18750864267349243,0.5799901485443115,-3.0729501247406006
1758972608353750000,6.98975,0.07645083218812943,-0.8781914710998535,-2.601881265640259
1758972608363707000,6.999706787109375,0.16677087545394897,-2.546574831008911,-2.660618543624878
1758972608373664000,7.0096640625,0.5321307182312012,-3.7625932693481445,-3.234628200531006
1758972608383622000,7.019621826171875,0.9040747284889221,-4.1551642417907715,-3.88887882232666
1758972608393579000,7.0295791015625,1.0694663524627686,-4.10772705078125,-4.348026752471924
1758972608403536000,7.039535888671875,1.1081287860870361,-3.778294324874878,-4.368151664733887
1758972608413493000,7.049492919921875,1.2473828792572021,-2.7910139560699463,-4.293912410736084
1758972608423451000,7.059450927734375,1.335733413696289,-1.3515350818634033,-4.273833274841309
1758972608433408000,7.069407958984375,1.2240008115768433,0.5973488688468933,-4.26057243347168
1758972608443364900,7.07936474609375,0.810090959072113,2.0671069622039795,-4.267348766326904
1758972608453322000,7.089322021484375,0.17339947819709778,2.789335012435913,-4.237994194030762
1758972608463279900,7.09927978515625,-0.35206350684165955,2.8344874382019043,-3.8338398933410645
1758972608473237000,7.109237060546875,-0.28231266140937805,2.0562551021575928,-3.1816484928131104
1758972608483193900,7.11919384765625,0.19657164812088013,0.2257487028837204,-2.961193323135376
1758972608493152000,7.129152099609375,0.28604719042778015,-1.7014014720916748,-3.4069058895111084
1758972608503108900,7.13910888671875,-0.20089368522167206,-3.594966173171997,-3.654709815979004
1758972608513065700,7.149065673828125,-0.6859064698219299,-4.11386251449585,-3.4284472465515137
1758972608523022800,7.15902294921875,-1.1262974739074707,-3.8091211318969727,-2.8113746643066406
1758972608532981000,7.16898095703125,-1.33504056930542,-3.9435317516326904,-2.1828670501708984
1758972608542938000,7.178938232421875,-1.1923505067825317,-4.665562152862549,-1.7767784595489502
1758972608552894700,7.188894775390625,-0.8007278442382812,-4.863002300262451,-1.5709435939788818
1758972608562851800,7.198851806640625,-0.481927752494812,-3.8702785968780518,-1.356719732284546
1758972608572810000,7.20881005859375,-0.6688446402549744,-2.737616777420044,-0.9710106253623962
1758972608582767000,7.21876708984375,-1.057923674583435,-1.7696154117584229,-0.3597826659679413
1758972608592724000,7.228723876953125,-1.3863556385040283,-0.9505250453948975,0.45024120807647705
1758972608602681900,7.238681884765625,-1.7183709144592285,-0.3340885043144226,1.210288166999817
1758972608612639000,7.248638916015625,-2.1399476528167725,0.2060767412185669,1.9561853408813477
1758972608622596000,7.25859619140625,-2.124945878982544,1.013180136680603,2.746946334838867
1758972608632553000,7.268552978515625,-1.8252201080322266,1.9106273651123047,3.358696460723877
1758972608642510800,7.2785107421875,-1.637869119644165,2.7455317974090576,3.6665985584259033
1758972608652468000,7.288468017578125,-1.5263161659240723,3.53804349899292,4.045436859130859
1758972608662425000,7.298425048828125,-1.1177611351013184,3.8333067893981934,4.561459064483643
1758972608672382700,7.3083828125,-0.5528900623321533,3.6861939430236816,4.8487372398376465
1758972608682339800,7.31833984375,-0.20217441022396088,3.278482675552368,4.42863130569458
1758972608692297000,7.328296875,0.07623058557510376,2.489689350128174,3.137911558151245
1758972608702253800,7.33825390625,0.13243500888347626,1.0785748958587646,0.5794215798377991
1758972608712212000,7.3482119140625,0.43815338611602783,-1.188838243484497,-3.4604036808013916
1758972608722168800,7.3581689453125,1.1810754537582397,-3.8049874305725098,-6.521666526794434
1758972608732126000,7.3681259765625,0.759356677532196,-3.650181770324707,-7.756227493286133
1758972608742082800,7.378082763671875,0.5827864408493042,-1.8509057760238647,-6.558529853820801
1758972608752041000,7.388041015625,0.6359298229217529,2.016756296157837,-3.2091948986053467
1758972608761997800,7.397997802734375,0.4242732524871826,9.719229698181152,0.31917986273765564
1758972608771955000,7.407954833984375,0.649290144443512,9.742498397827148,1.5091222524642944
1758972608781913000,7.4179130859375,0.5299488306045532,5.19215202331543,1.1353508234024048
1758972608791870000,7.427869873046875,-0.40003982186317444,0.44859084486961365,1.284159541130066
1758972608801827000,7.4378271484375,-0.5001967549324036,-0.8720137476921082,3.007779121398926
1758972608811784000,7.447783935546875,-0.042333606630563736,-0.11147912591695786,4.149045467376709
1758972608821741800,7.457741943359375,0.5383079648017883,0.07634590566158295,4.814426422119141
1758972608831699000,7.467698974609375,0.9164656400680542,0.2244434952735901,5.062312126159668
1758972608841656000,7.477656005859375,1.7693898677825928,2.0922904014587402,5.773960113525391
1758972608851613000,7.487613037109375,2.517190456390381,3.720813274383545,6.310667037963867
1758972608861570800,7.49757080078125,2.2902960777282715,2.851311683654785,4.836636066436768
1758972608871528000,7.50752783203125,0.7114728093147278,1.3359166383743286,1.8574517965316772
1758972608881485000,7.517485107421875,-0.34577658772468567,-0.001430916483514011,-0.2387944608926773
1758972608891443000,7.52744287109375,0.2204628586769104,-2.012691020965576,1.633901834487915
1758972608901399800,7.53739990234375,0.2589665949344635,-3.7108659744262695,4.574914455413818
1758972608911357000,7.54735693359375,-0.07849347591400146,-2.247983694076538,4.893627166748047
1758972608921314000,7.55731396484375,-0.20357443392276764,0.5045768618583679,3.8416295051574707
1758972608931272000,7.56727197265625,-0.44979777932167053,2.800339460372925,3.141223192214966
1758972608941228800,7.577228759765625,-0.1938600093126297,3.766017198562622,2.858173131942749
1758972608951186000,7.58718603515625,0.31372570991516113,2.920290946960449,2.6517531871795654
1758972608961144000,7.59714404296875,0.8148458003997803,1.8058443069458008,2.1863932609558105
1758972608971101000,7.607100830078125,1.3225289583206177,1.298348307609558,1.5732303857803345
1758972608981057800,7.617057861328125,1.4217381477355957,1.4228994846343994,1.1134634017944336
1758972608991015000,7.627014892578125,1.1068798303604126,1.8580036163330078,0.9154341816902161
1758972609000973000,7.63697314453125,0.7895089983940125,2.0928940773010254,0.8581229448318481
1758972609010930000,7.646929931640625,0.6620919108390808,1.78665030002594,0.8010175824165344
1758972609020886800,7.65688671875,0.5916619896888733,0.6498323678970337,0.665428102016449
1758972609030845000,7.666844970703125,0.3777102828025818,-1.2088139057159424,0.37616562843322754
1758972609040802000,7.676802001953125,0.0921054258942604,-1.8311057090759277,-0.12530545890331268
1758972609050759000,7.686759033203125,-0.1583837866783142,-0.9980267882347107,-0.6603467464447021
1758972609060716000,7.696716064453125,-0.492870956659317,0.45909780263900757,-1.1450591087341309
1758972609070674000,7.706673828125,-0.9983144402503967,1.1476138830184937,-1.7266393899917603
1758972609080631000,7.716631103515625,-1.3561625480651855,0.42540696263313293,-2.391688585281372
1758972609090588000,7.726587890625,-0.8911663889884949,-1.4207178354263306,-2.8819031715393066
1758972609100545000,7.736544921875,-0.31119170784950256,-2.53940486907959,-2.7812647819519043
1758972609110503000,7.7465029296875,0.09515021741390228,-2.225912570953369,-2.3263206481933594
1758972609120460000,7.7564599609375,0.2875518798828125,-1.8240416049957275,-2.443431854248047
1758972609130417000,7.7664169921875,0.3708829879760742,-2.0332860946655273,-3.2063772678375244
1758972609140374800,7.776374755859375,0.5516373515129089,-2.249955654144287,-3.710946559906006
1758972609150332000,7.786331787109375,0.5889250636100769,-2.4177029132843018,-3.72625470161438
1758972609160288800,7.796288818359375,0.41090258955955505,-2.3344497680664062,-3.773016929626465
1758972609170246000,7.806245849609375,0.16264936327934265,-1.914701223373413,-4.050934314727783
1758972609180204000,7.8162041015625,0.03899054229259491,-1.1350573301315308,-4.14229679107666
1758972609190161000,7.826160888671875,-0.08893972635269165,-0.2771117687225342,-4.071789741516113
1758972609200117800,7.83611767578125,-0.45768553018569946,0.30811628699302673,-3.995866537094116
1758972609210076000,7.846075927734375,-0.6620559692382812,0.41457614302635193,-3.8044588565826416
1758972609220033000,7.856032958984375,-0.63718581199646,0.2527531683444977,-3.696489095687866
1758972609229990000,7.865989990234375,-0.2280225157737732,0.017364343628287315,-3.564152240753174
1758972609239946800,7.87594677734375,0.19779963791370392,-1.0107923746109009,-3.172163486480713
1758972609249905000,7.88590478515625,-0.04928925260901451,-2.884765863418579,-2.8607466220855713
1758972609259862000,7.895862060546875,-0.3995085060596466,-3.6299777030944824,-2.769404649734497
1758972609269819100,7.905819091796875,-0.6704177856445312,-3.1187829971313477,-2.4825439453125
1758972609279776800,7.91577685546875,-1.0872975587844849,-3.052280902862549,-1.936739444732666
1758972609289734000,7.92573388671875,-1.5573159456253052,-3.0746309757232666,-1.4585089683532715
1758972609299691000,7.93569091796875,-1.9614261388778687,-2.934906482696533,-1.0681997537612915
1758972609309648100,7.945648193359375,-2.0770201683044434,-3.4191408157348633,-0.8829737305641174
1758972609319605800,7.955605712890625,-1.8851004838943481,-3.671088933944702,-0.9816228151321411
1758972609329563000,7.96556298828125,-1.7633057832717896,-2.9491522312164307,-1.0452773571014404
1758972609339520000,7.97552001953125,-1.824001669883728,-1.695334792137146,-0.6950647830963135
1758972609349478000,7.985477783203125,-1.9182016849517822,-0.6972187757492065,0.013312609866261482
1758972609359434800,7.995434814453125,-1.8590829372406006,-0.2025989145040512,0.881513237953186
1758972609369391900,8.005391845703125,-1.859055757522583,0.1679898053407669,1.7613601684570312
1758972609379349000,8.015348876953125,-1.816985845565796,0.8458966612815857,2.5525479316711426
1758972609389307100,8.02530712890625,-1.562253475189209,1.698043704032898,3.2537682056427
1758972609399264000,8.035263916015625,-0.9983892440795898,2.5787248611450195,3.8636586666107178
1758972609409220900,8.045220947265625,-0.19398385286331177,3.4636237621307373,4.22887659072876
1758972609419178000,8.055177978515625,0.6351146697998047,3.573617458343506,4.381836891174316
1758972609429136100,8.06513623046875,0.9995986223220825,2.8651211261749268,4.238959789276123
1758972609439093000,8.075093017578125,1.0006250143051147,2.268660545349121,3.4296343326568604
1758972609449049900,8.0850498046875,0.7639147043228149,2.0156283378601074,1.804433822631836
1758972609459008000,8.095008056640625,0.55171138048172,0.6424015760421753,-0.9169942736625671
1758972609468965000,8.104965087890625,0.5659723281860352,-1.7423888444900513,-4.216887950897217
1758972609478922000,8.114921875,0.7831400632858276,-4.069436550140381,-6.8506646156311035
1758972609488878800,8.12487890625,0.2158377468585968,-5.366778373718262,-7.978034973144531
1758972609498837000,8.1348369140625,-0.3578505516052246,-3.9939961433410645,-7.163570404052734
1758972609508794000,8.144794189453124,-0.6627883315086365,-0.5980700850486755,-4.182306289672852
1758972609518751000,8.1547509765625,-1.5685036182403564,6.917680263519287,0.8808495998382568
1758972609528708900,8.164708984375,-1.5950415134429932,10.811845779418945,4.129425525665283
1758972609538666000,8.174666015625,-0.7149061560630798,8.999558448791504,3.8965089321136475
1758972609548623000,8.184623046875,0.07897178083658218,6.505275726318359,3.34322452545166
1758972609558580000,8.194580078125,0.5291376113891602,4.735289573669434,3.7432658672332764
1758972609568537900,8.204537841796874,0.5759362578392029,3.8745481967926025,4.855799198150635
1758972609578495000,8.214494873046876,1.2444599866867065,3.620737075805664,5.669772148132324
1758972609588452000,8.2244521484375,2.0096967220306396,0.24258548021316528,4.160215854644775
1758972609598410000,8.234409912109374,2.3059067726135254,-4.206873416900635,0.7849949598312378
1758972609608366800,8.244366943359376,2.732499361038208,-3.131502151489258,-0.22382111847400665
1758972609618324000,8.254323974609376,2.5783450603485107,-1.2202873229980469,-0.7119889259338379
1758972609628281000,8.264281005859376,1.6852169036865234,-0.5082864165306091,0.2379281371831894
1758972609638239000,8.274239013671876,0.5303163528442383,-1.5237113237380981,4.574415683746338
1758972609648196000,8.284196044921876,-0.3135201036930084,-0.5920747518539429,6.570946216583252
1758972609658153000,8.294153076171876,-0.3647928833961487,1.3763352632522583,5.812434196472168
1758972609668111000,8.304111083984376,-0.028001008555293083,3.1633849143981934,3.6988437175750732
1758972609678068000,8.31406787109375,0.34890738129615784,3.196514368057251,2.651473045349121
1758972609688025000,8.324025146484376,0.6826006770133972,1.9844566583633423,3.0676169395446777
1758972609697982000,8.33398193359375,0.7955994009971619,0.9450749158859253,3.562142848968506
1758972609707940000,8.343940185546876,0.6005284190177917,0.10762206465005875,3.6504313945770264
1758972609717897000,8.35389697265625,0.42143991589546204,0.3203764259815216,3.1227095127105713
1758972609727854000,8.36385400390625,0.32259854674339294,1.0653607845306396,2.361727714538574
1758972609737812000,8.37381201171875,0.4782422184944153,1.412990927696228,1.6214629411697388
1758972609747769000,8.38376904296875,0.6887254118919373,1.1894960403442383,1.2872005701065063
1758972609757726000,8.393725830078125,0.7758374214172363,0.968932032585144,1.075323462486267
1758972609767683000,8.40368310546875,0.7645759582519531,0.7602459192276001,0.6690071225166321
1758972609777641000,8.413640869140625,0.7909159660339355,-0.021260015666484833,0.22539237141609192
1758972609787597800,8.423597900390625,0.7539241313934326,-0.9491018652915955,-0.4162890911102295
1758972609797555000,8.433554931640625,0.7056010365486145,-0.9486480951309204,-1.111576795578003
1758972609807513000,8.44351318359375,0.5776942372322083,-0.18377622961997986,-1.596118688583374
1758972609817470000,8.453469970703125,0.2971949279308319,0.5778872966766357,-1.9555951356887817
1758972609827426800,8.4634267578125,-0.0010732539230957627,0.47345492243766785,-2.425673484802246
1758972609837384000,8.473384033203125,-0.08818098902702332,-0.2643464207649231,-2.917131185531616
1758972609847342000,8.483342041015625,0.004250671248883009,-0.5079628229141235,-3.153979778289795
1758972609857299200,8.49329931640625,-0.06823897361755371,0.15325240790843964,-2.8044726848602295
1758972609867255800,8.503255859375,-0.2962295413017273,0.2105439156293869,-2.3868680000305176
1758972609877214000,8.5132138671875,-0.38665637373924255,-0.9830790162086487,-2.656959056854248
1758972609887171000,8.523171142578125,-0.12473554164171219,-2.3888797760009766,-3.3231661319732666
1758972609897128200,8.533128173828125,0.2250743955373764,-3.087775707244873,-3.9587810039520264
1758972609907085000,8.5430849609375,0.41208210587501526,-2.5919103622436523,-4.351109504699707
1758972609917043000,8.55304296875,-0.14449726045131683,-1.7622575759887695,-4.399600028991699
1758972609927000000,8.563,-0.6272745728492737,-1.960669755935669,-4.47824764251709
1758972609936957200,8.572957275390625,-0.40897420048713684,-1.9763712882995605,-4.417187213897705
1758972609946914800,8.582914794921875,-0.16471996903419495,-1.0090669393539429,-4.060172080993652
1758972609956872000,8.592871826171875,-0.27891311049461365,0.11362989246845245,-3.8453621864318848
1758972609966829000,8.6028291015625,-0.36358994245529175,0.7327677011489868,-3.794553279876709
1758972609976787200,8.612787109375,-0.23517709970474243,1.0622590780258179,-3.5910844802856445
1758972609986743800,8.622743896484375,0.09683866053819656,0.9401342272758484,-3.148017168045044
1758972609996701000,8.632700927734374,0.21051862835884094,-1.0121415853500366,-2.903529405593872
1758972610006658000,8.642657958984374,0.043051861226558685,-3.84883713722229,-3.110316753387451
1758972610016616200,8.6526162109375,-0.024339161813259125,-4.101672649383545,-3.531135082244873
1758972610026573000,8.662572998046874,-0.024958878755569458,-3.7488715648651123,-3.209341526031494
1758972610036530000,8.672530029296874,-0.2687470316886902,-4.503520488739014,-2.573270797729492
1758972610046488000,8.682488037109374,-0.5067031383514404,-5.157410144805908,-1.9673484563827515
1758972610056445200,8.692445068359374,-0.5827475786209106,-4.939087390899658,-1.7034499645233154
1758972610066402000,8.702402099609374,-0.6461414694786072,-4.521170139312744,-1.5139799118041992
1758972610076359000,8.71235888671875,-0.7590610980987549,-3.6363606452941895,-1.3364053964614868
1758972610086317000,8.722317138671874,-0.9991458654403687,-2.5412979125976562,-1.0557790994644165
1758972610096274000,8.73227392578125,-1.325354814529419,-1.9299243688583374,-0.7849614024162292
1758972610106231000,8.74223095703125,-1.536347508430481,-1.8398799896240234,-0.45164042711257935
1758972610116189000,8.75218896484375,-1.6156346797943115,-1.5403345823287964,0.05955414101481438
1758972610126146000,8.76214599609375,-1.632106065750122,-0.6159816980361938,0.8166221380233765
1758972610136103000,8.77210302734375,-1.4457528591156006,0.6076103448867798,1.8893718719482422
1758972610146060000,8.78206005859375,-1.014072299003601,1.658060073852539,2.7577741146087646
1758972610156018000,8.792017822265626,-0.6503399610519409,2.62873911857605,3.2942488193511963
1758972610165975000,8.80197509765625,-0.47200214862823486,3.339510917663574,3.608548641204834
1758972610175932000,8.811931884765626,-0.40440472960472107,3.6252942085266113,3.834052324295044
1758972610185890000,8.82189013671875,-0.3119632303714752,3.613835334777832,3.8825836181640625
1758972610195847000,8.831846923828126,-0.18540208041667938,3.622523546218872,3.5864031314849854
1758972610205804000,8.841803955078126,-0.08364589512348175,3.529067277908325,2.851526975631714
1758972610215761000,8.851760986328125,-0.10671179741621017,3.1798107624053955,1.0733247995376587
1758972610225719000,8.861718994140626,-0.2223861962556839,2.240514039993286,-1.8488950729370117
1758972610235676200,8.87167626953125,0.42808690667152405,-1.1582494974136353,-3.625387191772461
1758972610245633000,8.881633056640625,0.7583239078521729,-4.4211106300354,-5.184430122375488
1758972610255591000,8.8915908203125,0.14058800041675568,-4.028521537780762,-5.93223762512207
1758972610265548000,8.901548095703125,-0.22560596466064453,-1.9613558053970337,-4.885993957519531
1758972610275505200,8.911505126953125,-0.5159602761268616,2.2571070194244385,-1.556436538696289
1758972610285462000,8.9214619140625,-1.2713574171066284,8.618322372436523,2.0056138038635254
1758972610295420000,8.931419921875,-0.9424540996551514,8.711711883544922,3.0359039306640625
1758972610305377000,8.941376953125,-0.26928046345710754,4.761051177978516,2.4947268962860107
1758972610315334100,8.951334228515625,-0.4002813696861267,1.4649170637130737,2.122152328491211
1758972610325292000,8.9612919921875,-0.7887558937072754,-4.328147888183594,3.1957571506500244
1758972610335249000,8.971248779296875,-0.19693782925605774,-0.8238443732261658,5.528112888336182
1758972610345206000,8.9812060546875,0.9672496914863586,2.9267289638519287,7.454939842224121
1758972610355163100,8.9911630859375,1.0973377227783203,4.472550392150879,6.141585350036621
1758972610365121000,9.00112109375,0.24704520404338837,3.0044610500335693,1.1156258583068848
1758972610375078000,9.011077880859375,0.3177263140678406,1.2659608125686646,-1.4556782245635986
1758972610385035000,9.021034912109375,0.7957112193107605,0.7951525449752808,-1.7625095844268799
1758972610394993700,9.03099365234375,1.0360777378082275,-0.03337819501757622,0.0881865844130516
1758972610404950500,9.040950439453125,0.6591994762420654,-2.1458678245544434,4.1906046867370605
1758972610414907400,9.050907470703125,-0.011108310893177986,-2.9425814151763916,6.106688976287842
1758972610424865500,9.060865478515625,-0.13453224301338196,-2.156872510910034,5.427315711975098
1758972610434822700,9.07082275390625,0.1498030722141266,-0.34888502955436707,3.455028772354126
1758972610444779500,9.080779541015625,0.35597729682922363,0.5434249639511108,2.1830201148986816
1758972610454736400,9.090736328125,0.6010568141937256,0.854765772819519,2.377816915512085
1758972610464694500,9.100694580078125,0.6557775735855103,0.903481662273407,3.2581591606140137
1758972610474651600,9.110651611328125,0.3255983293056488,0.6520973443984985,3.6820857524871826
1758972610484608500,9.1206083984375,0.05793946608901024,0.4676942229270935,3.0788238048553467
1758972610494566400,9.13056640625,0.12542130053043365,1.3124598264694214,2.131603717803955
1758972610504523500,9.1405234375,0.3311670124530792,2.747201919555664,1.5395328998565674
1758972610514480600,9.150480712890625,0.4286980926990509,3.84553861618042,1.4066896438598633
1758972610524437500,9.1604375,0.40288299322128296,4.117801189422607,1.4463766813278198
1758972610534395400,9.1703955078125,0.45791271328926086,3.583336114883423,1.305445909500122
1758972610544352500,9.1803525390625,0.5881212949752808,1.6722990274429321,1.1833373308181763
1758972610554309600,9.1903095703125,0.601028323173523,-0.8926798701286316,0.731028139591217
1758972610564267500,9.200267578125,0.5340461134910583,-2.484935998916626,0.03954394534230232
1758972610574224400,9.210224365234374,0.3893736004829407,-2.36312198638916,-0.5497177243232727
1758972610584181500,9.220181396484374,0.06432972103357315,-1.260259747505188,-0.9262967109680176
1758972610594138600,9.230138671875,-0.3779859244823456,0.004479170776903629,-1.3242019414901733
1758972610604096500,9.240096435546874,-0.6313177943229675,0.5748688578605652,-2.000112771987915
1758972610614053400,9.250053466796874,-0.402498722076416,0.42507779598236084,-2.634570360183716
1758972610624010500,9.260010498046874,-0.06930050998926163,0.030237264931201935,-2.680941343307495
1758972610633968600,9.26996875,0.16288664937019348,-0.5963190197944641,-2.40254545211792
1758972610643925500,9.279925537109374,0.2908049523830414,-1.537758469581604,-2.4325027465820312
1758972610653882600,9.289882568359374,0.38631096482276917,-2.1565418243408203,-2.9918923377990723
1758972610663839500,9.299839599609374,0.48973348736763,-2.020015239715576,-3.57194185256958
1758972610673797600,9.309797607421874,0.4054100811481476,-1.7361804246902466,-3.857285737991333
1758972610683754500,9.31975439453125,0.14834046363830566,-1.4781521558761597,-3.916555404663086
1758972610693711600,9.329711669921876,0.19396494328975677,-0.9756991267204285,-4.074611186981201
1758972610703669500,9.33966943359375,0.2532421052455902,-0.42294007539749146,-4.1010236740112305
1758972610713626600,9.349626708984376,0.20452570915222168,0.19064770638942719,-4.024237632751465
1758972610723583500,9.35958349609375,-0.009289105422794819,0.7912405729293823,-3.9279706478118896
1758972610733541400,9.369541259765626,-0.4062820076942444,1.0794765949249268,-3.8250796794891357
1758972610743498500,9.37949853515625,-0.39507248997688293,1.290440320968628,-3.676029920578003
1758972610753455400,9.389455322265626,-0.04282709211111069,1.384000301361084,-3.5085206031799316
1758972610763412500,9.39941259765625,0.48067155480384827,1.272371768951416,-3.2137770652770996
1758972610773370600,9.40937060546875,0.6996294856071472,-0.3839860260486603,-2.717233896255493
1758972610783327500,9.419327392578126,0.1776174008846283,-2.4788496494293213,-2.5358941555023193
1758972610793284400,9.429284423828125,-0.32875072956085205,-3.0785932540893555,-2.6592743396759033
1758972610803242500,9.439242431640626,-0.5967022776603699,-2.9572582244873047,-2.537503957748413
1758972610813199600,9.44919970703125,-0.810455858707428,-2.5938336849212646,-2.212540864944458
1758972610823156500,9.459156494140625,-1.052081823348999,-2.496112585067749,-1.8891708850860596
1758972610833113300,9.46911328125,-1.2214175462722778,-2.478285789489746,-1.5482419729232788
1758972610843071500,9.479071533203125,-1.2319194078445435,-2.401355743408203,-1.2739542722702026
1758972610853028600,9.489028564453125,-1.0977094173431396,-2.156949520111084,-1.1749241352081299
1758972610862985700,9.49898583984375,-1.1079537868499756,-1.5404528379440308,-1.0762025117874146
1758972610872943400,9.508943359375,-1.2550886869430542,-0.826292872428894,-0.782355785369873
1758972610882900500,9.518900390625,-1.3599724769592285,-0.22584271430969238,-0.3774181306362152
1758972610892857600,9.528857666015625,-1.4205505847930908,0.24318042397499084,0.14360269904136658
1758972610902815500,9.5388154296875,-1.3892427682876587,0.5912870168685913,0.7673459053039551
1758972610912772400,9.5487724609375,-1.339743971824646,0.9460120797157288,1.4588044881820679
1758972610922729500,9.5587294921875,-1.2866207361221313,1.1666967868804932,2.166266679763794
1758972610932686600,9.5686865234375,-1.0608004331588745,1.2186875343322754,2.8505544662475586
1758972610942644500,9.57864453125,-0.6482155323028564,1.0873957872390747,3.3843753337860107
1758972610952601300,9.588601318359375,-0.14646907150745392,0.8739197850227356,3.6877710819244385
1758972610962558500,9.598558349609375,0.22598998248577118,0.9922631978988647,3.813739061355591
1758972610972516600,9.6085166015625,0.3452069163322449,1.1196794509887695,3.7532269954681396
1758972610982473700,9.6184736328125,0.3176080584526062,0.8858911991119385,3.036356210708618
1758972610992430300,9.628430419921875,0.16390743851661682,0.759351909160614,1.2609087228775024
1758972611002387500,9.638387451171875,0.017426926642656326,0.27226507663726807,-2.12813663482666
1758972611012345600,9.648345703125,0.46929824352264404,-0.962354302406311,-6.905856609344482
1758972611022302700,9.658302734375,1.085731863975525,-2.303469181060791,-9.519824981689453
1758972611032259600,9.668259521484375,0.5968961715698242,-2.3483359813690186,-9.37631893157959
1758972611042217500,9.678217529296875,0.44643208384513855,-1.4716540575027466,-4.819787979125977
1758972611052174600,9.688174560546875,0.3144950866699219,2.9736790657043457,0.1588468998670578
1758972611062131500,9.69813134765625,0.25716760754585266,4.661174774169922,2.3807315826416016
1758972611072088600,9.708088623046875,0.9852294921875,0.56299889087677,1.4755712747573853
1758972611082046500,9.71804638671875,0.7947865724563599,-2.2054381370544434,0.47559502720832825
1758972611092003600,9.728003662109375,0.15583832561969757,-2.155696153640747,0.6894457936286926
1758972611101960400,9.73796044921875,0.14212119579315186,-0.44270098209381104,0.911927342414856
1758972611111918300,9.74791845703125,1.015773892402649,1.054935336112976,1.1320756673812866
1758972611121875500,9.75787548828125,1.4118090867996216,1.222297191619873,1.7432162761688232
1758972611131832600,9.76783251953125,1.398099660873413,1.892152190208435,2.231426239013672
1758972611141790700,9.777790771484375,1.135094165802002,2.21163010597229,2.6667022705078125
1758972611151747600,9.78774755859375,0.9413939118385315,1.5568807125091553,2.9892566204071045
1758972611161704400,9.797704345703124,0.7827919721603394,1.2057744264602661,2.9210832118988037
1758972611171661600,9.80766162109375,0.5139650702476501,1.1494213342666626,2.595144033432007
1758972611181619500,9.817619384765624,-0.27773788571357727,-0.08890563994646072,2.2710490226745605
1758972611191576600,9.82757666015625,-0.9346755146980286,-1.5197291374206543,2.407968282699585
1758972611201533400,9.837533447265624,-1.0535153150558472,-2.1143693923950195,2.716118097305298
1758972611211491600,9.84749169921875,-0.9425126910209656,-1.7707698345184326,2.7957167625427246
1758972611221448400,9.857448486328124,-0.8791843056678772,-1.1049351692199707,2.8050856590270996
1758972611231405600,9.867405517578124,-0.8646892309188843,-0.45664796233177185,2.9804704189300537
1758972611241363500,9.877363525390624,-0.8173795342445374,-0.16639776527881622,3.219083786010742
1758972611251320600,9.887320556640624,-0.6678592562675476,0.20652280747890472,3.202500820159912
1758972611261277400,9.89727734375,-0.4803825914859772,0.8730717897415161,2.8691370487213135
1758972611271234600,9.907234619140626,-0.254448264837265,1.6126638650894165,2.363295555114746
1758972611281192400,9.9171923828125,-0.0959816575050354,2.1766393184661865,1.9007835388183594
1758972611291149600,9.927149658203126,0.06052832305431366,2.324728488922119,1.5435556173324585
1758972611301106400,9.9371064453125,0.2718738615512848,2.276566743850708,1.2511799335479736
1758972611311064600,9.947064697265626,0.42402318120002747,2.664449453353882,1.0693020820617676
1758972611321021400,9.957021484375,0.42479389905929565,3.1586878299713135,1.0042012929916382
1758972611330978300,9.966978271484376,0.33229804039001465,2.860585927963257,1.0653048753738403
1758972611340935400,9.976935302734375,0.1513487696647644,2.849003314971924,0.9881267547607422
1758972611350893600,9.9868935546875,-0.20596247911453247,2.751877784729004,0.7176148295402527
1758972611360850700,9.9968505859375,-0.5819947123527527,1.8585513830184937,0.3205801546573639
1758972611370807300,10.006807373046875,-0.726470410823822,-0.0398281067609787,-0.14695030450820923
1758972611380765400,10.016765380859376,-0.5275557041168213,-2.2668213844299316,-0.6306549310684204
1758972611390722800,10.026722900390626,-0.2750110626220703,-3.933955192565918,-1.0712895393371582
1758972611400680000,10.036679931640625,-0.1237855926156044,-4.361556053161621,-1.4551587104797363
1758972611410637800,10.046637939453126,0.09246788173913956,-3.3524515628814697,-1.7110812664031982
1758972611420594700,10.0565947265625,0.4087313115596771,-1.78037428855896,-1.8976106643676758
1758972611430551800,10.0665517578125,0.719446063041687,-1.0026767253875732,-2.2134382724761963
1758972611440509000,10.076509033203125,1.019352912902832,-1.115156650543213,-2.514744997024536
1758972611450466800,10.086466796875,1.0667622089385986,-1.4268388748168945,-2.6511521339416504
1758972611460423700,10.096423583984375,0.9155047535896301,-1.941221833229065,-2.876608371734619
1758972611470380800,10.106380859375,0.9661911129951477,-2.5960190296173096,-3.1074941158294678
1758972611480338700,10.116338623046875,1.2114863395690918,-2.5025062561035156,-3.085317611694336
1758972611490295800,10.1262958984375,1.2994023561477661,-1.3598949909210205,-3.080179452896118
1758972611500252700,10.136252685546875,0.8782303333282471,0.4179450571537018,-3.229912042617798
1758972611510209800,10.146209716796875,0.32016947865486145,1.8684325218200684,-3.2337706089019775
1758972611520168000,10.15616796875,0.2739031910896301,2.5597784519195557,-3.117647886276245
1758972611530124800,10.166124755859375,0.47989335656166077,2.552668809890747,-3.0813777446746826
1758972611540081700,10.17608154296875,0.6118250489234924,2.0587334632873535,-3.033336877822876
1758972611550039800,10.186039794921875,2.3828725814819336,0.9402790665626526,-3.1509861946105957
1758972611559997000,10.195996826171875,1.0260409116744995,-0.11555029451847076,-2.8983471393585205
1758972611569953800,10.205953857421875,0.004132959526032209,-1.1001532077789307,-2.0306267738342285
1758972611579911700,10.21591162109375,-0.0908081978559494,-1.7930954694747925,-1.2785511016845703
1758972611589868800,10.225868896484375,0.047815725207328796,-1.8316484689712524,-0.9354254603385925
1758972611599826000,10.235825927734375,0.05494261160492897,-1.0455412864685059,-0.8404382467269897
1758972611609782800,10.24578271484375,-0.1824055016040802,0.21839278936386108,-0.7725657224655151
1758972611619740700,10.25574072265625,-0.5222741365432739,1.0150694847106934,-0.4916520118713379
1758972611629697800,10.26569775390625,-0.6540907621383667,1.3118715286254883,-0.056763146072626114
1758972611639655000,10.275655029296875,-0.5010998249053955,1.7758817672729492,0.5560802817344666
1758972611649612800,10.28561279296875,-0.2956598699092865,2.425917148590088,1.4305031299591064
1758972611659569700,10.295569580078125,-0.38709819316864014,2.72263240814209,1.810256004333496
1758972611669526800,10.30552685546875,-0.5338793992996216,2.105201244354248,1.9315403699874878
1758972611679485000,10.31548486328125,-0.7987477779388428,1.2162749767303467,1.9038914442062378
1758972611689441800,10.32544189453125,-1.0691859722137451,0.5526013970375061,1.7085506916046143
1758972611699398700,10.335398681640624,-1.2898541688919067,-0.1472589522600174,1.438592791557312
1758972611709355800,10.345355712890624,-1.508477807044983,-0.8631030917167664,1.2314180135726929
1758972611719314000,10.35531396484375,-1.5243390798568726,-1.4676645994186401,1.067428469657898
1758972611729270800,10.365270751953124,-1.086402416229248,-2.0127038955688477,1.1540089845657349
1758972611739227600,10.3752275390625,-0.1260490119457245,-1.7340915203094482,1.3150646686553955
1758972611749185800,10.385185791015624,0.3438708186149597,-1.159152626991272,1.4304929971694946
1758972611759143000,10.395142822265624,0.3449949324131012,-1.4562500715255737,1.2584887742996216
1758972611769099800,10.405099853515624,0.12794572114944458,-2.7872490882873535,0.3187236487865448
1758972611779057000,10.415056884765624,-0.23255307972431183,-4.378251552581787,-1.0062583684921265
1758972611789014800,10.425014892578124,-0.6890735030174255,-4.981149196624756,-2.5191407203674316
1758972611798972000,10.434971923828124,-0.8546392917633057,-3.2662718296051025,-3.1986968517303467
1758972611808928800,10.4449287109375,-0.8542744517326355,-0.7848929762840271,-3.0512681007385254
1758972611818886700,10.45488671875,-0.3495081961154938,1.2618701457977295,-2.121394395828247
1758972611828843800,10.46484375,0.6634994149208069,2.9315505027770996,-0.9345961809158325
1758972611838801000,10.47480078125,0.9877187609672546,3.187291383743286,0.6435560584068298
1758972611848758800,10.4847587890625,0.6266084909439087,2.3313541412353516,1.3093242645263672
1758972611858715600,10.494715576171876,-0.010097907856106758,-0.2914656698703766,0.9624767899513245
1758972611868672800,10.5046728515625,-0.41850510239601135,-2.8772175312042236,0.6731842756271362
1758972611878629600,10.514629638671876,-0.08460649847984314,-3.6386475563049316,0.9763297438621521
1758972611888587800,10.524587890625,0.28170570731163025,-2.54380464553833,0.8305246233940125
1758972611898545000,10.534544921875,-0.27729445695877075,-1.656123161315918,-0.2587735056877136
1758972611908501800,10.544501708984376,-0.40429794788360596,-1.762662410736084,-0.9039045572280884
1758972611918460000,10.5544599609375,-0.4086471498012543,-1.671280860900879,-0.31748074293136597
1758972611928416800,10.564416748046876,-0.4415299892425537,-0.796790599822998,0.6269326210021973
1758972611938374000,10.574373779296875,-0.6685999035835266,-0.26193973422050476,0.8558225035667419
1758972611948330800,10.584330810546875,-0.9494709968566895,0.17506103217601776,0.6926549077033997
1758972611958289000,10.594288818359376,-1.2999911308288574,0.4863691031932831,0.9053205847740173
1758972611968245800,10.604245849609375,-1.436890959739685,0.46339669823646545,1.4058374166488647
1758972611978203000,10.614202880859375,-1.4002869129180908,0.5074900984764099,1.759874939918518
1758972611988160800,10.624160888671875,-1.429113507270813,1.0617567300796509,1.993318796157837
1758972611998117600,10.63411767578125,-1.5694024562835693,1.7815868854522705,2.143329620361328
1758972612008074800,10.64407470703125,-1.7547835111618042,2.201251745223999,2.2739078998565674
1758972612018033000,10.654032958984375,-2.0734164714813232,2.2403409481048584,2.3310866355895996
1758972612027989800,10.66398974609375,-2.5475056171417236,2.227686882019043,2.329277276992798
1758972612037946600,10.673946533203125,-2.8534317016601562,2.4963197708129883,2.264496326446533
1758972612047903700,10.68390380859375,-3.019798517227173,2.7216601371765137,2.0910422801971436
1758972612057862000,10.69386181640625,-3.0731239318847656,2.478271007537842,1.7351791858673096
1758972612067819000,10.703819091796875,-3.035611867904663,2.5202460289001465,1.2110978364944458
1758972612077775600,10.713775634765625,-2.957974910736084,2.52382493019104,0.8224067687988281
1758972612087733800,10.723733642578125,-2.956195831298828,2.1977334022521973,0.4506356120109558
1758972612097691000,10.73369091796875,-2.7467830181121826,1.8712384700775146,0.2074623703956604
1758972612107648000,10.74364794921875,-2.6313700675964355,2.0734612941741943,0.10731473565101624
1758972612117604600,10.7536044921875,-2.69354510307312,3.035904884338379,0.25101199746131897
1758972612127562800,10.763562744140625,-2.5731239318847656,3.980574369430542,0.31937479972839355
1758972612137519900,10.773519775390625,-2.4858062267303467,4.1110005378723145,0.046983752399683
1758972612147477000,10.78347705078125,-2.3981549739837646,4.022305011749268,-0.1106807067990303
1758972612157434600,10.7934345703125,-2.314784526824951,3.897559642791748,-0.07154342532157898
1758972612167391700,10.803391845703125,-1.9647585153579712,3.5426816940307617,0.10023951530456543
1758972612177348900,10.813348876953125,-1.6003382205963135,3.408892869949341,0.48338982462882996
1758972612187307000,10.82330712890625,-1.226274847984314,3.6246562004089355,0.7229670286178589
1758972612197263600,10.833263671875,-0.917303204536438,3.6976442337036133,0.8675042390823364
1758972612207220700,10.843220703125,-0.7274357676506042,3.477403402328491,0.8908063173294067
1758972612217177900,10.853177734375,-0.6299859285354614,3.1127467155456543,0.9758179187774658
1758972612227136000,10.863135986328125,-0.6491811871528625,3.031463146209717,1.1678459644317627
1758972612237092600,10.873092529296875,-0.8162359595298767,3.319051742553711,1.2935048341751099
1758972612247049700,10.8830498046875,-1.0220203399658203,3.7510275840759277,1.3805824518203735
1758972612257007900,10.8930078125,-1.1503934860229492,4.400918006896973,1.5424249172210693
1758972612266965000,10.902965087890625,-1.2859925031661987,4.595499038696289,2.0222883224487305
1758972612276921900,10.912921875,-1.3622153997421265,4.549916744232178,2.5029070377349854
1758972612286878700,10.922878662109374,-1.3444018363952637,4.673493385314941,2.6836700439453125
1758972612296836900,10.9328369140625,-1.2558625936508179,4.707674026489258,2.818211078643799
1758972612306793700,10.942793701171874,-1.1995511054992676,4.507519721984863,2.8680620193481445
1758972612316750800,10.952750732421874,-1.1788543462753296,4.1704535484313965,2.7727210521698
1758972612326708700,10.962708740234374,-1.241275429725647,3.7775793075561523,2.5891308784484863
1758972612336665900,10.972665771484374,-1.4617886543273926,3.409475564956665,2.220139503479004
1758972612346622700,10.982622802734374,-1.8329520225524902,3.146878719329834,1.6094608306884766
1758972612356580600,10.99258056640625,-2.238912582397461,2.7524755001068115,0.8853769302368164
1758972612366537700,11.002537841796874,-2.593405246734619,2.39872407913208,0.3258313536643982
1758972612376494800,11.012494873046874,-2.9427552223205566,2.285741090774536,0.0344005823135376
1758972612386451700,11.02245166015625,-3.1887106895446777,2.269641399383545,0.0011587414192035794
1758972612396409300,11.032409423828126,-3.41056489944458,2.337975025177002,0.28641337156295776
1758972612406366200,11.0423662109375,-3.4421579837799072,2.398024797439575,0.850291907787323
1758972612416323000,11.052322998046876,-3.4768550395965576,2.323314905166626,1.497704029083252
1758972612426281200,11.06228125,-3.6406373977661133,2.22300386428833,2.0728049278259277
1758972612436238300,11.07223828125,-3.9440526962280273,2.151784658432007,2.4193060398101807
1758972612446195200,11.0821953125,-4.021889686584473,2.2383410930633545,2.6043314933776855
1758972612456153000,11.092153076171876,-3.9654159545898438,2.346341609954834,2.760615110397339
1758972612466110200,11.102110107421876,-3.891839027404785,2.3102102279663086,2.8997342586517334
1758972612476067000,11.112067138671875,-3.844374418258667,1.987402081489563,2.968008518218994
1758972612486024200,11.122024169921875,-3.7669339179992676,1.6165601015090942,2.9041244983673096
1758972612495982000,11.131982177734375,-3.6178243160247803,1.2852694988250732,2.6714046001434326
1758972612505939200,11.141939208984375,-3.330717086791992,0.9537397623062134,2.246558427810669
1758972612515896000,11.15189599609375,-3.111917018890381,0.9695432186126709,1.863967776298523
1758972612525854200,11.161854248046875,-2.925276517868042,1.1850478649139404,1.6729775667190552
1758972612535811000,11.17181103515625,-2.7010507583618164,1.4165891408920288,1.5393502712249756
1758972612545768200,11.181768310546875,-2.5992178916931152,1.6306513547897339,1.3619000911712646
1758972612555725000,11.19172509765625,-2.5726442337036133,1.7530652284622192,1.186212182044983
1758972612565683200,11.20168310546875,-2.480550765991211,1.8634846210479736,1.089891791343689
1758972612575640300,11.211640380859375,-2.377753496170044,1.912753939628601,1.0068000555038452
1758972612585597200,11.22159716796875,-2.309443950653076,1.9332687854766846,0.887269139289856
1758972612595555000,11.23155517578125,-2.3353850841522217,1.9571328163146973,0.6774096488952637
1758972612605512200,11.24151220703125,-2.3234729766845703,2.0290603637695312,0.37286120653152466
1758972612615469300,11.25146923828125,-2.2776236534118652,2.0606448650360107,0.07199589908123016
1758972612625426200,11.26142626953125,-2.182474136352539,1.966398000717163,-0.18817630410194397
1758972612635384000,11.271384033203125,-2.089183807373047,1.916038155555725,-0.4025849997997284
1758972612645341200,11.281341064453125,-2.0273797512054443,1.9700872898101807,-0.590568482875824
1758972612655298300,11.29129833984375,-1.8652844429016113,1.9185031652450562,-0.8105783462524414
1758972612665256200,11.301256103515625,-1.7446061372756958,1.6920524835586548,-1.0665504932403564
1758972612675213000,11.311213134765625,-1.7072252035140991,1.3528988361358643,-1.2847599983215332
1758972612685170200,11.321170166015625,-1.912899374961853,1.4870012998580933,-0.9220612049102783
1758972612695128300,11.33112841796875,-2.9977238178253174,2.0221729278564453,0.6582354307174683
1758972612705085200,11.341085205078125,-3.561292886734009,1.3984501361846924,0.5593962073326111
1758972612715042000,11.3510419921875,-3.1030640602111816,1.3270609378814697,0.7230927348136902
1758972612724999200,11.360999267578125,-2.2956831455230713,1.256169080734253,0.9485101103782654
1758972612734957300,11.370957275390625,-1.7516348361968994,1.3543814420700073,1.1576268672943115
1758972612744914200,11.3809140625,-1.4262807369232178,1.4266066551208496,1.1768748760223389
1758972612754871000,11.39087109375,-1.0693910121917725,0.9497607350349426,0.9805207848548889
1758972612764829200,11.4008291015625,-0.67491614818573,0.07360897213220596,0.7219587564468384
1758972612774786300,11.410786376953125,-0.33672767877578735,-0.3516738712787628,0.4565321207046509
1758972612784743200,11.4207431640625,-0.10306060314178467,-0.4683203399181366,0.38231489062309265
1758972612794700000,11.430699951171874,0.11150362342596054,-0.3519252836704254,0.3471313416957855
1758972612804658200,11.440658203125,0.298382431268692,0.06449297070503235,0.2936933934688568
1758972612814615300,11.450615234375,0.4348318874835968,0.41553887724876404,0.27538684010505676
1758972612824572200,11.460572265625,0.46261104941368103,0.6224124431610107,0.314114511013031
1758972612834530000,11.470530029296874,0.41689229011535645,0.7956547737121582,0.384128212928772
1758972612844487200,11.480487060546874,0.3857801854610443,0.8864587545394897,0.4222835898399353
1758972612854444300,11.4904443359375,0.38371917605400085,0.8187558650970459,0.41244029998779297
1758972612864401200,11.500401123046874,0.32898640632629395,0.698911726474762,0.3944583535194397
1758972612874359000,11.510359130859374,0.2241438925266266,0.6089267134666443,0.3439160883426666
1758972612884316200,11.520316162109374,0.13415834307670593,0.3535332977771759,0.3035135567188263
1758972612894273300,11.530273193359376,0.08013558387756348,0.13210131227970123,0.3027244508266449
1758972612904231200,11.540231201171874,0.09039913862943649,0.09426738321781158,0.29282549023628235
1758972612914188000,11.55018798828125,0.12883228063583374,0.1157497689127922,0.2919788658618927
1758972612924145200,11.560145263671876,0.13347497582435608,0.17505304515361786,0.34026622772216797
1758972612934103300,11.570103271484374,0.08455802500247955,0.22481846809387207,0.39025747776031494
1758972612944060200,11.58006005859375,-0.009986055083572865,0.27013641595840454,0.4215608239173889
1758972612954017300,11.590017333984376,-0.10253569483757019,0.24966628849506378,0.45899155735969543
1758972612963974100,11.59997412109375,-0.1615430861711502,0.14180506765842438,0.4991706609725952
1758972612973932300,11.609932373046876,-0.2152329534292221,0.0012812467757612467,0.5172066688537598
1758972612983889200,11.61988916015625,-0.2560853064060211,-0.17354223132133484,0.4631756544113159
1758972612993846300,11.62984619140625,-0.2764885723590851,-0.29555147886276245,0.3483981788158417
1758972613003804200,11.63980419921875,-0.3106268346309662,-0.29704180359840393,0.20110434293746948
1758972613013761300,11.64976123046875,-0.3192498981952667,-0.1998308300971985,0.03538195788860321
1758972613023718100,11.65971826171875,-0.28441333770751953,-0.026823891326785088,-0.10426595062017441
1758972613033675300,11.66967529296875,-0.21635040640830994,0.17962674796581268,-0.21968787908554077
1758972613043633200,11.679633056640625,-0.14612391591072083,0.29719093441963196,-0.3008842170238495
1758972613053590000,11.689590087890625,-0.06918440014123917,0.31804320216178894,-0.3177182972431183
1758972613063547100,11.699547119140625,-0.01185239851474762,0.31064656376838684,-0.25790050625801086
1758972613073505300,11.70950537109375,0.016766462475061417,0.24662841856479645,-0.12474352866411209
1758972613083462100,11.719462158203125,0.04240764304995537,0.09883283823728561,0.03506877273321152
1758972613093419000,11.7294189453125,0.09051898121833801,-0.08754902333021164,0.1841655820608139
1758972613103376100,11.739376220703125,0.13595198094844818,-0.20074136555194855,0.31229159235954285
1758972613113334300,11.749334228515625,0.15390780568122864,-0.23136185109615326,0.386173814535141
1758972613123291100,11.759291015625,0.14975380897521973,-0.21560312807559967,0.39305779337882996
1758972613133248000,11.769248046875,0.13376392424106598,-0.11871759593486786,0.35614213347435
1758972613143206100,11.7792060546875,0.12610094249248505,0.017178453505039215,0.27481958270072937
1758972613153163300,11.789163330078125,0.13237135112285614,0.1189919039607048,0.1672411859035492
1758972613163120400,11.799120361328125,0.12576298415660858,0.18321828544139862,0.06603281199932098
1758972613173077000,11.809076904296875,0.11181521415710449,0.22106313705444336,-0.01327079813927412
1758972613183035100,11.81903515625,0.10571683943271637,0.21061742305755615,-0.05385231226682663
1758972613192992300,11.8289921875,0.11176194995641708,0.18240895867347717,-0.04832838475704193
1758972613202949400,11.838949462890625,0.11459289491176605,0.12461622804403305,-0.004195011220872402
1758972613212907000,11.848906982421875,0.11439501494169235,0.018155300989747047,0.04397038742899895
1758972613222864100,11.858864013671875,0.14017681777477264,-0.06399336457252502,0.07945221662521362
1758972613232821200,11.8688212890625,0.17486421763896942,-0.12213363498449326,0.1059434786438942
1758972613242778000,11.878778076171875,0.1928810328245163,-0.12273018062114716,0.0928143560886383
1758972613252736000,11.888736083984375,0.20388709008693695,-0.06428391486406326,0.0253937728703022
1758972613262693000,11.898693115234375,0.19096383452415466,0.3254673182964325,0.1249384731054306
1758972613272650200,11.908650146484375,0.04164890944957733,0.5883564352989197,0.42931169271469116
1758972613282608400,11.9186083984375,-0.1338459551334381,0.001520398654974997,0.2881505787372589
1758972613292565000,11.92856494140625,-0.0989830419421196,-0.15986822545528412,0.21733924746513367
1758972613302522000,11.938522216796875,-0.037085048854351044,-0.26780375838279724,-0.02672562003135681
1758972613312479200,11.948479248046874,-0.05756901949644089,-0.3729780912399292,-0.2435317039489746
1758972613322437400,11.958437255859375,-0.08272950351238251,-0.2551710307598114,-0.2301541119813919
