time,seconds_elapsed,z,y,x
1758972587731046000,0.0570458984375,9.792435012164711,0.46174836398754265,-0.25571230718484145
1758972587741003000,0.0670029296875,9.795247146975994,0.46107663873843846,-0.10454646181133576
1758972587750959900,0.0769599609375,9.794839150696992,0.47663186220154163,0.0658324308465002
1758972587760917000,0.0869169921875,9.790343592843413,0.5115949659679084,0.2404801964625716
1758972587770874000,0.0968740234375,9.781701436704397,0.5543037884902209,0.42596309365071355
1758972587780831000,0.1068310546875,9.769267487066983,0.5903897222740575,0.6190635531704872
1758972587790788900,0.116788818359375,9.75123907842338,0.631058672999218,0.8279386510577053
1758972587800746000,0.12674609375,9.723193133634329,0.676194357342273,1.0828960664883256
1758972587810703000,0.136703125,9.682380061730742,0.7160870264653116,1.3817070174969732
1758972587820660000,0.146659912109375,9.627315761634707,0.7487022519312798,1.7101520592689514
1758972587830616800,0.156616943359375,9.559714051526784,0.7820058249875903,2.0422323888033627
1758972587840574000,0.166573974609375,9.483044653344153,0.8259387824773788,2.357980884478986
1758972587850532000,0.176531982421875,9.400601347935199,0.8838472930233925,2.649131237731874
1758972587860489000,0.186489013671875,9.314369756159186,0.9601001462943851,2.91395063342005
1758972587870446000,0.196446044921875,9.227710294359921,1.0544438789859414,3.1476804788395762
1758972587880403000,0.20640283203125,9.14076733944416,1.1340919276531785,3.3660938049227
1758972587890359800,0.21635986328125,9.04735022007823,1.1693195275746284,3.5984067692816257
1758972587900318000,0.22631787109375,8.943069761392474,1.1482855073742568,3.8565956409141418
1758972587910275000,0.236275146484375,8.813249787780641,1.0741562951937318,4.164517388486862
1758972587920232000,0.24623193359375,8.639138837021589,0.9609479222301394,4.5400712413057684
1758972587930188800,0.256188720703125,8.401396833351255,0.8263071773983538,4.990404148516059
1758972587940146000,0.26614599609375,8.091341873142122,0.6886749956656247,5.497845136609673
1758972587950103000,0.27610302734375,7.715349921166896,0.5553074491074308,6.02788491000235
1758972587960061200,0.286061279296875,7.285567926815152,0.4148711332067847,6.551241844630241
1758972587970017800,0.296017822265625,6.82006463074088,0.24710991680063304,7.042445399150252
1758972587979975000,0.305974853515625,6.374466643097996,0.048861906358529814,7.452125685715675
1758972587989932000,0.31593212890625,6.001890637046098,-0.15788414817731827,7.753886864832043
1758972587999889000,0.325888916015625,5.6793339226603505,-0.3586902501709759,7.986669784790277
1758972588009847000,0.335846923828125,5.392233721581101,-0.5501291696866973,8.172610289552807
1758972588019804000,0.345803955078125,5.157288070631027,-0.7392108585517853,8.30820884656608
1758972588029761000,0.355760986328125,4.982952663466334,-0.932788872455433,8.39466957092285
1758972588039718000,0.3657177734375,4.866539283916354,-1.1240781909000128,8.43941004540324
1758972588049675000,0.375675048828125,4.798949848768115,-1.3092830017991364,8.451405603623389
1758972588059632000,0.385632080078125,4.754126372179389,-1.4984757863558829,8.445309624835849
1758972588069590000,0.395590087890625,4.7253182108461855,-1.69218955546841,8.424858372959495
1758972588079547000,0.405546875,4.700566923688352,-1.8802160727247594,8.398799218073487
1758972588089504000,0.41550390625,4.648839074538648,-2.05968475112468,8.385485562992095
1758972588099461000,0.425461181640625,4.550209188960492,-2.225523109709471,8.397203473314642
1758972588109418000,0.43541796875,4.4107466499954455,-2.380847965325415,8.428953533318639
1758972588119376000,0.4453759765625,4.252699529808759,-2.535415426702797,8.465021456521749
1758972588129333000,0.4553330078125,4.093023347115516,-2.6928213263764977,8.495073480436206
1758972588139289900,0.465289794921875,3.9419069029748437,-2.859973251777887,8.511891344246267
1758972588149247000,0.4752470703125,3.7836061002880332,-3.045733431537449,8.519283792585133
1758972588159204000,0.4852041015625,3.6151585821181533,-3.247652134415507,8.517849960389732
1758972588169161000,0.495160888671875,3.390793361893296,-3.508459956374764,8.506679747077822
1758972588179118800,0.505118896484375,3.037366000686586,-3.805884567591548,8.512347271320223
1758972588189076000,0.515075927734375,2.663543501704931,-4.056677776014805,8.521694360858202
1758972588199033000,0.525033203125,2.3426009445175526,-4.254528791062533,8.519482530027627
1758972588208990000,0.534989990234375,2.0461470780290663,-4.439127525827288,8.501637076735497
1758972588218946800,0.54494677734375,1.7474064157776534,-4.626093866506219,8.468542616385221
1758972588228904000,0.554904052734375,1.4520971892796457,-4.80946744339019,8.422043315538764
1758972588238862000,0.564862060546875,1.1730378905106336,-4.985212425091863,8.363136368539928
1758972588248819000,0.57481884765625,0.9338692881032824,-5.153689753878116,8.290824581044912
1758972588258776000,0.584776123046875,0.7394350226964801,-5.30411353957951,8.215230703139305
1758972588268733000,0.59473291015625,0.5732342970727011,-5.429412820896506,8.146367010271549
1758972588278689800,0.604689697265625,0.43236908823549747,-5.577455264419317,8.05452868452966
1758972588288648000,0.61464794921875,0.2823887537189759,-5.775476083076,7.92051301279366
1758972588298605000,0.62460498046875,0.06647164663206785,-6.005248130780458,7.752610269024967
1758972588308562000,0.63456201171875,-0.23964887847127392,-6.236327753952145,7.564465532216429
1758972588318518800,0.644518798828125,-0.5883852505838498,-6.542976705110073,7.281046649998426
1758972588328476000,0.654475830078125,-0.6763771665632724,-6.852433114904165,6.982627182525396
1758972588338433000,0.66443310546875,-0.44621107803992927,-6.927492739802599,6.926840997895598
1758972588348391200,0.67439111328125,-0.3331098917778581,-6.918664121180773,6.942011679020523
1758972588358347800,0.68434765625,-0.3505674417309463,-6.928401671341061,6.931431832817196
1758972588368305000,0.694304931640625,-0.3540090700848028,-6.911337139293551,6.948271323937178
1758972588378262000,0.704261962890625,-0.3241531897969544,-6.884769450363517,6.976048973178863
1758972588388219000,0.714218994140625,-0.27815736322691664,-6.8597536670506,7.0026289370685815
1758972588398177000,0.724177001953125,-0.22232149423649533,-6.832893717175722,7.030828611114621
1758972588408134000,0.7341337890625,-0.1780219684566371,-6.799741389158368,7.064149865958094
1758972588418091000,0.744091064453125,-0.14496049706051126,-6.76355656157732,7.099556110382079
1758972588428048000,0.7540478515625,-0.1168303902524989,-6.726948540148139,7.134767709016799
1758972588438005000,0.7640048828125,-0.08581290057306178,-6.700136521068215,7.160390226051211
1758972588447962000,0.773962158203125,-0.05585157801620662,-6.684507574781775,7.1752774140596385
1758972588457920000,0.783919921875,-0.03714047292162431,-6.683818423473834,7.176041968691349
1758972588467876900,0.793876953125,-0.024729207756766118,-6.7028200610637665,7.158350244656205
1758972588477834000,0.803833984375,-0.009914568961318582,-6.736590813240409,7.1266159667432305
1758972588487791000,0.813791015625,0.0029133176053466737,-6.7757695619404315,7.089380753326416
1758972588497748000,0.823748046875,0.0043585548274626485,-6.818634890198707,7.048161438709497
1758972588507705900,0.833705810546875,-0.016200823323684745,-6.860912773957848,7.006995900106429
1758972588517663000,0.8436630859375,-0.047627039934485214,-6.902037980550527,6.966347663375735
1758972588527620000,0.8536201171875,-0.08094702070290222,-6.9388137597620485,6.9294082180351015
1758972588537577000,0.863576904296875,-0.11267754488936625,-6.96893125012815,6.898674057075381
1758972588547534000,0.8735341796875,-0.18421780915576963,-7.018915470480919,6.8462611482709645
1758972588557492000,0.883491943359375,-0.24216621332075444,-7.10377051320672,6.756345899546146
1758972588567449000,0.893448974609375,-0.24501791295744477,-7.227611996930837,6.623594548657536
1758972588577406000,0.903406005859375,-0.2007016735048033,-7.403958743917942,6.427400945428014
1758972588587363000,0.913363037109375,-0.10693078139829448,-7.644978161823749,6.141112060731649
1758972588597320200,0.9233203125,0.041300348530453626,-7.9283830155164,5.771431191599369
1758972588607276800,0.93327685546875,0.20453230117624624,-8.15274122147858,5.446226593053341
1758972588617235000,0.94323486328125,0.2981456920329481,-8.258484153932333,5.280049357903003
1758972588627192000,0.953192138671875,0.33905294502601024,-8.29950005493164,5.212841615548729
1758972588637149000,0.96314892578125,0.3927902708346024,-8.353445580130815,5.122113296875358
1758972588647106000,0.97310595703125,0.4847537207935005,-8.444228259339928,4.962904731693864
1758972588657063000,0.98306298828125,0.6044172612458467,-8.562788003268837,4.7417035284578795
1758972588667020000,0.99302001953125,0.7656456418171524,-8.686069515022634,4.4873570114672185
1758972588676978000,1.00297802734375,0.9676458854988217,-8.813660122147201,4.189682809403538
1758972588686935000,1.01293505859375,1.2032295420914887,-8.952200577831269,3.818469031615555
1758972588696892000,1.022891845703125,1.4496277304261922,-9.095347650527954,3.3680282801166177
1758972588706848800,1.032848876953125,1.66245229659155,-9.222374194028973,2.8904095988348124
1758972588716806000,1.042805908203125,1.8177330208048224,-9.329435807865858,2.4140982007592915
1758972588726764000,1.052763916015625,1.9058013264887035,-9.421904248204827,1.940630647807568
1758972588736721200,1.06272119140625,1.932873311679065,-9.504825692519544,1.446614227823913
1758972588746677800,1.072677734375,1.9754466712534426,-9.563542085382341,0.8981515665773302
1758972588756635000,1.082634765625,2.0763499085910615,-9.580328969532252,0.2765399728918448
1758972588766592000,1.092592041015625,2.1677089263834057,-9.557772269809245,-0.34699330957122143
1758972588776548900,1.102548828125,2.205307858546078,-9.53810778439641,-0.5757646192679181
1758972588786507000,1.112507080078125,2.2108111321374775,-9.546614331457018,-0.380594294671528
1758972588796463900,1.1224638671875,2.2592511917881666,-9.541545942151545,-0.1583288780038245
1758972588806421000,1.1324208984375,2.369294744045287,-9.516087091246247,-0.029851886816031764
1758972588816377900,1.1423779296875,2.4894664532154795,-9.485368127855658,-0.02705531490006251
1758972588826335000,1.1523349609375,2.5411428644388914,-9.471053186777233,-0.11021609581243245
1758972588836292900,1.16229296875,2.5302491299808025,-9.47327787708938,-0.15888185397777704
1758972588846250000,1.17225,2.5028520044893026,-9.480545822265743,-0.15920909490445628
1758972588856206800,1.182206787109375,2.4890637176334858,-9.484145308062434,-0.16105468623852356
1758972588866164000,1.1921640625,2.497255791917443,-9.481794945544005,-0.17227500403616577
1758972588876121000,1.20212109375,2.5210063776001332,-9.475302076393366,-0.1832084129175171
1758972588886078000,1.212077880859375,2.5531191334366796,-9.466758704453706,-0.18012098656250164
1758972588896035800,1.222035888671875,2.5951754833996294,-9.45546807963252,-0.17193041011588647
1758972588905993000,1.231992919921875,2.6554934662401672,-9.438620405206084,-0.1765421782276593
1758972588915950000,1.2419501953125,2.7215131678536535,-9.419186805939674,-0.2065407366555184
1758972588925907000,1.251906982421875,2.7884976228460667,-9.399027230486274,-0.2301113991940394
1758972588935864000,1.261864013671875,2.853916435956955,-9.37977015683055,-0.21322174878939984
1758972588945822000,1.271822021484375,2.869231493988633,-9.376551779305935,-0.1348133249197155
1758972588955779000,1.281779052734375,2.7803227919578553,-9.404207263472676,0.032509799179981924
1758972588965736000,1.29173583984375,2.5762200230389833,-9.457907289478182,0.28541155387256295
1758972588975693000,1.301693115234375,2.3268131544075903,-9.510776125356555,0.5490581429217011
1758972588985650200,1.311650146484375,2.1640466044835747,-9.53700712967813,0.7299220020070671
1758972588995606800,1.321606689453125,2.0859033343560993,-9.548663665202259,0.80150730185844
1758972589005565000,1.33156494140625,2.0290708555437624,-9.55897346229255,0.8241811982203274
1758972589015522000,1.34152197265625,1.9466531229674815,-9.573919102489947,0.8491162444472312
1758972589025479200,1.351479248046875,1.7691024070180952,-9.60965092560649,0.8338377920988946
1758972589035436000,1.36143603515625,1.4757682799853384,-9.665938045495748,0.7497597981601953
1758972589045393000,1.371392822265625,1.0822631023470313,-9.725607793560624,0.6416123618479818
1758972589055351000,1.38135107421875,0.6292419789660721,-9.771467627459764,0.5411860578397288
1758972589065308000,1.391307861328125,0.16512480348795652,-9.795575648277998,0.43571408781446513
1758972589075265000,1.40126513671875,-0.2434284335426055,-9.799440507012605,0.28655639479244127
1758972589085222000,1.411221923828125,-0.557075006769225,-9.790520702975988,0.07601088860812596
1758972589095179000,1.421178955078125,-0.8018119838934391,-9.772092481359838,-0.1835344300014898
1758972589105135900,1.431135986328125,-1.0407533534161746,-9.740152451741695,-0.4654326419908553
1758972589115094000,1.441093994140625,-1.3125083935864268,-9.688846627396345,-0.7575938527867198
1758972589125051100,1.451051025390625,-1.6014662052311002,-9.615911739566922,-1.067684541896358
1758972589135007700,1.4610078125,-1.8701529438719153,-9.525693708503246,-1.3907061703801153
1758972589144964900,1.47096484375,-2.1155733732156454,-9.425239530107378,-1.6910414083465932
1758972589154922000,1.480921875,-2.3726821945264933,-9.31756825993955,-1.92969351259917
1758972589164880100,1.490880126953125,-2.6594267140358685,-9.20372853026986,-2.095053440017253
1758972589174837000,1.5008369140625,-2.9443136229798195,-9.093264414513111,-2.1940708636082706
1758972589184793900,1.5107939453125,-3.198393597988784,-8.997009441372752,-2.234836735369265
1758972589194751000,1.5207509765625,-3.432293539278209,-8.90933934122622,-2.239072619373351
1758972589204707800,1.530707763671875,-3.6583705318570137,-8.814904569250345,-2.254812478688359
1758972589214665000,1.5406650390625,-3.8850893294706936,-8.701041458705067,-2.3169737513080237
1758972589224622800,1.550622802734375,-4.101355706652999,-8.572435537058114,-2.4212939574822783
1758972589234580000,1.560580078125,-4.284047731013596,-8.441899524131417,-2.559627492417395
1758972589244536800,1.570536865234375,-4.416281195507944,-8.327709665849804,-2.7048358815580604
1758972589254494000,1.580493896484375,-4.48788571151644,-8.254687099736929,-2.8088094662517307
1758972589264451000,1.590451171875,-4.511290260240435,-8.223218779283762,-2.8630913837984204
1758972589274408000,1.600407958984375,-4.505329306009411,-8.22102273054421,-2.878746633569896
1758972589284365800,1.61036572265625,-4.470639393161237,-8.251610761031507,-2.845112074993551
1758972589294323000,1.620322998046875,-4.397549899291992,-8.323394725260139,-2.748283685879409
1758972589304280000,1.630280029296875,-4.284699472920597,-8.431008127760887,-2.5941964092344043
1758972589314237000,1.64023681640625,-4.13806572715193,-8.558931327840686,-2.4065536305986344
1758972589324194000,1.650194091796875,-3.9624674604445693,-8.69525410747528,-2.2049527614980935
1758972589334152000,1.66015185546875,-3.7654827068373558,-8.831388086539507,-1.999531457326561
1758972589344109000,1.670109130859375,-3.5581983852729198,-8.95956438459754,-1.798832651632279
1758972589354066000,1.68006591796875,-3.3488694061383604,-9.077251437345147,-1.5996794679448008
1758972589364023000,1.69002294921875,-3.140073510967195,-9.18345555756986,-1.40517016454041
1758972589373980200,1.699980224609375,-2.9320068068534133,-9.276965615916252,-1.2294763285040855
1758972589383937000,1.70993701171875,-2.7257082814559337,-9.356840532141923,-1.0910584032211452
1758972589393895000,1.71989501953125,-2.5402766029983757,-9.419130107316374,-0.9986691655982285
1758972589403852000,1.72985205078125,-2.4136744223892688,-9.456075982397794,-0.9629158613022416
1758972589413809200,1.73980908203125,-2.3842292783267793,-9.458767121177912,-1.0087509260863066
1758972589423766000,1.74976611328125,-2.5145114626228806,-9.408584163382649,-1.1515909055951983
1758972589433723000,1.759722900390625,-2.825911407700181,-9.289862506890296,-1.3722516452789306
1758972589443681000,1.769680908203125,-3.148319069004059,-9.147970987212657,-1.6040835481226443
1758972589453638100,1.77963818359375,-3.3378298334687946,-9.053574793681502,-1.7498796740233897
1758972589463595000,1.789594970703125,-3.378508173076808,-9.047711454606056,-1.7014691327281295
1758972589473552000,1.7995517578125,-3.284708191873133,-9.109664929693936,-1.5476049973145127
1758972589483509000,1.809509033203125,-3.1154356210559606,-9.184590114557743,-1.4518081432051957
1758972589493465900,1.8194658203125,-2.9066631067603823,-9.253235196238755,-1.4489073071971534
1758972589503424000,1.829424072265625,-2.662289994512498,-9.31591172490418,-1.5153804516665637
1758972589513381000,1.839381103515625,-2.398721329537779,-9.376071302312612,-1.5829671103358267
1758972589523338000,1.849337890625,-2.0962444033674896,-9.441067213836313,-1.6255338940389454
1758972589533294800,1.859294921875,-1.8254507555752992,-9.494937920233607,-1.638381831304729
1758972589543252000,1.869251953125,-1.636175261171162,-9.529973577779531,-1.6349173700645565
1758972589553209000,1.879208984375,-1.496250219260901,-9.553145194530487,-1.6337126704499125
1758972589563167000,1.8891669921875,-1.3540455419808626,-9.573348024603725,-1.6394973913311957
1758972589573123800,1.899123779296875,-1.174833249494806,-9.599796471068263,-1.622990931557864
1758972589583081000,1.9090810546875,-0.9437837292004376,-9.635577978545427,-1.5605468964740632
1758972589593038000,1.9190380859375,-0.6575475976046175,-9.674846159094571,-1.4612955179966984
1758972589602995000,1.928994873046875,-0.29508462396189566,-9.709783616963028,-1.3429272049866616
1758972589612952800,1.938952880859375,0.14302915453859605,-9.731262458321451,-1.2051852062039077
1758972589622910000,1.948909912109375,0.6238624778848141,-9.728949505203962,-1.0624207030840218
1758972589632867000,1.9588671875,1.1007334095392376,-9.698555535984038,-0.9469863976992666
1758972589642824000,1.968823974609375,1.528972777558863,-9.647142744132875,-0.8748007938671857
1758972589652781000,1.978781005859375,1.8746220521099863,-9.588646131500601,-0.8450154580648988
1758972589662738200,1.98873828125,2.1663468442499636,-9.528220012110472,-0.830880622793734
1758972589672696000,1.998696044921875,2.453863517175615,-9.46102629828155,-0.7986965552866458
1758972589682653000,2.00865283203125,2.7511101414769885,-9.384265714684128,-0.7330296126335859
1758972589692610000,2.018610107421875,3.0285210154518483,-9.303988062876462,-0.6589703969493508
1758972589702567200,2.028567138671875,3.253662773007154,-9.230866712564229,-0.6125035005351528
1758972589712524000,2.03852392578125,3.4023297781690953,-9.177652424249052,-0.6043292176362127
1758972589722481000,2.04848095703125,3.46191681638658,-9.15449308245778,-0.6170650728296488
1758972589732439000,2.05843896484375,3.4582287755236027,-9.15479294218719,-0.63309025189206
1758972589742396200,2.068396240234375,3.420950015226006,-9.166340172117948,-0.6675918756265193
1758972589752353000,2.07835302734375,3.342404009516537,-9.190295632722973,-0.7329216222144663
1758972589762310100,2.08831005859375,3.2103605146363376,-9.23163126719594,-0.800601365994662
1758972589772267000,2.09826708984375,3.0287405034214254,-9.28776641139388,-0.8570337395735085
1758972589782225200,2.10822509765625,2.8136887627258895,-9.350437679362296,-0.907110022123903
1758972589792182000,2.11818212890625,2.5682442218542096,-9.417396999913453,-0.9418879785817116
1758972589802139100,2.12813916015625,2.2851050333604217,-9.491702007052302,-0.9253572611499578
1758972589812096000,2.138095947265625,1.9430217807278036,-9.575558686390519,-0.8388977789022027
1758972589822052900,2.148052978515625,1.549612830005586,-9.656075407651066,-0.7275353260662406
1758972589832010000,2.158010009765625,1.1650502527575939,-9.71488824662566,-0.6587860533583909
1758972589841968000,2.167968017578125,0.8476593236371874,-9.747336225765943,-0.6642914458416402
1758972589851925200,2.17792529296875,0.5730958019174635,-9.760724699649215,-0.7551051777761429
1758972589861881900,2.1878818359375,0.26641976182321087,-9.759880650040508,-0.9187635619733482
1758972589871839000,2.1978388671875,-0.1288383604296483,-9.743995098644495,-1.0992493084613233
1758972589881796000,2.207796142578125,-0.604407324373722,-9.705813544288278,-1.2658048023395239
1758972589891754000,2.21775390625,-1.062072839494422,-9.639474985983966,-1.457029384984821
1758972589901711000,2.227711181640625,-1.4299768351472912,-9.551027471724153,-1.7039513049326835
1758972589911668000,2.23766796875,-1.74404629169479,-9.447965741178393,-1.9658743946574626
1758972589921624800,2.247624755859375,-2.104224003944546,-9.323221755656599,-2.195490521147847
1758972589931582000,2.25758203125,-2.5305396373599764,-9.176437203240393,-2.357916733201593
1758972589941539000,2.2675390625,-2.965113834424317,-9.024057022774219,-2.4382202501028774
1758972589951497000,2.2774970703125,-3.3528897476956248,-8.87891965304315,-2.4684683811113235
1758972589961453800,2.287453857421875,-3.681298110719025,-8.737453080779314,-2.505063543058932
1758972589971411000,2.297410888671875,-3.963328168927133,-8.591745217683911,-2.577656193321943
1758972589981368000,2.3073681640625,-4.203921762636304,-8.450086922240256,-2.6633567469611763
1758972589991325000,2.317324951171875,-4.403479581601918,-8.3219743370682,-2.7430779339298605
1758972590001282000,2.327281982421875,-4.552695160557329,-8.21273947084546,-2.8274118753910065
1758972590011240000,2.337239990234375,-4.6536219249010085,-8.127233270734548,-2.909002947884798
1758972590021197000,2.347197021484375,-4.7089133117511865,-8.069778860631585,-2.9791201479449865
1758972590031154000,2.35715380859375,-4.720923483018577,-8.042612036764622,-3.033089054019749
1758972590041111000,2.367111083984375,-4.701729245465994,-8.04828131457269,-3.047831572860479
1758972590051068200,2.377068115234375,-4.650780856256187,-8.095806451335548,-2.9997622462183235
1758972590061026000,2.387026123046875,-4.56433971338272,-8.186959132900833,-2.8828648825436827
1758972590070983000,2.39698291015625,-4.432459592370689,-8.315022033712268,-2.7173706612214445
1758972590080940000,2.40693994140625,-4.242856473447382,-8.47658271497786,-2.513179337236285
1758972590090897200,2.416897216796875,-4.003834659099579,-8.655205005681514,-2.2862816759243607
1758972590100854000,2.42685400390625,-3.739639532789588,-8.82621623685956,-2.069635797905177
1758972590110811000,2.436810791015625,-3.4793975280195473,-8.975722907716035,-1.8709831110857427
1758972590120769000,2.44676904296875,-3.2189582471117375,-9.11329481062889,-1.6602936572529374
1758972590130726100,2.45672607421875,-2.9274224016726014,-9.250420138818026,-1.4249036235362291
1758972590140683000,2.46668310546875,-2.587897016829252,-9.381642380443214,-1.2074548316363245
1758972590150640000,2.47664013671875,-2.2065255637727677,-9.499828614884615,-1.0270825554601848
1758972590160597000,2.486596923828125,-1.8006506608396768,-9.599428806799649,-0.8826138787709176
1758972590170553900,2.496553955078125,-1.4358537643566727,-9.669319504627586,-0.7829325113784521
1758972590180512000,2.506511962890625,-1.2742122729398309,-9.696029816898703,-0.7306123954240232
1758972590190469000,2.51646923828125,-1.4914794977277517,-9.664919808363914,-0.7315854051746428
1758972590200426000,2.526426025390625,-2.1134726015441117,-9.537631983578205,-0.8586115833494812
1758972590210382800,2.5363828125,-2.9477772074371575,-9.291783830341696,-1.0694751516401768
1758972590220340000,2.546340087890625,-3.5734772029474375,-9.041873249971866,-1.2826489696346222
1758972590230298000,2.556298095703125,-3.7629771537572143,-8.963747807762026,-1.2890364787146449
1758972590240255200,2.566255126953125,-3.5355724197059866,-9.104261609345674,-0.8846009609349071
1758972590250211800,2.5762119140625,-3.115238344918191,-9.290112097737193,-0.39932628500722345
1758972590260169000,2.5861689453125,-2.701600552898645,-9.426792604768275,-0.08559885596358217
1758972590270126000,2.5961259765625,-2.3404968118451532,-9.523040563645958,0.06441553608616814
1758972590280083000,2.6060830078125,-1.9838339758485555,-9.603096097135543,0.12379891409086995
1758972590290041000,2.616041015625,-1.5736369719326495,-9.67885890186727,0.11731115950676611
1758972590299998000,2.625998046875,-1.1249415297310799,-9.741873284184932,0.028520551447302568
1758972590309955000,2.635955078125,-0.6990355730950832,-9.780719439929722,-0.1388954431341961
1758972590319912000,2.645911865234375,-0.3766743812814355,-9.793170340701938,-0.3497587556965649
1758972590329869000,2.655869140625,-0.217080177783221,-9.788467862099408,-0.5560308680111542
1758972590339826200,2.665826171875,-0.19797592006903142,-9.780056592106819,-0.694040029830113
1758972590349783800,2.67578369140625,-0.12427308920756913,-9.778646725308894,-0.7300907827027142
1758972590359741000,2.685740966796875,0.3655662368876859,-9.777587571644782,-0.6599649609446525
1758972590369698000,2.695697998046875,1.02272516396828,-9.738622173434495,-0.532593549528718
1758972590379655200,2.7056552734375,1.585919676531106,-9.667380645519495,-0.4438215160222724
1758972590389612300,2.7156123046875,1.9969731511458753,-9.591642390707134,-0.4276269717423245
1758972590399570200,2.725570068359375,2.3176024046003816,-9.517696280008554,-0.4610364528585225
1758972590409527300,2.73552734375,2.623337748044729,-9.434372100111842,-0.530188351550512
1758972590419484200,2.745484130859375,2.9163758147403596,-9.344138286957143,-0.5934786647327244
1758972590429441300,2.755441162109375,3.145002199541032,-9.268438610589504,-0.6126793320260941
1758972590439398400,2.7653984375,3.2873443855956195,-9.21889161261022,-0.6130225194405764
1758972590449355000,2.77535498046875,3.368006652806699,-9.18731983178258,-0.6481308768965304
1758972590459313200,2.785313232421875,3.4042765283226966,-9.167976833409071,-0.7276603406853973
1758972590469270300,2.795270263671875,3.3831966231539843,-9.16680077536702,-0.8331386308535933
1758972590479227400,2.805227294921875,3.295800079251826,-9.188351512917876,-0.9392951125442981
1758972590489184300,2.815184326171875,3.1759991030901666,-9.222894418510794,-1.0107596355602144
1758972590499141000,2.82514111328125,3.0573312226116656,-9.26049904976189,-1.0326054836001246
1758972590509099300,2.835099365234375,2.9440976421415805,-9.300686098721624,-0.9999576710388064
1758972590519056400,2.845056396484375,2.8229724316388367,-9.345305577170848,-0.9308555663052945
1758972590529013200,2.85501318359375,2.6438687871590254,-9.406294006618857,-0.8378491466321051
1758972590538970000,2.86497021484375,2.359130492905527,-9.491331420174241,-0.7207710926283151
1758972590548927200,2.87492724609375,1.9892253134980797,-9.583707506054639,-0.6049232745392248
1758972590558884000,2.884884033203125,1.6024682218804955,-9.660358784058689,-0.529094236170873
1758972590568842200,2.89484228515625,1.2640968293778598,-9.711221540811657,-0.5144123980088159
1758972590578799400,2.90479931640625,0.9930470879327505,-9.740428346073626,-0.5552398272313177
1758972590588756200,2.914756103515625,0.7282186321552843,-9.759884157171845,-0.6202938986830413
1758972590598713000,2.924713134765625,0.39868535675518213,-9.773913851568102,-0.6942858943499625
1758972590608670200,2.934670166015625,-0.016239690604415952,-9.77447616162598,-0.7935531279835849
1758972590618628400,2.94462841796875,-0.48859297016281633,-9.750481538054347,-0.9272415405265987
1758972590628585200,2.954585205078125,-0.9613547494653611,-9.700467507085204,-1.0710339984547346
1758972590638542000,2.9645419921875,-1.3934572226539252,-9.631326750841737,-1.2108706314291804
1758972590648499200,2.974499267578125,-1.7775946332924066,-9.54759749727547,-1.3615890892282128
1758972590658456300,2.984456298828125,-2.138742213487625,-9.452211708185077,-1.5006192281253634
1758972590668413200,2.9944130859375,-2.522866326253116,-9.342785118782519,-1.5867966054961085
1758972590678371000,3.00437109375,-2.9234309939488767,-9.220283943751454,-1.6156510901890695
1758972590688328200,3.014328125,-3.3121357125028967,-9.08729644601941,-1.619003323226422
1758972590698285300,3.024285400390625,-3.6473949643343686,-8.950728167191148,-1.658719685934484
1758972590708242200,3.0342421875,-3.926941096772253,-8.81202112276852,-1.7600614608198404
1758972590718199300,3.04419921875,-4.169152062550187,-8.674093830546736,-1.8837980228647588
1758972590728156400,3.054156494140625,-4.367362850821018,-8.548101890790463,-2.0066034415394065
1758972590738114000,3.064114013671875,-4.512585853008925,-8.44534528067112,-2.1173259159713984
1758972590748071200,3.0740712890625,-4.599060898151993,-8.366445346957445,-2.2409030496709046
1758972590758028300,3.0840283203125,-4.6410570423603055,-8.301784950998425,-2.389840834598243
1758972590767985200,3.093985107421875,-4.650174414795637,-8.248315811139344,-2.5517732717856765
1758972590777942300,3.1039423828125,-4.6309600112378595,-8.210363973885775,-2.7045371908724305
1758972590787900200,3.113900146484375,-4.591417105400562,-8.201319666686654,-2.7977929821968077
1758972590797857300,3.123857177734375,-4.53893931466639,-8.230537577864528,-2.797622594065964
1758972590807814100,3.133814208984375,-4.470846606171131,-8.293359652480483,-2.7206787628561258
1758972590817771300,3.143771240234375,-4.376932935459911,-8.382692717403174,-2.596783795379102
1758972590827728400,3.153728271484375,-4.239109980395436,-8.498430974170565,-2.4447861844897267
1758972590837685000,3.16368505859375,-4.0557361112505195,-8.636085879191755,-2.267020656745881
1758972590847643100,3.17364306640625,-3.8427904029235243,-8.781105760022998,-2.0725657138772307
1758972590857600300,3.183600341796875,-3.622209085151553,-8.919472028183936,-1.8689679718710481
1758972590867557400,3.193557373046875,-3.38511648530066,-9.053640844655037,-1.6561965971976518
1758972590877514200,3.20351416015625,-3.1006551082924005,-9.189802880769967,-1.450467103859782
1758972590887471000,3.21347119140625,-2.7513401508405804,-9.324753787529469,-1.2843177796296774
1758972590897428200,3.22342822265625,-2.350754878748208,-9.449169271749257,-1.1651350814968346
1758972590907386400,3.233386474609375,-1.9318843006417155,-9.554304885959624,-1.073991752281785
1758972590917343200,3.24334326171875,-1.5532694528169928,-9.631178866803646,-0.9990704398754984
1758972590927300000,3.253300048828125,-1.3215946402311325,-9.67115841049254,-0.9447198410067706
1758972590937257200,3.26325732421875,-1.3982644768051802,-9.662176647135615,-0.9260708893120289
1758972590947214000,3.273214111328125,-1.8013303136669099,-9.590393851950765,-0.9746382286041975
1758972590957171200,3.283171142578125,-2.4844737594947217,-9.419533427420259,-1.1270249118763953
1758972590967129300,3.29312939453125,-3.2133690488025546,-9.167625535753368,-1.3413796832837164
1758972590977086200,3.303086181640625,-3.5942201312467454,-9.001981969088316,-1.4887319525852798
1758972590987043000,3.31304296875,-3.5629400268420577,-9.0410438134104,-1.3173400515265763
1758972590997000200,3.323000244140625,-3.226940185776353,-9.22944983150363,-0.7579681659918278
1758972591006957300,3.332957275390625,-2.7370301781982183,-9.41445802385211,-0.21697408706024288
1758972591016915200,3.342915283203125,-2.198473044089973,-9.556006429180503,0.1407917508753482
1758972591026872000,3.3528720703125,-1.6750186404369771,-9.654624039798975,0.39108478209096936
1758972591036829200,3.3628291015625,-1.188369315155223,-9.717544314092397,0.5722727220315486
1758972591046786300,3.372786376953125,-0.7390816061489284,-9.757472419854999,0.6449008089341223
1758972591056743200,3.3827431640625,-0.34661468551717695,-9.782454885420202,0.5948350112451241
1758972591066700300,3.3927001953125,-0.08239193141474388,-9.796011117085813,0.4491940393734723
1758972591076658200,3.402658203125,0.014831305660813813,-9.803698748978972,0.24009044822631403
1758972591086615300,3.412615234375,-0.002304211546963779,-9.80664883095622,-0.0039899572646216255
1758972591096572200,3.422572265625,-0.006548158414030331,-9.80338486072421,-0.2529677942496724
1758972591106529300,3.432529296875,0.3642144204199314,-9.790155376794933,-0.43658761924598366
1758972591116486400,3.442486328125,0.9985167515154927,-9.744185652780532,-0.47350496235266326
1758972591126444300,3.4524443359375,1.6245419603921472,-9.662468908080458,-0.4098399706391617
1758972591136401200,3.462401123046875,2.099761325447261,-9.571944587546586,-0.3732012618107721
1758972591146358300,3.472358154296875,2.4640800830245015,-9.482139813458918,-0.43329445945210754
1758972591156315400,3.4823154296875,2.764367974717915,-9.391911261001228,-0.566282724369131
1758972591166272300,3.492272216796875,3.002949059560895,-9.310180487775803,-0.6879044496845453
1758972591176229000,3.50222900390625,3.172040720853209,-9.247495191282033,-0.7696547313280403
1758972591186187300,3.512187255859375,3.2754879435852167,-9.204761380448938,-0.8449484572432935
1758972591196144400,3.522144287109375,3.3354601817280054,-9.172876880410312,-0.9504868070356547
1758972591206101200,3.532101318359375,3.3501933482185002,-9.153944216403364,-1.073267821921408
1758972591216058400,3.542058349609375,3.331557913592458,-9.148268508854509,-1.1748619641326368
1758972591226015200,3.55201513671875,3.2689109032824635,-9.161627756643295,-1.24467229020074
1758972591235972000,3.56197216796875,3.148482442872226,-9.199284994864463,-1.2769535344719887
1758972591245930200,3.57193017578125,2.9944416357174513,-9.249732741075753,-1.2830194103822112
1758972591255887400,3.581887451171875,2.8271593619346618,-9.303629166436195,-1.2728051826208828
1758972591265844200,3.59184423828125,2.6553406137660143,-9.358362042620778,-1.241214550962299
1758972591275801000,3.601801025390625,2.4565666386544702,-9.423058094415069,-1.1582847772106528
1758972591285758200,3.61175830078125,2.1881676309138536,-9.507438505366444,-0.9954559026401489
1758972591295716400,3.62171630859375,1.8493771362163125,-9.597955227115749,-0.7933793788518756
1758972591305673200,3.631673095703125,1.5308949777930974,-9.665684362995624,-0.6334771323177963
1758972591315630000,3.641630126953125,1.2838546921625733,-9.707067343741654,-0.5430690220421179
1758972591325587200,3.651587158203125,1.0394847947850823,-9.739410108941794,-0.4834925052186474
1758972591335544000,3.6615439453125,0.7200743425358086,-9.769680159521103,-0.45298155855555083
1758972591345501200,3.671501220703125,0.31792711835633963,-9.789932089433073,-0.4759720831185579
1758972591355459300,3.681459228515625,-0.1215672551818192,-9.789774268522859,-0.5620620744667947
1758972591365416200,3.691416259765625,-0.5564767486151307,-9.766612004122138,-0.6884674173295497
1758972591375373000,3.701373046875,-0.9842700533676892,-9.722501644238829,-0.8213088576544075
1758972591385330000,3.711329833984375,-1.4172026937700808,-9.657253803780675,-0.9483325516112148
1758972591395287000,3.721287109375,-1.8537942220062016,-9.571505027085543,-1.058351700079441
1758972591405244000,3.731243896484375,-2.296083669622987,-9.466364152178167,-1.134169669064507
1758972591415201800,3.741201904296875,-2.726252763596177,-9.347932418543099,-1.1636577024206518
1758972591425159000,3.751158935546875,-3.1112185878828167,-9.22588717058599,-1.1720502677127718
1758972591435116000,3.761115966796875,-3.4474890625834465,-9.101143185064196,-1.2059688308622687
1758972591445073000,3.771072998046875,-3.750728205297887,-8.970551058036088,-1.2773495480522512
1758972591455030000,3.781030029296875,-4.032465418039262,-8.83346898446679,-1.37091922763139
1758972591464988000,3.79098779296875,-4.296046504104138,-8.692564137738943,-1.467532220429182
1758972591474945000,3.800945068359375,-4.525886064086854,-8.562498664933443,-1.5395958783820272
1758972591484902000,3.81090185546875,-4.702001340405642,-8.456747549173235,-1.5953050522528587
1758972591494859000,3.82085888671875,-4.82617833969444,-8.364843172457814,-1.7052363763071596
1758972591504816000,3.830816162109375,-4.9125651220321656,-8.278179034483433,-1.8731889505669475
1758972591514773000,3.84077294921875,-4.965628019177913,-8.203412255051731,-2.0535183374494315
1758972591524731000,3.85073095703125,-4.991254627865553,-8.150829834899305,-2.1958362658455965
1758972591534688000,3.86068798828125,-4.995160987654328,-8.131336614400148,-2.258338460857421
1758972591544645000,3.87064501953125,-4.969876324272155,-8.156930489861965,-2.2215382778570056
1758972591554602000,3.88060205078125,-4.896123982580006,-8.228601641365886,-2.1186033885613083
1758972591564559000,3.89055908203125,-4.76471790882051,-8.337418574437498,-1.9887820997752248
1758972591574517000,3.90051708984375,-4.580854210332036,-8.475316056042908,-1.8317068933606147
1758972591584474000,3.91047412109375,-4.349012370616197,-8.634410054934024,-1.644224419853091
1758972591594431000,3.920430908203125,-4.081185609805583,-8.800681982630492,-1.436062877062708
1758972591604388000,3.93038818359375,-3.796307468689978,-8.960221387201548,-1.2136134273312986
1758972591614345000,3.940344970703125,-3.4783941961959,-9.11678615987599,-0.9774265441484749
1758972591624301800,3.9503017578125,-3.101087362229824,-9.271767462751269,-0.766808913442865
1758972591634260000,3.960260009765625,-2.671707226677239,-9.415214395177363,-0.6213842512030154
1758972591644217000,3.970217041015625,-2.225606550209224,-9.536454756492375,-0.5225820047326386
1758972591654174200,3.98017431640625,-1.8135370304197072,-9.62744026479721,-0.4402727009668946
1758972591664130800,3.990130859375,-1.5740248022064565,-9.672590489122271,-0.36584249654579903
1758972591674088000,4.000087890625,-1.7258569934010504,-9.649137717342375,-0.29311113193184135
1758972591684046000,4.010046142578125,-2.3518748226888477,-9.51639864141345,-0.2778609740962274
1758972591694003000,4.0200029296875,-3.183555802080035,-9.265910553416608,-0.4222096594013273
1758972591703960000,4.0299599609375,-3.8309357144787906,-9.008376054039598,-0.5860749643474817
1758972591713917000,4.0399169921875,-4.1627834043011065,-8.857876280492544,-0.616155702899769
1758972591723874000,4.0498740234375,-4.153593551151454,-8.877102959010005,-0.33923495052941144
1758972591733831000,4.059830810546875,-3.871529006151855,-9.007439065450429,0.21837900368841365
1758972591743789000,4.0697890625,-3.569479950004816,-9.115107997530698,0.58653739422746
1758972591753746000,4.079745849609375,-3.3636659932538864,-9.187941178551316,0.661744099446386
1758972591763702800,4.089702880859375,-3.1596646388828753,-9.261723038598895,0.6382927159059792
1758972591773660000,4.099659912109375,-2.830178125233948,-9.365833985936641,0.6645549921486527
1758972591783617000,4.109616943359375,-2.3911416880637404,-9.483788165187836,0.7145526565048843
1758972591793574000,4.119573974609375,-1.9092961828671395,-9.59178384500444,0.7229273208141327
1758972591803531800,4.12953173828125,-1.4649999254725872,-9.675062432193755,0.6460082587193697
1758972591813489000,4.139489013671875,-1.0580316743448377,-9.73924702733457,0.44498255915828044
1758972591823446000,4.149446044921875,-0.7566059377279132,-9.776498022842407,0.13433021757788954
1758972591833403000,4.15940283203125,-0.5953027748873457,-9.787218738821148,-0.16233283468186854
1758972591843360000,4.169360107421875,-0.38610480172131206,-9.794923906370997,-0.28422207009335976
1758972591853318000,4.17931787109375,0.028144475543370934,-9.802907306340336,-0.2694273278750479
1758972591863275000,4.18927490234375,0.4976540093010291,-9.791340202665328,-0.22884605543334036
1758972591873232000,4.19923193359375,0.8982849836986512,-9.76319547367692,-0.20850173453018067
1758972591883189000,4.20918896484375,1.2452782932698725,-9.724938515996932,-0.2126545981596224
1758972591893146000,4.21914599609375,1.588247242695838,-9.674014968967438,-0.24755081070223822
1758972591903103000,4.22910302734375,1.9147234686128793,-9.61302595499754,-0.3065359923027456
1758972591913060900,4.239060791015625,2.2027027906142176,-9.548505259770154,-0.38020186128783967
1758972591923018000,4.24901806640625,2.4359002827227116,-9.487512738668919,-0.4731509247506037
1758972591932975000,4.25897509765625,2.601150466156006,-9.436918277463317,-0.5907569481512531
1758972591942932000,4.268931884765625,2.7177015006110072,-9.395075862511993,-0.7190428075309843
1758972591952889000,4.27888916015625,2.7895690514698623,-9.364608243533969,-0.8323532526295632
1758972591962847000,4.288846923828125,2.8090017739534376,-9.353459073010086,-0.8903447652839124
1758972591972804000,4.29880419921875,2.775435312177241,-9.364257530400156,-0.8820538337353616
1758972591982761000,4.308760986328125,2.7017373310208317,-9.389124845153093,-0.8457808164142072
1758972591992718000,4.318718017578125,2.600129890936613,-9.420862045675516,-0.8106066271804273
1758972592002675000,4.328675048828125,2.4919936336055395,-9.454197913566231,-0.7605823670782148
1758972592012631800,4.3386318359375,2.356791674694419,-9.49625484805107,-0.6611113545008004
1758972592022590000,4.34858984375,2.111784794587642,-9.563278466010093,-0.5044187176629901
1758972592032547000,4.358547119140625,1.8125399822063744,-9.631157824015617,-0.354821847772412
1758972592042504200,4.368504150390625,1.5729827458076178,-9.675751583501697,-0.27560249111233276
1758972592052460800,4.378460693359375,1.348643390676379,-9.709958973529934,-0.2612606802932918
1758972592062418000,4.38841796875,1.0572698961921037,-9.745581491053104,-0.2760480429227464
1758972592072376000,4.3983759765625,0.6935238970015197,-9.776768656477332,-0.3228111640708521
1758972592082333200,4.408333251953125,0.2902178947083652,-9.793995101088285,-0.4047206183314323
1758972592092290000,4.4182900390625,-0.1203871146196965,-9.792224584284424,-0.5178981212327256
1758972592102247000,4.428246826171875,-0.5259769078679383,-9.77292717861831,-0.6193727652501314
1758972592112204000,4.4382041015625,-0.9241654210168868,-9.740727036759257,-0.6591980682253837
1758972592122162000,4.448161865234375,-1.364707659640163,-9.688242231762409,-0.6677846947848797
1758972592132119000,4.458119140625,-1.8419105997279286,-9.609485505911707,-0.6599401918295771
1758972592142076000,4.468075927734375,-2.3018398950621486,-9.513127072396873,-0.6101689201077446
1758972592152033000,4.478032958984375,-2.723781697307527,-9.406450073963404,-0.5197070338182151
1758972592161990000,4.487989990234375,-3.1033079608887433,-9.293055749973654,-0.42305199197698384
1758972592171947000,4.497947021484375,-3.4181878570362922,-9.184410666337609,-0.3646892713900655
1758972592181905200,4.5079052734375,-3.6871322236999866,-9.079964787957072,-0.3600570450121537
1758972592191861800,4.51786181640625,-3.978973189565539,-8.954503009554744,-0.3937571065727621
1758972592201819000,4.52781884765625,-4.296792354035377,-8.804306018346548,-0.43834436325281856
1758972592211776000,4.53777587890625,-4.589018519826233,-8.652082489746808,-0.5027434413945302
1758972592221732900,4.54773291015625,-4.828157823073863,-8.513257371902466,-0.6194214997626841
1758972592231691000,4.55769091796875,-5.014759422093629,-8.386323182860016,-0.8319479597643017
1758972592241647900,4.56764794921875,-5.147318465280533,-8.270884201300143,-1.1260310054682194
1758972592251605000,4.57760498046875,-5.233693264919519,-8.16527453983724,-1.4516077983275055
1758972592261561900,4.587561767578125,-5.290565491220355,-8.070956672239303,-1.7435522245675323
1758972592271519000,4.59751904296875,-5.323344309750199,-8.011982505223154,-1.9080277703665196
1758972592281476900,4.607476806640625,-5.3124423919856545,-8.014578951457143,-1.9273994103126226
1758972592291434000,4.61743408203125,-5.240847228327393,-8.081196911224723,-1.8434106290273367
1758972592301390800,4.627390869140625,-5.100561974802613,-8.201769164019822,-1.6987087281040847
1758972592311348000,4.637347900390625,-4.895702834558486,-8.363212356385588,-1.5030506930559873
1758972592321305000,4.64730517578125,-4.637195398496091,-8.544460319417714,-1.2880150267124175
1758972592331262000,4.657261962890625,-4.350392426797748,-8.722505102494358,-1.078128121434152
1758972592341219800,4.6672197265625,-4.055143698315322,-8.887551287788153,-0.8588529908899217
1758972592351177000,4.677177001953125,-3.7525273636743424,-9.038794573178887,-0.6237693197086454
1758972592361134000,4.687134033203125,-3.42975554523319,-9.177987939813733,-0.41434689013697207
1758972592371091000,4.697091064453125,-3.07901289306581,-9.306794352468847,-0.2713534188331105
1758972592381048000,4.707048095703125,-2.708653978541493,-9.423323467352986,-0.18588015287742018
1758972592391006000,4.717005859375,-2.346515926004201,-9.52076385088563,-0.1390380938747432
1758972592400963000,4.726963134765625,-2.0833007506422696,-9.582092472073436,-0.11725162047240882
1758972592410920000,4.736919921875,-2.0717836235888303,-9.584754384759067,-0.10287941451510414
1758972592420877000,4.746876953125,-2.4002326108835637,-9.507877481305599,-0.09774828043803573
1758972592430834200,4.756834228515625,-3.0519436843544243,-9.317798561564087,-0.18625413728896528
1758972592440792000,4.7667919921875,-3.8455627902463076,-9.014701165407896,-0.34233993080742653
1758972592450749000,4.7767490234375,-4.442385650840402,-8.728871130394936,-0.49235535490363835
1758972592460706000,4.7867060546875,-4.64213080907166,-8.628032336595654,-0.4219272622633725
1758972592470663200,4.7966630859375,-4.462363732247054,-8.732007090333104,0.09866687485398724
1758972592480620000,4.8066201171875,-4.123142006525397,-8.880221967813371,0.5583596032196656
1758972592490577000,4.816576904296875,-3.807262870207429,-9.01152253537178,0.6838266057863831
1758972592500535000,4.82653515625,-3.5206530829936264,-9.129042999380827,0.6603099749900401
1758972592510492200,4.8364921875,-3.2052997241154313,-9.244545693826675,0.6594006781253964
1758972592520449000,4.846448974609375,-2.825057421219349,-9.366330829542875,0.6791746883273124
1758972592530406000,4.856406005859375,-2.398356441748142,-9.487475913789869,0.637268852750957
1758972592540363000,4.866363037109375,-2.019732387703657,-9.583645546734333,0.4947959529887885
1758972592550321200,4.876321044921875,-1.7199463080525397,-9.650632924336195,0.27833788915928454
1758972592560278000,4.886278076171875,-1.4846227637007832,-9.693563719046116,0.03321519151995889
1758972592570235100,4.896235107421875,-1.2751704504474997,-9.722068513518572,-0.16042360352706164
1758972592580192000,4.90619189453125,-1.0479547361623496,-9.747547238168119,-0.2398154672098346
1758972592590148900,4.91614892578125,-0.7205696517720818,-9.777482357704638,-0.22803161551160736
1758972592600107000,4.92610693359375,-0.2386665529030375,-9.80187620972693,-0.19140141878323627
1758972592610064100,4.936064208984375,0.2925753080220893,-9.801032160118222,-0.15669179658759386
1758972592620021000,4.94602099609375,0.7409086754456162,-9.777542563459276,-0.14525338819301686
1758972592629977900,4.955977783203125,1.0861649320911615,-9.745033209520578,-0.15799442188506946
1758972592639935000,4.96593505859375,1.3779634470544755,-9.707685767900943,-0.18006974956560878
1758972592649893000,4.97589306640625,1.6508942530058324,-9.664060561186075,-0.22549802364706992
1758972592659850200,4.985850341796875,1.917363461727649,-9.612806759288906,-0.2967445382644422
1758972592669806800,4.995806884765625,2.1314183003403246,-9.56382440945506,-0.40087840982004996
1758972592679764000,5.005763916015625,2.2768001463517544,-9.523603458225727,-0.5362200329301878
1758972592689721000,5.01572119140625,2.3946701544508335,-9.48446737962365,-0.693407869406417
1758972592699678000,5.025677978515625,2.513638771441579,-9.441267120322584,-0.8452702365435659
1758972592709636000,5.035635986328125,2.6322859013929962,-9.396462932956219,-0.9736180187109857
1758972592719593000,5.045593017578125,2.7386501806154846,-9.357633143824339,-1.0511319779589772
1758972592729550000,5.055550048828125,2.7892113240733742,-9.341968541702627,-1.0575080157969146
1758972592739507000,5.0655068359375,2.743411111406982,-9.358392437759042,-1.0317844495408237
1758972592749464000,5.075464111328125,2.605049811682105,-9.398880515491962,-1.022328419735655
1758972592759422000,5.085421875,2.407790771178156,-9.450940957596897,-1.0259924221359193
1758972592769378800,5.09537890625,2.16152819192186,-9.513753679862617,-0.9933166255891323
1758972592779336000,5.1053359375,1.8514143411323427,-9.588106033274531,-0.9004883389618247
1758972592789293000,5.11529296875,1.5063352676846087,-9.657762337824702,-0.7930889445379375
1758972592799250200,5.125250244140625,1.2064628979895262,-9.705375737392902,-0.7214785102453083
1758972592809207800,5.135207763671875,0.9685080552861094,-9.73588836455643,-0.6669904026020318
1758972592819165000,5.1451650390625,0.704309275714308,-9.762362529984117,-0.6087790366519242
1758972592829122000,5.1551220703125,0.3616124212279916,-9.783533912828563,-0.5675168327413499
1758972592839079000,5.165078857421875,-0.04337197630589362,-9.78964099753201,-0.5757094915471971
1758972592849036000,5.1750361328125,-0.4710418967073783,-9.774280931314825,-0.6418338225789367
1758972592858994000,5.184993896484375,-0.8885488948430865,-9.738954766389726,-0.7305120768547058
1758972592868951000,5.194950927734375,-1.295817224895954,-9.687751233375073,-0.7992000478293746
1758972592878908000,5.204907958984375,-1.7133995167575775,-9.619646249920129,-0.834910535896942
1758972592888865000,5.214864990234375,-2.137807855246961,-9.53282779816687,-0.85169917361252
1758972592898822100,5.224822265625,-2.536369366426766,-9.433433942478894,-0.8646062937196344
1758972592908780000,5.234780029296875,-2.89296980471164,-9.328688788890839,-0.8812914710607379
1758972592918737000,5.24473681640625,-3.2069141735747455,-9.222813754490018,-0.9087175303857773
1758972592928694000,5.254694091796875,-3.493701070921123,-9.112111738324165,-0.9663676091913134
1758972592938651100,5.264651123046875,-3.782079621373117,-8.983470745363832,-1.078676695227623
1758972592948608000,5.27460791015625,-4.063014577820897,-8.841054325029253,-1.2239572728216648
1758972592958565000,5.284565185546875,-4.306931762994825,-8.705054201477765,-1.3574943672604858
1758972592968523000,5.29452294921875,-4.4933600512742995,-8.591865629193187,-1.4696826764613389
1758972592978480000,5.304480224609375,-4.620559613254666,-8.501760410854219,-1.5940258260972797
1758972592988437000,5.31443701171875,-4.688643846182525,-8.431531274852157,-1.7596366595365105
1758972592998394000,5.32439404296875,-4.705613101162016,-8.379874152851103,-1.9507281173214315
1758972593008351000,5.33435107421875,-4.69822971291244,-8.339370877549051,-2.1335295934058727
1758972593018309000,5.34430908203125,-4.679991168649495,-8.311410857477783,-2.27782934326902
1758972593028266000,5.354265869140625,-4.651050028586387,-8.308683478340505,-2.346043193925917
1758972593038223000,5.36422314453125,-4.6062256752148265,-8.341225565505027,-2.3188415910065174
1758972593048180200,5.37418017578125,-4.538051425915956,-8.406984862616659,-2.2133877046272157
1758972593058136800,5.38413671875,-4.439343798926473,-8.499515846797824,-2.0544716926515103
1758972593068095000,5.394094970703125,-4.300212099350989,-8.615960206007957,-1.8557476941615343
1758972593078052000,5.404052001953125,-4.114050060792267,-8.75268046052754,-1.62344568958804
1758972593088009200,5.41400927734375,-3.881185015508532,-8.900430058583616,-1.37445836154297
1758972593097966000,5.423966064453125,-3.6023832716971635,-9.051683865368366,-1.1226094335217027
1758972593107923000,5.4339228515625,-3.264735663424432,-9.20574513078928,-0.875300340887159
1758972593117881000,5.443881103515625,-2.863226408354938,-9.35496304783225,-0.6760135939478874
1758972593127838200,5.453838134765625,-2.430253070615977,-9.485482109624147,-0.5384178352354094
1758972593137795000,5.463795166015625,-2.0162853159897027,-9.587198855301738,-0.43656694178413596
1758972593147752000,5.473751953125,-1.705119033537805,-9.650478610557316,-0.36224677360877394
1758972593157709000,5.483708984375,-1.6808356561526656,-9.656276483181118,-0.3186369471261278
1758972593167667000,5.4936669921875,-2.0715806483626364,-9.580410802596807,-0.30767230285629626
1758972593177624000,5.5036240234375,-2.735385041339695,-9.408435110300779,-0.4116197301954031
1758972593187581200,5.513581298828125,-3.492102111291885,-9.141617234271765,-0.6375351024717092
1758972593197537800,5.523537841796875,-4.097550469151139,-8.867344366061687,-0.8663914235707372
1758972593207495000,5.533494873046875,-4.362351744660735,-8.7365242754966,-0.9019063160009682
1758972593217453000,5.543453125,-4.233328766645491,-8.833117102289199,-0.474755985327065
1758972593227410200,5.55341015625,-3.8995287737116215,-8.99800137501955,0.007349072704731952
1758972593237367000,5.563366943359375,-3.621416765730083,-9.110579121929407,0.23047431422229855
1758972593247324000,5.573323974609375,-3.433009578593075,-9.180047794952989,0.33401126106437296
1758972593257281000,5.583281005859375,-3.247482623067498,-9.2447993763268,0.39742023219019174
1758972593267239200,5.5932392578125,-2.9799726731210945,-9.334577846929431,0.39471568593923
1758972593277196000,5.603196044921875,-2.6200731932908297,-9.446130342444777,0.2760531392229721
1758972593287153000,5.61315283203125,-2.203313323727995,-9.555852699923514,0.0380054237544653
1758972593297110000,5.623110107421875,-1.7694127881415187,-9.641582771918177,-0.2818834528116509
1758972593307067000,5.63306689453125,-1.312909813994169,-9.697037532636523,-0.6435138846203684
1758972593317024000,5.64302392578125,-0.9107790660254657,-9.721097622659801,-0.9171227359637617
1758972593326982100,5.652982177734375,-0.5955554344741627,-9.741328509783743,-0.9603278906356543
1758972593336939000,5.66293896484375,-0.28080888238269835,-9.763708099374174,-0.872662905055657
1758972593346896000,5.672895751953125,0.16246488183001057,-9.773275553664565,-0.7918689012236892
1758972593356853000,5.68285302734375,0.6821014624942093,-9.755065358713269,-0.7374535665556788
1758972593366810000,5.69281005859375,1.1574594323024152,-9.714397832760215,-0.6790898595880717
1758972593376768000,5.70276806640625,1.5443562246516347,-9.663968791249394,-0.6269593479216098
1758972593386725600,5.7127255859375,1.858462359947711,-9.608761283290386,-0.6230776841826736
1758972593396682800,5.722682861328125,2.1142890324935317,-9.551977904316782,-0.6781582047611474
1758972593406639900,5.732639892578125,2.335804416245222,-9.493501165428757,-0.7667161936581134
1758972593416596700,5.7425966796875,2.517265145245194,-9.438639109906553,-0.8636416864711791
1758972593426554600,5.7525546875,2.645423323124647,-9.394024307632446,-0.9614720191694796
1758972593436511700,5.76251171875,2.7095503428593277,-9.364541608038545,-1.0649352431882173
1758972593446468900,5.77246875,2.7250810894683,-9.348227602097392,-1.16402237101458
1758972593456425700,5.78242578125,2.7263781435415146,-9.339318319454788,-1.230600071837008
1758972593466382800,5.7923828125,2.7299077789723873,-9.335784300109744,-1.2494513411708175
1758972593476340700,5.8023408203125,2.727707930840552,-9.339451590445638,-1.22663745181635
1758972593486297900,5.8122978515625,2.703001651868224,-9.352881565383075,-1.1780313879489899
1758972593496254700,5.822254638671875,2.633103355255723,-9.381191714066267,-1.109226950987801
1758972593506211800,5.8322119140625,2.48948515791595,-9.431767470571398,-1.0072778578590602
1758972593516169000,5.8421689453125,2.2674263149373233,-9.50011678417623,-0.8814471730791031
1758972593526126800,5.852126953125,2.0069249285787345,-9.566986672878265,-0.7844828826256096
1758972593536083700,5.862083740234375,1.77113084410578,-9.61749930101931,-0.7329368197835981
1758972593546040800,5.872040771484375,1.5661622521378098,-9.656822426626086,-0.6806595200575888
1758972593555998000,5.881998046875,1.328125649435073,-9.697427993258833,-0.6052763622932136
1758972593565954600,5.89195458984375,1.0234542088951915,-9.737654205185175,-0.5486565398508683
1758972593575912700,5.90191259765625,0.6620289077371359,-9.769020818829535,-0.5462205083429813
1758972593585869800,5.911869873046875,0.26692455127388237,-9.784594820058345,-0.6006975466029718
1758972593595827000,5.921826904296875,-0.1500450337831862,-9.781661104694008,-0.6833683406248688
1758972593605783800,5.93178369140625,-0.5881861112825573,-9.760330147373676,-0.7485662044614553
1758972593615740700,5.94174072265625,-1.0391039787739516,-9.719148242157697,-0.7929602766569703
1758972593625698800,5.95169873046875,-1.478478707987815,-9.658387776246666,-0.8366693622630089
1758972593635656000,5.961656005859375,-1.8991816160880028,-9.5815786773324,-0.8699715470798313
1758972593645612800,5.97161279296875,-2.2969994692936537,-9.492592818412184,-0.8859163543824106
1758972593655569700,5.981569580078125,-2.66318197491616,-9.395689025974272,-0.8937882568012923
1758972593665526800,5.99152685546875,-2.984078354874253,-9.29692586940527,-0.9125815854027867
1758972593675484700,6.001484619140625,-3.2767472959965467,-9.191920603576301,-0.9705406570922582
1758972593685441800,6.01144189453125,-3.5785163661584254,-9.065762075081468,-1.0847091072596609
1758972593695399000,6.02139892578125,-3.8724601495221256,-8.927638383504748,-1.2131350692298262
1758972593705355800,6.031355712890625,-4.128510840082169,-8.796376394391059,-1.322698655950278
1758972593715312600,6.041312744140625,-4.33496338699758,-8.68199539745152,-1.4147066391706467
1758972593725270800,6.051270751953125,-4.494623787599802,-8.582261350023746,-1.5210259102076291
1758972593735228000,6.061227783203125,-4.607111810399592,-8.495142454019188,-1.666569230391085
1758972593745184800,6.071184814453125,-4.6783854870185255,-8.419343993452191,-1.8432861258648334
1758972593755141600,6.0811416015625,-4.7193268614768975,-8.357097672897577,-2.0142666696436704
1758972593765098800,6.0910986328125,-4.737195403383672,-8.317048571103811,-2.1344958080895244
1758972593775057000,6.101056884765625,-4.73093283585757,-8.312246723780035,-2.1668438339866696
1758972593785013800,6.111013671875,-4.691408050198853,-8.353224046334624,-2.093983911089599
1758972593794970600,6.120970703125,-4.604379755087197,-8.436490943086147,-1.9482646498173475
1758972593804927700,6.130927734375,-4.452893600851297,-8.555430626243352,-1.7739007472105324
1758972593814884600,6.140884521484375,-4.237416620481014,-8.698819106480478,-1.5953753410100937
1758972593824842800,6.1508427734375,-3.9740190742895005,-8.853927250605821,-1.4090942061163485
1758972593834799900,6.1607998046875,-3.6722719236984847,-9.014372664105892,-1.1941001869574188
1758972593844756700,6.1707568359375,-3.3219866599097845,-9.177314570596813,-0.9548313390459865
1758972593854713600,6.180713623046875,-2.9222359389454127,-9.33360929415822,-0.7173937982149422
1758972593864670700,6.190670654296875,-2.4930811365813015,-9.472033429986238,-0.485306313174963
1758972593874628900,6.20062890625,-2.06306942512691,-9.583298925253748,-0.2730229046816006
1758972593884586000,6.2105859375,-1.7346879501104353,-9.651418521755934,-0.10658901875591836
1758972593894542600,6.22054248046875,-1.7490742028594015,-9.649403674802183,0.010558697242377093
1758972593904499700,6.230499755859375,-2.188224329537153,-9.559225391227006,0.057148093233304095
1758972593914456800,6.240456787109375,-2.8253429601624607,-9.390544064301253,-0.07412180062562693
1758972593924415000,6.2504150390625,-3.552817861278355,-9.135241269499064,-0.30854755132086575
1758972593934371600,6.26037158203125,-4.155480095550418,-8.870603075596689,-0.46349549991581585
1758972593944328700,6.27032861328125,-4.427578542330861,-8.741186422088742,-0.3982913524689153
1758972593954285800,6.280285888671875,-4.318241677038372,-8.804538658058643,-0.057237114090472455
1758972593964242700,6.29024267578125,-4.055703378024697,-8.926624822548032,0.1924699065312743
1758972593974200800,6.300200927734375,-3.8572435834288594,-9.010763825958966,0.31335433054808526
1758972593984157700,6.31015771484375,-3.731192022439837,-9.05751447121799,0.45829610464181747
1758972593994114800,6.32011474609375,-3.5419396166503425,-9.119783003604411,0.674254986777529
1758972594004071700,6.33007177734375,-3.226781195822358,-9.216289905679226,0.9045778002325445
1758972594014028800,6.34002880859375,-2.828406147125363,-9.340240694996714,0.9645649436835199
1758972594023987000,6.349987060546875,-2.397738455980271,-9.471558798211813,0.8430738224778324
1758972594033943600,6.359943603515625,-1.88678931363523,-9.606033904153108,0.5783764092015102
1758972594043900700,6.369900634765625,-1.2886449951790273,-9.719772511535883,0.18918849197411908
1758972594053857800,6.37985791015625,-0.7583407256312668,-9.776308637750148,-0.13820439213011412
1758972594063815000,6.38981494140625,-0.3847892986759543,-9.79737948282957,-0.18356473380820826
1758972594073772500,6.3997724609375,-0.17437025928236544,-9.805069452810287,-0.024030407271068543
1758972594083729700,6.409729736328125,0.18977169868955387,-9.804324187400937,0.09785174994566477
1758972594093686800,6.419686767578125,0.7105244239021092,-9.780161221525072,0.11834569931942969
1758972594103643600,6.4296435546875,1.1712815483625978,-9.735638773709535,0.12581773396683857
1758972594113600800,6.439600830078125,1.514469766562432,-9.68779156538546,0.15319884903845377
1758972594123558700,6.44955859375,1.7988722529903054,-9.639333531686663,0.13308779803505166
1758972594133515800,6.459515869140625,2.0566521054305134,-9.588505846247076,0.033400185848178804
1758972594143472600,6.46947265625,2.2812074413999914,-9.537157936325668,-0.09533087143222801
1758972594153429800,6.4794296875,2.4788743320524693,-9.485767356306313,-0.2139687677644193
1758972594163387000,6.489386962890625,2.6389468205869195,-9.43969124930799,-0.31396800546702
1758972594173344800,6.4993447265625,2.75043618773818,-9.404209601560234,-0.40782632926180956
1758972594183301600,6.509301513671875,2.806595005072653,-9.382689843669533,-0.5084547682460397
1758972594193258800,6.5192587890625,2.8422026172876356,-9.366772143569587,-0.5965285903552546
1758972594203216000,6.5292158203125,2.8900816820546984,-9.350324282115697,-0.6238852742385119
1758972594213172700,6.5391728515625,2.933102200874686,-9.339622270837426,-0.5820128660077228
1758972594223130600,6.549130615234375,2.9266806433945893,-9.346130337557197,-0.5047426158551126
1758972594233087700,6.559087646484375,2.851239617963135,-9.373644367426634,-0.4190441080424934
1758972594243044900,6.569044921875,2.706336349248886,-9.419867773941158,-0.3349863897068426
1758972594253001700,6.579001708984375,2.4984116839542985,-9.47961993959248,-0.25521878804685544
1758972594262958800,6.588958740234375,2.2612882505737244,-9.540448210042715,-0.191875776563026
1758972594272916700,6.598916748046875,2.0227415063917635,-9.594683073577285,-0.14472180206696503
1758972594282873900,6.608873779296875,1.7917980768203734,-9.64112859840989,-0.09205384078924543
1758972594292830700,6.618830810546875,1.5299689489893615,-9.686545364716649,-0.020314864196523556
1758972594302787800,6.628787841796875,1.1982390403278171,-9.733048172694444,0.04889281752002425
1758972594312745000,6.638744873046875,0.8098434607882052,-9.772712659084796,0.09280764569807796
1758972594322702800,6.648702880859375,0.39837015332616865,-9.797961666631698,0.10787212650217115
1758972594332659700,6.65865966796875,-0.01706822526687174,-9.806064893588424,0.10586110634016804
1758972594342616800,6.668616943359375,-0.45206550315655764,-9.795701905006169,0.10131183640481904
1758972594352574000,6.678573974609375,-0.9169424109607934,-9.763278475785254,0.08943218704876489
1758972594362530800,6.68853076171875,-1.393924986296147,-9.70677800540626,0.07648499522616621
1758972594372488700,6.69848876953125,-1.8599495297655462,-9.628235799089074,0.08985936295227147
1758972594382445300,6.7084453125,-2.288089602129161,-9.534980007764696,0.13847311693574302
1758972594392402200,6.718402099609375,-2.6668530646443367,-9.435054821678996,0.1949792590036988
1758972594402359300,6.728359375,-2.9897493862479925,-9.33743323636055,0.21002919982578605
1758972594412316400,6.73831640625,-3.302541662466526,-9.232510388118028,0.15614727791473268
1758972594422274000,6.748274169921875,-3.649585167855024,-9.102184803071617,0.03406222538690781
1758972594432231200,6.758231201171875,-4.009330918428302,-8.949050589367747,-0.10067341977027244
1758972594442188300,6.768188232421875,-4.32743737540692,-8.797312213936447,-0.22579401091895995
1758972594452145400,6.7781455078125,-4.592351755902171,-8.657811388787627,-0.35075894571505484
1758972594462102300,6.788102294921875,-4.815597616708279,-8.529074534237385,-0.48508280661739406
1758972594472060200,6.79806005859375,-4.995709269186854,-8.413261458668112,-0.6560049712724983
1758972594482017300,6.808017333984375,-5.129423327627777,-8.314351587104797,-0.8549625593226402
1758972594491974100,6.81797412109375,-5.226105001747608,-8.235181019756197,-1.0198294425267727
1758972594501931300,6.82793115234375,-5.280300702315569,-8.18761905811429,-1.1188060957159847
1758972594511888400,6.837888427734375,-5.281015572586655,-8.180521208807825,-1.1663497179836033
1758972594521846300,6.84784619140625,-5.2164808488339185,-8.222887939894198,-1.1587962338641284
1758972594531803100,6.85780322265625,-5.08672867976129,-8.313595800301432,-1.08613526760526
1758972594541760300,6.86776025390625,-4.8959158927872775,-8.443492346280813,-0.95279888337031
1758972594551717400,6.87771728515625,-4.645669504591822,-8.60153829742372,-0.7757114010185003
1758972594561674200,6.88767431640625,-4.345290427483618,-8.77212984188497,-0.5818577119786292
1758972594571632000,6.897632080078125,-4.010741369748115,-8.940792464110254,-0.38288777590356765
1758972594581589200,6.90758935546875,-3.6483404284909366,-9.100881903779506,-0.18424456929853186
1758972594591546400,6.91754638671875,-3.260832226245105,-9.24864143870771,0.003100858656624041
1758972594601503200,6.927503173828125,-2.872778957337141,-9.374892321661115,0.1701217349924147
1758972594611460000,6.937460205078125,-2.5294594409078357,-9.469694757905602,0.3116466133147478
1758972594621418200,6.947418212890625,-2.2844288876645265,-9.528013675883411,0.4107600080935284
1758972594631375400,6.957375244140625,-2.2239484077386558,-9.539493685796856,0.47167526270747184
1758972594641332200,6.967332275390625,-2.4526629092141983,-9.481766888493299,0.500931131275557
1758972594651289300,6.977289306640625,-2.906565491604805,-9.355295640787482,0.4480160816352814
1758972594661246200,6.98724609375,-3.4898075706139204,-9.1594737934798,0.3093224446834996
1758972594671204400,6.997204345703125,-4.027690458722413,-8.93955035509467,0.18039733755216
1758972594681161200,7.0071611328125,-4.312308487597107,-8.80693344424069,0.11110377450031228
1758972594691118300,7.017118408203125,-4.2686648684427135,-8.824074548655748,0.290845470288489
1758972594701075200,7.0270751953125,-3.97331180280298,-8.938773525503278,0.6939090969268232
1758972594711032000,7.037031982421875,-3.6265833547130226,-9.059536916956304,0.9711233523510396
1758972594720990200,7.046990234375,-3.3006662239834665,-9.173692288446427,1.057987104550749
1758972594730947300,7.056947265625,-2.9127368737161157,-9.305712986972928,1.0440658389650284
1758972594740904400,7.066904541015625,-2.3759948262058197,-9.457045704212785,1.0436981016311795
1758972594750861000,7.076861083984375,-1.8033520287528633,-9.587014146384597,1.0037287870753555
1758972594760818200,7.086818115234375,-1.3623309936366974,-9.671721889594197,0.87877678482607
1758972594770776300,7.0967763671875,-1.1901182777144015,-9.709680741110443,0.6900049290951341
1758972594780733200,7.106733154296875,-1.1659048237603158,-9.72589713189602,0.4668778723631054
1758972594790690300,7.116690185546875,-1.1260912112228572,-9.738602884212135,0.24882218234492465
1758972594800647200,7.126647216796875,-0.9600407442573458,-9.758896315178275,0.1124358633542899
1758972594810604300,7.136604248046875,-0.5646598358750343,-9.789996386840938,0.08668961947550996
1758972594820562200,7.146562255859375,0.035848551681253595,-9.805841606226563,0.12062134350067935
1758972594830519300,7.156519287109375,0.6301999372780323,-9.784987034246324,0.1651412248997949
1758972594840476200,7.16647607421875,1.0615558298829941,-9.747195940512418,0.18889816725803538
1758972594850433000,7.17643310546875,1.369361038403958,-9.70886591759622,0.18209590336466208
1758972594860390100,7.18639013671875,1.6610273783549665,-9.664054131445289,0.1320026605463121
1758972594870348300,7.196348388671875,1.970142135104537,-9.606547114372253,0.05643238727857824
1758972594880305400,7.206305419921875,2.247359678464383,-9.545605446675419,-0.03424634978215908
1758972594890262000,7.216261962890625,2.434756373384595,-9.49799087806344,-0.17463966907458378
1758972594900219100,7.22621923828125,2.5209268826231357,-9.469892326304317,-0.36937717347797006
1758972594910176300,7.23617626953125,2.538917005082965,-9.454622860980033,-0.5782677977278828
1758972594920134400,7.246134521484375,2.5189751640334723,-9.447920148470997,-0.7496571415033191
1758972594930091300,7.25609130859375,2.501451782302558,-9.443248649528622,-0.8591706785369664
1758972594940048100,7.266048095703125,2.4899258874207733,-9.441989589378236,-0.905240282729268
1758972594950005200,7.276005126953125,2.4478566779762505,-9.452376543357968,-0.91158461025469
1758972594959962000,7.285962158203125,2.382329874446243,-9.47052185637951,-0.8967190495561808
1758972594969920300,7.295920166015625,2.309196687565744,-9.492232168406247,-0.8576237413559108
1758972594979877000,7.305877197265625,2.2234091862954197,-9.519258707019686,-0.7813880584154278
1758972594989834200,7.315834228515625,2.0844579578533766,-9.56029915793836,-0.6527670853298158
1758972594999791000,7.325791015625,1.878532941943407,-9.612680502560734,-0.48772835269011555
1758972595009748200,7.335748291015625,1.6698860998541116,-9.65724445143044,-0.34571258557830004
1758972595019706400,7.345706298828125,1.4996518443979323,-9.687931266117095,-0.2557851897579618
1758972595029663200,7.355663330078125,1.3273380061887203,-9.714595985680818,-0.1875712843021378
1758972595039620000,7.3656201171875,1.087762065089494,-9.74547803067863,-0.11315405809362418
1758972595049577200,7.3755771484375,0.7633354651786387,-9.77671312689781,-0.0597184597445419
1758972595059534300,7.385534423828125,0.38281821779869496,-9.798952431234717,-0.06598878131883684
1758972595069492200,7.3954921875,-0.01794479803884751,-9.805629424780607,-0.14031240639318712
1758972595079449000,7.405448974609375,-0.4273518080627545,-9.79456325636506,-0.23296532732043415
1758972595089406200,7.41540625,-0.8575744223214685,-9.765274033516645,-0.27272414093073455
1758972595099363300,7.42536328125,-1.2999787284895776,-9.716042677357793,-0.2809600360901095
1758972595109321200,7.4353212890625,-1.7180112483367322,-9.649880644664167,-0.31403683291953055
1758972595119278000,7.445278076171875,-2.1162335906900465,-9.568875263103843,-0.358557563702017
1758972595129235200,7.455235107421875,-2.5045517941445112,-9.473052836161852,-0.3985928561661392
1758972595139192300,7.4651923828125,-2.861449461810291,-9.370095735034345,-0.42871454778332263
1758972595149149200,7.475149169921875,-3.1600089222759005,-9.272619695666432,-0.4507869711207226
1758972595159107300,7.485107421875,-3.4277710934177037,-9.174311297127604,-0.5028031722251326
1758972595169064200,7.495064208984375,-3.721569038569927,-9.052048022505641,-0.6170615656983107
1758972595179021000,7.50502099609375,-4.040743709301949,-8.90236424151659,-0.7685491081736981
1758972595188978200,7.514978271484375,-4.3329695828318595,-8.74989930537641,-0.9137912534534931
1758972595198935300,7.524935302734375,-4.564472107590735,-8.61611978048384,-1.0480766089763491
1758972595208893200,7.53489306640625,-4.732959665510058,-8.505911100792884,-1.1911936518609523
1758972595218850000,7.54485009765625,-4.852912617363035,-8.411859190654754,-1.3639092027388513
1758972595228807200,7.55480712890625,-4.93087176309526,-8.331013968092202,-1.5655905897296964
1758972595238764300,7.564764404296875,-4.977815300577879,-8.260849129498004,-1.7748650621980429
1758972595248721200,7.57472119140625,-4.996244106715917,-8.209336968925594,-1.9531271412871778
1758972595258679000,7.584678955078125,-4.991718738245964,-8.190891211652755,-2.040201905889064
1758972595268636200,7.59463623046875,-4.95666320695579,-8.216093457448482,-2.0242701772637663
1758972595278593300,7.60459326171875,-4.878177991522849,-8.285743916779756,-1.9287797587551176
1758972595288550100,7.614550048828125,-4.753273847003281,-8.393257950559258,-1.7691729880362748
1758972595298508300,7.62450830078125,-4.578323230549693,-8.530095693978668,-1.5642432667739687
1758972595308465200,7.634465087890625,-4.350504362739622,-8.685806480172277,-1.341724697329104
1758972595318422300,7.64442236328125,-4.07704281091243,-8.848312333333492,-1.1204808970604092
1758972595328379100,7.654379150390625,-3.7542695311665533,-9.015520080575346,-0.8923435378856956
1758972595338336300,7.664336181640625,-3.3653257431596515,-9.186232036545873,-0.6768493141196668
1758972595348294100,7.674294189453125,-2.915645454639196,-9.349914532271027,-0.4985001047363504
1758972595358251300,7.684251220703125,-2.4383190343022343,-9.49232218477726,-0.3475613187175244
1758972595368208100,7.6942080078125,-1.9951852448157965,-9.59916635647118,-0.21361131436256692
1758972595378165200,7.704165283203125,-1.6986948457092046,-9.657887425509095,-0.10014271956020966
1758972595388122400,7.714122314453125,-1.7390978755071758,-9.65119991056919,-0.016387014095147603
1758972595398080300,7.724080322265625,-2.1793154852859673,-9.561423778054118,-0.01191857143571251
1758972595408037400,7.734037353515625,-2.905183097335696,-9.364987013718485,-0.16525285031441597
1758972595417994500,7.743994384765625,-3.6886779918372627,-9.079218353503942,-0.3631020021986216
1758972595427951400,7.753951416015625,-4.206072218668461,-8.842781002691387,-0.533466569503583
1758972595437908500,7.763908447265625,-4.321599463033676,-8.787481724795699,-0.5238057743739336
1758972595447866400,7.773866455078125,-4.080301228186488,-8.916921759179234,-0.10016253850553185
1758972595457823200,7.7838232421875,-3.6763583162292837,-9.08239230736494,0.40608934940136965
1758972595467780400,7.7937802734375,-3.3266473451972005,-9.196518452760577,0.7265433193542062
1758972595477737500,7.803737548828125,-3.116560825693607,-9.261143777406215,0.8298420004609972
1758972595487695400,7.8136953125,-2.9223145571395754,-9.32598128349781,0.8102893779247998
1758972595497652200,7.82365234375,-2.5135481705486775,-9.43676337916255,0.8944087267871945
1758972595507609300,7.833609375,-1.9156020050130784,-9.567832476052642,0.9784828482683747
1758972595517566500,7.84356640625,-1.2816440303757786,-9.675533556836843,0.9548922023877501
1758972595527523300,7.8535234375,-0.9996820689678192,-9.717795073983073,0.8575994836974888
1758972595537481200,7.863481201171875,-1.0334185535486786,-9.725207980588078,0.7230076925739646
1758972595547438300,7.873438232421875,-1.1437317165274172,-9.723009593760967,0.5703944705368951
1758972595557395500,7.8833955078125,-1.0028910941421985,-9.746008776554465,0.42414446338880807
1758972595567352300,7.893352294921875,-0.4586193817794323,-9.78949077540636,0.3548456670394167
1758972595577309400,7.903309326171875,0.2163649969848804,-9.797396433964371,0.3668652637222782
1758972595587267300,7.913267333984375,0.7809910219218581,-9.767742469456792,0.38938612494692204
1758972595597224400,7.923224365234375,1.143680351666361,-9.732585815879702,0.37301118259876964
1758972595607181300,7.933181396484375,1.3783426556304097,-9.704144149771333,0.3164958434442058
1758972595617138400,7.943138427734375,1.6455045227915048,-9.664793551635741,0.2333536873172037
1758972595627096300,7.953096435546875,2.024657130754739,-9.593684710189699,0.17989618309699
1758972595637053400,7.963053466796875,2.413651626035571,-9.503071542328595,0.19050461607398464
1758972595647010300,7.97301025390625,2.692769011667371,-9.427290617418288,0.21346584147727116
1758972595656967400,7.982967529296875,2.8612983629018065,-9.378476609888672,0.1659814203172922
1758972595666924500,7.992924560546875,2.966726238057017,-9.347102397459745,0.024430199694016483
1758972595676882400,8.00288232421875,3.0263232131466267,-9.326481049713491,-0.16883951316215096
1758972595686839300,8.01283935546875,3.0543264878377316,-9.312630219015478,-0.34117943566069003
1758972595696796400,8.02279638671875,3.064948711878061,-9.305544644668698,-0.428160165303573
1758972595706753500,8.03275341796875,3.0296392058268187,-9.317129868522287,-0.4275156568549573
1758972595716710400,8.04271044921875,2.911327883701026,-9.355661551490426,-0.40760264004115015
1758972595726668300,8.052668212890625,2.7267197965860364,-9.410769106206297,-0.4157089722704142
1758972595736625400,8.06262548828125,2.5064573355048894,-9.47132206684649,-0.4267687474777922
1758972595746582500,8.07258251953125,2.2442712109297513,-9.538314705145359,-0.3926702611841261
1758972595756539400,8.082539306640625,1.9268929220952093,-9.610269934287667,-0.3165236082339659
1758972595766497300,8.092497314453125,1.6072167315818369,-9.671015202629565,-0.2422889811838977
1758972595776454400,8.102454345703125,1.3348328919887542,-9.713691730317473,-0.1811026728099212
1758972595786411300,8.112411376953125,1.0597118825167418,-9.748501177892088,-0.11885696417666039
1758972595796368400,8.122368408203124,0.7216719139255583,-9.779719322976469,-0.08167579163517802
1758972595806325500,8.132325439453124,0.3199807629505172,-9.800966109144687,-0.09527511352384463
1758972595816283400,8.142283447265624,-0.10249986801245249,-9.804992880442738,-0.1482887738335412
1758972595826240300,8.152240234375,-0.5175551164813339,-9.79049790662229,-0.22064086593948304
1758972595836197400,8.162197265625,-0.9385374260447918,-9.756921215713023,-0.3033795375658199
1758972595846154500,8.172154541015624,-1.3808052463516591,-9.701374100536107,-0.38348807988427575
1758972595856112400,8.1821123046875,-1.8312774159021674,-9.624145899426937,-0.43885322609040883
1758972595866069200,8.1920693359375,-2.273417810437083,-9.52915524713397,-0.444031761239469
1758972595876026400,8.2020263671875,-2.6879034514576197,-9.422611519691348,-0.3999177846269682
1758972595885983500,8.2119833984375,-3.0393560054600237,-9.317268400210141,-0.34818003513775764
1758972595895940400,8.2219404296875,-3.3275144834205506,-9.219182119989394,-0.3236119225271046
1758972595905898200,8.231898193359376,-3.582896188677847,-9.122403999757767,-0.33909320397116244
1758972595915855400,8.24185546875,-3.842589035132527,-9.013581805989146,-0.4002877139179036
1758972595925812500,8.2518125,-4.103850738339126,-8.893813855314255,-0.4783775002924725
1758972595935769300,8.261769287109376,-4.345684687498212,-8.774709336984158,-0.5384015416877344
1758972595945726500,8.2717265625,-4.5520980714470145,-8.66548966833055,-0.59839639352113
1758972595955684400,8.281684326171876,-4.724527937251329,-8.56515180979073,-0.6981259839694947
1758972595965641500,8.291641357421875,-4.8575621967345475,-8.475732235628366,-0.8581482036214322
1758972595975598300,8.301598388671875,-4.947694303080439,-8.402461247712374,-1.0437175369840115
1758972595985555500,8.311555419921875,-5.004664729058742,-8.346253622800111,-1.2098697107583283
1758972595995513300,8.321513427734375,-5.032333072707057,-8.312436108872294,-1.3226685530729592
1758972596005470200,8.33147021484375,-5.0294326750904315,-8.30847012785077,-1.3581285735107957
1758972596015427300,8.34142724609375,-4.980438050296902,-8.344023671790957,-1.3201695758640766
1758972596025384400,8.351384521484375,-4.864048051622509,-8.42676859049499,-1.2251578077178449
1758972596035341600,8.361341552734375,-4.674086620780825,-8.553426300683617,-1.078072007332742
1758972596045299200,8.37129931640625,-4.419940302537381,-8.709629838830232,-0.8813983655013143
1758972596055256300,8.38125634765625,-4.115109798978269,-8.876676842552422,-0.6639624330829829
1758972596065213400,8.39121337890625,-3.7722657911062236,-9.040471566480397,-0.45857736926861103
1758972596075170300,8.40117041015625,-3.3917195368275044,-9.197374192807079,-0.27371852226294574
1758972596085128200,8.411128173828125,-2.9710522845625875,-9.345071183893085,-0.11347189187114126
1758972596095085300,8.421085205078125,-2.5344363525375724,-9.473457909831405,0.024512069291190708
1758972596105042400,8.43104248046875,-2.1200319600597024,-9.573734978094697,0.13941112843821757
1758972596114999300,8.440999267578125,-1.7880992223024368,-9.639662617510556,0.22353384743463248
1758972596124956400,8.450956298828125,-1.6291269500948489,-9.66639864874482,0.2776325356352143
1758972596134914300,8.460914306640625,-1.782915682184696,-9.638402388316392,0.3046233453481458
1758972596144871400,8.470871337890625,-2.2662273144111036,-9.537429154482483,0.26841614153850823
1758972596154828300,8.480828369140625,-2.9183342553317546,-9.361010511302947,0.1586613796275109
1758972596164785400,8.490785400390624,-3.5261735999807713,-9.150420718452335,0.07927255728519521
1758972596174743300,8.500743408203125,-3.914000658917427,-8.991203385442494,0.096336961468542
1758972596184700400,8.510700439453124,-4.00492274659723,-8.94768280814588,0.2645010139213875
1758972596194657300,8.5206572265625,-3.8066929613649845,-9.012279491218925,0.6769870420899242
1758972596204614400,8.530614501953124,-3.5069504285946485,-9.094878863972426,1.0746635871287435
1758972596214571500,8.540571533203124,-3.24691972848773,-9.166555860695242,1.265761547719687
1758972596224529400,8.550529296875,-3.0455314792245627,-9.235335382410883,1.2663758802257477
1758972596234486300,8.560486328125,-2.7509309855177997,-9.326998936107755,1.2687978466756642
1758972596244443400,8.570443359375,-2.3465659026257693,-9.432852343198656,1.2982045584239066
1758972596254400500,8.580400390625,-1.9273174311175942,-9.529940260031818,1.2790849935427306
1758972596264358400,8.5903583984375,-1.6361802296072243,-9.596489246216416,1.1835182949274778
1758972596274315300,8.600315185546876,-1.4595038122743367,-9.645920508861542,0.9982421723578124
1758972596284272400,8.6102724609375,-1.340852736800164,-9.685676765188575,0.748447546517849
1758972596294229500,8.6202294921875,-1.253538318223506,-9.714346979355811,0.48009785781167447
1758972596304186400,8.630186279296876,-1.118447199275717,-9.738647307875752,0.27965574855851005
1758972596314144300,8.640144287109376,-0.7412826963897794,-9.776879131114482,0.18314294646587223
1758972596324101400,8.650101318359376,-0.190019188910909,-9.80325217425525,0.17475748676797373
1758972596334058200,8.660058349609375,0.33484716389924285,-9.798717453435064,0.2083587458629161
1758972596344015400,8.670015380859375,0.7395405288975685,-9.775721777772903,0.2423609321752563
1758972596353973500,8.679973388671876,1.0773943272668867,-9.744363931956887,0.23870763383209703
1758972596363930400,8.689930419921875,1.4450228669792413,-9.697730775597691,0.19057947140848264
1758972596373887200,8.69988720703125,1.8516952039003371,-9.629401335737109,0.1274327314154245
1758972596383843800,8.70984375,2.238475822523981,-9.547372456347942,0.08545003121057525
1758972596393801000,8.719801025390625,2.547649762114882,-9.469578438049554,0.08337802897579967
1758972596403759000,8.729759033203125,2.7616932025507093,-9.409463284304737,0.07374812217475846
1758972596413716000,8.739716064453125,2.90760973996073,-9.365691947117448,0.001734600816391321
1758972596423672800,8.7496728515625,3.0063103526875374,-9.33357188475728,-0.13010596921266987
1758972596433630000,8.7596298828125,3.0541423634424802,-9.314508287847042,-0.28732644758317616
1758972596443588000,8.769588134765625,3.0439313505515453,-9.312841231417655,-0.4193367343135178
1758972596453545000,8.779544921875,2.973043458379805,-9.331191127100587,-0.5101691344158724
1758972596463501800,8.789501708984375,2.8452944458231326,-9.366015772244333,-0.5936589897356928
1758972596473459000,8.799458984375,2.677017608045041,-9.40858065625131,-0.6946604267507791
1758972596483416000,8.809416015625,2.481800740893185,-9.454209019482136,-0.7930804689705372
1758972596493374000,8.8193740234375,2.2573273841187356,-9.506323237600922,-0.8394474486742168
1758972596503331000,8.8293310546875,1.9872668729066847,-9.570234861019253,-0.7948428755331785
1758972596513288000,8.839287841796875,1.696330746926367,-9.63439607528448,-0.686477485621348
1758972596523244800,8.849244873046874,1.4430232175946234,-9.683084995129704,-0.5709067309079692
1758972596533203000,8.859202880859375,1.2196925280492752,-9.719126030325889,-0.47045131040308624
1758972596543160000,8.86916015625,0.9699454676780849,-9.750868491545319,-0.3875193812269717
1758972596553117000,8.879116943359374,0.6667782942213117,-9.778061034375428,-0.33960999438688155
1758972596563073800,8.88907373046875,0.31914025700576604,-9.795597860109805,-0.33880287925507874
1758972596573031000,8.899031005859374,-0.05005595214841887,-9.799386146476865,-0.37405210648644716
1758972596582989000,8.908989013671874,-0.4290798008991405,-9.788221193861961,-0.42073860046807676
1758972596592946200,8.9189462890625,-0.8315829258441925,-9.76056570969522,-0.45851456969808785
1758972596602902800,8.92890283203125,-1.2585356881193817,-9.713469027477503,-0.4847467795960605
1758972596612860000,8.93885986328125,-1.6767799510210752,-9.649213120666145,-0.5014709737733006
1758972596622818000,8.948818115234374,-2.0570375976167616,-9.574318330940603,-0.52095433046557
1758972596632775200,8.958775146484374,-2.3996530574299393,-9.492361347743868,-0.5541945194294676
1758972596642732000,8.96873193359375,-2.7243314401447773,-9.402070835965871,-0.5911373623035848
1758972596652689000,8.97868896484375,-3.035550475697219,-9.304882965889572,-0.6123269383918494
1758972596662646000,8.98864599609375,-3.3126331406310197,-9.207879220208525,-0.6417103423297404
1758972596672604200,8.998604248046876,-3.5619852103352545,-9.109258686980604,-0.7099828643713146
1758972596682561000,9.00856103515625,-3.7919890209689733,-9.008521599990129,-0.798615160613507
1758972596692518000,9.018517822265625,-4.000926078176498,-8.909994005742668,-0.8803370929453521
1758972596702475000,9.02847509765625,-4.178994534389674,-8.818827295652031,-0.9667955522798001
1758972596712433000,9.038432861328126,-4.318112789961695,-8.739598276114464,-1.069437815304473
1758972596722390000,9.04839013671875,-4.4177147354424,-8.674096168634295,-1.189222644048929
1758972596732347100,9.05834716796875,-4.485585325619578,-8.621708978793025,-1.3099793135002256
1758972596742304000,9.068303955078125,-4.534160555957257,-8.580470959475637,-1.4097222748868166
1758972596752262000,9.078261962890625,-4.570404127988219,-8.55295283795297,-1.4590283037170766
1758972596762219000,9.088218994140625,-4.581954572789371,-8.550197401764988,-1.4388235739476978
1758972596772176100,9.098176025390625,-4.550363210478425,-8.581835233566164,-1.3478564780823885
1758972596782132700,9.1081328125,-4.461360400423407,-8.650712370437383,-1.1965971914049238
1758972596792089900,9.11808984375,-4.312133715552092,-8.75090468302667,-0.9987794941049069
1758972596802048000,9.128048095703125,-4.109548073197901,-8.870485002174973,-0.7723208817973732
1758972596812005000,9.138005126953125,-3.868145501193404,-8.994963030236958,-0.5463442443205043
1758972596821962000,9.1479619140625,-3.5978880061045286,-9.116770377784967,-0.33179577697198837
1758972596831918800,9.1579189453125,-3.289164002238214,-9.237630799871683,-0.13390521536516026
1758972596841877000,9.167876953125,-2.92799377181977,-9.359313644257186,0.022431513857201206
1758972596851834000,9.177834228515625,-2.5296245683416725,-9.47420960498154,0.10374106371258385
1758972596861791000,9.187791015625,-2.1320234266266227,-9.571264204066992,0.1255822447105311
1758972596871748000,9.197748046875,-1.7920909222871064,-9.640669164204597,0.12766823893804102
1758972596881705000,9.207705078125,-1.6124571164533494,-9.672261987820267,0.1331509903312195
1758972596891663000,9.2176630859375,-1.7459921650655568,-9.649232994410395,0.11925262156389653
1758972596901620000,9.227619873046875,-2.2527895945586263,-9.544325928258896,0.034375161510310136
1758972596911577000,9.2375771484375,-2.983670066334307,-9.340655121016502,-0.14228175197108647
1758972596921534000,9.247533935546874,-3.6791152137219902,-9.084394294837116,-0.32905615940764543
1758972596931492000,9.2574921875,-4.179837999476492,-8.861436018800735,-0.4174903027292341
1758972596941449000,9.267448974609374,-4.390697841440141,-8.762774569040536,-0.3255274007596075
1758972596951406000,9.277406005859374,-4.292497579450905,-8.81709535729289,0.06042630661979783
1758972596961363200,9.28736328125,-4.086005285046994,-8.904224190169572,0.43560343051422384
1758972596971319800,9.29731982421875,-3.9710242763876913,-8.95307326901257,0.4937929499587044
1758972596981278000,9.30727783203125,-3.8835906153455375,-8.998999738407134,0.32579438113272186
1758972596991235000,9.317235107421874,-3.6432214780420065,-9.103551415249704,0.15046124076810666
1758972597001192200,9.327192138671874,-3.225574158120155,-9.260009220418333,0.1351138970351778
1758972597011149000,9.337149169921876,-2.8079057954102753,-9.393048740598559,0.2380302094945684
1758972597021107000,9.34710693359375,-2.4747727419525383,-9.482810260066389,0.34958171862922605
1758972597031064000,9.35706396484375,-2.18654719010517,-9.550617721879481,0.4184299947321415
1758972597041021000,9.36702099609375,-1.943890087994933,-9.602360768598318,0.4316693424683064
1758972597050978000,9.37697802734375,-1.7508033647395669,-9.641071315264702,0.39347481903266157
1758972597060936000,9.38693603515625,-1.5847288593113422,-9.672453126478194,0.3204369822854176
1758972597070893000,9.39689306640625,-1.3924204269520937,-9.704365683567524,0.23844425192186608
1758972597080850000,9.406849853515626,-1.0526895095992832,-9.747889767995476,0.20218033122261986
1758972597090807000,9.41680712890625,-0.5839500811479985,-9.786254862225055,0.24206068885335696
1758972597100764200,9.42676416015625,-0.11653263114863074,-9.801368844726682,0.29996898020366203
1758972597110722000,9.43672216796875,0.2550147899073548,-9.797794493371248,0.3295338599219918
1758972597120679000,9.446678955078125,0.5404752426892518,-9.786571088567376,0.31825543699525294
1758972597130636000,9.456635986328125,0.8066569397065788,-9.769693603524566,0.2697548245300539
1758972597140593200,9.46659326171875,1.095122876181081,-9.743277305763959,0.19914512824518604
1758972597150551000,9.476551025390625,1.3980050952166319,-9.705484458464383,0.1397704998025205
1758972597160508000,9.4865078125,1.6719392329916356,-9.662441435551642,0.11068277260926551
1758972597170465000,9.496465087890625,1.87614473163262,-9.625134910464286,0.08507993752285838
1758972597180422100,9.506422119140625,2.009922356829047,-9.59843862671852,0.023962712329719214
1758972597190379000,9.51637890625,2.1207135125830767,-9.574187398037314,-0.08895867865234613
1758972597200337000,9.5263369140625,2.232723688738048,-9.546374092960358,-0.22819626802140847
1758972597210294000,9.5362939453125,2.3291610327079892,-9.519209022659062,-0.36063221455160527
1758972597220251100,9.546251220703125,2.382789893173426,-9.501732402679323,-0.45803610199876127
1758972597230208000,9.5562080078125,2.3777625665307043,-9.500006894060968,-0.5162296400312334
1758972597240166000,9.566165771484375,2.328540708852559,-9.510067684826254,-0.5539796345697715
1758972597250123000,9.576123046875,2.238867744451016,-9.529970070648194,-0.5809749743273481
1758972597260079900,9.586079833984375,2.107411547939479,-9.559475566595792,-0.5879106553420425
1758972597270037000,9.596037109375,1.9263751818314194,-9.59894540719688,-0.5654181799616664
1758972597279995000,9.605994873046875,1.6851438747406005,-9.646655837398766,-0.5222183590520173
1758972597289952000,9.615951904296875,1.3929817140966654,-9.694850836247205,-0.4897446974812075
1758972597299908900,9.625908935546875,1.0961278154399245,-9.733439802360534,-0.47860327187236396
1758972597309866000,9.635865966796874,0.8174838194735348,-9.761128019753098,-0.47166127071473746
1758972597319823000,9.645822998046874,0.5204878089323639,-9.78165818208456,-0.46759135439470406
1758972597329781000,9.655781005859374,0.17577205237168816,-9.792659468570351,-0.4932757942168042
1758972597339737900,9.66573779296875,-0.21079870462724937,-9.788677705457806,-0.5547494133658707
1758972597349695000,9.675695068359374,-0.6087205479303375,-9.766958041080832,-0.6374860026329755
1758972597359652000,9.685652099609374,-0.9932461907014251,-9.729646255296467,-0.7195943769991398
1758972597369610000,9.69560986328125,-1.3764829992383718,-9.677662970080972,-0.7864717914205044
1758972597379566800,9.70556689453125,-1.7829786644183099,-9.606315643703937,-0.8426583004795014
1758972597389524200,9.715524169921874,-2.203630865244567,-9.51572585671842,-0.8748490169230848
1758972597399481300,9.7254814453125,-2.613098678103089,-9.413549676835537,-0.8527674604311585
1758972597409439200,9.735439208984374,-2.9930107261314984,-9.30604207279682,-0.7809581425655633
1758972597419396000,9.74539599609375,-3.3337384725019334,-9.195530610767007,-0.7062324988618492
1758972597429353200,9.755353271484376,-3.637186874052882,-9.082627285164595,-0.668670683839172
1758972597439310300,9.765310302734376,-3.893220321217179,-8.972623772656917,-0.7108054328005761
1758972597449267200,9.77526708984375,-4.104748563961684,-8.869414158073067,-0.8092784473165869
1758972597459225000,9.78522509765625,-4.2857331998825074,-8.771114527362585,-0.9329767962429671
1758972597469182200,9.79518212890625,-4.439057090939581,-8.681524857330322,-1.0470145327027887
1758972597479139300,9.805139404296876,-4.551518810254335,-8.612368318995832,-1.131882361844927
1758972597489096200,9.81509619140625,-4.610016884191334,-8.572287653020023,-1.1975048808343707
1758972597499054000,9.82505419921875,-4.625619819253683,-8.556334881606698,-1.2502731789477168
1758972597509011200,9.83501123046875,-4.6112435033768415,-8.558727329701185,-1.2864727657064794
1758972597518968000,9.844968017578125,-4.574628175424039,-8.577047414767742,-1.2951526235073805
1758972597528925200,9.85492529296875,-4.520464039038122,-8.609525789046288,-1.2695832979649304
1758972597538882300,9.86488232421875,-4.44671461995542,-8.65685452645421,-1.2066241529658437
1758972597548840200,9.874840087890625,-4.346489866401255,-8.721358855068683,-1.1028626766528933
1758972597558797000,9.884797119140625,-4.217790713512898,-8.80044232865572,-0.9658224694639443
1758972597568754200,9.894754150390625,-4.063627156761289,-8.888317595985532,-0.8094026582181453
1758972597578711300,9.904711181640625,-3.879255508750677,-8.984004413849116,-0.639863983810693
1758972597588669200,9.914669189453125,-3.6562186145201325,-9.087674631682038,-0.46542701596766706
1758972597598626000,9.9246259765625,-3.393866777989268,-9.19552476554811,-0.3071963924402371
1758972597608583200,9.934583251953125,-3.1004964105993507,-9.302019977673888,-0.1723487633921206
1758972597618540300,9.944540283203125,-2.7868738210365174,-9.402125196501611,-0.06144380396611523
1758972597628497200,9.9544970703125,-2.4856030557855964,-9.486391041162609,0.022869576480903195
1758972597638455000,9.964455078125,-2.258660824679583,-9.542633152866363,0.08376714702439494
1758972597648412200,9.974412109375,-2.170527637065947,-9.562686345335841,0.11936150703215971
1758972597658369300,9.984369384765625,-2.2573228540740904,-9.542710309755801,0.10742906804294325
1758972597668326100,9.994326171875,-2.52523685477674,-9.475879584020376,0.03567301701783435
1758972597678284300,10.0042841796875,-2.912171933309734,-9.364086850008368,-0.059468932829727414
1758972597688241200,10.0142412109375,-3.3600942722469567,-9.212121095561981,-0.130320717075048
1758972597698198300,10.0241982421875,-3.8237577856734393,-9.02868234448731,-0.1792172243895009
1758972597708155100,10.034155029296874,-4.230091684420406,-8.84550019852221,-0.18402078874632716
1758972597718113300,10.04411328125,-4.473522547382116,-8.726779126551747,-0.03653850899008103
1758972597728070100,10.054070068359374,-4.539186859686672,-8.690245923924445,0.2140351657978259
1758972597738027300,10.06402734375,-4.5210105670049785,-8.697927126076817,0.27735475987344976
1758972597747984100,10.073984130859374,-4.497720000049472,-8.713833720260858,0.09999629682684316
1758972597757941200,10.083941162109374,-4.395652833499014,-8.766312680038808,0.020173238652572034
1758972597767899400,10.0938994140625,-4.247074091142416,-8.838363770771027,0.12681933049112556
1758972597777856000,10.10385595703125,-4.066612310051918,-8.921347174406051,0.2064222065760754
1758972597787813000,10.113813232421874,-3.908636501535773,-8.992340865039825,0.17531228937283158
1758972597797770200,10.123770263671876,-3.7574925848662852,-9.057826021385193,0.08622384686097502
1758972597807728400,10.133728271484374,-3.5972549688979982,-9.123051650011538,-0.009328369425309938
1758972597817685200,10.143685302734376,-3.40910964756757,-9.194467949971557,-0.10051319684041664
1758972597827642000,10.15364208984375,-3.1954645587995647,-9.26980639181137,-0.17337545782504601
1758972597837599200,10.16359912109375,-2.9584800954982637,-9.34740985597372,-0.2091125416385941
1758972597847557400,10.173557373046876,-2.7099516171365976,-9.42283071539998,-0.1919172228182666
1758972597857514200,10.18351416015625,-2.4601880440220234,-9.492037522616982,-0.13808634610786102
1758972597867471000,10.19347119140625,-2.2082995877079665,-9.554474397307633,-0.07644918869384563
1758972597877428200,10.20342822265625,-1.9373754454039036,-9.613333413511514,-0.02819093361715786
1758972597887385000,10.213385009765625,-1.6307210874184965,-9.67011153178811,0.008750757908666855
1758972597897343200,10.22334326171875,-1.3085327679537235,-9.718731478050351,0.06620681711684447
1758972597907300400,10.23330029296875,-1.0075901386786252,-9.753474290129542,0.15779732841039076
1758972597917257200,10.24325732421875,-0.7322717800036073,-9.775953832963108,0.2547832096411846
1758972597927214000,10.253214111328125,-0.47022334686610845,-9.789971252399683,0.32515896930601446
1758972597937172200,10.263172119140625,-0.22820350147979332,-9.797346749603747,0.36099169551376253
1758972597947129300,10.27312939453125,-0.02974183230398921,-9.799872468689083,0.36334403079356997
1758972597957086200,10.283086181640625,0.11756678736880422,-9.800254161483048,0.334063612306118
1758972597967043000,10.29304296875,0.23177524075303224,-9.800098678660392,0.27340008569722996
1758972597977000200,10.303000244140625,0.3432691744815558,-9.798992763245105,0.17964871114194392
1758972597986958300,10.312958251953125,0.4624825965462252,-9.795406136929989,0.08063081262689083
1758972597996915500,10.32291552734375,0.5706101956468075,-9.7900326271981,-0.0076184705096849934
1758972598006872000,10.3328720703125,0.6375907781817018,-9.785547590738535,-0.08324756186339072
1758972598016829200,10.3428291015625,0.6514833291295915,-9.784030171912908,-0.13681913005048407
1758972598026787300,10.352787353515625,0.6169175541177392,-9.785970784586667,-0.15681566042928025
1758972598036744200,10.362744140625,0.5502508233049884,-9.790222012290357,-0.13840030742785892
1758972598046701300,10.372701416015625,0.4604739601375535,-9.795398538145422,-0.09227169392416253
1758972598056658200,10.382658203125,0.34300909877326335,-9.800594353222847,-0.032718818271183406
1758972598066616300,10.3926162109375,0.19000015541687607,-9.80476550142765,0.02953127427625004
1758972598076573200,10.4025732421875,-0.008180093868507538,-9.806314484435319,0.0808080049578566
1758972598086530300,10.4125302734375,-0.24989850633954627,-9.802956406179069,0.09976508188685401
1758972598096487200,10.422487060546874,-0.525667366994731,-9.792273099601267,0.07384633555195759
1758972598106444000,10.432444091796874,-0.8106962051600217,-9.773084415006638,-0.00038237353506501674
1758972598116402200,10.442402099609374,-1.0822657326955347,-9.74646528815031,-0.07412180519220418
1758972598126359300,10.452359375,-1.3518784270748496,-9.712262574297188,-0.12154766456536016
1758972598136316400,10.46231640625,-1.6311371208734808,-9.66837550177574,-0.1797461984333582
1758972598146273000,10.47227294921875,-1.9220356913223862,-9.61350701651275,-0.2380504485649988
1758972598156231200,10.482231201171874,-2.2320370216481384,-9.545164717170596,-0.27973358130138365
1758972598166188300,10.492188232421874,-2.5546152172133323,-9.463025363144277,-0.30902284068241714
1758972598176145400,10.5021455078125,-2.8692218493774533,-9.371744671285152,-0.3291608984237537
1758972598186102300,10.512102294921876,-3.154479052938521,-9.27911314933896,-0.3430712407566607
1758972598196060200,10.52206005859375,-3.405328959985077,-9.189405405884981,-0.35913518092688174
1758972598206017300,10.532017333984374,-3.6315573437333106,-9.101074796003102,-0.3906309008436277
1758972598215974400,10.541974365234376,-3.821843184223771,-9.01954042213261,-0.460156345555745
1758972598225931300,10.55193115234375,-3.9688025086849925,-8.948398262938857,-0.5875277935042977
1758972598235888000,10.56188818359375,-4.088236697360873,-8.880329519841075,-0.7722980854436755
1758972598245846300,10.57184619140625,-4.1824145719662305,-8.81465264031589,-0.9897846520707011
1758972598255803100,10.58180322265625,-4.238727118557692,-8.76146114835441,-1.20015239966847
1758972598265760300,10.59176025390625,-4.255592620901763,-8.729393692964315,-1.3630882417447865
1758972598275717400,10.60171728515625,-4.242727878631651,-8.719074543523789,-1.4653995923146605
1758972598285675300,10.61167529296875,-4.202050415806472,-8.729353360953926,-1.5203640852980316
1758972598295632100,10.621632080078125,-4.134292930614948,-8.758070336872338,-1.540861514403671
1758972598305589200,10.63158935546875,-4.038571333698928,-8.803075599768757,-1.5382576155155896
1758972598315546400,10.64154638671875,-3.9145623844534154,-8.86150382333994,-1.5232779269181191
1758972598325504300,10.651504150390625,-3.774441673840582,-8.929298425671458,-1.4804182977482676
1758972598335461000,10.661461181640625,-3.6308918655619022,-9.003042876318096,-1.3900529671683908
1758972598345418200,10.671418212890625,-3.478006658183038,-9.081879681667685,-1.2622576312519609
1758972598355375400,10.681375244140625,-3.303183175240457,-9.16482333781421,-1.1248762824751437
1758972598365332200,10.691332275390625,-3.112262543977797,-9.245608354622124,-1.0014552891854196
1758972598375290000,10.7012900390625,-2.9317531243532895,-9.31482743679881,-0.899558949157223
1758972598385247000,10.7112470703125,-2.786199282775819,-9.366979648840427,-0.8168165146712213
1758972598395204000,10.7212041015625,-2.6787852022394536,-9.404000927245617,-0.7478605404101312
1758972598405161000,10.731160888671875,-2.6013015650644897,-9.429742102223635,-0.6953979472450912
1758972598415118800,10.741118896484375,-2.548851539120078,-9.445720008078217,-0.6723826170343905
1758972598425076000,10.751075927734375,-2.5377593594804404,-9.44705505607426,-0.6951875924300402
1758972598435033000,10.761033203125,-2.588518363597989,-9.427973923507333,-0.7637000607073307
1758972598444990000,10.770989990234375,-2.7012404874145983,-9.388308268073201,-0.8563484607230871
1758972598454947800,10.78094775390625,-2.8512200364798304,-9.334545698225497,-0.9524676786545664
1758972598464905000,10.790905029296875,-3.0175334652304646,-9.272403422567248,-1.0427988877691328
1758972598474861800,10.80086181640625,-3.188966428951919,-9.205247118139267,-1.1244234972063452
1758972598484819000,10.81081884765625,-3.3341260105147956,-9.144772483432293,-1.1946309328332543
1758972598494776000,10.820776123046874,-3.4178906276553866,-9.10715791530907,-1.2442338987834751
1758972598504734000,10.83073388671875,-3.4333383721560238,-9.101144938629865,-1.2456786907643078
1758972598514690800,10.84069091796875,-3.389021383784711,-9.12258286345601,-1.2097144471313803
1758972598524648000,10.85064794921875,-3.2946386342570184,-9.164082748579979,-1.15556945383735
1758972598534605000,10.86060498046875,-3.2588276084244248,-9.179898157349228,-1.1313345917690545
1758972598544563000,10.87056298828125,-3.382963983441889,-9.129368578073382,-1.174983033229038
1758972598554519800,10.880519775390624,-3.5550554110720753,-9.053549074718356,-1.2510891715057193
1758972598564477000,10.890476806640624,-3.7284827634811397,-8.983140490496158,-1.2537800180248915
1758972598574434000,10.90043408203125,-3.8793592613860963,-8.93164469653666,-1.1604576642703264
1758972598584392200,10.91039208984375,-3.9595524497807024,-8.911647033646702,-1.036767571715638
1758972598594348800,10.920348876953126,-3.9364311019122598,-8.9338074275285,-0.9284483590330928
1758972598604306000,10.930305908203126,-3.856765444523096,-8.97685161948502,-0.8437294368423521
1758972598614263000,10.940262939453126,-3.7751121204480524,-9.018816199511289,-0.7615173098407685
1758972598624221200,10.95022119140625,-3.6820778629198667,-9.06264248175621,-0.6937132820937782
1758972598634178000,10.960177978515626,-3.569825110180676,-9.111218588876724,-0.6422224565703422
1758972598644135000,10.970135009765626,-3.4517005427986382,-9.160652189609408,-0.5818718135692179
1758972598654092000,10.980092041015626,-3.3413729129031298,-9.206917681699991,-0.48815129080992187
1758972598664049000,10.990048828125,-3.233213859218359,-9.250770851951836,-0.3740759257534519
1758972598674007000,11.000007080078126,-3.1209950087487695,-9.292660028654337,-0.2761065133780241
1758972598683964000,11.0099638671875,-3.0240386093407867,-9.325936275312303,-0.22914927616361527
1758972598693921000,11.019921142578125,-2.9538921831861136,-9.348346260040998,-0.23096059990189968
1758972598703878000,11.0298779296875,-2.8800255674645303,-9.371026878404617,-0.24435495553668587
1758972598713836000,11.0398359375,-2.760408423437178,-9.406012851589917,-0.27826518924925475
1758972598723793200,11.049793212890625,-2.5900883893936872,-9.4522783436805,-0.340996772570163
1758972598733749800,11.059749755859375,-2.424103900336474,-9.49733738259077,-0.30774982507191595
1758972598743707000,11.069706787109375,-2.245333433333784,-9.543526886835695,-0.223507690080069
1758972598753665000,11.0796650390625,-1.9971330178827047,-9.600394436961412,-0.11947745242887176
1758972598763622100,11.0896220703125,-1.6578145537883042,-9.66543126501739,-0.03849290359402075
1758972598773579000,11.0995791015625,-1.248087067080289,-9.726904847633838,-0.0013909771510749124
1758972598783535900,11.109535888671875,-0.8894816456485539,-9.766218036368489,0.013977483576763188
1758972598793494000,11.119493896484375,-0.6014258243449032,-9.788048175382613,0.05269631058936938
1758972598803451100,11.129451171875,-0.33985549358054995,-9.800017430117725,0.12058091102559118
1758972598813408000,11.139407958984375,-0.07537326655802316,-9.804202606847882,0.20575307514285668
1758972598823364900,11.14936474609375,0.19115553599707782,-9.800241302001476,0.2985102875616401
1758972598833322000,11.159322021484375,0.43560748563483354,-9.789031341201067,0.39430074846278873
1758972598843280100,11.169280029296875,0.6505255900133401,-9.772733117350935,0.490784233129397
1758972598853237000,11.179237060546875,0.8423932198025286,-9.752293555912376,0.5945885622033849
1758972598863194000,11.189194091796875,1.0148010199055075,-9.72816916848123,0.7094261072713881
1758972598873151000,11.19915087890625,1.170874428866431,-9.700856798663734,0.8323659659806638
1758972598883109000,11.209109130859375,1.306388011009991,-9.671963881656527,0.9575228431522845
1758972598893066000,11.21906591796875,1.4386498248159885,-9.640527125385404,1.077454752217233
1758972598903023000,11.229023193359374,1.557556190225482,-9.606858080017567,1.2052736151397228
1758972598912980000,11.23897998046875,1.6331369163885712,-9.574528174299001,1.35339789172709
1758972598922937900,11.248937744140624,1.671448965256661,-9.543640284082294,1.5151219468608497
1758972598932895000,11.25889501953125,1.724360617363453,-9.507859361127018,1.6725956510737536
1758972598942852000,11.26885205078125,1.788245206644386,-9.466183534914254,1.8341013872817158
1758972598952809000,11.27880908203125,1.8525952214799821,-9.42376244329214,1.9826691698528824
1758972598962766800,11.288766845703124,1.9589017791658638,-9.373943058112262,2.1124137401409446
1758972598972724000,11.298723876953124,2.135323929476738,-9.30837489965856,2.228217463359982
1758972598982681000,11.30868115234375,2.3791458375826475,-9.224317144790291,2.3285237577177584
1758972598992638000,11.318637939453126,2.678866743043065,-9.118664228707551,2.4174394740112124
1758972599002595800,11.328595947265624,3.0107401518285273,-8.985954378873108,2.5215946988821027
1758972599012553000,11.338552978515626,3.36483445251137,-8.827617335829139,2.630862882852554
1758972599022510000,11.348510009765626,3.77183470621258,-8.642387025162577,2.693102189144492
1758972599032467000,11.358467041015626,4.257427727374434,-8.409690029922126,2.7058856828719375
1758972599042424000,11.368424072265626,4.793683014281094,-8.134643839251995,2.6492563254162667
1758972599052382000,11.3783818359375,5.298688591921329,-7.858104195153713,2.518824649646878
1758972599062339000,11.388339111328126,5.743237362772226,-7.5927277501046655,2.3528894065588712
1758972599072296000,11.3982958984375,6.0959630054503675,-7.360839733159541,2.1971933795429766
1758972599082253000,11.408253173828125,6.355440455588698,-7.177928805351257,2.0630331847697496
1758972599092211000,11.4182109375,6.560838525015115,-7.023978599089384,1.946668905058503
1758972599102168000,11.42816796875,6.744825557622313,-6.867422594243288,1.8751622964665293
1758972599112125000,11.438125,6.925117827364802,-6.690940238177776,1.8559221739456055
1758972599122082000,11.44808203125,7.113510985976458,-6.490978806847333,1.8535206657618284
1758972599132040000,11.4580400390625,7.307688573208451,-6.260310102564096,1.8911860872894524
1758972599141996800,11.467996826171875,7.503308760464191,-5.998388766404986,1.972328685363382
1758972599151954000,11.477953857421875,7.696810055869817,-5.711497239640355,2.0756442445397374
1758972599161911000,11.4879111328125,7.88735367051363,-5.403103490641713,2.183232658729702
1758972599171869000,11.497868896484375,8.070448138195276,-5.08010896936059,2.2870824709132314
1758972599181825800,11.50782568359375,8.243272556275128,-4.746822771167754,2.3846416585199535
1758972599191783000,11.517782958984375,8.400312545245885,-4.40888407099396,2.483318744240701
1758972599201740000,11.527739990234375,8.53689660616517,-4.073292226207256,2.5884488054931163
1758972599211698200,11.5376982421875,8.651227918744087,-3.7453874287918207,2.701613996902108
1758972599221654800,11.54765478515625,8.741459978333115,-3.4334605372309683,2.822873355178535
1758972599231612000,11.55761181640625,8.811020421293378,-3.143154525847733,2.942259320798516
1758972599241569000,11.567569091796875,8.864333493807912,-2.8819030517742035,3.0477225595280526
1758972599251526000,11.57752587890625,8.90053585704565,-2.6516984578713774,3.1494989264383912
1758972599261484000,11.587484130859375,8.922734244850277,-2.43882201538831,3.2568925487086173
1758972599271441000,11.59744091796875,8.937969807904958,-2.2321498343728483,3.3616347796872255
1758972599281398000,11.60739794921875,8.95547974563241,-2.0277774547323584,3.4435277577370402
1758972599291355000,11.61735498046875,8.982274229055642,-1.8176866974450647,3.490723516415059
1758972599301313000,11.62731298828125,9.015971331474184,-1.5969652405500412,3.511744677133858
1758972599311270000,11.637269775390624,9.047915452745556,-1.3700177487470209,3.5254297958761454
1758972599321227000,11.64722705078125,9.074412999048828,-1.1413855187274515,3.5387361444339156
1758972599331183900,11.657183837890624,9.096334907999633,-0.9237237416639924,3.5459576201200482
1758972599341142000,11.66714208984375,9.118470751962064,-0.725528808549419,3.5351775751695036
1758972599351099100,11.67709912109375,9.141313282889127,-0.5520631334239616,3.507421553237736
1758972599361056000,11.687055908203124,9.15824454394579,-0.3945529331255704,3.4844331840991973
1758972599371012900,11.697012939453124,9.166761612400412,-0.22705016672620548,3.4769688395678995
1758972599380971000,11.706970947265624,9.18513781156838,0.00014323501270209816,3.4356405116185544
1758972599390928100,11.71692822265625,9.21173121946156,0.25155283115152266,3.354267173528671
1758972599400885000,11.726885009765626,9.250514831364153,0.46941192088536915,3.221491564981639
1758972599410842000,11.736842041015626,9.296368820044398,0.6347489058192819,3.056960927994549
1758972599420800300,11.74680029296875,9.339473217755556,0.7483568725597113,2.8956153507843614
1758972599430757000,11.756757080078126,9.37165582395792,0.8086630188319832,2.7728175308942795
1758972599440714200,11.76671435546875,9.388414066535233,0.8364945902179927,2.7070909670084715
1758972599450671000,11.776671142578126,9.388563119617103,0.857260241805762,2.700069690069556
1758972599460629000,11.78662890625,9.378497652676701,0.8716500747513025,2.7302725206315515
1758972599470586000,11.796586181640626,9.371142029216886,0.8714133433859795,2.7554885026916858
1758972599480543200,11.806543212890626,9.37575741405785,0.8450389120057225,2.7479937630221247
1758972599490500000,11.8165,9.39215325306356,0.7874526191513985,2.7088293351083994
1758972599500457000,11.82645703125,9.411500343090296,0.7128470216307788,2.6619351897254586
1758972599510415000,11.8364150390625,9.426544767487048,0.6421276178937405,2.626463771110773
1758972599520372200,11.846372314453125,9.434856668758393,0.580818614721857,2.610845346218347
1758972599530329000,11.8563291015625,9.432624964183569,0.5242411701165139,2.63080530744642
1758972599540286000,11.866285888671875,9.419664360323548,0.4746749194474891,2.6860738979429004
1758972599550244000,11.876244140625,9.399103218331932,0.4415202168099582,2.7626629243656993
1758972599560201200,11.886201171875,9.371108126947282,0.4357593151956796,2.857066132159531
1758972599570158000,11.896157958984375,9.340235434299707,0.4569262045281008,2.953236349625885
1758972599580115200,11.906115234375,9.31607539103329,0.5034392416389659,3.0212042626976965
1758972599590073000,11.916072998046875,9.309037162959575,0.5762685502020641,3.0298727223217488
1758972599600030200,11.9260302734375,9.321918856364489,0.6804829213816672,2.9680224153473973
1758972599609987000,11.935987060546875,9.344993442481755,0.8101916166387498,2.860956709857285
1758972599619944200,11.945944091796875,9.356477544048428,0.9182673759542405,2.7898928765967486
1758972599629902000,11.955902099609375,9.358704572448135,0.9808918091062456,2.7609578740134832
1758972599639859200,11.965859130859375,9.377313995850086,1.038459835651517,2.6754382298991084
1758972599649816000,11.975816162109375,9.415812945592403,1.0978393685981631,2.5114938683673738
1758972599659773200,11.985773193359375,9.468164479598402,1.148386410465464,2.281546610226482
1758972599669731000,11.99573095703125,9.525103341394662,1.1902381047017871,2.006519562648237
1758972599679688200,12.005688232421875,9.575205635169148,1.230172494074702,1.7240936369903384
1758972599689645000,12.01564501953125,9.608469022345542,1.2762830878645182,1.4895667959742247
1758972599699602200,12.025602294921875,9.621309799218178,1.3316801270462573,1.3518163216240704
1758972599709559300,12.035559326171875,9.620479193612933,1.3804165392950176,1.3081338317640125
1758972599719517000,12.045516845703125,9.612695115607977,1.4223422486156225,1.3203845337890088
1758972599729474000,12.05547412109375,9.604248189780115,1.4672992884561418,1.3326042561538516
1758972599739431200,12.06543115234375,9.600441783234476,1.5100916976086793,1.312071025082469
1758972599749388300,12.07538818359375,9.605555180725455,1.5371666054084896,1.2412957995049654
1758972599759346000,12.085345947265624,9.618942485564947,1.5428265308663247,1.1251747539650647
1758972599769303000,12.095302978515624,9.636022215181589,1.5335858243122695,0.9826368261426687
1758972599779260200,12.10526025390625,9.651804306203127,1.5195596370473503,0.8390422288741916
1758972599789217000,12.115217041015624,9.664605335587263,1.5009015521980822,0.7163001577593385
1758972599799175000,12.1251748046875,9.674548052930831,1.4789450103253126,0.6214679108984767
1758972599809132000,12.135132080078124,9.681437812444567,1.4601229670859872,0.555148093827255
1758972599819089200,12.145089111328126,9.686413262769578,1.4451879944130777,0.5051860487736761
1758972599829046000,12.1550458984375,9.690928109845519,1.4303478604167699,0.4587008860504254
1758972599839004200,12.165004150390626,9.69566332167387,1.412240541318059,0.4123948427537456
1758972599848961000,12.1749609375,9.701246674764155,1.385818982860446,0.36837460883930323
1758972599858918100,12.184918212890626,9.707827222198247,1.3488110023282467,0.33042379449903964
1758972599868875000,12.194875,9.715062434148788,1.3012478716425597,0.30773820769935845
1758972599878833200,12.204833251953126,9.722602766525744,1.2441123182304203,0.3058875748639926
1758972599888790000,12.2147900390625,9.729963650682569,1.1810520509444176,0.3214069598287344
1758972599898747100,12.2247470703125,9.736456519833206,1.1194312418770045,0.3444888524696231
1758972599908704000,12.2347041015625,9.741866854444146,1.0636533136188984,0.367507068757154
1758972599918662100,12.244662109375,9.746343707597255,1.015498135324195,0.3846222715459764
1758972599928619300,12.254619384765626,9.749844409194589,0.9780814278606325,0.3927739042216912
1758972599938576000,12.264575927734375,9.752269590514898,0.9547355505213141,0.3900016995619982
1758972599948533000,12.274532958984375,9.753432789075374,0.9485754935216159,0.3756769312093034
1758972599958490000,12.284489990234375,9.75308616759479,0.9608026685405522,0.35292200550045816
1758972599968448300,12.2944482421875,9.751166597709059,0.9893159385804087,0.32616496801078315
1758972599978405000,12.304405029296875,9.747860541900991,1.0293171826444565,0.3001723390223458
1758972599988362000,12.314362060546875,9.743529819220305,1.0760200432389975,0.27602294501410796
1758972599998319000,12.324319091796875,9.738555537939071,1.1265786294136195,0.24847835560962556
1758972600008277200,12.33427734375,9.733172675856947,1.17939215490818,0.21159091445086523
1758972600018234000,12.344234130859375,9.727472418388723,1.232818478538841,0.16378891524169592
1758972600028191000,12.35419091796875,9.721380531254411,1.2855505362950264,0.11183867377927525
1758972600038148000,12.364148193359375,9.71481635043323,1.3373979201711714,0.06397087932489812
1758972600048106200,12.374106201171875,9.707697458338737,1.3893933342158793,0.024048828843748194
1758972600058063000,12.38406298828125,9.700663321918249,1.4378437691301107,-0.011152297487662872
1758972600068020200,12.394020263671875,9.694630471494794,1.4773144865140317,-0.04543732960417401
1758972600077977000,12.40397705078125,9.68973393162489,1.5073666565589605,-0.08535698263226077
1758972600087935200,12.413935302734375,9.68551952880025,1.5304504488959907,-0.13715902952933684
1758972600097892000,12.42389208984375,9.675957919728756,1.5779714940056204,-0.23713748017223552
1758972600107849200,12.43384912109375,9.65584569054842,1.6719278348147868,-0.37374041018877174
1758972600117806000,12.44380615234375,9.638774728760122,1.7530805158913134,-0.4371680860150605
1758972600127764000,12.453763916015625,9.630346507632732,1.8036698625303804,-0.41663153047543017
1758972600137721000,12.46372119140625,9.628619829970598,1.8281531464017926,-0.3433948832204565
1758972600147678200,12.47367822265625,9.62777694940567,1.8457215363182127,-0.2638232607902959
1758972600157635300,12.48363525390625,9.625103346282243,1.867504329059273,-0.20050278993183746
