time,seconds_elapsed,z,y,x
1758972228378930200,0.04593017578125,9.397501628354192,2.781536551661789,-0.3469813268724829
1758972228388888000,0.05588818359375,9.37676688336134,2.864041524130106,-0.20950165055403486
1758972228398846200,0.06584619140625,9.341787924438714,2.9834952942892907,-0.011740178094926522
1758972228408805000,0.07580517578125,9.283871742042898,3.1508927188843487,0.22799579527955502
1758972228418763300,0.08576318359375,9.193684690639376,3.374920377717912,0.5064212531244382
1758972228428721000,0.095720947265625,9.06318316450417,3.655064768309891,0.8182864410933106
1758972228438679000,0.105678955078125,8.887097698801755,3.9843379314690828,1.146703864206001
1758972228448637000,0.115636962890625,8.665782513797282,4.342065620218217,1.490323459560424
1758972228458595000,0.125594970703125,8.443484162974357,4.6550794302329415,1.7911434123039245
1758972228468553000,0.135552978515625,8.266980764120817,4.866437869368493,2.035976835539937
1758972228478511000,0.145510986328125,8.128419265648722,5.007444130644202,2.2415828486286102
1758972228488470000,0.155469970703125,8.059129456323385,5.062406723931431,2.364922081919014
1758972228498428200,0.16542822265625,8.052168969660997,5.045646727788448,2.423717823628336
1758972228508386000,0.175385986328125,8.10281720688045,4.961249950224161,2.429143648069352
1758972228518344200,0.18534423828125,8.200408981582521,4.818656712017953,2.388352641867101
1758972228528302000,0.195302001953125,8.324148758497834,4.634225442774594,2.324409746527672
1758972228538260000,0.205260009765625,8.455299688452481,4.412741038683056,2.2816670217357573
1758972228548218000,0.215218017578125,8.570327751123905,4.168388676962256,2.31179605640918
1758972228558176000,0.225176025390625,8.644290228435397,3.9312656819730996,2.44781079300791
1758972228568135000,0.235135009765625,8.670216112330555,3.72552654402405,2.66799375911206
1758972228578093000,0.245093017578125,8.654137084189056,3.5667706910461185,2.924797898387909
1758972228588051200,0.25505126953125,8.602309866318107,3.4639471531704067,3.1893133426934477
1758972228598009000,0.265009033203125,8.516041449663042,3.4019980619966983,3.474741811168194
1758972228607967200,0.27496728515625,8.397439035636186,3.360291256123781,3.789702663597464
1758972228617925000,0.284925048828125,8.251413192632794,3.3188232274428007,4.131583087134361
1758972228627883000,0.294883056640625,8.088670608106256,3.2597070216074586,4.48532053720355
1758972228637841000,0.3048408203125,7.908347358703613,3.186453861609101,4.845094344827532
1758972228647800000,0.314800048828125,7.693053918206691,3.115677028596401,5.223013465473056
1758972228657758000,0.324758056640625,7.425634569153189,3.0442279954105613,5.635868290421366
1758972228667716000,0.334716064453125,7.09821229455769,2.9465555566877124,6.0912704637199635
1758972228677674000,0.344674072265625,6.717607880350947,2.7998595593377944,6.57304451111555
1758972228687632100,0.354632080078125,6.293893807736039,2.5989804286405445,7.057094686749577
1758972228697590000,0.364590087890625,5.844094276750087,2.346297314817458,7.517435485494136
1758972228707548200,0.374548095703125,5.3907987203419205,2.040904501200467,7.933750680029392
1758972228717506000,0.384506103515625,4.95948001794219,1.6793896951280534,8.291778520768881
1758972228727464000,0.3944638671875,4.5744078106716275,1.2708612089462576,8.580797707211971
1758972228737422800,0.4044228515625,4.244637511645257,0.8381004910446703,8.80062703757286
1758972228747381000,0.414381103515625,3.963544149765372,0.4022164900233969,8.960967237132786
1758972228757339000,0.4243388671875,3.709980307585001,-0.023082127819617743,9.077769323739409
1758972228767297000,0.434297119140625,3.490783429908752,-0.4231840573914349,9.154546858471631
1758972228777255200,0.444255126953125,3.271536283349991,-0.8086785086620598,9.209424111562967
1758972228787213000,0.454213134765625,3.051778556920588,-1.1917420795239508,9.243201878002285
1758972228797171200,0.464171142578125,2.8711496025696395,-1.555348158787191,9.247042186817525
1758972228807129000,0.474129150390625,2.7510411678940057,-1.8800721342094242,9.223203046068548
1758972228817088000,0.484087890625,2.668635564146936,-2.1616950729213653,9.185633486130833
1758972228827046100,0.494046142578125,2.6145783952668307,-2.3931847381986677,9.143687610805035
1758972228837004000,0.504004150390625,2.5911525114938616,-2.5681124121680856,9.102807903406024
1758972228846962000,0.5139619140625,2.595067931371927,-2.6982357526406644,9.063969346445798
1758972228856920000,0.523920166015625,2.6273312015950676,-2.800824897238612,9.023463733056188
1758972228866878000,0.5338779296875,2.6737270420670507,-2.889154045815766,8.981890198174119
1758972228876836000,0.543836181640625,2.7133871445432303,-2.9616064108252522,8.946329639971255
1758972228886794000,0.5537939453125,2.7284286463305354,-3.0115558521255847,8.925053627708554
1758972228896753200,0.563753173828125,2.7151979933574792,-3.034700580869615,8.921248390206694
1758972228906711000,0.5737109375,2.6728733478471636,-3.034957770501077,8.933932515212893
1758972228916669200,0.583669189453125,2.6018612447738647,-3.0255057592839,8.95806917760372
1758972228926627000,0.593626953125,2.5160858723327517,-3.01655439106524,8.985549889725446
1758972228936585000,0.6035849609375,2.4267452086254955,-3.007758797930181,9.013028848281502
1758972228946543000,0.613543212890625,2.3288322391450405,-3.001755465862155,9.040817018917203
1758972228956501000,0.6235009765625,2.224818760832399,-3.001732377247512,9.066983141309022
1758972228966459100,0.633459228515625,2.1295617126882074,-3.0008304599717257,9.090124362921713
1758972228976418000,0.64341796875,2.0167323291048405,-3.000900894859433,9.115797733360528
1758972228986376000,0.6533759765625,1.8280998087793587,-3.0151056535616516,9.150824623078107
1758972228996334000,0.663333984375,1.5704849376425145,-3.0379929004132746,9.191003488731385
1758972229006292200,0.673292236328125,1.2770626939348875,-3.048395344223082,9.232917799875139
1758972229016250000,0.68325,1.0013658573362976,-3.0420737399861215,9.26895006724298
1758972229026208300,0.693208251953125,0.8265400363061577,-3.0311259372532366,9.289752032253146
1758972229036166000,0.703165771484375,0.7932607939735055,-3.0093063196331262,9.29974209586978
1758972229046124000,0.7131240234375,0.8742590882059186,-2.980950870503485,9.301612565916777
1758972229056082000,0.72308203125,0.860134701263532,-2.9415070411264894,9.315476256096362
1758972229066041000,0.733041015625,0.8026275380600243,-2.8920395381242034,9.336074222967028
1758972229075999000,0.7429990234375,0.8609723211314528,-2.854019896331429,9.342572937336563
1758972229085957000,0.75295703125,0.9920008668154477,-2.853530066987872,9.329720470026135
1758972229095915000,0.7629150390625,1.097618200128153,-2.8950024795830247,9.305084041419624
1758972229105873200,0.772873046875,1.1014889771468936,-2.975044276808202,9.279343450963497
1758972229115831000,0.7828310546875,0.969030910116434,-3.0871599591642616,9.257473564460874
1758972229125789200,0.7927890625,0.6964752941530198,-3.2319463235005736,9.232542536821962
1758972229135747000,0.8027470703125,0.3344380716416985,-3.408724155381322,9.189076904582977
1758972229145706000,0.8127060546875,-0.06768049726544413,-3.6057378428220748,9.119454502302407
1758972229155664000,0.822663818359375,-0.4902373033037409,-3.8213288049608467,9.018175563520193
1758972229165622000,0.8326220703125,-0.7413508662551641,-4.0474078433662655,8.901644695070386
1758972229175580000,0.842579833984375,-0.759333024604246,-4.263337828201055,8.798734940215946
1758972229185538000,0.8525380859375,-0.6843375509832054,-4.460310891370475,8.70676275896132
1758972229195496200,0.86249609375,-0.6243043764334172,-4.629217259223759,8.622699743396042
1758972229205454000,0.8724541015625,-0.5787738840864971,-4.736214575652778,8.56759452676773
1758972229215412200,0.882412109375,-0.49164662211239335,-4.7493835615664715,8.56574743759632
1758972229225369900,0.892369873046875,-0.34543983305152504,-4.674468605835735,8.613965232798456
1758972229235329000,0.9023291015625,-0.16436105257384478,-4.550448550674319,8.685434724250435
1758972229245287000,0.912286865234375,-0.03606793690284248,-4.416232095669209,8.755912866577505
1758972229255245000,0.9222451171875,-0.09736417649127542,-4.326815736377239,8.79997529566586
1758972229265203000,0.932202880859375,-0.22408395559806377,-4.334846482619643,8.793705713877081
1758972229275161000,0.9421611328125,-0.26319533815030005,-4.476779795612394,8.721212724596262
1758972229285119000,0.952118896484375,-0.20080122488914057,-4.7335655224487185,8.586233760786056
1758972229295077000,0.9620771484375,-0.09253104811324737,-5.0560827816069125,8.402252573397755
1758972229305035000,0.972034912109375,-0.0035230455744705977,-5.416679596051574,8.174958898505569
1758972229314994200,0.981994140625,0.059876029493007805,-5.81952740624845,7.8930282090187065
1758972229324952000,0.9919521484375,0.11606391765833832,-6.283071969470381,7.5286045297622675
1758972229334910200,1.00191015625,0.17186719042025506,-6.768860513204336,7.093896769446134
1758972229344867800,1.011867919921875,0.23077287704376503,-7.223729018017649,6.628336774748563
1758972229354826000,1.021825927734375,0.31258601305671035,-7.618685782703757,6.1667094433248035
1758972229364784400,1.031784423828125,0.4326049062853679,-7.954340463593602,5.71941458863616
1758972229374742500,1.041742431640625,0.5813882678359746,-8.236188150972128,5.291274516272544
1758972229384700400,1.051700439453125,0.7192252514258026,-8.469556177341937,4.890780867986381
1758972229394658300,1.061658203125,0.7943809571098536,-8.663429813191295,4.525962636454403
1758972229404617200,1.0716171875,0.7932430391211063,-8.83242619741559,4.186812514664233
1758972229414575400,1.081575439453125,0.7447438696943223,-8.987515052318573,3.8523102186799045
1758972229424533200,1.091533203125,0.6791697929564863,-9.133144589480757,3.506393963755667
1758972229434491400,1.101491455078125,0.612908026215434,-9.26454744836986,3.156403298999369
1758972229444449500,1.111449462890625,0.5629973460229113,-9.380341234716772,2.804032168847322
1758972229454407400,1.121407470703125,0.5178891707412898,-9.484984096974134,2.4366443790882824
1758972229464365600,1.131365478515625,0.4699496079586446,-9.57988064124286,2.0433828740127384
1758972229474323500,1.141323486328125,0.42635209296829996,-9.660866733580827,1.6298095255315304
1758972229484282400,1.151282470703125,0.39948392325434834,-9.724633980092406,1.2009670039869844
1758972229494240500,1.161240478515625,0.39024263217840344,-9.768504101479053,0.7709781619515269
1758972229504198400,1.171198486328125,0.392787019431591,-9.7908147174865,0.3950379401635378
1758972229514156300,1.18115625,0.3972795450778678,-9.797926010796427,0.11487804147517308
1758972229524114400,1.191114501953125,0.39515009530112144,-9.798453249540925,-0.06743373769645113
1758972229534072300,1.201072265625,0.3743987644996494,-9.79786638956368,-0.1789419693783857
1758972229544030500,1.211030517578125,0.2765054495677352,-9.799193254253268,-0.2640977120838128
1758972229553988400,1.22098828125,0.11093938685199245,-9.799736275088787,-0.3510820767221972
1758972229563946500,1.230946533203125,-0.07112552315278443,-9.795696059787273,-0.45791050285771484
1758972229573905400,1.240905517578125,-0.25460255584465336,-9.785010415121912,-0.5992797156943008
1758972229583863600,1.250863525390625,-0.4274999843617901,-9.767442609727382,-0.7646432598415762
1758972229593821400,1.260821533203125,-0.583853890764527,-9.743692900827526,-0.9433755137257277
1758972229603779300,1.270779296875,-0.725641767404601,-9.714099726596475,-1.1314219047263263
1758972229613737500,1.280737548828125,-0.8619850053053348,-9.68027753649354,-1.3113320432834326
1758972229623695400,1.2906953125,-0.9930595820881426,-9.64758288911581,-1.4520209091730416
1758972229633653500,1.300653564453125,-1.022218529620394,-9.634517071315646,-1.5170857942797242
1758972229643611400,1.310611328125,-0.8721931686520576,-9.652985624942183,-1.493165697249025
1758972229653569500,1.320569580078125,-0.6099609399128705,-9.684205523592233,-1.4193331299275158
1758972229663528400,1.330528564453125,-0.31057821689825504,-9.707621470493077,-1.3550031349666416
1758972229673486600,1.340486572265625,0.0034449122937308856,-9.71627064089477,-1.3283306704878806
1758972229683444500,1.350444580078125,0.32954036272801457,-9.708816233235597,-1.3418978619389235
1758972229693402600,1.360402587890625,0.6558894551340491,-9.687434422510862,-1.376156251502037
1758972229703360300,1.3703603515625,0.9252133226346224,-9.65946388104558,-1.4174386944830417
1758972229713318400,1.380318359375,1.0184461714748292,-9.64394599391818,-1.4585824596457182
1758972229723276300,1.3902763671875,0.9408133350875229,-9.648307696259021,-1.48168685637936
1758972229733234400,1.400234375,0.7868812490042298,-9.662851769918202,-1.4766475470378995
1758972229743192300,1.4101923828125,0.6270296366788447,-9.678545598134399,-1.4501643215209246
1758972229753150500,1.420150390625,0.4800494886253029,-9.691544195917249,-1.4191224097862838
1758972229763109400,1.430109375,0.33687702575903383,-9.70144365864098,-1.3924448307409882
1758972229773067500,1.440067626953125,0.19518301968118174,-9.70834627763629,-1.3712399840183556
1758972229783025400,1.450025390625,0.058666114847129205,-9.711257196646928,-1.3632397790446877
1758972229792983600,1.459983642578125,-0.06318654228048398,-9.709568512907623,-1.3750152647733687
1758972229802941400,1.46994140625,-0.15812203032011166,-9.704225982835888,-1.4047665521755814
1758972229812899300,1.4798994140625,-0.2202672833867371,-9.696541858074069,-1.4487759359024464
1758972229822857500,1.489857421875,-0.2421950923553668,-9.688766547897458,-1.496497325889766
1758972229832815400,1.4998154296875,-0.22895671273358165,-9.681761637571453,-1.5431874731332063
1758972229842773500,1.5097734375,-0.20074465413000434,-9.674771924814582,-1.5902376858606933
1758972229852732400,1.519732421875,-0.1739209811449051,-9.667450788146256,-1.6372423058807848
1758972229862690600,1.529690673828125,-0.15592263884600252,-9.661710783189534,-1.6725572187595068
1758972229872648400,1.5396484375,-0.14653097038078122,-9.66069137701392,-1.6792701604016125
1758972229882606600,1.549606689453125,-0.1409443750206381,-9.665684947517514,-1.6507715034089983
1758972229892564500,1.559564453125,-0.13202725613145158,-9.67401087731421,-1.6020141945026813
1758972229902522400,1.5695224609375,-0.11911669282508082,-9.68022025334835,-1.5650887776874005
1758972229912480300,1.579480224609375,-0.10687124236393719,-9.682133393493293,-1.554112625642866
1758972229922438400,1.5894384765625,-0.09879126841863617,-9.681744101914763,-1.5570743980579078
1758972229932396300,1.599396240234375,-0.0977185702863615,-9.68134078181088,-1.5596508244171738
1758972229942355500,1.60935546875,-0.10529993792660534,-9.681304541453718,-1.5593712768234311
1758972229952313300,1.619313232421875,-0.12122315445188432,-9.680614805623888,-1.5624866323649882
1758972229962271500,1.629271484375,-0.1430013440830633,-9.67863561450541,-1.572885422912985
1758972229972229400,1.6392294921875,-0.1637328376729041,-9.676015787395835,-1.5869120485693216
1758972229982187500,1.6491875,-0.17628191985627636,-9.673522217014431,-1.6007070574268698
1758972229992145700,1.659145751953125,-0.17355572802908717,-9.671659345752,-1.612226814828813
1758972230002103300,1.669103271484375,-0.15114780739331618,-9.670648122882842,-1.620529948271811
1758972230012061400,1.6790615234375,-0.10951311690853908,-9.670482118666172,-1.6248584789954126
1758972230022019300,1.689019287109375,-0.053767113592079835,-9.671162502145767,-1.6236064331077038
1758972230031978500,1.698978515625,0.006521864632971119,-9.671446579784154,-1.6227919018544257
1758972230041936400,1.708936279296875,0.06360470832705031,-9.67020505529046,-1.6289476480051874
1758972230051894500,1.71889453125,0.11571192588289268,-9.66768751951158,-1.6409755010597407
1758972230061852400,1.728852294921875,0.16535552523760125,-9.66500397951603,-1.6524993501149117
1758972230071810600,1.738810546875,0.21809717280603944,-9.662710900142788,-1.6597699256397782
1758972230081768400,1.7487685546875,0.27997193836821244,-9.660780224341153,-1.6617261742740868
1758972230091726600,1.7587265625,0.3555227260507643,-9.65888286628723,-1.6583092054374515
1758972230101684200,1.768684326171875,0.4486776508165523,-9.656731241211295,-1.6482203576214611
1758972230111642400,1.778642333984375,0.5608887563711032,-9.654124273583292,-1.6290069769769906
1758972230121601300,1.788601318359375,0.6897621333152055,-9.65070014435351,-1.5995552570432423
1758972230131559400,1.798559326171875,0.8200614879418164,-9.646616674432158,-1.5622586688280105
1758972230141517300,1.808517333984375,0.9447233481381088,-9.642140990322828,-1.5188852449171244
1758972230151475500,1.818475341796875,1.0602920204922557,-9.637355509611965,-1.4722686013013124
1758972230161433300,1.828433349609375,1.1556938108693808,-9.63309259147048,-1.427689016471058
1758972230171391500,1.8383916015625,1.2344172920376062,-9.628974634757638,-1.3890550421722232
1758972230181349600,1.848349609375,1.3070527585290372,-9.623943654853106,-1.357103175985813
1758972230191307300,1.858307373046875,1.3711048133313655,-9.618419922995567,-1.3328412797801197
1758972230201265400,1.868265380859375,1.4225439086675644,-9.613475452330707,-1.3144704874396322
1758972230211223300,1.878223388671875,1.4596711316652595,-9.609932080635428,-1.29959688956514
1758972230221182500,1.888182373046875,1.4849043571211398,-9.607575872898101,-1.2883775764144956
1758972230231140400,1.898140380859375,1.5017257280625402,-9.605866146370769,-1.2816057441920041
1758972230241098500,1.908098388671875,1.5122379158571362,-9.604663200321793,-1.2782666628971695
1758972230251056400,1.918056396484375,1.5171842862181364,-9.603880525511503,-1.2782784994654357
1758972230261014500,1.9280146484375,1.5172528214097023,-9.603446810269356,-1.2814645821556447
1758972230270972400,1.937972412109375,1.5139666393458842,-9.603148704105616,-1.2875620222479105
1758972230280930600,1.9479306640625,1.5089035107374191,-9.60267173424363,-1.2970301078170536
1758972230290888200,1.95788818359375,1.5028050477318464,-9.602231004738806,-1.3073416584730146
1758972230300846300,1.967846435546875,1.4968990385584533,-9.601999534070492,-1.3157917991712689
1758972230310805200,1.97780517578125,1.4926133240632713,-9.601776246708631,-1.3222710781879723
1758972230320763400,1.987763427734375,1.491742678708583,-9.60090355552733,-1.3295669342845677
1758972230330721300,1.99772119140625,1.4947627571821211,-9.599009120082854,-1.3398171101421117
1758972230340679400,2.007679443359375,1.5010833385057747,-9.596194062662125,-1.3528560399353504
1758972230350637300,2.01763720703125,1.509599822438508,-9.592890929463506,-1.3667321512050925
1758972230360594700,2.0275947265625,1.5199381149709223,-9.589386720734835,-1.3797912470035254
1758972230370552800,2.037552734375,1.5329352514490484,-9.585697803089023,-1.3910098295018076
1758972230380510700,2.0475107421875,1.5503136717513202,-9.58172948397994,-1.3990595727056263
1758972230390468600,2.057468505859375,1.5724021694406867,-9.578474866098166,-1.39669795814082
1758972230400426800,2.0674267578125,1.6008018961034713,-9.575528291252255,-1.3845822806723416
1758972230410385700,2.0773857421875,1.638628353411704,-9.571370587050914,-1.3689976119190455
1758972230420343600,2.087343505859375,1.690439350800216,-9.564438741961121,-1.3543683441944419
1758972230430301700,2.0973017578125,1.7592990981452166,-9.553600537082552,-1.3431145442523063
1758972230440259600,2.107259521484375,1.8425737398117779,-9.539780101522803,-1.3296234867773948
1758972230450217700,2.1172177734375,1.932780372698605,-9.52464332266748,-1.309927144921571
1758972230460176000,2.12717578125,2.0226503209769726,-9.509440492838621,-1.2844539732299745
1758972230470133800,2.1371337890625,2.1063705144539475,-9.495109769669174,-1.2555737695738673
1758972230480092000,2.147091796875,2.178935399927199,-9.482541964519024,-1.22639063744843
1758972230490049500,2.157049560546875,2.235996426798403,-9.47264659344852,-1.1998632074635476
1758972230500007700,2.167007568359375,2.273035533121228,-9.466540677788853,-1.1782593514859676
1758972230509966600,2.176966552734375,2.2855665133923293,-9.465435346895456,-1.1628004280041904
1758972230519924700,2.1869248046875,2.2716410100229085,-9.469932658314704,-1.1534222126755862
1758972230529882600,2.196882568359375,2.2344196790009736,-9.479348136913776,-1.1487873924817888
1758972230539840800,2.2068408203125,2.1831774214111266,-9.491565228930115,-1.1464322076577693
1758972230549798700,2.216798583984375,2.1297480290405453,-9.504083934241534,-1.1432101768713443
1758972230559756800,2.2267568359375,2.083642549817264,-9.514918631988763,-1.1380432956274598
1758972230569714700,2.236714599609375,2.047336580074578,-9.523563126215338,-1.13160617525205
1758972230579672800,2.2466728515625,2.0119052012093364,-9.53168914952576,-1.1267308243006466
1758972230589630700,2.256630615234375,1.9531978684358298,-9.54366424947977,-1.1286498096644877
1758972230599590000,2.26658984375,1.8451690170019863,-9.56365898976028,-1.1411172231800855
1758972230609547500,2.276547607421875,1.6841764910131691,-9.590534137204289,-1.1643014071516693
1758972230619505700,2.286505615234375,1.4839892881028354,-9.6196082559973,-1.196364697823301
1758972230629463600,2.296463623046875,1.2593543110258876,-9.646605568516254,-1.2358804964579642
1758972230639421700,2.306421630859375,1.0205057343531398,-9.668810970583557,-1.281811934288591
1758972230649379800,2.3163798828125,0.7727756398275494,-9.684802904963492,-1.3333365159511565
1758972230659337700,2.326337646484375,0.5205202864298597,-9.69357073330879,-1.390719906644523
1758972230669295900,2.3362958984375,0.27046912854555993,-9.694484925544261,-1.4540186588615178
1758972230679253800,2.346253662109375,0.031396801003359724,-9.687741881024836,-1.5221866245500741
1758972230689211600,2.356211669921875,-0.1917660873771645,-9.674938513553142,-1.5903364700600504
1758972230699169500,2.36616943359375,-0.3998987146003172,-9.658707509720324,-1.6491928559154272
1758972230709128700,2.376128662109375,-0.5994747998749836,-9.64142670457363,-1.6893512633025645
1758972230719086600,2.386086669921875,-0.7968191440422088,-9.6240856936723,-1.7065797537401317
1758972230729044700,2.396044677734375,-0.9945631915841251,-9.605636429268122,-1.7067352365627884
1758972230739002600,2.406002685546875,-1.1960456950020044,-9.583779402247071,-1.7003068109504877
1758972230748960800,2.415960693359375,-1.4045987943932414,-9.556245498633384,-1.69577092108652
1758972230758918700,2.425918701171875,-1.6162256752066313,-9.521958029106258,-1.700159657564759
1758972230768876800,2.435876708984375,-1.817969313778728,-9.482337381857633,-1.717751866748184
1758972230778835000,2.4458349609375,-1.9962365074343977,-9.440371632787585,-1.7506582571804523
1758972230788792600,2.45579248046875,-2.145031230629235,-9.399055872058868,-1.7963839433059094
1758972230798751700,2.465751708984375,-2.2694281562790275,-9.359674878785013,-1.8483936781369148
1758972230808709600,2.475709716796875,-2.379888764904439,-9.322186567389965,-1.8982422894112765
1758972230818667800,2.485667724609375,-2.4844886648029085,-9.286597367614506,-1.9382506208032368
1758972230828625700,2.495625732421875,-2.587683374078572,-9.253793414643406,-1.9599999496661125
1758972230838583800,2.505583740234375,-2.692948752148449,-9.223132318919896,-1.962710669929534
1758972230848541700,2.515541748046875,-2.7995594073474406,-9.193664816895128,-1.9517554145425557
1758972230858499800,2.525499755859375,-2.905809412540495,-9.165198016345501,-1.9302284962587057
1758972230868457700,2.535457763671875,-3.00967223033607,-9.138247465577722,-1.8986124378979206
1758972230878416000,2.545415771484375,-3.108967009563744,-9.112964555761218,-1.8597268269255756
1758972230888373500,2.55537353515625,-3.2030630511045453,-9.088966425058246,-1.8169889244392514
1758972230898331600,2.56533154296875,-3.292294701479375,-9.065656861141324,-1.7734277228713033
1758972230908290600,2.57529052734375,-3.3760102187812326,-9.042653586694598,-1.733029807639867
1758972230918248700,2.585248779296875,-3.452942359553277,-9.020218467524646,-1.698016361925751
1758972230928206600,2.59520654296875,-3.522516538777947,-8.999168080711364,-1.6665084401145576
1758972230938164700,2.605164794921875,-3.5833942013278604,-8.980616524976492,-1.6365189600422978
1758972230948122600,2.61512255859375,-3.632748014822602,-8.966285801807045,-1.6060037025302647
1758972230958080800,2.625080810546875,-3.6696617412000894,-8.956904225477576,-1.5741132111422718
1758972230968039000,2.635038818359375,-3.6947660795792934,-8.952118744766711,-1.5422927162505686
1758972230977996800,2.644996826171875,-3.7073338847294446,-8.952031066483258,-1.5123456140153109
1758972230987954700,2.65495458984375,-3.7054941020816563,-8.957236233910917,-1.485803790178895
1758972230997912600,2.66491259765625,-3.6867818028271198,-8.968468991065025,-1.464442145459354
1758972231007871700,2.674871826171875,-3.64935925014466,-8.98625365408063,-1.4490633745416999
1758972231017829600,2.68482958984375,-3.591185878117382,-9.010949703919888,-1.4410204994700848
1758972231027787800,2.694787841796875,-3.5120980206161736,-9.042233899977802,-1.4399793198540807
1758972231037745700,2.70474560546875,-3.41290465593636,-9.079231797507404,-1.4456855686716734
1758972231047703800,2.714703857421875,-3.2976489219889045,-9.11997355774045,-1.4566988378562031
1758972231057661700,2.72466162109375,-3.1744255701631308,-9.161091165548562,-1.472346781104058
1758972231067619800,2.734619873046875,-3.054909256161749,-9.198151022398472,-1.4939688303254544
1758972231077577700,2.74457763671875,-2.9550708715766665,-9.226107535338402,-1.522138401494175
1758972231087535600,2.75453564453125,-2.897038369324803,-9.238937206295132,-1.5555134323514996
1758972231097493800,2.76449365234375,-2.9020825009718534,-9.230819950813055,-1.593826650263369
1758972231107451600,2.77445166015625,-2.9704046343088146,-9.201108118638397,-1.6391181827552617
1758972231117410600,2.78441064453125,-3.070255293853581,-9.159238815680146,-1.6888542735658585
1758972231127368700,2.79436865234375,-3.158395641860366,-9.1212004691869,-1.7316535508506
1758972231137326600,2.80432666015625,-3.21359204390347,-9.09921543187201,-1.745707795166224
1758972231147284700,2.81428466796875,-3.2324703473746776,-9.096226186928153,-1.7263224189557134
1758972231157243000,2.824242919921875,-3.219416804534197,-9.108369629186392,-1.6862177875824271
1758972231167200800,2.83420068359375,-3.181535986690223,-9.131059015378355,-1.6346121035076677
1758972231177159000,2.844158935546875,-3.1276714177727696,-9.160463973560928,-1.572880600607395
1758972231187116500,2.854116455078125,-3.065204440204799,-9.193874660253524,-1.499188756930828
1758972231197074700,2.86407470703125,-2.9984900343254206,-9.228238117626308,-1.4209298975996671
1758972231207032600,2.874032470703125,-2.927061167144775,-9.26193463552296,-1.348808664240688
1758972231216991700,2.88399169921875,-2.8450410555839536,-9.296241978794336,-1.2868567965880036
1758972231226949600,2.89394970703125,-2.7450582940921184,-9.333023603224754,-1.2368094478711484
1758972231236907800,2.90390771484375,-2.62976076682955,-9.371070133024453,-1.1990688422154634
1758972231246865700,2.91386572265625,-2.5140847616434097,-9.406470532229543,-1.1696531434431672
1758972231256823800,2.92382373046875,-2.406653291580826,-9.437401677066088,-1.1462417996522039
1758972231266781700,2.93378173828125,-2.3062575653739272,-9.463913836416602,-1.133973927296698
1758972231276739600,2.943739501953125,-2.218584542617947,-9.484024896553159,-1.140848489241302
1758972231286697700,2.95369775390625,-2.1682564772635695,-9.492812014120817,-1.1642854789301753
1758972231296655600,2.963655517578125,-2.138598421102762,-9.494976498678326,-1.200916223647818
1758972231306613800,2.97361376953125,-2.0776414097063243,-9.501786763215064,-1.2529384526342153
1758972231316571600,2.983571533203125,-1.9663123476833104,-9.517780451160668,-1.3099142854399979
1758972231326530800,2.99353076171875,-1.816451310431212,-9.540769112560152,-1.358168467129767
1758972231336488700,3.00348876953125,-1.6415514012515544,-9.567242108944058,-1.39411524817124
1758972231346446800,3.01344677734375,-1.4546582719393073,-9.59445043386519,-1.4145273370809852
1758972231356404700,3.02340478515625,-1.2694466659732162,-9.620521863710879,-1.4157934114940465
1758972231366362600,3.033362548828125,-1.0945987061765043,-9.644206106159091,-1.4005483499586582
1758972231376320300,3.0433203125,-0.9422127535566687,-9.664302553248405,-1.3725523817911742
1758972231386278400,3.0532783203125,-0.8414833384159952,-9.679054132178425,-1.3334915603823958
1758972231396236500,3.063236572265625,-0.8197266299642622,-9.686649994134902,-1.2912309200190006
1758972231406194400,3.0731943359375,-0.8715842429734766,-9.685988315355777,-1.2618842678949236
1758972231416152600,3.083152587890625,-0.9693459674149751,-9.67675111593306,-1.2614430999986828
1758972231426110500,3.0931103515625,-1.0794712796714157,-9.661639471518992,-1.287576781425625
1758972231436069400,3.1030693359375,-1.1631984143458307,-9.647259063988923,-1.322013157904148
1758972231446027500,3.113027587890625,-1.1823108188338578,-9.640919339573383,-1.3509966758042573
1758972231455985700,3.122985595703125,-1.1181562535051255,-9.646341364622115,-1.3668176375314594
1758972231465943600,3.132943603515625,-0.9926649567473679,-9.66048971696198,-1.3637949287094175
1758972231475901400,3.1429013671875,-0.84170056136325,-9.67744143628478,-1.3450007963903248
1758972231485859300,3.152859375,-0.6929530383110046,-9.692536714085936,-1.3209554655447602
1758972231495817500,3.1628173828125,-0.561210974062793,-9.703498253083229,-1.3029030915036797
1758972231505775400,3.172775390625,-0.45196598830483853,-9.710007488846779,-1.296863519078493
1758972231515733500,3.1827333984375,-0.3642923079617321,-9.712850603318214,-1.3031535591334105
1758972231525691400,3.19269140625,-0.2925625581383705,-9.713354461187123,-1.3173929507575928
1758972231535649500,3.2026494140625,-0.2289220067463815,-9.712843589055538,-1.3336585875123739
1758972231545608400,3.2126083984375,-0.1667482399713248,-9.71209247842729,-1.3482802564524112
1758972231555566600,3.222566650390625,-0.1033694539212156,-9.711226216986775,-1.3608157667681573
1758972231565524500,3.2325244140625,-0.03865363798053004,-9.710158880016207,-1.3717508561499416
1758972231575482400,3.242482421875,0.02898937453544931,-9.708695821726321,-1.382307613738626
1758972231585440500,3.2524404296875,0.10172607062836177,-9.70657108465731,-1.3937396928571164
1758972231595398400,3.2623984375,0.1796822846179828,-9.703686469131707,-1.4059046162948012
1758972231605356500,3.2723564453125,0.2609352659975178,-9.700068863156437,-1.418080353387445
1758972231615314400,3.282314453125,0.34246954853646455,-9.695690209680794,-1.4306326687075197
1758972231625272600,3.2922724609375,0.42099586316477505,-9.69062708107233,-1.4439130060411989
1758972231635230500,3.30223046875,0.49480263845790173,-9.685020347106455,-1.4580623812943696
1758972231645188600,3.312188720703125,0.5640862007055432,-9.679031920346617,-1.4726048475183546
1758972231655147500,3.3221474609375,0.6304730551309883,-9.672750063598155,-1.4868696658447385
1758972231665105700,3.332105712890625,0.6959439637552947,-9.666390465438365,-1.4989816900514066
1758972231675063300,3.342063232421875,0.7635370521653443,-9.660094580164552,-1.5066457949385046
1758972231685021400,3.352021484375,0.8366640285007655,-9.653734982004762,-1.5085690180860458
1758972231694979300,3.361979248046875,0.9188111274421215,-9.646747022813559,-1.505469298505038
1758972231704937500,3.3719375,1.0129058538086713,-9.638411156144738,-1.4984816315747798
1758972231714895400,3.381895263671875,1.1187204632591456,-9.628079147222637,-1.48961297320351
1758972231724853500,3.391853515625,1.2308914559990167,-9.615794835188984,-1.4804758731544017
1758972231734811600,3.401811767578125,1.3404483937829732,-9.602536125165223,-1.4713602542847395
1758972231744769500,3.41176953125,1.439037801220268,-9.58950830128789,-1.463177240090072
1758972231754727400,3.4217275390625,1.5211013135313987,-9.577771686264873,-1.4570263162449002
1758972231764686600,3.4316865234375,1.5843940743990241,-9.568397708719969,-1.4511485102526842
1758972231774644500,3.44164453125,1.6308615188024937,-9.56192588235736,-1.4423063014969228
1758972231784602400,3.451602294921875,1.6653537171214818,-9.558221182620525,-1.4273789276085793
1758972231794560500,3.461560546875,1.69312727470994,-9.556704932838677,-1.4046747822389005
1758972231804518400,3.471518310546875,1.7179767615452408,-9.55657166184783,-1.3750973900988697
1758972231814476500,3.4814765625,1.7393150253891945,-9.557691605788468,-1.3400371826335786
1758972231824434400,3.491434326171875,1.7484481799155474,-9.561381107956171,-1.3012750519104301
1758972231834392600,3.501392578125,1.727726878926158,-9.570620060944556,-1.2603875995963811
1758972231844350500,3.5113505859375,1.6589087787657975,-9.588266776794194,-1.2180042096361516
1758972231854308400,3.521308349609375,1.5378659858494996,-9.61395651384592,-1.1735361954215913
1758972231864266500,3.5312666015625,1.3780159078940748,-9.64375836239159,-1.1266596587605773
1758972231874224400,3.541224365234375,1.1920408432748169,-9.673756025770306,-1.0806683074362575
1758972231884183300,3.551183349609375,0.9798262987665831,-9.701719552972913,-1.0425760387986898
1758972231894141400,3.561141357421875,0.7309826169759035,-9.726015789839625,-1.0201334669746458
1758972231904099600,3.571099609375,0.438858486787416,-9.744034846132994,-1.0156643587365746
1758972231914057500,3.581057373046875,0.11469954310311004,-9.752122290998697,-1.0263258188087492
1758972231924015600,3.591015625,-0.21541995295342056,-9.748264446526765,-1.0465781871121376
1758972231933973500,3.600973388671875,-0.5267969555465504,-9.734085114526748,-1.0679328906342387
1758972231943931600,3.610931640625,-0.8070900704268366,-9.71291314716041,-1.0854985771369188
1758972231953889300,3.62088916015625,-1.0526293769098818,-9.68775474050641,-1.0998946936927736
1758972231963847400,3.630847412109375,-1.2652598818078635,-9.661194650360942,-1.1094245193865149
1758972231973805300,3.640805419921875,-1.4509255151517688,-9.634985857871174,-1.1100744346626101
1758972231983763500,3.650763427734375,-1.6205873775474726,-9.60961000907421,-1.0951927265468984
1758972231993721600,3.6607216796875,-1.7893328557506203,-9.583357961964607,-1.062049312488362
1758972232003680500,3.670680419921875,-1.9685019666820764,-9.552772854086756,-1.0197748627953231
1758972232013638400,3.680638427734375,-2.16377480180487,-9.51330301348567,-0.9927230436101555
1758972232023596500,3.690596435546875,-2.3679845382295546,-9.46302068696916,-1.0071115613814443
1758972232033554400,3.700554443359375,-2.556709266883135,-9.4063425219357,-1.0744123157814145
1758972232043512600,3.7105126953125,-2.710767317433655,-9.349884721654654,-1.1839531792134046
1758972232053470500,3.720470458984375,-2.831811571654677,-9.296669848817587,-1.3126957328520714
1758972232063428400,3.730428466796875,-2.933855357329547,-9.246438960227369,-1.4374487784631549
1758972232073386500,3.740386474609375,-3.027980917225778,-9.199656750786303,-1.5388377534911035
1758972232083344400,3.750344482421875,-3.1206106856063007,-9.157980340051651,-1.6011159304887055
1758972232093302500,3.760302490234375,-3.2081419618040323,-9.124127754810452,-1.6212714142888784
1758972232103260400,3.770260498046875,-3.287436447793245,-9.098630909982322,-1.6056445138290523
1758972232113218600,3.780218505859375,-3.355287456487119,-9.081938133856653,-1.5591089726254344
1758972232123177500,3.790177490234375,-3.4089217237800358,-9.073018329820036,-1.4933227875068782
1758972232133135600,3.800135498046875,-3.4485324341565367,-9.06930193964541,-1.423285813076049
1758972232143093200,3.81009326171875,-3.476550321894884,-9.067852909880877,-1.363100955095887
1758972232153051400,3.820051513671875,-3.4971357215449212,-9.066411478900909,-1.3193198271669446
1758972232163009300,3.83000927734375,-3.513539159335196,-9.064465605530142,-1.288742610334605
1758972232172967400,3.839967529296875,-3.5277722673490644,-9.062468878754974,-1.263683426271379
1758972232182925600,3.849925537109375,-3.542397881811857,-9.060192165994644,-1.238837738828361
1758972232192883500,3.859883544921875,-3.5587399448037145,-9.057087185716629,-1.2144531660910696
1758972232202841600,3.869841552734375,-3.576346913164854,-9.053536799758673,-1.1889295063212513
1758972232212799500,3.879799560546875,-3.593133797314763,-9.050489102625846,-1.1612074597243218
1758972232222757600,3.889757568359375,-3.605979250362515,-9.04872852269411,-1.1348284252341836
1758972232232715300,3.89971533203125,-3.61126741989851,-9.04936331346631,-1.112738100913912
1758972232242674400,3.90967431640625,-3.604686872464418,-9.05372676937282,-1.0984963712021707
1758972232252632300,3.91963232421875,-3.581020457933843,-9.063378979337214,-1.0962842481106518
1758972232262590500,3.929590576171875,-3.532039861665666,-9.080711222410201,-1.111657173809409
1758972232272548400,3.93954833984375,-3.447668803064525,-9.108618050989508,-1.147623609399423
1758972232282506500,3.949506591796875,-3.31975670890063,-9.149162242823838,-1.2009968876685946
1758972232292464400,3.95946435546875,-3.14711349260658,-9.201497410216927,-1.2643160250864922
1758972232302422500,3.969422607421875,-2.9415184393033385,-9.259961874145269,-1.3307739719867706
1758972232312380700,3.979380615234375,-2.730085473626852,-9.31423005542755,-1.4007552707076072
1758972232322338600,3.989338623046875,-2.5731448533773422,-9.347549556705355,-1.4739904566578566
1758972232332296400,3.99929638671875,-2.5752906332343817,-9.337705039039253,-1.5315119406476616
1758972232342254300,4.00925439453125,-2.753015975098312,-9.281181187784671,-1.565564432375133
1758972232352212500,4.01921240234375,-2.953670064868033,-9.210953220826386,-1.6138637683808803
1758972232362172000,4.029171875,-3.0771397926703092,-9.160326610916853,-1.670334428143501
1758972232372129800,4.0391298828125,-3.1463454308435317,-9.134735073542595,-1.6815109250657259
1758972232382088000,4.049087890625,-3.195631732060015,-9.12506182079017,-1.6405948311790823
1758972232392045800,4.0590458984375,-3.215492032305896,-9.129423523131013,-1.5762690740019083
1758972232402003700,4.069003662109375,-3.1847616707384585,-9.153463154888152,-1.4972627573043107
1758972232411961900,4.0789619140625,-3.103987759846449,-9.195665635323524,-1.4054774769239127
1758972232421919700,4.088919677734375,-2.990560118108988,-9.246800779277086,-1.3128626138515769
1758972232431878000,4.0988779296875,-2.8674793896242976,-9.297040435695648,-1.2300377617791294
1758972232441835800,4.108835693359375,-2.740671165049076,-9.34476138729155,-1.155222540095821
1758972232451794000,4.1187939453125,-2.6151065107941625,-9.388473103246092,-1.0900426503073424
1758972232461752000,4.128751953125,-2.499426706215739,-9.425980119341611,-1.036409186732024
1758972232471709700,4.138709716796875,-2.394412088036537,-9.457281851056218,-0.9984889136604964
1758972232481667800,4.148667724609375,-2.297139170025289,-9.48316564937532,-0.9813781313184649
1758972232491626800,4.158626708984375,-2.209354795849323,-9.503132332605123,-0.9897655089788139
1758972232501585000,4.1685849609375,-2.1317558617316186,-9.517261395722628,-1.0236105685006827
1758972232511542800,4.178542724609375,-2.0563048994280395,-9.528019521102308,-1.0765035889722405
1758972232521501000,4.1885009765625,-1.9769914164774118,-9.537469486492872,-1.139531196097657
1758972232531458800,4.198458740234375,-1.8930292309381067,-9.54659387319088,-1.2039115330062806
1758972232541417000,4.2084169921875,-1.804031535449624,-9.556170679831505,-1.2631230159096418
1758972232551374800,4.218374755859375,-1.7117033803641795,-9.566707271414995,-1.310934276137501
1758972232561333000,4.2283330078125,-1.6199224838979542,-9.577695113897324,-1.3468359028629957
1758972232571290600,4.23829052734375,-1.5327712930589914,-9.587681085860728,-1.3774613427512348
1758972232581248800,4.248248779296875,-1.4601732359685002,-9.594794132736325,-1.406475694181025
1758972232591207000,4.25820703125,-1.4217984971277415,-9.597968086597323,-1.4240397001832723
1758972232601164800,4.268164794921875,-1.4698442967638372,-9.59635246809423,-1.385626967419684
1758972232611123000,4.278123046875,-1.5610345338605343,-9.595446459165215,-1.2887911256514488
1758972232621081900,4.288081787109375,-1.598718806219101,-9.602382395908236,-1.1868912784919141
1758972232631039700,4.298039794921875,-1.5402771386444567,-9.620505497097968,-1.115263893064484
1758972232640998000,4.307997802734375,-1.407664465574175,-9.645349430975317,-1.0752382452115417
1758972232650956000,4.3179560546875,-1.242439708843082,-9.671167178320884,-1.0465353708837182
1758972232660914000,4.327913818359375,-1.0732527704827486,-9.69452291946709,-1.0172177256584167
1758972232670871800,4.337871826171875,-0.9118339819058775,-9.71334277074933,-0.9949427654862403
1758972232680829700,4.34782958984375,-0.7596976931981742,-9.726893741717934,-0.9903444779105484
1758972232690787800,4.357787841796875,-0.6168268801596015,-9.73535118893981,-1.0064175147026777
1758972232700745700,4.367745849609375,-0.4863784359185025,-9.739275084385275,-1.0393944130878896
1758972232710703900,4.377703857421875,-0.374340750702098,-9.73975030068159,-1.0805200580719858
1758972232720661800,4.387661865234375,-0.28513377811079843,-9.737873985415696,-1.1237865875422954
1758972232730620000,4.397619873046875,-0.21671912591848522,-9.734483173933624,-1.1675978183485567
1758972232740578000,4.407578125,-0.1617561673050746,-9.730151866731047,-1.211763196354732
1758972232750535700,4.41753564453125,-0.11161748704295604,-9.725270524430274,-1.2558033405460416
1758972232760494800,4.427494873046875,-0.05688681651519145,-9.720091075965762,-1.2988346730209885
1758972232770452700,4.43745263671875,0.009596823090413818,-9.714618782034515,-1.34033295070976
1758972232780411000,4.447410888671875,0.08882337096803822,-9.70871627999246,-1.379604638390243
1758972232790368800,4.45736865234375,0.1752505675145425,-9.702260235720873,-1.4162768110968171
1758972232800327000,4.467326904296875,0.2614112677451223,-9.695302087146043,-1.4502226275794208
1758972232810284800,4.477284912109375,0.3410859121583402,-9.68803355744779,-1.4819151121772824
1758972232820243000,4.487242919921875,0.4118400949478149,-9.68068611729443,-1.511654270750284
1758972232830200800,4.497200927734375,0.4746241391083225,-9.673342184272409,-1.5399967142678797
1758972232840159000,4.507158935546875,0.5322383794154971,-9.666221538612247,-1.565654887137562
1758972232850116600,4.51711669921875,0.5889256776034831,-9.659600074645876,-1.5860916720971465
1758972232860074800,4.52707470703125,0.6531162640936672,-9.65354910404384,-1.5977541989706456
1758972232870033000,4.537032958984375,0.7376221280556172,-9.64735960175395,-1.5983691159985958
1758972232879990800,4.54699072265625,0.8531194887392223,-9.63935749708414,-1.5891446299269794
1758972232889949700,4.55694970703125,0.9954328870907425,-9.628164487418532,-1.5741557351097464
1758972232899907800,4.566907958984375,1.148491843601316,-9.613684711167215,-1.5583464638203381
1758972232909866000,4.576865966796875,1.2954992449879645,-9.597086627587675,-1.5453104566365479
1758972232919824000,4.586823974609375,1.4249186749748886,-9.580102175039052,-1.5367590475209056
1758972232929782000,4.596781982421875,1.5315676163576541,-9.564313069754839,-1.5325085504695772
1758972232939740000,4.606739990234375,1.6147943272292613,-9.550861467507481,-1.5309680430293082
1758972232949697800,4.61669775390625,1.676983364638686,-9.540396187594533,-1.5293721521399914
1758972232959655700,4.62665576171875,1.7213123357087372,-9.533402967706323,-1.5237043356366455
1758972232969613800,4.63661376953125,1.7500841105543077,-9.530148349824547,-1.511250512254983
1758972232979571700,4.64657177734375,1.7641786868803202,-9.530689032572507,-1.491324014905095
1758972232989529900,4.65652978515625,1.7550316499590872,-9.536154896762966,-1.4669647958047687
1758972232999488000,4.666488037109375,1.7016940275251864,-9.549385549736023,-1.4435618545159696
1758972233009446000,4.67644580078125,1.5944856986939906,-9.571376432269812,-1.4201343633078038
1758972233019404800,4.68640478515625,1.449654033911228,-9.598656068861484,-1.3909282886981964
1758972233029363000,4.696363037109375,1.294363372825831,-9.626307461374997,-1.3524853069268166
1758972233039320800,4.70632080078125,1.150019783820957,-9.651134444117545,-1.3051662141300737
1758972233049278700,4.71627880859375,1.0163194616444409,-9.672893855983018,-1.2540329698726533
1758972233059236900,4.72623681640625,0.861616975710541,-9.693885790607332,-1.2068813425973057
1758972233069194800,4.73619482421875,0.6381904976405203,-9.715512516003846,-1.1712865898638962
1758972233079153000,4.74615283203125,0.3385280443690717,-9.732986797896027,-1.1509760616324842
1758972233089110800,4.75611083984375,0.002046126152830402,-9.739822196874021,-1.1429176236655563
1758972233099069000,4.76606884765625,-0.3237331742865965,-9.734627550840377,-1.141329477691278
1758972233109026800,4.77602685546875,-0.6151842275191098,-9.720389182129502,-1.142791732263565
1758972233118985000,4.78598486328125,-0.871372280723229,-9.700637018433213,-1.144015794165805
1758972233128942800,4.79594287109375,-1.0978271667037158,-9.677634913030266,-1.1439072922900317
1758972233138900700,4.805900634765625,-1.2983539037667213,-9.653218264654278,-1.14018308413513
1758972233148859000,4.81585888671875,-1.4765702440179884,-9.62887643508017,-1.1291022296071052
1758972233158817800,4.82581787109375,-1.6367469235792755,-9.605849779757857,-1.1041224674556405
1758972233168775700,4.835775634765625,-1.7912902734287082,-9.58331529186666,-1.0591163277763873
1758972233178733800,4.84573388671875,-1.9522918595068155,-9.558616903939843,-0.9958800463363527
1758972233188692000,4.85569189453125,-2.1234007058404383,-9.52902197614312,-0.9269741948273033
1758972233198649900,4.86564990234375,-2.304096295686811,-9.490742222109436,-0.8873129233073442
1758972233208608000,4.87560791015625,-2.484566990736127,-9.442438502189516,-0.9152323191072791
1758972233218566000,4.88556591796875,-2.6350696868926287,-9.391206912124156,-1.0159086158212274
1758972233228523800,4.895523681640625,-2.7444226265370846,-9.342593395602703,-1.1638275060296057
1758972233238481700,4.905481689453125,-2.8296064628258346,-9.296219182440637,-1.3206162967182695
1758972233248439800,4.915439697265625,-2.9123610261410473,-9.25106603550613,-1.4513247436024248
1758972233258397700,4.925397705078125,-2.999635112707317,-9.209644476315379,-1.534611806359142
1758972233268355800,4.93535595703125,-3.0866864964336154,-9.175682585480809,-1.5651155195638538
1758972233278314000,4.94531396484375,-3.1682270077839494,-9.150615364241599,-1.5488589428983628
1758972233288272000,4.95527197265625,-3.2412326227620243,-9.132797383478284,-1.5022715253770351
1758972233298230800,4.965230712890625,-3.3040365771993994,-9.119615830343962,-1.4444159871272741
1758972233308189000,4.97518896484375,-3.35482831454277,-9.1095649764508,-1.3897218355178833
1758972233318147000,4.98514697265625,-3.3913685314327475,-9.102929483959079,-1.343751088590175
1758972233328104700,4.995104736328125,-3.415247127409279,-9.09919614264965,-1.3080913077965377
1758972233338062800,5.005062744140625,-3.4305621854409574,-9.097004770085215,-1.2830099119015037
1758972233348020700,5.015020751953125,-3.4382544935092327,-9.096364134094118,-1.2668547497838736
1758972233357979000,5.024978759765625,-3.4405864435881375,-9.096934042936564,-1.256407590049505
1758972233367936500,5.0349365234375,-3.4407200068399306,-9.098018331041931,-1.2481468344435096
1758972233377894700,5.044894775390625,-3.4396129223808645,-9.099845546469092,-1.2378284156553447
1758972233387852500,5.0548525390625,-3.4376284705653783,-9.102495768716931,-1.223777167014405
1758972233397810700,5.064810791015625,-3.4352357302099463,-9.10565101787746,-1.2069329266540705
1758972233407768800,5.074768798828125,-3.4320483323454853,-9.109011434221268,-1.190528758211434
1758972233417726700,5.084726806640625,-3.4264532888174055,-9.11223331887722,-1.1819538220897317
1758972233427684900,5.094684814453125,-3.4125630028918383,-9.1166891292423,-1.1877568823453037
1758972233437643800,5.104643798828125,-3.379407752265036,-9.125603088060021,-1.2138117263823747
1758972233447602000,5.114601806640625,-3.3140976602256296,-9.143182583892346,-1.260699442024529
1758972233457559800,5.124559814453125,-3.2127041551530358,-9.170595491474867,-1.3225332362554967
1758972233467517700,5.134517578125,-3.081955376258492,-9.205449362713098,-1.3898299720674752
1758972233477475600,5.1444755859375,-2.937117281734943,-9.243207723221182,-1.4514965930379926
1758972233487433700,5.154433837890625,-2.8013430758938194,-9.277076675075293,-1.5029071929320692
1758972233497391600,5.1643916015625,-2.7181363848969338,-9.295987127250433,-1.5384202587313949
1758972233507349800,5.174349853515625,-2.742646556775272,-9.288079715126752,-1.5426766010016202
1758972233517307600,5.1843076171875,-2.8632705397576093,-9.255361102351547,-1.519986191896349
1758972233527265800,5.194265869140625,-2.9946403731599447,-9.216545926266908,-1.5025982731133698
1758972233537224000,5.204223876953125,-3.0883032839804887,-9.186794346603751,-1.4951863894216715
1758972233547181600,5.214181640625,-3.13974676323086,-9.173041715583205,-1.4723160937048494
1758972233557139700,5.2241396484375,-3.147296447958052,-9.178242791357636,-1.4229564349912107
1758972233567097600,5.23409765625,-3.1075799391195176,-9.201607300332189,-1.3578595473110675
1758972233577055700,5.2440556640625,-3.0255718102574347,-9.239475550955534,-1.2838957548253238
1758972233587014700,5.2540146484375,-2.9307193973913788,-9.28034298339486,-1.206849193893373
1758972233596972800,5.263972900390625,-2.86010856859535,-9.310967254239321,-1.1384459581442177
1758972233606930700,5.2739306640625,-2.810235115140676,-9.333237538236379,-1.0787285715453325
1758972233616888800,5.283888916015625,-2.748936596830189,-9.357215795195103,-1.027741823086515
1758972233626846700,5.2938466796875,-2.6710470092028378,-9.3848794626683,-0.9797643394462764
1758972233636804900,5.303804931640625,-2.5861352678537366,-9.414335274255276,-0.9233692291378974
1758972233646762500,5.313762451171875,-2.500181616236269,-9.44308322983384,-0.864662992342934
1758972233656720600,5.323720703125,-2.4161611246384678,-9.468831419074535,-0.8208361986413597
1758972233666678800,5.3336787109375,-2.3380260378174484,-9.489366842103005,-0.8098931451488286
1758972233676636700,5.34363671875,-2.278221557457,-9.50138695024252,-0.8388893033348024
1758972233686594800,5.3535947265625,-2.2297513949289915,-9.506391626662015,-0.909452858923003
1758972233696552700,5.363552734375,-2.1521603518567978,-9.514165183272958,-1.0095712294932455
1758972233706510800,5.3735107421875,-2.044839356431365,-9.52637701459229,-1.1122804933395236
1758972233716468700,5.38346875,-1.9182031274221836,-9.54293593520522,-1.1930111496116966
1758972233726426600,5.393426513671875,-1.7784814991295337,-9.563882861644029,-1.2407818586334585
1758972233736385800,5.4033857421875,-1.6336870976172386,-9.58661608697772,-1.2642197251051663
1758972233746343700,5.41334375,-1.4911908900447188,-9.608384851193428,-1.2750143831029535
1758972233756301600,5.423301513671875,-1.359447401024401,-9.627446110016107,-1.2785016406968235
1758972233766259700,5.433259765625,-1.249842094054073,-9.642280106532573,-1.2785583393201232
1758972233776217600,5.443217529296875,-1.1788663044031709,-9.651809566900134,-1.2740557672038673
1758972233786175700,5.45317578125,-1.1678600494813174,-9.654228318479657,-1.2658445498280226
1758972233796133600,5.463133544921875,-1.2262214183613658,-9.649059391409159,-1.2499777031324804
1758972233806091800,5.473091796875,-1.3007616955608128,-9.64174760709107,-1.230897447348386
1758972233816050000,5.4830498046875,-1.3147085339792073,-9.641236734959483,-1.220033815767616
1758972233826007600,5.493007568359375,-1.2360137674488128,-9.651994275817275,-1.2172278184361756
1758972233835965700,5.502965576171875,-1.09389844895266,-9.670219668337703,-1.208567103727162
1758972233845923600,5.512923583984375,-0.9321847690824419,-9.689960141596197,-1.1857843401633201
1758972233855881700,5.5228818359375,-0.7826140200138092,-9.706788526800274,-1.1559370450407267
1758972233865839600,5.532839599609375,-0.6556500934202224,-9.719213124087453,-1.130220200786367
1758972233875797800,5.5427978515625,-0.5505457876635715,-9.72707085185051,-1.1186424295868724
1758972233885756000,5.552755859375,-0.46229975079260766,-9.73079717889726,-1.126156677674502
1758972233895714800,5.56271484375,-0.3846877379976213,-9.731053784006834,-1.1528116064965723
1758972233905672700,5.572672607421875,-0.3085309655122459,-9.72908452976048,-1.191667699113488
1758972233915630800,5.582630859375,-0.2259449271643534,-9.72651087988019,-1.2305777138747274
1758972233925588500,5.59258837890625,-0.13332568931099958,-9.724247026601434,-1.2616013593003153
1758972233935546600,5.602546630859375,-0.028723640837927812,-9.722253806957601,-1.2834930192433296
1758972233945504800,5.6125048828125,0.08740801514424383,-9.719787124583124,-1.2994251862600446
1758972233955462700,5.622462646484375,0.21068603803301228,-9.716142046079039,-1.312482090101391
1758972233965420800,5.6324208984375,0.33274708634745326,-9.71110463643372,-1.3244196345239876
1758972233975378700,5.642378662109375,0.44380653764884914,-9.705161802381276,-1.3353935946114361
1758972233985336800,5.6523369140625,0.5361065626183524,-9.698784084042906,-1.347792180674523
1758972233995294700,5.662294677734375,0.607183693751879,-9.69247241667807,-1.3629773287162184
1758972234005252600,5.672252685546875,0.6603219576887785,-9.68656056228578,-1.3801871144533155
1758972234015210800,5.682210693359375,0.7021671491190791,-9.681112233752012,-1.3976529207780957
1758972234025168600,5.692168701171875,0.7418949100039899,-9.67580009881854,-1.4138118822880088
1758972234035126800,5.702126708984375,0.7887974578890949,-9.670077044996619,-1.4275070840328932
1758972234045084700,5.712084716796875,0.8513712568324059,-9.663438045373558,-1.4364879706069826
1758972234055043600,5.722043701171875,0.9350639047153294,-9.655418989568949,-1.438372761440277
1758972234065001700,5.732001708984375,1.0407454623706638,-9.64543886282444,-1.4327416236855088
1758972234074960000,5.7419599609375,1.1626532015532254,-9.63320540419519,-1.4212564992055297
1758972234084917800,5.751917724609375,1.2913089536912739,-9.618781157523394,-1.40781381091699
1758972234094876000,5.7618759765625,1.416619194793701,-9.60248760984838,-1.3985010620400309
1758972234104833500,5.77183349609375,1.5308533306084573,-9.58497416498959,-1.3982611158043146
1758972234114791700,5.781791748046875,1.628769368828833,-9.567477086743711,-1.4074375249505042
1758972234124749600,5.79174951171875,1.7075015447601676,-9.551344282588362,-1.4236033545926212
1758972234134707700,5.801707763671875,1.765867809011042,-9.537721999949216,-1.4435944416113198
1758972234144665600,5.81166552734375,1.8052458796754478,-9.527578791597485,-1.4617483763307333
1758972234154623700,5.821623779296875,1.828259967777133,-9.521613745713234,-1.471978093922138
1758972234164582000,5.831581787109375,1.834971009723097,-9.520359361737967,-1.4717472077757119
1758972234174539800,5.841539794921875,1.8196198574647307,-9.524907526561618,-1.4613390648774802
1758972234184498000,5.851497802734375,1.7721194167517125,-9.536911268088222,-1.4412931789316237
1758972234194455600,5.86145556640625,1.6897658354528247,-9.55649450495839,-1.4101334860362111
1758972234204413700,5.87141357421875,1.5850053381651639,-9.58088952602446,-1.3655332968093454
1758972234214372600,5.88137255859375,1.476197172921896,-9.606540684631467,-1.3059898054726422
1758972234224330800,5.891330810546875,1.3640787140868604,-9.631904842990636,-1.2393937652759253
1758972234234288600,5.90128857421875,1.222992154116556,-9.658152798447013,-1.1810044124104082
1758972234244246800,5.911246826171875,1.0154494738768785,-9.687247960028051,-1.1386379005197436
1758972234254204700,5.92120458984375,0.7335757022090256,-9.71601111317575,-1.1096809053003787
1758972234264162800,5.931162841796875,0.4097773537317291,-9.736989603796602,-1.092490335720405
1758972234274120700,5.94112060546875,0.08536786935245617,-9.74584978660047,-1.0869834088671952
1758972234284078600,5.95107861328125,-0.2138800117687322,-9.74355378461778,-1.0898592565644531
1758972234294036700,5.96103662109375,-0.48490273734275247,-9.733094934445619,-1.0964033444456756
1758972234303994600,5.97099462890625,-0.7345229199312627,-9.716631290900708,-1.1036105724107474
1758972234313952800,5.980952880859375,-0.9679947720017283,-9.695312608540057,-1.111004555119574
1758972234323910700,5.99091064453125,-1.1837410708326845,-9.670849782934784,-1.1152507413219659
1758972234333868800,6.000868896484375,-1.3801912061065436,-9.645518942323326,-1.1087900208752601
1758972234343826700,6.01082666015625,-1.5639285017363727,-9.620646366873382,-1.080588447133079
1758972234353784800,6.020784912109375,-1.747490148538351,-9.595319033393263,-1.0229941901680082
1758972234363742700,6.03074267578125,-1.931141811711341,-9.568089665684104,-0.9448338958404958
1758972234373702000,6.040701904296875,-2.11271579182744,-9.535814705023169,-0.880358866385743
1758972234383659500,6.050659423828125,-2.290258616731316,-9.49610813305676,-0.8654604263309389
1758972234393617700,6.06061767578125,-2.4528227759510277,-9.451248416110873,-0.9099282944150269
1758972234403575600,6.070575439453125,-2.5909680948376654,-9.405111518836021,-1.0005806252427398
1758972234413533700,6.08053369140625,-2.708097221441567,-9.359708781054616,-1.110148815073073
1758972234423491800,6.090491943359375,-2.815480030056834,-9.31562823178768,-1.2093567197348922
1758972234433449700,6.10044970703125,-2.918064498479664,-9.274716375684738,-1.2786540547795593
1758972234443408000,6.110407958984375,-3.0129066822126505,-9.23918212096691,-1.315409229594469
1758972234453365800,6.12036572265625,-3.0969968780457973,-9.210512491321563,-1.321163701467961
1758972234463324000,6.130323974609375,-3.1704291940033436,-9.188124133902788,-1.3027356259822844
1758972234473281500,6.140281494140625,-3.2365842124342916,-9.16997414470613,-1.2674753659002482
1758972234483239700,6.15023974609375,-3.296685629914701,-9.154861331248282,-1.2209830062512308
1758972234493197600,6.160197509765625,-3.348114788378775,-9.142811997014283,-1.1702544703371822
1758972234503155700,6.17015576171875,-3.388640860034525,-9.13373671015501,-1.1235353892602027
1758972234513113900,6.18011376953125,-3.4158643825247883,-9.127931823268533,-1.0877334235168994
1758972234523072800,6.19007275390625,-3.430823466725647,-9.125015059038995,-1.0648841705881058
1758972234533030700,6.20003076171875,-3.43816623070389,-9.12358824110627,-1.0533516267698257
1758972234542988800,6.20998876953125,-3.4422339185342192,-9.122755881935358,-1.0472417655874042
1758972234552946700,6.21994677734375,-3.446113974837959,-9.122047441405057,-1.040638787125796
1758972234562904600,6.229904541015625,-3.45110023881793,-9.121360628184675,-1.0300850982770322
1758972234572862700,6.23986279296875,-3.458254494486749,-9.120485598915815,-1.0137211157143116
1758972234582820600,6.249820556640625,-3.4677272562310097,-9.119248750597238,-0.9922559375550597
1758972234592778800,6.25977880859375,-3.4782965810403224,-9.117674633148312,-0.9694387602649629
1758972234602736600,6.269736572265625,-3.488021563979983,-9.115675568285583,-0.9531892709273845
1758972234612694800,6.27969482421875,-3.491564643414318,-9.114242320612073,-0.9539327827710657
1758972234622652700,6.289652587890625,-3.472614736011624,-9.118308254876732,-0.9837585236489772
1758972234632610800,6.29961083984375,-3.4079686608389017,-9.135211458882688,-1.0507438554242252
1758972234642568700,6.309568603515625,-3.286522840079665,-9.16796046679616,-1.1478843792274593
1758972234652526600,6.319526611328125,-3.115472153674066,-9.212786281472445,-1.2604647564858198
1758972234662484700,6.329484619140625,-2.922193853369355,-9.259681303638219,-1.374583156966418
1758972234672442600,6.339442626953125,-2.7641543319672346,-9.29310134268105,-1.472458717045933
1758972234682401500,6.349401611328125,-2.743625630940497,-9.289723390680551,-1.5309898164696991
1758972234692359700,6.359359619140625,-2.9015339271783827,-9.24065745421648,-1.5367952878780662
1758972234702317800,6.36931787109375,-3.0973496370062232,-9.177040429830551,-1.5358245431497692
1758972234712275700,6.379275634765625,-3.2258038752228018,-9.129699417462945,-1.5534329728156326
1758972234722233900,6.38923388671875,-3.3034596540942784,-9.102524410289526,-1.5497013850718735
1758972234732191700,6.399191650390625,-3.362161726170778,-9.087375940996408,-1.5119088300332426
1758972234742150000,6.40914990234375,-3.386856314705312,-9.088578302523493,-1.4482142103664577
1758972234752107500,6.419107421875,-3.355266705960035,-9.112744775530695,-1.3676467818319797
1758972234762065700,6.429065673828125,-3.2669504168644545,-9.158083800426125,-1.2755015820980071
1758972234772023600,6.4390234375,-3.1420228914692996,-9.214767810678481,-1.1773426019672304
1758972234781981700,6.448981689453125,-3.00060863391459,-9.271732975959777,-1.096213886288181
1758972234791939800,6.45893994140625,-2.8423145532295107,-9.327832464322448,-1.040742758956924
1758972234801897700,6.468897705078125,-2.6744977341786025,-9.382256128427386,-0.995342943784967
1758972234811856000,6.47885595703125,-2.5125527297705412,-9.431423771700262,-0.9516836886700242
1758972234821813800,6.488813720703125,-2.365608602878451,-9.472226322209835,-0.9226191414229571
1758972234831771600,6.498771728515625,-2.247194843291491,-9.50144306434393,-0.9182070971343665
1758972234841730800,6.508730712890625,-2.1892497270621356,-9.513716270461678,-0.931009587823227
1758972234851688700,6.518688720703125,-2.1881514104314146,-9.511454755270481,-0.9563322451282292
1758972234861646600,6.528646484375,-2.199012411663681,-9.504745028498768,-0.9972561569951474
1758972234871604700,6.538604736328125,-2.195225002079457,-9.499954287090898,-1.0498566242609173
1758972234881562600,6.548562744140625,-2.1700630882941185,-9.499424710258841,-1.1054920753084123
1758972234891520800,6.558520751953125,-2.1226235839881,-9.504000932133197,-1.1570651722878218
1758972234901478700,6.568478759765625,-2.0564064601063725,-9.512994970449805,-1.2018744011554867
1758972234911436800,6.578436767578125,-1.9762344606302678,-9.524950781181454,-1.2410462086580694
1758972234921395000,6.58839501953125,-1.8869735841609536,-9.538211829292774,-1.277578826763481
1758972234931352600,6.5983525390625,-1.798050122952461,-9.550763852351903,-1.31160706083253
1758972234941310700,6.608310791015625,-1.7242711855143307,-9.560832241901755,-1.3370764331318437
1758972234951268600,6.6182685546875,-1.6888206635572016,-9.568332242268323,-1.32865347270146
1758972234961226800,6.628226806640625,-1.6894605688959359,-9.57361632015109,-1.2891698958359659
1758972234971184600,6.6381845703125,-1.692943588706106,-9.578430442434549,-1.2481921348899603
1758972234981142800,6.648142822265625,-1.6818040627934037,-9.58411667137742,-1.2192773713771252
1758972234991101700,6.658101806640625,-1.6549238007828593,-9.59168798341453,-1.196288783042878
1758972235001059800,6.668059814453125,-1.613407256785035,-9.60175812653005,-1.1719822439778596
1758972235011017700,6.678017822265625,-1.5576728023424744,-9.614339375683665,-1.143920517097786
1758972235020975900,6.687975830078125,-1.4847728396959603,-9.629504796111583,-1.1128790437545626
1758972235030933500,6.69793359375,-1.39032929989174,-9.6468919842422,-1.0839020286604761
1758972235040891600,6.7078916015625,-1.2733332981482148,-9.665308515420556,-1.0634064992509782
1758972235050849800,6.717849853515625,-1.139474716670066,-9.682875151771306,-1.0554265333477406
1758972235060807700,6.7278076171875,-1.0011777143530547,-9.697630237832666,-1.0601852721821516
1758972235070765800,6.737765869140625,-0.8708703956156969,-9.708631524318456,-1.074459662054479
1758972235080723700,6.7477236328125,-0.757417181045562,-9.715798347207903,-1.0954363991096616
1758972235090681900,6.757681884765625,-0.661916679534316,-9.719723996219038,-1.1221446655541658
1758972235100639700,6.7676396484375,-0.5771242171833292,-9.721337276634573,-1.1545160723268986
1758972235110597600,6.77759765625,-0.4891800858683884,-9.722017075592278,-1.1888969922911374
1758972235120555500,6.787555419921875,-0.38201884758193044,-9.722869308507441,-1.2207635182816534
1758972235130514700,6.7975146484375,-0.24729407772850243,-9.72365724401474,-1.248879971023649
1758972235140472600,6.80747265625,-0.0936481973086018,-9.722972768881917,-1.274915891164541
1758972235150430700,6.8174306640625,0.0603633243861841,-9.719878309997915,-1.3002584222137927
1758972235160388600,6.827388671875,0.19868633336070923,-9.714726334062219,-1.324765963743627
1758972235170346800,6.8373466796875,0.31199904348161067,-9.708445061835645,-1.3487516733564435
1758972235180304600,6.8473046875,0.3995729167120531,-9.701805477690696,-1.373205877263844
1758972235190262800,6.8572626953125,0.46814412943925704,-9.695068278390169,-1.3988829009644685
1758972235200221000,6.867220947265625,0.5292773376528174,-9.688013683703542,-1.425709679222107
1758972235210178600,6.877178466796875,0.5939795999921857,-9.680165892812608,-1.453256296186894
1758972235220136700,6.88713671875,0.6675975747149437,-9.671276483914255,-1.4802389956586062
1758972235230094600,6.897094482421875,0.7492487068329006,-9.661652331000566,-1.5038229926027358
1758972235240052700,6.907052734375,0.8350195492293685,-9.652073186272382,-1.52006407943815
1758972235250010600,6.9170107421875,0.9231215379871427,-9.642911390173435,-1.5272501915499568
1758972235259968800,6.92696875,1.0155365676384418,-9.63369114188552,-1.5267811127334832
1758972235269927000,6.936927001953125,1.1151993033956735,-9.623316462865471,-1.522655411105603
1758972235279885800,6.9468857421875,1.2215777572739868,-9.611023967525362,-1.518675401558727
1758972235289843700,6.95684375,1.3283137193530796,-9.597127544119953,-1.516940540590137
1758972235299801900,6.9668017578125,1.4260757360555232,-9.58297743821442,-1.5176393365092575
1758972235309759700,6.976759765625,1.5070685503952204,-9.570372808185219,-1.5189152016639709
1758972235319717600,6.986717529296875,1.5681107558570802,-9.560581482011079,-1.5187793003246188
1758972235329675800,6.99667578125,1.6124050940051673,-9.553732054507732,-1.5155017399586737
1758972235339633700,7.006633544921875,1.6457050137996672,-9.549214284822344,-1.5081529846310615
1758972235349591800,7.016591796875,1.6678661383338271,-9.547176641514897,-1.496679550588876
1758972235359549700,7.0265498046875,1.6686103808298707,-9.549436403140426,-1.48134651850909
1758972235369507300,7.03650732421875,1.6346443983420729,-9.558344516739249,-1.4616387784764169
1758972235379465200,7.04646533203125,1.5671712830498814,-9.573628595110774,-1.4352690963365138
1758972235389423400,7.05642333984375,1.4845138964988291,-9.592277766001224,-1.3981439191654323
1758972235399381500,7.066381591796875,1.397575763888657,-9.61175403536558,-1.3532754343912006
1758972235409339400,7.07633935546875,1.298163203500211,-9.631908934643864,-1.308238315051794
1758972235419298300,7.08629833984375,1.1581192844506352,-9.654719316866993,-1.2710308664247394
1758972235429256400,7.09625634765625,0.9475092525295913,-9.681139121758937,-1.2442457353517413
1758972235439214600,7.106214599609375,0.6665679394062608,-9.707157360112667,-1.2235909237273037
1758972235449172500,7.11617236328125,0.3471746940201148,-9.726214527282119,-1.2044056731987745
1758972235459130600,7.126130615234375,0.02201552378470078,-9.734650931715965,-1.1859596967302262
1758972235469088300,7.136088134765625,-0.29033218700410796,-9.732062668788432,-1.1717810953825711
1758972235479046400,7.14604638671875,-0.5795713546071202,-9.720120302060247,-1.163507626425475
1758972235489004300,7.15600439453125,-0.8412091245844959,-9.70136708627343,-1.1602720785703509
1758972235498962400,7.16596240234375,-1.0742777296163142,-9.6783924533993,-1.159741844151169
1758972235508920300,7.17592041015625,-1.2785250215724109,-9.653743165311218,-1.1580205733165145
1758972235518878500,7.18587841796875,-1.456405553998053,-9.629814008191227,-1.1471535807348787
1758972235528836600,7.195836669921875,-1.6133710164278745,-9.608163901919125,-1.1183139282848686
1758972235538794500,7.20579443359375,-1.7599068547800183,-9.588120646321773,-1.0682082735095173
1758972235548752400,7.21575244140625,-1.9120339372679591,-9.566116319784522,-1.001959658510983
1758972235558710300,7.225710205078125,-2.079556741808355,-9.538202476942539,-0.9319652811128646
1758972235568669400,7.23566943359375,-2.2631037755630907,-9.501676873099804,-0.8757298914108425
1758972235578627300,7.24562744140625,-2.45958861682415,-9.455391507264972,-0.8463921532455831
1758972235588585500,7.25558544921875,-2.6549986684605478,-9.401999524295329,-0.8507417267572134
1758972235598543400,7.26554345703125,-2.8326243493422862,-9.346500339913367,-0.8885521827787161
1758972235608501500,7.27550146484375,-2.9779286000728606,-9.294627529335022,-0.955104968355596
1758972235618459400,7.28545947265625,-3.081366762715578,-9.251500919792056,-1.0417860574647784
1758972235628417500,7.29541748046875,-3.1529569579377767,-9.216937555932999,-1.1301764347098766
1758972235638375400,7.30537548828125,-3.215746007066965,-9.18683584765792,-1.196427826187387
1758972235648333300,7.315333251953125,-3.2886417319297787,-9.157143889227509,-1.2255443228174001
1758972235658291500,7.32529150390625,-3.3726576934829353,-9.127205847081541,-1.2205254717420786
1758972235668249300,7.335249267578125,-3.4570372276514765,-9.09897168624401,-1.1950049537774174
1758972235678207500,7.34520751953125,-3.5323365065246817,-9.073978699284792,-1.1644354087948798
1758972235688165400,7.355165283203125,-3.5943203767508267,-9.052572923162579,-1.1411402387294918
1758972235698123500,7.36512353515625,-3.6428462149888277,-9.034325318810343,-1.1318423220954834
1758972235708082400,7.37508251953125,-3.6807033596962686,-9.018376054528355,-1.1365390285443513
1758972235718040600,7.38504052734375,-3.71258289129883,-9.004027795702218,-1.1465480891223996
1758972235727998500,7.39499853515625,-3.739950206173956,-8.99229293424487,-1.1497229928314685
1758972235737956600,7.40495654296875,-3.7616464896753428,-8.984487228929996,-1.1399083588469774
1758972235747914200,7.414914306640625,-3.776732415126264,-8.980928075143694,-1.1178425113808363
1758972235757872400,7.424872314453125,-3.7862247583538293,-8.980939765581487,-1.0851760671842843
1758972235767830300,7.434830322265625,-3.7910008867144582,-8.983498802414536,-1.046634739604965
1758972235777788400,7.444788330078125,-3.7913495540216564,-8.987454846563935,-1.0107800938263536
1758972235787746300,7.454746337890625,-3.7848400259971617,-8.99291194292605,-0.9863570157095789
1758972235797704400,7.464704345703125,-3.766588622252643,-9.001406215026973,-0.978705404977873
1758972235807662600,7.47466259765625,-3.731742642059922,-9.014933805119991,-0.9876431099973618
1758972235817620500,7.484620361328125,-3.6757936680838466,-9.035317836979031,-1.0109127802953124
1758972235827578400,7.494578369140625,-3.5929353521332144,-9.06445040796101,-1.0473571355953812
1758972235837536300,7.504536376953125,-3.4765123279720545,-9.10382087984085,-1.0975875127289443
1758972235847495400,7.514495361328125,-3.3249019628345966,-9.15227365284264,-1.1624690771579742
1758972235857453300,7.524453369140625,-3.144711107639968,-9.205704214257,-1.2394238681532441
1758972235867411500,7.534411376953125,-2.9526866067886353,-9.257353152951598,-1.3241769118092954
1758972235877369300,7.544369384765625,-2.782924791149795,-9.296714857003092,-1.4130847370572388
1758972235887327500,7.554327392578125,-2.7047429425776004,-9.306070714369415,-1.5005878100737928
1758972235897285400,7.564285400390625,-2.7831004399776456,-9.270538213217257,-1.5753896608188747
1758972235907243500,7.574243408203125,-2.9704420437097547,-9.201165986305474,-1.6387223153054713
1758972235917201400,7.584201416015625,-3.1397648834094403,-9.132584617510437,-1.7053396905511617
1758972235927159300,7.5941591796875,-3.225438256780803,-9.093398854547738,-1.7541545748636125
1758972235937117400,7.604117431640625,-3.2413121177390214,-9.088093733876944,-1.7523922413662074
1758972235947075300,7.614075439453125,-3.2176606085166335,-9.105031424674392,-1.7074805019721389
1758972235957033500,7.624033447265625,-3.1671868510812518,-9.134635120299459,-1.6424920431025325
1758972235966991400,7.633991455078125,-3.0887329075694083,-9.175741622191667,-1.5607232759542762
1758972235976949500,7.643949462890625,-2.9904058043301105,-9.224707605412602,-1.4603485925354063
1758972235986908400,7.653908447265625,-2.8861574943482875,-9.273658975586294,-1.3563551340974866
1758972235996866600,7.663866455078125,-2.7845442090451717,-9.317541371932625,-1.264955345903337
1758972236006824400,7.673824462890625,-2.6911934329137206,-9.355175813800097,-1.1868296844977886
1758972236016782600,7.683782470703125,-2.603796304489672,-9.389014370515943,-1.11221480769217
1758972236026740200,7.693740234375,-2.5246722066313025,-9.41816681524217,-1.0462052621465177
1758972236036698400,7.703698486328125,-2.4515331745319067,-9.442630225369333,-0.9985341410417109
1758972236046656300,7.71365625,-2.3789007767803967,-9.46391792806983,-0.9723517251022159
1758972236056614400,7.723614501953125,-2.3063380832642317,-9.482334459248184,-0.9677615477677434
1758972236066572500,7.733572509765625,-2.2422407280154526,-9.495689030861854,-0.9872400821544229
1758972236076530400,7.743530517578125,-2.1943330216757952,-9.501769812080264,-1.0351977651156485
1758972236086488600,7.753488525390625,-2.132773222080618,-9.507832473120093,-1.105795515234396
1758972236096446500,7.763446533203125,-2.0428759474039078,-9.518991580516099,-1.1772226288493721
1758972236106404600,7.773404541015625,-1.9316279877930878,-9.53622211678028,-1.2246085032720118
1758972236116362200,7.7833623046875,-1.8048507428780196,-9.558404722493886,-1.2449157435677944
1758972236126321400,7.7933212890625,-1.6684325400449334,-9.582042787712812,-1.253466860422492
1758972236136279300,7.803279296875,-1.5314870984673499,-9.60369640111625,-1.2625270958431065
1758972236146237400,7.813237548828125,-1.4039330239608883,-9.621895490151644,-1.2721990334212778
1758972236156195300,7.8231953125,-1.297025723902881,-9.635840428873896,-1.2801086375020443
1758972236166153500,7.833153564453125,-1.2248375627875328,-9.644930328780411,-1.2827763954065738
1758972236176111400,7.843111328125,-1.202721884830296,-9.64776818255484,-1.2823457489043473
1758972236186069500,7.853069580078125,-1.2295374110415578,-9.645563950508832,-1.2734705146618186
1758972236196027400,7.86302734375,-1.2637307725444435,-9.642534958076476,-1.2628883303709328
1758972236205985300,7.8729853515625,-1.2641446140423416,-9.642333882546424,-1.264003013614565
1758972236215943400,7.882943359375,-1.2145797881454228,-9.647682257837056,-1.2717704327456651
1758972236225901300,7.8929013671875,-1.1226120638702064,-9.659010876581073,-1.2702810709707437
1758972236235859500,7.902859375,-1.0043496223874389,-9.674055300977825,-1.2547209521368146
1758972236245817300,7.9128173828125,-0.8729144686639309,-9.689579033324122,-1.2330699690818785
1758972236255775500,7.922775390625,-0.7373502523116767,-9.703070967581867,-1.2153710115883498
1758972236265734400,7.932734375,-0.6051536126963794,-9.71330594587028,-1.206598287872225
1758972236275692500,7.942692626953125,-0.4824946532877162,-9.719916303920746,-1.208637173288688
1758972236285650400,7.952650390625,-0.37476259284336116,-9.723030636548996,-1.2217290753781795
1758972236295608600,7.962608642578125,-0.28623636905783784,-9.72309668752253,-1.2449392705738545
1758972236305566200,7.972566162109375,-0.2162312145373784,-9.720852707988023,-1.2761813810557125
1758972236315524400,7.9825244140625,-0.15800377423530443,-9.717347914737463,-1.3109445052705704
1758972236325482500,7.992482421875,-0.09973522560470736,-9.713422265726328,-1.3453073781214653
1758972236335440400,8.0024404296875,-0.027909109584649556,-9.70974328495264,-1.3749487754084169
1758972236345398500,8.0123984375,0.06486430276697501,-9.706395728090405,-1.3971610456079244
1758972236355356400,8.0223564453125,0.17577387900259345,-9.70286112422347,-1.412078774885088
1758972236365314600,8.032314453125,0.29341416999902575,-9.698643798789382,-1.421483293698728
1758972236375273700,8.042273681640625,0.4038404014308005,-9.693684130555392,-1.428211579040438
1758972236385231600,8.052231689453125,0.4980312451155856,-9.688260936462878,-1.4352543371587991
1758972236395189500,8.062189453125,0.5729899669228121,-9.682778705659508,-1.4442517364762724
1758972236405148400,8.0721484375,0.6311930399686098,-9.677570031100512,-1.4548641697749494
1758972236415106600,8.0821064453125,0.679644132469967,-9.672709147065877,-1.46532112025097
1758972236425064400,8.092064453125,0.7283912122432142,-9.667943540099262,-1.473332431140542
1758972236435022600,8.102022705078125,0.7871004447128623,-9.662692195442318,-1.477578982669115
1758972236444980700,8.111980712890626,0.8614028945684432,-9.656429043394327,-1.477074394147843
1758972236454938600,8.121938720703126,0.9507392474267631,-9.648729721063376,-1.4725781056419014
1758972236464896800,8.131896728515626,1.0494400793492793,-9.639406596922873,-1.4665990312322974
1758972236474854700,8.141854736328124,1.1497523650564252,-9.628609893098472,-1.4622988498203455
1758972236484812500,8.1518125,1.2441544038064778,-9.61686626381278,-1.4623084944315254
1758972236494770400,8.1617705078125,1.3275197924964128,-9.60475964643359,-1.4685649244777856
1758972236504728600,8.171728515625,1.3977612034581601,-9.592817864227294,-1.4813913805641232
1758972236514686500,8.1816865234375,1.4559347216159104,-9.581441314688325,-1.4988818829387425
1758972236524644600,8.19164453125,1.5053426033854485,-9.570990647822619,-1.5167334737107157
1758972236534602800,8.201602783203125,1.5505049565397202,-9.561630698803066,-1.5302107949212194
1758972236544561700,8.211561767578125,1.596154947080463,-9.553158638533949,-1.5361736488483846
1758972236554519600,8.22151953125,1.6452181070655583,-9.545228430056572,-1.5337129578232764
1758972236564477700,8.231477783203125,1.6999936533480882,-9.537198268336057,-1.5239019040353596
1758972236574435600,8.241435546875,1.7599812351904809,-9.528605796557665,-1.5094830641910433
1758972236584393500,8.2513935546875,1.8084847154662012,-9.52178676419258,-1.4951130319245158
1758972236594351600,8.2613515625,1.7899873741365968,-9.526386951464413,-1.4880422167554497
1758972236604309500,8.2713095703125,1.675151765297353,-9.548554359608888,-1.4796565195955336
1758972236614267600,8.281267578125,1.5028336893044412,-9.580877835586666,-1.4555647192597387
1758972236624225500,8.2912255859375,1.3168474457040429,-9.61330301837325,-1.4215109123580156
1758972236634183700,8.30118359375,1.1355335778288542,-9.641897829216719,-1.3837592738516629
1758972236644141600,8.3111416015625,0.9449060112286358,-9.667432667967677,-1.3484297479256986
1758972236654099700,8.321099609375,0.7128869883149862,-9.691032154741883,-1.3213923956573008
1758972236664057600,8.3310576171875,0.4238937034981325,-9.710157126450538,-1.305204061922431
1758972236674015500,8.341015380859375,0.09486824062285013,-9.719615859669446,-1.3001755662359296
1758972236683974400,8.350974365234375,-0.23915146860945968,-9.716949270808696,-1.3015718428999186
1758972236693932500,8.3609326171875,-0.5475379476170986,-9.704255793452262,-1.3030876542903482
1758972236703890700,8.370890625,-0.8193944023352115,-9.685212070286273,-1.3021762385338544
1758972236713848600,8.3808486328125,-1.0579533484116197,-9.662013565528392,-1.3025570545449852
1758972236723806700,8.390806640625,-1.2685152303420006,-9.636233227583766,-1.3054746955573557
1758972236733764600,8.4007646484375,-1.4561040868334472,-9.609825113129615,-1.304382370276004
1758972236743722800,8.41072265625,-1.625295993629843,-9.584985270905495,-1.2871923121526836
1758972236753680600,8.4206806640625,-1.7813009404644369,-9.562619125318527,-1.2464733482733368
1758972236763638500,8.430638427734374,-1.9351747204892336,-9.540814120745658,-1.1825197123441844
1758972236773596400,8.440596435546874,-2.096916165149212,-9.515772033947705,-1.106082588547468
1758972236783554600,8.450554443359374,-2.2754840953171254,-9.481319729247689,-1.0474296163097023
1758972236793512700,8.4605126953125,-2.4611583503589034,-9.43564343522191,-1.0400479085605592
1758972236803470600,8.470470703125,-2.6261624500766394,-9.384796460559963,-1.0950992761097849
1758972236813428700,8.4804287109375,-2.753958808906376,-9.335638169637322,-1.1966381079372017
1758972236823387600,8.4903876953125,-2.849930581191182,-9.29112448965013,-1.312727443164587
1758972236833345500,8.500345458984375,-2.9317084084287286,-9.25003669245839,-1.4185532315962015
1758972236843303700,8.5103037109375,-3.0124370188742873,-9.21180662278533,-1.496071355562657
1758972236853261800,8.52026171875,-3.091557025079429,-9.179095024272799,-1.5352046576857565
1758972236863219500,8.530219482421876,-3.1643133414715527,-9.155112675660849,-1.5301752852164208
1758972236873177600,8.540177490234376,-3.2283155657827853,-9.140141316500305,-1.4853190754018724
1758972236883135500,8.550135498046876,-3.279455970433354,-9.13286051184237,-1.4164892848037183
1758972236893093600,8.56009375,-3.317661490187049,-9.13065686431825,-1.3396451145760715
1758972236903051500,8.570051513671874,-3.346515828749537,-9.130333039191365,-1.2681632020339368
1758972236913009700,8.580009765625,-3.367680197331309,-9.130707133200763,-1.2080183838032186
1758972236922967600,8.589967529296874,-3.3817060923352837,-9.132048610937595,-1.1576407802186905
1758972236932925700,8.59992578125,-3.3897026440471407,-9.134487820783256,-1.1142053239222616
1758972236942883600,8.609883544921875,-3.3947663571774958,-9.137159085819125,-1.076230324988812
1758972236952841500,8.619841552734375,-3.3987554268136617,-9.139456841367483,-1.043633511962369
1758972236962800400,8.62980029296875,-3.403960886502266,-9.140444683361054,-1.0176861468877643
1758972236972758500,8.639758544921875,-3.411592112033069,-9.139618753930925,-0.9993969684161246
1758972236982716700,8.649716552734375,-3.4210096364587543,-9.137442578935623,-0.9870251242294907
1758972236992674600,8.659674560546875,-3.4308977010056374,-9.134449242338537,-0.9803693196021019
1758972237002632700,8.6696328125,-3.4393776523202657,-9.130976597791909,-0.9830074130207299
1758972237012590600,8.679590576171876,-3.440214395405352,-9.128839001241326,-0.9998232310041785
1758972237022548700,8.689548828125,-3.4233269734904166,-9.131278795608878,-1.034890891123563
1758972237032506600,8.699506591796874,-3.377266356322169,-9.142059717342256,-1.0895917647346853
1758972237042464500,8.709464599609374,-3.295340645046532,-9.163026517525315,-1.1619225491911171
1758972237052422400,8.71942236328125,-3.1801430710271,-9.192345550990105,-1.2481294449172913
1758972237062380500,8.729380615234374,-3.040237756730616,-9.225771435251831,-1.3462779767192898
1758972237072338700,8.739338623046875,-2.89586026545614,-9.255544057703018,-1.4557842072293161
1758972237082296600,8.749296630859375,-2.8035876399502158,-9.264987008830904,-1.5717162330031393
1758972237092254700,8.759254638671875,-2.850749496358633,-9.233692875900864,-1.668092348305136
1758972237102213600,8.769213623046875,-3.0269024743393063,-9.166618404537438,-1.7266611493907869
1758972237112171800,8.779171875,-3.198300074486434,-9.099034814608096,-1.7744914065800605
1758972237122129700,8.789129638671875,-3.294540726840496,-9.057024057352542,-1.8129275202192365
1758972237132087800,8.799087890625,-3.334880920535326,-9.04201587331295,-1.8140778592981397
1758972237142045400,8.80904541015625,-3.3488840191856024,-9.042324500870704,-1.7865362107694147
1758972237152003600,8.819003662109376,-3.335576501584053,-9.0542493319422,-1.7506768157504498
1758972237161961500,8.82896142578125,-3.2800261715367434,-9.082214612710475,-1.7103095879182217
1758972237171919600,8.838919677734374,-3.1842230338171125,-9.126765702098607,-1.653257475005835
1758972237181877500,8.84887744140625,-3.0637282301723956,-9.18196385770738,-1.5733677996024489
1758972237191835600,8.858835693359374,-2.9328666385531426,-9.240226077061891,-1.478813492900133
1758972237201793800,8.868793701171874,-2.7969056779682635,-9.297401670223474,-1.380575675379485
1758972237211751700,8.878751708984375,-2.655793033708632,-9.35160672314167,-1.2901977775789797
1758972237221709600,8.88870947265625,-2.5204931673809883,-9.398657228130102,-1.2176936093170194
1758972237231667500,8.89866748046875,-2.405716741383076,-9.434967143395543,-1.1680295608293265
1758972237241626600,8.908626708984375,-2.319960804294795,-9.459449258223176,-1.1432198214825242
1758972237251584500,8.91858447265625,-2.2675082941323517,-9.471998943194746,-1.1445465400416404
1758972237261542700,8.928542724609375,-2.255413367190957,-9.471929969611763,-1.1687800138704478
1758972237271500500,8.93850048828125,-2.2729195055261253,-9.46331937765479,-1.204081482745707
1758972237281458700,8.948458740234376,-2.2907008075408637,-9.45420083617568,-1.2414490903705357
1758972237291416600,8.95841650390625,-2.2858574591629206,-9.450520101836323,-1.277838792873919
1758972237301374700,8.968374755859376,-2.250281703390926,-9.454347551169992,-1.3122251927308737
1758972237311332600,8.97833251953125,-2.1868042336061597,-9.464792957338691,-1.3438757378831505
1758972237321290500,8.98829052734375,-2.1019595661439,-9.479431139022111,-1.3756854191198944
1758972237331248600,8.99824853515625,-2.005897923618555,-9.49507820548713,-1.4107646235466003
1758972237341206500,9.00820654296875,-1.9095334987543522,-9.509245847049355,-1.4485487030178308
1758972237351164700,9.01816455078125,-1.8213614404350518,-9.521254849272966,-1.482807384841889
1758972237361122600,9.02812255859375,-1.7354348229549825,-9.533189032694697,-1.5089491034448146
1758972237371080400,9.03808056640625,-1.6629488479368388,-9.545077623409032,-1.51540617062971
1758972237381039400,9.048039306640625,-1.6094243246287105,-9.555351180142164,-1.5084309247896075
1758972237390997500,9.05799755859375,-1.558153717727214,-9.56524129051566,-1.4995698652029037
1758972237400955400,9.067955322265625,-1.5015912880279123,-9.575804770106076,-1.4898266159541904
1758972237410913500,9.07791357421875,-1.4414111062228678,-9.587075521183014,-1.4767220735788344
1758972237420871400,9.087871337890626,-1.3784721272289753,-9.598817981424927,-1.46043933955878
1758972237430829600,9.09782958984375,-1.3050954869814215,-9.611416181713341,-1.4449207217790185
1758972237440787200,9.107787109375,-1.2116164813604204,-9.6253155277282,-1.4337711128637194
1758972237450745300,9.117745361328126,-1.0964002757057547,-9.64004723291397,-1.4275029923796654
1758972237460703500,9.127703369140624,-0.9671214962985366,-9.653963530063628,-1.42690225000754
1758972237470661400,9.137661376953124,-0.8335339868467301,-9.665191611042617,-1.4351513151757418
1758972237480619500,9.14761962890625,-0.7069281529758125,-9.67261270095408,-1.4529872699871658
1758972237490577400,9.157577392578125,-0.5952593741370364,-9.676139121514558,-1.4793287489458917
1758972237500535600,9.16753564453125,-0.49783787796795365,-9.676540688052773,-1.5123108349628747
1758972237510493400,9.177493408203125,-0.4066424532394856,-9.675216745972632,-1.5476428451068698
1758972237520451300,9.187451416015625,-0.30987094541173427,-9.673495913529395,-1.5804633108213544
1758972237530410500,9.197410400390625,-0.19583635075706987,-9.671981417313217,-1.6077347641065716
1758972237540368400,9.207368408203125,-0.06004696104654576,-9.670244802778958,-1.6288412650212645
1758972237550326300,9.217326171875,0.09002579642720519,-9.667295889845489,-1.6448893135026097
1758972237560284400,9.227284423828126,0.2389627228380181,-9.662714991796015,-1.6568611985862254
1758972237570242300,9.2372421875,0.3705511126281693,-9.656954528573154,-1.666225093128532
1758972237580200400,9.247200439453126,0.4736679343620315,-9.650918755540252,-1.6750445055305956
1758972237590158300,9.257158447265626,0.5443181818529963,-9.645517188757658,-1.6846625209644437
1758972237600116500,9.267116455078124,0.5877894401151686,-9.641125091278553,-1.6951646257564426
1758972237610074600,9.27707470703125,0.616954232866317,-9.637467153292894,-1.7055787600040435
1758972237620032300,9.2870322265625,0.6487417022712528,-9.633879942455888,-1.7140261242233217
1758972237629990400,9.296990478515625,0.6991190866600722,-9.629495443761348,-1.7188465301170943
1758972237639948300,9.3069482421875,0.7761630903087556,-9.623480128994583,-1.7194716762781141
1758972237649906400,9.316906494140625,0.8777174119662493,-9.61507353517711,-1.7176560051582752
1758972237659864300,9.3268642578125,0.9945789006099104,-9.603907413518428,-1.716438446062058
1758972237669823500,9.336823486328125,1.1145234499607235,-9.590573884692787,-1.717297547109425
1758972237679781400,9.346781494140625,1.2271363412491976,-9.576388122951984,-1.7196816657669842
1758972237689739500,9.356739501953125,1.3276365507438779,-9.56225847531259,-1.7236548071816562
1758972237699697400,9.366697509765626,1.4172830655299127,-9.548122982454299,-1.7306220158457755
1758972237709655600,9.376655517578126,1.5005739276789127,-9.533642621681093,-1.740208320967108
1758972237719613400,9.386613525390626,1.5814271874174475,-9.519032497048377,-1.7485684452943502
1758972237729571300,9.3965712890625,1.6578743211515248,-9.505669742128253,-1.7504558664761483
1758972237739529500,9.406529541015624,1.6976956055387853,-9.4989962557137,-1.7485073627568781
1758972237749487400,9.4164873046875,1.6444515066072345,-9.507996723771095,-1.7504723792195318
1758972237759445500,9.426445556640624,1.498642521224916,-9.532580545407534,-1.7476720809765158
1758972237769403400,9.4364033203125,1.3042417927615344,-9.564888239294289,-1.726916293195635
1758972237779361500,9.446361572265625,1.1072103504683821,-9.597355507656932,-1.6838213939651845
1758972237789319400,9.4563193359375,0.9517672022350132,-9.625354690694808,-1.6177400252923368
1758972237799277300,9.46627734375,0.8423491614650934,-9.64767758166194,-1.543754020974785
1758972237809236500,9.476236572265625,0.7392678494360297,-9.666519644775986,-1.477246974235773
1758972237819194400,9.4861943359375,0.5661736745040863,-9.685380412590503,-1.4294130637846887
1758972237829152300,9.49615234375,0.28620747175691647,-9.702105921941994,-1.3991523655556142
1758972237839110400,9.5061103515625,-0.060926739555760286,-9.709462714445591,-1.3758638444267213
1758972237849068300,9.516068359375,-0.4143783081885427,-9.703491238820552,-1.356812084084749
1758972237859026400,9.5260263671875,-0.7328001877918839,-9.686452425736189,-1.343880414058268
1758972237868984600,9.535984619140624,-1.007359983184561,-9.662565354192257,-1.3380743581280112
1758972237878942500,9.5459423828125,-1.2471912872843443,-9.634750295549631,-1.3365942025728523
1758972237888900600,9.555900634765624,-1.4625681682810185,-9.604777766612171,-1.3339821203783153
1758972237898858200,9.565858154296874,-1.6570583285935223,-9.574655600070953,-1.3230588675647974
1758972237908816400,9.57581640625,-1.8322284330166876,-9.547197684302926,-1.2901007469452916
1758972237918774300,9.585774169921875,-1.991463593944162,-9.5243417093724,-1.2212130156148224
1758972237928732400,9.595732421875,-2.1453988948978484,-9.504223634973167,-1.1123803735174238
1758972237938690300,9.605690185546875,-2.30227507160902,-9.482276007059216,-0.9779330323658884
1758972237948648400,9.6156484375,-2.4606597531870005,-9.453643786814808,-0.862655305782333
1758972237958607400,9.625607421875,-2.6248139580771324,-9.412655358344315,-0.8262509902317077
1758972237968565500,9.6355654296875,-2.7776547417923805,-9.363746658268571,-0.8805150798607617
1758972237978523400,9.6455234375,-2.9028993703126904,-9.31387817324996,-0.9976033629976212
1758972237988481500,9.6554814453125,-3.0037554075077173,-9.266220350018143,-1.1335733836717903
1758972237998439400,9.665439453125,-3.0958994381979106,-9.221642957144976,-1.2438251718521118
1758972238008397300,9.675397216796876,-3.1874484256044027,-9.182946439003944,-1.2977196975164114
1758972238018355500,9.68535546875,-3.27490342169553,-9.153128223845362,-1.2906051893360913
1758972238028313300,9.695313232421874,-3.3505680267497895,-9.132848236882687,-1.2390187944836915
1758972238038271500,9.705271484375,-3.409844391582906,-9.12051307144463,-1.1660087225262075
1758972238048229400,9.7152294921875,-3.4496517935752866,-9.114957190883159,-1.0898700702194124
1758972238058187500,9.7251875,-3.468353571435809,-9.115832804673909,-1.0210153643757105
1758972238068145400,9.7351455078125,-3.4701723112955687,-9.121255998766422,-0.964868237479031
1758972238078103600,9.745103515625,-3.4605887826532125,-9.129147044277191,-0.9237802941568195
1758972238088061400,9.7550615234375,-3.4422762963712215,-9.138891608700156,-0.8954114010237156
1758972238098020400,9.765020263671875,-3.4162925448089836,-9.150570356056093,-0.8754237480711191
1758972238107978200,9.774978271484375,-3.386820951130986,-9.162877464443445,-0.8610930979669094
1758972238117936400,9.784936279296875,-3.3569130118623374,-9.175085788631439,-0.8481452074579894
1758972238127894500,9.79489453125,-3.3267814929708837,-9.18745018016398,-0.8328567451722919
1758972238137852400,9.804852294921876,-3.2975323098719116,-9.199548614236711,-0.815449537166953
1758972238147810600,9.814810546875,-3.271373494003713,-9.210327197882533,-0.7989714997705072
1758972238157768400,9.8247685546875,-3.251059604771435,-9.218374310737847,-0.7890179687719792
1758972238167726600,9.8347265625,-3.23484379850775,-9.223789321523904,-0.7923867876179516
1758972238177684200,9.844684326171874,-3.21664061781913,-9.228037626618146,-0.8166429847352206
1758972238187642400,9.854642333984375,-3.1870629334181544,-9.233634423711896,-0.8677752791445702
1758972238197600300,9.864600341796875,-3.1357498025491832,-9.243317028814554,-0.947935442052409
1758972238207558400,9.874558349609375,-3.0588337361291047,-9.257631385371088,-1.0536633230675012
1758972238217516500,9.8845166015625,-2.9597388633877038,-9.274825096756219,-1.1781081064470111
1758972238227474400,9.894474365234375,-2.850889489351213,-9.291258345162868,-1.3096869064249097
1758972238237432600,9.9044326171875,-2.760745984828472,-9.299846140766144,-1.435810948128253
1758972238247391500,9.9143916015625,-2.7466607608526945,-9.28673999095559,-1.5436149047650396
1758972238257349400,9.924349365234375,-2.8639672898501156,-9.238806273391843,-1.6163422873236237
1758972238267307500,9.9343076171875,-3.0584383070707317,-9.168999746716022,-1.65705336015746
1758972238277265400,9.944265380859376,-3.2271623040944335,-9.106947487428783,-1.6790867666587233
1758972238287223300,9.954223388671876,-3.3296988417223092,-9.070480335775017,-1.6762744857169687
1758972238297181400,9.964181396484374,-3.3811110490515826,-9.057135116511583,-1.645222198718786
1758972238307139300,9.974139404296874,-3.3961393990963695,-9.059889383655786,-1.5984528487592935
1758972238317097500,9.984097412109374,-3.3694141815170644,-9.079996352139116,-1.539844738576561
1758972238327055400,9.994055419921875,-3.2992247930034995,-9.117427964910865,-1.4690234819002448
1758972238337013500,10.004013427734375,-3.2030744492813943,-9.164311296638846,-1.3878439128167925
1758972238346971400,10.013971435546875,-3.1050083350658415,-9.211011088493466,-1.2986929264627396
1758972238356929500,10.023929443359375,-3.0101652745500207,-9.25414120516777,-1.2124982326310128
1758972238366887400,10.033887451171875,-2.9012656316310164,-9.298349764728545,-1.1374302052304148
1758972238376845600,10.043845458984375,-2.7722201495230196,-9.345708312752842,-1.0690733659062535
1758972238386803700,10.0538037109375,-2.6303750993356108,-9.393638523185253,-1.0055174240577964
1758972238396762600,10.0637626953125,-2.4852219475135207,-9.438146942475438,-0.9567984744004905
1758972238406720500,10.073720458984376,-2.3487968765482305,-9.47531201326549,-0.9337915466919541
1758972238416678700,10.0836787109375,-2.2741896715924144,-9.493037639570236,-0.9384506976094097
1758972238426636500,10.093636474609376,-2.296798101502657,-9.484448674923181,-0.969708444051817
1758972238436594400,10.103594482421874,-2.3410201050668955,-9.467602169540523,-1.026885790779069
1758972238446552600,10.113552490234374,-2.3434729050464926,-9.459674299150704,-1.0922799078401177
1758972238456510500,10.123510498046874,-2.3003407425455746,-9.46429026851356,-1.1428078066155314
1758972238466468600,10.133468505859375,-2.224998355183005,-9.478553187143802,-1.1733689490959047
1758972238476426500,10.143426513671875,-2.1279333808340133,-9.498078556346893,-1.1953196457497774
1758972238486384600,10.153384521484375,-2.0171648753032088,-9.519106146806479,-1.219851152677089
1758972238496342800,10.1633427734375,-1.9002773023702204,-9.539043603941797,-1.2513884467132388
1758972238506300400,10.173300537109375,-1.7839020628735422,-9.55712988025248,-1.2842692643128335
1758972238516258600,10.183258544921875,-1.6747962298579513,-9.57352221212685,-1.3088685757793486
1758972238526216400,10.193216552734375,-1.581294647078961,-9.58771381908655,-1.3212407122269272
1758972238536174600,10.203174560546875,-1.5114499803498387,-9.598754853060841,-1.3228135145016013
1758972238546133500,10.213133544921876,-1.4684724238887428,-9.605186931934952,-1.324516080635786
1758972238556091600,10.223091552734376,-1.4273667987793683,-9.610140754950047,-1.3335010588631033
1758972238566049500,10.233049560546876,-1.3656411410979925,-9.617633741053938,-1.344078274717927
1758972238576007700,10.243007568359374,-1.275607526690513,-9.629583122044801,-1.3469814488135277
1758972238585965600,10.252965576171874,-1.1627649182993918,-9.64584744362533,-1.3326615392990409
1758972238595923700,10.262923828125,-1.0380562963519244,-9.664379125615953,-1.3009990114480257
1758972238605881300,10.27288134765625,-0.9104827134273946,-9.682171387416124,-1.263716305627674
1758972238615839500,10.282839599609375,-0.7831946694459766,-9.697473585966229,-1.2312597047895193
1758972238625797600,10.292797607421875,-0.6579563245359807,-9.709670219716429,-1.208217194310948
1758972238635755500,10.302755615234375,-0.5396730959935113,-9.718325819858908,-1.1971997604079543
1758972238645713700,10.312713623046875,-0.43587895951997485,-9.723213007378577,-1.1998080432102083
1758972238655671600,10.322671630859375,-0.3512111099293455,-9.724576112425327,-1.2164183286841959
1758972238665629700,10.332629638671875,-0.28632333495523776,-9.722944127309322,-1.2460912170879541
1758972238675587600,10.342587646484375,-0.23606250788448377,-9.719187405124305,-1.2853222804971038
1758972238685546800,10.352546630859376,-0.18938419720930977,-9.714403677979112,-1.3284825000487268
1758972238695504600,10.362504638671876,-0.13325996713102795,-9.709491356018185,-1.3705541937112808
1758972238705462500,10.372462646484376,-0.058640765776741315,-9.704813427335024,-1.4083862039774655
1758972238715420400,10.38242041015625,0.034231092847522814,-9.700165309268236,-1.4408325756825506
1758972238725378600,10.392378662109374,0.13607872347934172,-9.695086983090638,-1.4687180692128836
1758972238735336400,10.40233642578125,0.2342326621088199,-9.689410691019892,-1.4935950285769999
1758972238745294600,10.412294677734375,0.3197132345881313,-9.683300099185109,-1.5171876472190022
1758972238755252500,10.42225244140625,0.3895359452137723,-9.67708780054152,-1.5403339833982288
1758972238765210600,10.432210693359375,0.446472651585564,-9.671071901252866,-1.5625034373693167
1758972238775168800,10.442168701171875,0.4971315563295036,-9.665365214043856,-1.5823907717525958
1758972238785126400,10.45212646484375,0.5507779159190133,-9.659744451552628,-1.5988643521696329
1758972238795084500,10.46208447265625,0.6167111448254435,-9.653665423899888,-1.6114594837181269
1758972238805042400,10.47204248046875,0.7005254463266581,-9.646399816811083,-1.6206925914876162
1758972238815000600,10.48200048828125,0.8011467979829758,-9.637448448592425,-1.6273045569732785
1758972238824958500,10.49195849609375,0.9112045248959213,-9.626813657331466,-1.6323448892280459
1758972238834917600,10.501917724609376,1.0210431291654705,-9.615217327561973,-1.6356785636954008
1758972238844875500,10.51187548828125,1.1233641243465244,-9.603375498598814,-1.6381744721643625
1758972238854833700,10.521833740234374,1.21523313748762,-9.591551789814233,-1.6418648511148988
1758972238864791600,10.53179150390625,1.2979386009640992,-9.579500702014565,-1.6489122854083775
1758972238874749700,10.541749755859374,1.3744602612391112,-9.566970890787243,-1.6596137121647596
1758972238884707300,10.551707275390624,1.4457389062941073,-9.554171614968777,-1.6727316985435783
1758972238894665500,10.56166552734375,1.5104286744780837,-9.542077272549271,-1.6845611064165829
1758972238904623600,10.57162353515625,1.5659261052943765,-9.532162612256407,-1.6900056355580686
1758972238914581500,10.58158154296875,1.6133900133892893,-9.525179329240322,-1.6847310561560094
1758972238924539600,10.59153955078125,1.6591826272711157,-9.520281035804748,-1.6678521098084746
1758972238934497500,10.60149755859375,1.7042504340097306,-9.516105211424827,-1.6460991276837884
1758972238944455700,10.61145556640625,1.7242998270869254,-9.514766656297445,-1.632907491546869
1758972238954413600,10.62141357421875,1.681507125673443,-9.52189957691729,-1.6359519738093018
1758972238964371500,10.631371337890625,1.5721487792015074,-9.539323005405068,-1.6431809021495283
1758972238974330600,10.64133056640625,1.4251093752413988,-9.563480710583924,-1.6368506762146948
1758972238984288500,10.65128857421875,1.282100249710679,-9.588591770964861,-1.607952936901897
1758972238994246400,10.661246337890624,1.177213495694846,-9.609671968394517,-1.5616514967150985
1758972239004204500,10.67120458984375,1.093332558698207,-9.626441901409626,-1.5187510971434413
1758972239014162400,10.681162353515624,0.970973422486335,-9.64435691280663,-1.4879406560771167
1758972239024120600,10.69112060546875,0.7558133260454982,-9.6663828666538,-1.4697576413936912
1758972239034078700,10.70107861328125,0.45443895428963005,-9.687484691393374,-1.454819015458971
1758972239044036600,10.71103662109375,0.11764661113936453,-9.70097954826057,-1.4309170386068522
1758972239053994800,10.720994873046875,-0.20962856486933304,-9.704538117524981,-1.395838418702036
1758972239063952400,10.730952392578125,-0.5080102028163149,-9.699172791099548,-1.3558609208397567
1758972239073910500,10.74091064453125,-0.775731420893222,-9.686824181658029,-1.316839554658532
1758972239083868400,10.750868408203125,-1.0206562487397342,-9.668583591568469,-1.283403002872318
1758972239093826600,10.76082666015625,-1.2508122542604803,-9.644946110871434,-1.257338441158831
1758972239103784400,10.770784423828125,-1.468027456600219,-9.61686684833467,-1.2374056601986287
1758972239113742600,10.78074267578125,-1.6687553422585129,-9.58645066728294,-1.2188595843564718
1758972239123701500,10.790701416015626,-1.8480264522597192,-9.557226910886168,-1.1893675324123352
1758972239133659600,10.80065966796875,-2.0124229414731265,-9.530000465786456,-1.140025044029206
1758972239143617500,10.810617431640624,-2.1745370188377797,-9.502534951233864,-1.069402086403966
1758972239153575700,10.82057568359375,-2.3371780426859856,-9.472841823759675,-0.9865368292558938
1758972239163533600,10.830533447265625,-2.4894401497304437,-9.440328378167749,-0.923735066775605
1758972239173491500,10.840491455078125,-2.618321088926494,-9.404428797268867,-0.9335487509120255
1758972239183449600,10.85044970703125,-2.72176158965677,-9.366162487238645,-1.0185218670595437
1758972239193407500,10.860407470703125,-2.807138025908172,-9.325876069557665,-1.1482147802256046
1758972239203365600,10.87036572265625,-2.882521183672547,-9.2845801825732,-1.287646777921915
1758972239213323500,10.880323486328125,-2.95721869726032,-9.243998581337928,-1.4048890095114708
1758972239223281700,10.89028173828125,-3.040492900535464,-9.206386351302266,-1.4724987567953765
1758972239233239600,10.900239501953125,-3.1380425896614788,-9.172737764200567,-1.4778257970370352
1758972239243197400,10.910197509765625,-3.2409035369381307,-9.144334092015027,-1.4311112460047006
1758972239253155600,10.920155517578126,-3.3346985497057435,-9.121956840512157,-1.3565031642660499
1758972239263113500,10.930113525390626,-3.4146459466457366,-9.103578303256631,-1.2788581990495322
1758972239273072400,10.940072265625,-3.482948790760338,-9.086714846739172,-1.2128665544867514
1758972239283030500,10.950030517578124,-3.540014201545715,-9.07116656447351,-1.1630137784939258
1758972239292988400,10.959988525390624,-3.581973520874977,-9.05880158841908,-1.1304720566555857
1758972239302946600,10.969946533203125,-3.6079230779066678,-9.050369275638461,-1.11539701792486
1758972239312904700,10.97990478515625,-3.618785248182714,-9.046306263983249,-1.113162244610116
1758972239322862600,10.989862548828125,-3.6196418650120497,-9.045640493550897,-1.1157765918269753
1758972239332820700,10.99982080078125,-3.6182878200545905,-9.045921648579835,-1.1178903691105544
1758972239342778400,11.0097783203125,-3.6179242474392055,-9.046069532617926,-1.1178798477165401
1758972239352736500,11.019736572265625,-3.617815234106779,-9.046335490077734,-1.116075282512605
1758972239362694400,11.0296943359375,-3.6160546541750427,-9.046997168856858,-1.1164235114283858
1758972239372652300,11.03965234375,-3.609017887406051,-9.048756579744815,-1.1248867308039217
1758972239382610400,11.0496103515625,-3.5908091537594795,-9.053316435006261,-1.146267883941531
1758972239392568300,11.059568359375,-3.554982930357754,-9.062675214982033,-1.183391161416471
1758972239402526500,11.0695263671875,-3.4950542390957473,-9.07897869952917,-1.2357676837332545
1758972239412484400,11.079484375,-3.407093631570041,-9.103177321240306,-1.301646515571326
1758972239422443300,11.089443359375,-3.290528860850632,-9.134318893957138,-1.380958391086757
1758972239432401200,11.099401123046874,-3.151477825295925,-9.169173349717259,-1.4713373118005693
1758972239442359300,11.109359375,-3.0062770349398256,-9.201343680959939,-1.5709645378530024
1758972239452317200,11.119317138671875,-2.893799241273105,-9.21911665353775,-1.6745643207982182
1758972239462275300,11.129275390625,-2.878573615090549,-9.207551303428412,-1.7621693928845226
1758972239472233200,11.139233154296875,-2.9873037466615435,-9.162332690042257,-1.8160563197642563
1758972239482191400,11.14919140625,-3.1503464831784367,-9.100575029787421,-1.8507367341317236
1758972239492149200,11.159149169921875,-3.289346373067796,-9.044324150255322,-1.8843463043972848
1758972239502107400,11.169107421875,-3.381388112427294,-9.006734132051468,-1.9014067447915672
1758972239512065500,11.1790654296875,-3.429145596641302,-8.992740678012371,-1.8820076323166488
1758972239522023200,11.189023193359375,-3.430909683704376,-9.003006051439046,-1.8289697234816849
1758972239531981300,11.198981201171875,-3.3865202146187423,-9.03487009321153,-1.7529862617366014
1758972239541939200,11.208939208984376,-3.3049516462177038,-9.08351049773991,-1.6545388931185006
1758972239551897300,11.2188974609375,-3.2000589008525013,-9.14257409660518,-1.5308061304658651
1758972239561855200,11.228855224609376,-3.0856352338150144,-9.203234609273075,-1.396319772478193
1758972239571814400,11.238814453125,-2.9621634601861238,-9.261102276352048,-1.2759092861160635
1758972239581772300,11.248772216796874,-2.8292165867254138,-9.31546456565857,-1.1781436161518095
1758972239591730400,11.25873046875,-2.696697875548899,-9.363712755998968,-1.1041300662402063
1758972239601688300,11.268688232421875,-2.583971075557172,-9.400583812278509,-1.0594855994801968
1758972239611646500,11.278646484375,-2.5086264962375164,-9.42193581238687,-1.0508710620004682
1758972239621604000,11.28860400390625,-2.469422613096237,-9.428186689475178,-1.0870272480089216
1758972239631562200,11.298562255859375,-2.459544193160534,-9.421199899327755,-1.1670536284692585
1758972239641520400,11.308520263671875,-2.4566747752040623,-9.408362629586458,-1.2719525113143026
1758972239651478300,11.318478271484375,-2.437286476384103,-9.398747829023003,-1.3760663812614977
1758972239661436400,11.3284365234375,-2.4003574063070117,-9.396439552080631,-1.4545117030754684
1758972239671394300,11.338394287109375,-2.34759480728209,-9.40283889772892,-1.4985978053003548
1758972239681352400,11.3483525390625,-2.274175350806117,-9.417863448381423,-1.5173609579592942
1758972239691310300,11.358310302734376,-2.178501246293634,-9.43868353357017,-1.5283217663042246
1758972239701268200,11.368268310546876,-2.0680758551120757,-9.461442477867006,-1.5409601524725556
1758972239711226000,11.37822607421875,-1.9536464889861642,-9.483718022561073,-1.5532986789114773
1758972239721185300,11.388185302734374,-1.8434614824317395,-9.505347086045145,-1.5557701835915445
1758972239731143200,11.39814306640625,-1.7483017571821808,-9.524781269833445,-1.5467271915666758
1758972239741101300,11.408101318359375,-1.6791989948615431,-9.539520573803783,-1.5323964683972298
1758972239751059200,11.41805908203125,-1.6395115659870205,-9.549584871700405,-1.512558087722212
1758972239761017300,11.428017333984375,-1.6270220867700873,-9.558120060333609,-1.4715718512088058
1758972239770975200,11.437975341796875,-1.60668408600986,-9.56896995564997,-1.4225933007672429
1758972239780933400,11.447933349609375,-1.5458555232986806,-9.585880758440494,-1.3753526800341904
1758972239790891500,11.4578916015625,-1.443841986631602,-9.60865782291591,-1.3264336046949028
1758972239800849200,11.46784912109375,-1.3178453707002102,-9.633518707928062,-1.2763159672208129
1758972239810807300,11.477807373046875,-1.1836247509766369,-9.656564067950844,-1.2329435662232338
1758972239820765200,11.48776513671875,-1.0469927592623978,-9.676036245661974,-1.203547814260423
1758972239830723300,11.497723388671876,-0.9094154495220631,-9.69152256860733,-1.1906807339027523
1758972239840681200,11.50768115234375,-0.776082499353215,-9.702661802259087,-1.1943249356240033
1758972239850639400,11.517639404296874,-0.6553438039500266,-9.70935340885222,-1.2121717771556229
1758972239860597200,11.52759716796875,-0.5534452719647437,-9.712096570080519,-1.2406702149525284
1758972239870555400,11.537555419921874,-0.4724031020579859,-9.711838795927166,-1.275694620452076
1758972239880514300,11.547514404296875,-0.40840062201842664,-9.70967080423832,-1.3137320901624858
1758972239890472400,11.557472412109375,-0.35014545345921066,-9.70661258571148,-1.3525683090351521
1758972239900430000,11.56743017578125,-0.2811936621828936,-9.703562550491094,-1.39002637142241
1758972239910388200,11.57738818359375,-0.18848688304340466,-9.701037415927647,-1.4229374380297959
1758972239920346400,11.587346435546875,-0.0712506199703319,-9.698657242792844,-1.4496094641171395
1758972239930304300,11.59730419921875,0.057666212523006834,-9.695504331719874,-1.4711333136610687
1758972239940262400,11.607262451171875,0.1810265023011714,-9.691033908307551,-1.4904695900328457
1758972239950220300,11.61722021484375,0.287160041507706,-9.685436526691912,-1.5100436206832528
1758972239960178400,11.627178466796876,0.37237792619653043,-9.679321258682013,-1.5305093394763767
1758972239970136300,11.63713623046875,0.4387778227666393,-9.673272041645646,-1.5510139289751648
1758972239980094200,11.64709423828125,0.49149092009402806,-9.66766706124544,-1.5700395319625735
1758972239990052000,11.657052001953126,0.5377527589228004,-9.662515085309744,-1.58651428142339
1758972240000010200,11.66701025390625,0.5873391755970194,-9.657474168533087,-1.5995739617437124
1758972240009968400,11.676968505859374,0.6502475767895579,-9.651956866416334,-1.60850706365332
1758972240019926300,11.68692626953125,0.7329593238763511,-9.645275196695327,-1.613021472337842
1758972240029884400,11.696884521484375,0.8350326279066502,-9.636924132457375,-1.6133276156775653
1758972240039843300,11.70684326171875,0.9491934792894869,-9.62676864914596,-1.6108236700326204
1758972240049801500,11.716801513671875,1.0651881950359792,-9.61511036005616,-1.607918888501823
1758972240059759400,11.72675927734375,1.1757574516676366,-9.602136312192679,-1.6083990732342004
1758972240069717500,11.736717529296875,1.2777785871192813,-9.588048750129342,-1.6146113718777895
1758972240079675100,11.746675048828125,1.370912651760131,-9.573274374845623,-1.6258517278164624
1758972240089633300,11.75663330078125,1.453742472268641,-9.558767126065492,-1.6391989929065107
1758972240099591200,11.766591064453126,1.5238010740093886,-9.545907059970498,-1.6504824573345482
1758972240109549300,11.77654931640625,1.581050316929072,-9.53581528954506,-1.6549591643571853
1758972240119507200,11.786507080078126,1.6293576901108024,-9.52842751738131,-1.6506499228559433
1758972240129465300,11.79646533203125,1.659830131394416,-9.524618188226222,-1.642253412041068
1758972240139423500,11.806423583984374,1.6342868170760572,-9.529165768527983,-1.6414863731913267
1758972240149381400,11.81638134765625,1.534415260873735,-9.54458019528091,-1.6483092049486934
1758972240159339300,11.82633935546875,1.3813430064901708,-9.567695697930455,-1.6496834159113465
1758972240169297200,11.836297119140625,1.2040140435326843,-9.594470307609438,-1.6330542065411806
1758972240179255300,11.84625537109375,1.0320205233190207,-9.620593759903311,-1.596719449095428
1758972240189213200,11.856213134765625,0.8960846241101622,-9.6425279438138,-1.545664969162643
1758972240199171300,11.86617138671875,0.7757993715628981,-9.660738138765096,-1.4962204086445272
1758972240209130200,11.876130126953125,0.5987583587013184,-9.67880395680964,-1.4603572142332792
1758972240219088400,11.88608837890625,0.32579226224087177,-9.695358201247453,-1.436756412284821
1758972240229046300,11.89604638671875,-0.009963966769218678,-9.70399918834269,-1.415172210855782
1758972240239004400,11.90600439453125,-0.3581622077088803,-9.700831664222479,-1.3914007285155354
1758972240248962300,11.91596240234375,-0.6869387464575469,-9.686441319820284,-1.3679694379150866
1758972240258920200,11.925920166015626,-0.9828438930220902,-9.66375076458454,-1.3477118089146911
1758972240268878300,11.93587841796875,-1.2436688122466206,-9.63564929021597,-1.3333929223135113
1758972240278836200,11.945836181640624,-1.47224010585919,-9.605015082499385,-1.3215845572285354
1758972240288794400,11.95579443359375,-1.6718188214823602,-9.574500117248297,-1.3055001222595572
1758972240298752300,11.965752197265624,-1.8466133705914018,-9.54640448809862,-1.2753589587569236
1758972240308710400,11.97571044921875,-2.0026303001247343,-9.52216027368009,-1.2199594353571535
1758972240318668300,11.985668212890625,-2.1505666529245673,-9.499815755403041,-1.139717000993341
1758972240328626400,11.99562646484375,-2.299527088075131,-9.47529389308691,-1.0494827494472265
1758972240338584000,12.005583984375,-2.45130345742926,-9.444832119327783,-0.9780766786202788
1758972240348542200,12.015542236328125,-2.6110017058238384,-9.40468423333466,-0.9512881134811788
1758972240358500400,12.025500244140625,-2.772650942155719,-9.355548154243825,-0.9779987910784781
1758972240368459300,12.035459228515625,-2.92184898545444,-9.301972046878934,-1.051904788962379
1758972240378417200,12.045417236328126,-3.047425330147147,-9.249342280453442,-1.1546527043186128
1758972240388375300,12.055375244140626,-3.1447268897309897,-9.202100052285195,-1.265871730095893
1758972240398333200,12.065333251953126,-3.2151927570983765,-9.163509917128085,-1.3649296318277715
1758972240408291300,12.075291259765624,-3.274713744342327,-9.132254362642765,-1.4312845567449926
1758972240418249500,12.08524951171875,-3.3377222814410925,-9.105973673960566,-1.4530153270378707
1758972240428207400,12.095207275390624,-3.4008746109247205,-9.085402010574937,-1.4352448386780916
1758972240438165200,12.105165283203124,-3.4537641973301767,-9.071829996818304,-1.3941934279739856
1758972240448123100,12.115123046875,-3.490546698543429,-9.06495426582992,-1.3464976108193396
1758972240458081300,12.125081298828125,-3.513335161195695,-9.062387630212307,-1.3038356961786746
1758972240468039200,12.1350390625,-3.5262741377457973,-9.06204685395062,-1.270858870858699
1758972240477997300,12.144997314453125,-3.5316818420082328,-9.063297730794549,-1.2467061341159045
1758972240487955500,12.15495556640625,-3.5325153702229257,-9.065555154332518,-1.2277791691973805
1758972240497913300,12.164913330078125,-3.5323122488662597,-9.068111853078006,-1.2093339964464307
1758972240507871500,12.17487158203125,-3.5320708413258193,-9.071024525654316,-1.1880061809312552
1758972240517829000,12.1848291015625,-3.5308541590124367,-9.074792353755235,-1.1625862737968564
1758972240527787300,12.194787353515625,-3.529835045097768,-9.078656627967954,-1.1351824993688613
1758972240537745200,12.2047451171875,-3.5292426321625707,-9.082052115625142,-1.1095854821018873
1758972240547704300,12.214704345703124,-3.5268688887685533,-9.085440004497766,-1.0892015233080834
1758972240557662200,12.224662109375,-3.521150218860805,-9.089097357961535,-1.0771300503075123
1758972240567620400,12.234620361328124,-3.5098151703760028,-9.093851274490357,-1.0739954786088317
1758972240577578200,12.244578125,-3.489739473813772,-9.100813514718412,-1.0804050533901899
1758972240587536400,12.254536376953125,-3.4574233043596148,-9.111039725178479,-1.0979819919392466
1758972240597494300,12.264494384765625,-3.4079145925641057,-9.125724668613076,-1.130324172617495
1758972240607452400,12.274452392578125,-3.336387233445048,-9.145631730610132,-1.181675589670241
1758972240617410300,12.284410400390625,-3.2387405136853453,-9.170947373652458,-1.2548634293474257
1758972240627368200,12.2943681640625,-3.114705553215742,-9.200300309386849,-1.3503513636380433
1758972240637326300,12.304326416015625,-2.9734692825764415,-9.229548615702987,-1.4643515445664523
1758972240647284200,12.3142841796875,-2.8476676046952605,-9.24821006155312,-1.5911520242266357
1758972240657242400,12.324242431640625,-2.8178084730044004,-9.23468714763522,-1.717814702851325
1758972240667200300,12.3342001953125,-2.9326386750161646,-9.179455089756846,-1.8186805307880043
1758972240677158400,12.344158447265626,-3.099919779755175,-9.110827543732523,-1.8851194807268679
1758972240687116300,12.3541162109375,-3.225484434010088,-9.058959993851184,-1.9240271574005483
1758972240697074400,12.364074462890626,-3.2879882364571094,-9.035945028966665,-1.9264573071569204
1758972240707032300,12.3740322265625,-3.307582286982238,-9.036577481651305,-1.8895923883572219
1758972240716990200,12.383990234375,-3.3020851508706808,-9.049511197504401,-1.8365651470467448
1758972240726949000,12.39394921875,-3.26929025798887,-9.071683866345882,-1.7851172838822007
1758972240736907300,12.4039072265625,-3.2054443932831287,-9.104175100106,-1.7347826426565647
1758972240746865200,12.413865234375,-3.1226924603164194,-9.144163996145128,-1.6743527238741516
1758972240756823300,12.4238232421875,-3.0400676608607173,-9.185700706148147,-1.5972745987601578
1758972240766781400,12.433781494140625,-2.9562866771072147,-9.22792013771832,-1.5087297616057096
1758972240776739300,12.4437392578125,-2.8532237775176763,-9.2753079118371,-1.413558930440247
1758972240786697500,12.453697509765625,-2.729257790631056,-9.32698899923563,-1.31483844396919
1758972240796655400,12.4636552734375,-2.5972590116754173,-9.377519747555255,-1.2193149269085377
1758972240806613200,12.47361328125,-2.465884502097964,-9.422807334524393,-1.14040907491073
1758972240816571100,12.483571044921876,-2.3394120853483678,-9.460874907112121,-1.0905898358613253
1758972240826529300,12.493529296875,-2.2335442113406954,-9.488347435927391,-1.0737618159834295
1758972240836487200,12.503487060546876,-2.190727544529736,-9.497273085182904,-1.083017208649963
1758972240846445300,12.5134453125,-2.189653193296492,-9.49429553067684,-1.1109268137082458
1758972240856403500,12.523403564453124,-2.1794147078767416,-9.491551200404762,-1.1536971571594477
1758972240866361300,12.533361328125,-2.147043008843064,-9.493061020445824,-1.200998348973319
1758972240876319500,12.543319580078125,-2.093801247999072,-9.499066398340464,-1.246650458405912
1758972240886277000,12.553277099609375,-2.0238893612526354,-9.507639580896496,-1.2957754315808414
1758972240896235300,12.5632353515625,-1.944336808849126,-9.515569789373874,-1.3578973951034248
1758972240906193200,12.573193115234375,-1.8610364482194184,-9.522042784780263,-1.4274648523263633
1758972240916152300,12.58315234375,-1.7812980178549884,-9.527851763319969,-1.489107361768931
1758972240926110200,12.593110107421875,-1.7131158775106072,-9.533140517377852,-1.5345571535624563
1758972240936068400,12.603068359375,-1.658589045292139,-9.537813185364007,-1.56512253382653
1758972240946026200,12.613026123046875,-1.5901592137970029,-9.546349543040991,-1.5839786254659294
