time,seconds_elapsed,z,y,x
1758972228376440000,0.043440185546875,0.8301200866699219,-0.753368079662323,0.5793864130973816
1758972228386398000,0.05339794921875,1.0026394128799438,-1.3412483930587769,0.9406676292419434
1758972228396356000,0.063356201171875,1.0148603916168213,-1.9460610151290894,1.379530429840088
1758972228406315000,0.07331494140625,0.86097252368927,-2.396043062210083,1.9623830318450928
1758972228416273200,0.083273193359375,0.5779203176498413,-2.9317309856414795,2.6232361793518066
1758972228426231000,0.09323095703125,0.2254144847393036,-3.430438995361328,3.254880666732788
1758972228436189000,0.10318896484375,-0.1349618136882782,-3.7625181674957275,3.808553695678711
1758972228446147000,0.11314697265625,-0.5453972816467285,-4.298539638519287,4.077640533447266
1758972228456105000,0.12310498046875,-1.0218687057495117,-3.6473886966705322,3.1420092582702637
1758972228466063000,0.13306298828125,-1.155730128288269,-3.6949820518493652,2.061483144760132
1758972228476021000,0.14302099609375,-1.187638282775879,-3.001230239868164,1.160962700843811
1758972228485980200,0.152980224609375,-1.2223994731903076,-2.0703108310699463,0.07049467414617538
1758972228495938000,0.16293798828125,-1.09492826461792,-1.2285354137420654,-0.7527549862861633
1758972228505896200,0.172896240234375,-0.8915504217147827,-0.4652145504951477,-1.533130407333374
1758972228515854000,0.18285400390625,-0.6840670108795166,0.23933827877044678,-2.1072611808776855
1758972228525812200,0.192812255859375,-0.3965201675891876,0.5778801441192627,-2.4693336486816406
1758972228535769900,0.202769775390625,0.05480891838669777,0.42368096113204956,-2.732271909713745
1758972228545728000,0.21272802734375,0.9347559809684753,-0.16512903571128845,-2.6672775745391846
1758972228555686000,0.222685791015625,1.9770146608352661,-0.9800177216529846,-2.1507949829101562
1758972228565645000,0.23264501953125,2.809135913848877,-1.527505874633789,-1.4369112253189087
1758972228575603000,0.24260302734375,3.130568504333496,-1.7138121128082275,-0.6504698991775513
1758972228585561000,0.25256103515625,2.9222445487976074,-1.922852873802185,0.015106248669326305
1758972228595519000,0.26251904296875,2.542266845703125,-2.4168128967285156,0.3787473142147064
1758972228605477000,0.27247705078125,2.451723575592041,-2.8684868812561035,0.6130631566047668
1758972228615435000,0.28243505859375,2.738795280456543,-3.0975124835968018,0.8157842755317688
1758972228625393200,0.29239306640625,3.278069019317627,-3.0693106651306152,0.9632959961891174
1758972228635351000,0.30235107421875,3.325812816619873,-3.220475912094116,1.0365909337997437
1758972228645310200,0.312310302734375,3.027616262435913,-3.7491977214813232,1.1106101274490356
1758972228655267800,0.322267822265625,2.7385032176971436,-4.550897121429443,1.0355185270309448
1758972228665226000,0.33222607421875,2.9608423709869385,-5.271890163421631,0.9574570059776306
1758972228675184000,0.34218408203125,3.6113147735595703,-5.656710624694824,1.0490330457687378
1758972228685142000,0.35214208984375,4.3059492111206055,-5.768143177032471,1.2991310358047485
1758972228695100200,0.36210009765625,4.87291145324707,-5.644495010375977,1.5773035287857056
1758972228705058000,0.37205810546875,5.2864556312561035,-5.3246049880981445,1.7002699375152588
1758972228715016200,0.38201611328125,5.557851314544678,-4.838469505310059,1.5528525114059448
1758972228724974000,0.39197412109375,5.646068572998047,-4.1691813468933105,1.2912461757659912
1758972228734933200,0.401933349609375,5.577637195587158,-3.4932289123535156,1.1501796245574951
1758972228744891100,0.41189111328125,5.4646477699279785,-2.965141773223877,1.2520047426223755
1758972228754849000,0.42184912109375,5.338456630706787,-2.758678436279297,1.580367922782898
1758972228764807000,0.431806884765625,5.2157745361328125,-2.367018938064575,2.3218910694122314
1758972228774765000,0.44176513671875,5.182262897491455,-2.6626226902008057,2.7110378742218018
1758972228784723000,0.451722900390625,5.100049018859863,-2.6804072856903076,2.8018274307250977
1758972228794681000,0.46168115234375,4.770628929138184,-2.2605843544006348,2.875551700592041
1758972228804639000,0.471638916015625,4.262794017791748,-1.6930599212646484,2.809124708175659
1758972228814598100,0.48159814453125,3.698294162750244,-1.4068055152893066,2.5312907695770264
1758972228824556000,0.49155615234375,3.0645384788513184,-1.1084063053131104,2.3549087047576904
1758972228834514200,0.50151416015625,2.4529411792755127,-0.8372238278388977,2.384410858154297
1758972228844471800,0.511471923828125,2.0428719520568848,-0.612687349319458,2.4820034503936768
1758972228854430000,0.521429931640625,1.8308640718460083,-0.3516477942466736,2.5699167251586914
1758972228864388000,0.53138818359375,1.7081453800201416,-0.28053978085517883,2.5456697940826416
1758972228874346000,0.541345947265625,1.4594935178756714,-0.35577303171157837,2.3114304542541504
1758972228884304100,0.55130419921875,1.0840834379196167,-0.5635570883750916,1.9346860647201538
1758972228894263000,0.561262939453125,0.6433446407318115,-0.736112654209137,1.5038447380065918
1758972228904221200,0.57122119140625,0.2653006315231323,-0.9206380248069763,1.0470836162567139
1758972228914179000,0.581178955078125,0.047321442514657974,-1.0561695098876953,0.554917573928833
1758972228924137200,0.59113720703125,-0.05497776344418526,-1.0232291221618652,0.13093964755535126
1758972228934095000,0.60109521484375,-0.14314304292201996,-0.9461295008659363,-0.16375884413719177
1758972228944053000,0.611052978515625,-0.1290474683046341,-1.018165111541748,-0.31897664070129395
1758972228954011000,0.621010986328125,-0.054241400212049484,-1.0588411092758179,-0.28350546956062317
1758972228963969000,0.630968994140625,-0.038840338587760925,-0.9879786968231201,-0.07942505180835724
1758972228973928000,0.640927978515625,-0.011374360881745815,-1.3187425136566162,-0.1344427615404129
1758972228983886000,0.650885986328125,0.002034388715401292,-1.9905188083648682,-0.9917132258415222
1758972228993844000,0.660843994140625,-0.10366328060626984,-2.2733826637268066,-2.009932041168213
1758972229003802000,0.670802001953125,-0.3156239986419678,-2.4324305057525635,-2.5728585720062256
1758972229013760000,0.680760009765625,-0.3603275716304779,-2.04217529296875,-2.280674457550049
1758972229023718100,0.69071826171875,-0.2601703405380249,-1.0400906801223755,-1.379594087600708
1758972229033676000,0.700676025390625,-0.28803685307502747,0.10055403411388397,-0.24204298853874207
1758972229043634000,0.710634033203125,-0.2860157787799835,1.1301110982894897,0.25826483964920044
1758972229053592000,0.720592041015625,-0.6004970073699951,-0.33686378598213196,-1.4275776147842407
1758972229063551000,0.730551025390625,-0.6933388113975525,0.09598991274833679,-1.7004762887954712
1758972229073508900,0.7405087890625,-0.4710404872894287,1.4392614364624023,-1.4661551713943481
1758972229083467000,0.750467041015625,-0.027783161029219627,1.9224752187728882,-1.371503233909607
1758972229093425200,0.760425048828125,0.3809223175048828,1.4536148309707642,-1.5464462041854858
1758972229103383000,0.770383056640625,0.7522050738334656,0.2886027693748474,-1.8269824981689453
1758972229113341200,0.780341064453125,1.0947051048278809,-1.2414416074752808,-1.7925803661346436
1758972229123299000,0.790299072265625,1.5542594194412231,-2.836437940597534,-1.4223639965057373
1758972229133257200,0.80025732421875,1.9757012128829956,-3.763266086578369,-0.922534167766571
1758972229143216000,0.810216064453125,2.188507556915283,-4.455476760864258,-0.19607789814472198
1758972229153174300,0.82017431640625,2.438950300216675,-5.030378341674805,0.7527475357055664
1758972229163132000,0.8301318359375,2.372877359390259,-2.97297739982605,2.1189944744110107
1758972229173090000,0.840090087890625,2.2177486419677734,-0.7060415744781494,2.2157793045043945
1758972229183048000,0.8500478515625,2.1372897624969482,0.3323012590408325,1.1721596717834473
1758972229193006000,0.860006103515625,1.8013960123062134,0.2524431645870209,0.6103243231773376
1758972229202964000,0.8699638671875,1.0198726654052734,0.5205065608024597,0.08287624269723892
1758972229212922000,0.879922119140625,-0.13174870610237122,1.301724910736084,-0.2100917100906372
1758972229222880000,0.8898798828125,-1.0912028551101685,1.9789316654205322,-0.16458335518836975
1758972229232839200,0.899839111328125,-1.524322509765625,2.2290453910827637,-0.1508515626192093
1758972229242797000,0.909797119140625,-1.5325884819030762,1.3651307821273804,-0.3598093092441559
1758972229252755200,0.919755126953125,-0.8183401226997375,-1.1081762313842773,-0.420731782913208
1758972229262712800,0.929712890625,0.41933414340019226,-1.5009082555770874,0.28619927167892456
1758972229272671000,0.9396708984375,2.0090904235839844,-0.6453118920326233,1.0470523834228516
1758972229282629000,0.949629150390625,3.22348690032959,0.14671461284160614,1.556302547454834
1758972229292587000,0.9595869140625,3.9575541019439697,0.2775333523750305,1.799424409866333
1758972229302545200,0.969545166015625,4.48104190826416,-0.24011273682117462,1.8728827238082886
1758972229312504000,0.979504150390625,5.258194446563721,-0.6456527709960938,1.9432934522628784
1758972229322462200,0.989462158203125,6.327773094177246,-1.014505386352539,2.151008129119873
1758972229332420000,0.999420166015625,6.811183929443359,-1.344985008239746,2.32096004486084
1758972229342378200,1.009378173828125,6.665277481079102,-1.6449214220046997,2.411956548690796
1758972229352336000,1.0193359375,6.1730194091796875,-1.3874517679214478,2.3483262062072754
1758972229362294500,1.02929443359375,5.682984828948975,-0.526689887046814,2.048902988433838
1758972229372252400,1.03925244140625,5.164892196655273,0.4619884192943573,1.577419638633728
1758972229382210600,1.04921044921875,4.5912299156188965,1.1565650701522827,0.8629693984985352
1758972229392168400,1.05916845703125,4.028590679168701,1.239039659500122,-0.028065722435712814
1758972229402127600,1.069127685546875,3.7223517894744873,1.0959312915802002,-0.7501158118247986
1758972229412085500,1.07908544921875,3.6759653091430664,1.0560288429260254,-1.101500153541565
1758972229422043400,1.08904345703125,3.7944552898406982,0.9649192094802856,-1.1283352375030518
1758972229432001300,1.099001220703125,3.7653157711029053,0.4634893536567688,-0.870909571647644
1758972229441959400,1.10895947265625,3.7911388874053955,0.23347321152687073,-0.5518815517425537
1758972229451917300,1.118917236328125,3.989946126937866,-0.739770770072937,-0.2965773344039917
1758972229461875500,1.12887548828125,4.3002848625183105,-1.7112921476364136,-0.12212377786636353
1758972229471833300,1.138833251953125,4.447171688079834,-2.3246943950653076,-0.015721438452601433
1758972229481792500,1.14879248046875,4.5772504806518555,-2.3399956226348877,0.084430992603302
1758972229491750400,1.15875048828125,4.5035319328308105,-2.63057804107666,0.18143025040626526
1758972229501708500,1.16870849609375,3.779120445251465,-3.0818443298339844,0.19656525552272797
1758972229511666400,1.17866650390625,2.749081611633301,-3.4339852333068848,0.10921623557806015
1758972229521624300,1.188624267578125,1.7882790565490723,-3.823021411895752,-0.064668208360672
1758972229531582500,1.19858251953125,1.1506448984146118,-3.942164421081543,-0.3134748339653015
1758972229541540400,1.208540283203125,0.8934945464134216,-0.7659595012664795,-1.3302569389343262
1758972229551498500,1.21849853515625,0.9032904505729675,0.32986578345298767,-1.7894642353057861
1758972229561456400,1.228456298828125,1.1659740209579468,0.7659589648246765,-1.8418503999710083
1758972229571415600,1.23841552734375,1.5965250730514526,2.0461626052856445,-1.7725595235824585
1758972229581373400,1.24837353515625,1.8243558406829834,2.148751974105835,-1.5776240825653076
1758972229591331600,1.25833154296875,1.9932039976119995,2.0890069007873535,-1.3806828260421753
1758972229601289500,1.26828955078125,2.1195645332336426,2.2422597408294678,-1.182556390762329
1758972229611247600,1.27824755859375,2.052578926086426,2.7216856479644775,-1.066734790802002
1758972229621205200,1.288205322265625,1.6805872917175293,3.5599124431610107,-0.8091972470283508
1758972229631163400,1.298163330078125,0.8218805193901062,3.4942269325256348,0.6687130928039551
1758972229641121300,1.308121337890625,-0.211729034781456,2.7915427684783936,2.4549152851104736
1758972229651079400,1.318079345703125,-0.684861421585083,1.9881341457366943,3.197749614715576
1758972229661038300,1.328038330078125,-0.5752292275428772,0.5989022850990295,3.228834867477417
1758972229670996500,1.33799658203125,-0.1746828556060791,-1.3404570817947388,3.087597131729126
1758972229680954400,1.347954345703125,0.30908140540122986,-3.0266308784484863,2.981832265853882
1758972229690912500,1.35791259765625,0.58773273229599,-3.3800809383392334,2.8845582008361816
1758972229700870400,1.367870361328125,0.6139140129089355,-1.8020212650299072,2.3030757904052734
1758972229710828500,1.37782861328125,0.30642545223236084,1.0108752250671387,0.5431721806526184
1758972229720786400,1.387786376953125,-0.06399576365947723,2.392314910888672,-0.7989128828048706
1758972229730744300,1.397744384765625,-0.31691351532936096,2.215461254119873,-1.3679447174072266
1758972229740702500,1.407702392578125,-0.3982515037059784,1.2394005060195923,-1.4440572261810303
1758972229750660400,1.417660400390625,-0.3241562247276306,0.19127701222896576,-1.469833254814148
1758972229760619500,1.42761962890625,-0.24678128957748413,-0.44517239928245544,-1.5503655672073364
1758972229770577400,1.437577392578125,-0.18551313877105713,-0.6929427981376648,-1.559732437133789
1758972229780535600,1.44753564453125,-0.023509319871664047,-0.867099940776825,-1.5217232704162598
1758972229790493400,1.457493408203125,0.16747181117534637,-0.8713993430137634,-1.333711862564087
1758972229800451600,1.46745166015625,0.3459744453430176,-0.6729999780654907,-1.004356861114502
1758972229810409200,1.4774091796875,0.4842931628227234,-0.1318640261888504,-0.5769469738006592
1758972229820367400,1.487367431640625,0.49677354097366333,0.200242817401886,-0.08790721744298935
1758972229830325200,1.4973251953125,0.4855850636959076,0.1347666084766388,0.23217597603797913
1758972229840283400,1.507283447265625,0.4954478144645691,0.031746476888656616,0.31127214431762695
1758972229850242300,1.5172421875,0.48669400811195374,0.002469815546646714,0.2591170370578766
1758972229860200400,1.527200439453125,0.321024626493454,0.13887639343738556,0.18285156786441803
1758972229870158300,1.537158447265625,-0.015127020888030529,0.3506629467010498,0.13404515385627747
1758972229880116500,1.547116455078125,-0.3797001838684082,0.4977959394454956,0.13855308294296265
1758972229890074400,1.557074462890625,-0.5225228667259216,0.4846487045288086,0.1853693276643753
1758972229900032500,1.567032470703125,-0.3141169250011444,0.3401187062263489,0.19225838780403137
1758972229909990400,1.576990478515625,-0.04325932264328003,0.22098830342292786,0.15231044590473175
1758972229919948300,1.5869482421875,0.04788683354854584,0.18207180500030518,0.09716463088989258
1758972229929906400,1.596906494140625,0.020127106457948685,0.1579454243183136,0.010583401657640934
1758972229939865300,1.606865234375,-0.009593771770596504,0.059545353055000305,-0.09461918473243713
1758972229949823500,1.616823486328125,0.05056703835725784,-0.12607750296592712,-0.211319699883461
1758972229959781400,1.626781494140625,0.12116450816392899,-0.2728288769721985,-0.2839805781841278
1758972229969739500,1.636739501953125,0.14535319805145264,-0.34789353609085083,-0.26514723896980286
1758972229979697400,1.646697509765625,0.13607075810432434,-0.2952643930912018,-0.15404735505580902
1758972229989655600,1.656655517578125,0.11112146079540253,-0.1521381288766861,0.04580477252602577
1758972229999613400,1.666613525390625,0.07900214195251465,0.057973023504018784,0.2922014892101288
1758972230009571300,1.6765712890625,0.036562271416187286,0.25581419467926025,0.5190849900245667
1758972230019529200,1.686529296875,-0.022916235029697418,0.33236995339393616,0.6603603363037109
1758972230029488400,1.69648828125,0.0026695525739341974,0.21760769188404083,0.6610122919082642
1758972230039446300,1.7064462890625,0.08928700536489487,-0.14382082223892212,0.5511587858200073
1758972230049404400,1.716404296875,0.14062795042991638,-0.6413072943687439,0.41678205132484436
1758972230059362300,1.7263623046875,0.13138438761234283,-1.0949817895889282,0.3242481052875519
1758972230069320400,1.736320556640625,0.09507724642753601,-1.4825037717819214,0.30436548590660095
1758972230079278600,1.746278564453125,0.055456068366765976,-1.7582863569259644,0.3674600422382355
1758972230089236500,1.756236572265625,0.02010100707411766,-1.952821969985962,0.4858953356742859
1758972230099194600,1.766194580078125,-0.03266819939017296,-2.109130620956421,0.6533775329589844
1758972230109152300,1.77615234375,-0.10063313692808151,-2.236093521118164,0.8344309329986572
1758972230119111400,1.786111328125,-0.1765262931585312,-2.294491767883301,0.9961391687393188
1758972230129069300,1.7960693359375,-0.24774961173534393,-1.8949872255325317,1.0268962383270264
1758972230139027500,1.80602734375,-0.32232025265693665,-1.5204018354415894,1.0422419309616089
1758972230148985300,1.8159853515625,-0.3613443374633789,-1.1817444562911987,0.9877288937568665
1758972230158943500,1.825943603515625,-0.37090882658958435,-0.6854614615440369,0.8217045068740845
1758972230168901400,1.8359013671875,-0.32582390308380127,-0.4754626750946045,0.7251718640327454
1758972230178859500,1.845859619140625,-0.2448238581418991,-0.5045363903045654,0.6677002906799316
1758972230188817400,1.8558173828125,-0.1522875428199768,-0.5542038083076477,0.5612515807151794
1758972230198775600,1.865775634765625,-0.0839494913816452,-0.6353031992912292,0.40980109572410583
1758972230208733400,1.8757333984375,-0.036245621740818024,-0.7238391637802124,0.2495533674955368
1758972230218692600,1.885692626953125,0.0020817930344492197,-0.6914657950401306,0.14166392385959625
1758972230228650200,1.895650146484375,0.028984246775507927,-0.5652047991752625,0.0780750960111618
1758972230238608400,1.9056083984375,0.04003769904375076,-0.4075384736061096,0.036786243319511414
1758972230248566300,1.915566162109375,0.04838590696454048,-0.23015651106834412,0.004325239919126034
1758972230258524400,1.9255244140625,0.04662129655480385,-0.032097216695547104,-0.018736936151981354
1758972230268482600,1.935482666015625,0.04357996955513954,0.18932971358299255,-0.019583821296691895
1758972230278440400,1.9454404296875,0.04199884831905365,0.4293907880783081,-0.0018540926976129413
1758972230288398600,1.955398681640625,0.007162039168179035,0.6454905867576599,0.0200477447360754
1758972230298356500,1.9653564453125,-0.044552020728588104,0.8210128545761108,0.04887593165040016
1758972230308315400,1.9753154296875,-0.08111695945262909,0.9557163715362549,0.08987130224704742
1758972230318273300,1.985273193359375,-0.07956033945083618,1.0485343933105469,0.14359284937381744
1758972230328231400,1.9952314453125,-0.0520019493997097,1.0856636762619019,0.18963171541690826
1758972230338189300,2.005189208984375,-0.018747588619589806,1.0472073554992676,0.21858826279640198
1758972230348147500,2.0151474609375,0.0028932581190019846,0.9276048541069031,0.22196036577224731
1758972230358104800,2.025104736328125,0.015602129511535168,0.7528674006462097,0.21776215732097626
1758972230368062700,2.035062744140625,0.026546655222773552,0.556113600730896,0.22206342220306396
1758972230378020900,2.045020751953125,0.0216594897210598,0.32642072439193726,0.23798593878746033
1758972230387978800,2.054978759765625,-0.06138186901807785,-0.008073372766375542,0.23935319483280182
1758972230397937000,2.06493701171875,-0.08040962368249893,-0.3492642641067505,0.2629767656326294
1758972230407895800,2.074895751953125,-0.06544558703899384,-0.6062302589416504,0.3351910412311554
1758972230417854000,2.08485400390625,-0.015913719311356544,-0.713630199432373,0.4833008944988251
1758972230427811600,2.0948115234375,0.007904262281954288,-0.6575390100479126,0.6737622022628784
1758972230437769700,2.104769775390625,-0.04958299919962883,-0.5381726622581482,0.8297730684280396
1758972230447727600,2.1147275390625,-0.13881993293762207,-0.41810935735702515,0.8993433713912964
1758972230457685800,2.124685791015625,-0.21495625376701355,-0.3076710104942322,0.8964418768882751
1758972230467643600,2.1346435546875,-0.25719985365867615,-0.2383238822221756,0.8287892937660217
1758972230477601800,2.144601806640625,-0.2532535791397095,-0.22157473862171173,0.7019762396812439
1758972230487559700,2.1545595703125,-0.21194101870059967,-0.24088424444198608,0.5262573957443237
1758972230497517800,2.164517822265625,-0.1474885195493698,-0.2698115110397339,0.2987672686576843
1758972230507476700,2.174476806640625,-0.0739341452717781,-0.29095008969306946,0.025046231225132942
1758972230517434600,2.1844345703125,-0.007156978826969862,-0.31292781233787537,-0.25901398062705994
1758972230527392500,2.194392578125,0.045946717262268066,-0.3433922529220581,-0.49475035071372986
1758972230537350700,2.2043505859375,0.06672896444797516,-0.37728363275527954,-0.6166717410087585
1758972230547308800,2.214308837890625,0.05843215063214302,-0.42049849033355713,-0.6116825342178345
1758972230557266700,2.2242666015625,0.04307609796524048,-0.4603508412837982,-0.5186468958854675
1758972230567224800,2.234224853515625,0.036183569580316544,-0.48451581597328186,-0.4187610447406769
1758972230577182700,2.2441826171875,0.05823800712823868,-0.47150787711143494,-0.4439992904663086
1758972230587140900,2.254140869140625,0.12531530857086182,-0.3818315267562866,-0.7609037160873413
1758972230597099800,2.264099853515625,0.20833483338356018,-0.2315053939819336,-1.314273476600647
1758972230607058000,2.274057861328125,0.2825222313404083,-0.07542818039655685,-1.8290419578552246
1758972230617015600,2.284015625,0.35337376594543457,0.02931314706802368,-2.176945447921753
1758972230626973700,2.2939736328125,0.42229771614074707,0.055090680718421936,-2.386691093444824
1758972230636931600,2.303931640625,0.4925154149532318,0.01480451226234436,-2.51236891746521
1758972230646889700,2.3138896484375,0.5610947608947754,-0.10906922817230225,-2.605538845062256
1758972230656847600,2.32384765625,0.6247578859329224,-0.23462902009487152,-2.658552408218384
1758972230666805800,2.3338056640625,0.6809886693954468,-0.2626635730266571,-2.617105722427368
1758972230676763600,2.343763671875,0.7183325886726379,-0.09267614036798477,-2.4589462280273438
1758972230686721800,2.3537216796875,0.7043107748031616,0.31262341141700745,-2.2232789993286133
1758972230696680000,2.363679931640625,0.6089988946914673,0.8541625738143921,-1.9859498739242554
1758972230706638800,2.373638916015625,0.4378942549228668,1.3363547325134277,-1.8348088264465332
1758972230716596500,2.383596435546875,0.24562227725982666,1.6090837717056274,-1.7753816843032837
1758972230726554600,2.3935546875,0.1277928501367569,1.6141639947891235,-1.7849980592727661
1758972230736512800,2.4035126953125,0.08677937090396881,1.3505182266235352,-1.8872754573822021
1758972230746470700,2.413470703125,0.09934736043214798,0.934937059879303,-2.0483198165893555
1758972230756428800,2.4234287109375,0.15840402245521545,0.49513596296310425,-2.142580509185791
1758972230766386700,2.43338671875,0.24361425638198853,0.09522851556539536,-2.077423572540283
1758972230776344800,2.4433447265625,0.3502320349216461,-0.20450280606746674,-1.860758662223816
1758972230786302700,2.453302734375,0.4352228343486786,-0.37284547090530396,-1.5815043449401855
1758972230796262000,2.463261962890625,0.46882206201553345,-0.4025213420391083,-1.3608518838882446
1758972230806219800,2.4732197265625,0.4601694643497467,-0.25018295645713806,-1.21587336063385
1758972230816177700,2.483177734375,0.3973846435546875,0.0009912285022437572,-1.122342586517334
1758972230826135600,2.493135498046875,0.23643171787261963,0.21583695709705353,-1.0803611278533936
1758972230836093700,2.50309375,0.0841553583741188,0.34601545333862305,-1.0817595720291138
1758972230846051600,2.513051513671875,-0.039852075278759,0.36030226945877075,-1.0929993391036987
1758972230856009700,2.523009765625,-0.16414126753807068,0.32049599289894104,-1.096016526222229
1758972230865967900,2.5329677734375,-0.3003923296928406,0.2247484177350998,-1.0882970094680786
1758972230875925800,2.54292578125,-0.39541682600975037,0.14967817068099976,-1.050950527191162
1758972230885884000,2.5528837890625,-0.45548921823501587,0.06916415691375732,-1.0140044689178467
1758972230895841500,2.562841552734375,-0.49270132184028625,-0.030553914606571198,-0.9840553402900696
1758972230905800700,2.57280078125,-0.4920749366283417,-0.16071857511997223,-0.9466555118560791
1758972230915758600,2.582758544921875,-0.4820705056190491,-0.27748432755470276,-0.8917584419250488
1758972230925716700,2.592716796875,-0.4752296507358551,-0.3375207781791687,-0.8220584392547607
1758972230935674600,2.602674560546875,-0.500460684299469,-0.42356565594673157,-0.7331586480140686
1758972230945632800,2.6126328125,-0.5401407480239868,-0.48207610845565796,-0.6063517332077026
1758972230955590700,2.622590576171875,-0.5632542967796326,-0.4951476752758026,-0.4700029194355011
1758972230965548800,2.632548828125,-0.556491494178772,-0.4890815317630768,-0.3358650803565979
1758972230975506700,2.642506591796875,-0.5411354303359985,-0.5142250061035156,-0.1948120892047882
1758972230985464800,2.65246484375,-0.5026633739471436,-0.526605486869812,-0.026615897193551064
1758972230995422700,2.662422607421875,-0.4409528970718384,-0.5366389155387878,0.16970540583133698
1758972231005382000,2.6723818359375,-0.3681415319442749,-0.5457757115364075,0.38781723380088806
1758972231015339500,2.682339599609375,-0.28081169724464417,-0.5302108526229858,0.6195170283317566
1758972231025297700,2.692297607421875,-0.1933944970369339,-0.5170095562934875,0.8528986573219299
1758972231035255600,2.702255615234375,-0.11293507367372513,-0.5126233696937561,1.0676207542419434
1758972231045213700,2.712213623046875,-0.04538532346487045,-0.4883004426956177,1.2274059057235718
1758972231055171800,2.722171875,0.02623746357858181,-0.4628550112247467,1.2868783473968506
1758972231065129700,2.732129638671875,0.08677084743976593,-0.5008066296577454,1.1980477571487427
1758972231075088000,2.742087890625,0.11788402497768402,-0.6426814794540405,0.905510425567627
1758972231085045800,2.752045654296875,0.10252770781517029,-0.8674706816673279,0.3424217998981476
1758972231095003600,2.762003662109375,0.07861704379320145,-1.1355061531066895,-0.4423116445541382
1758972231104961500,2.77196142578125,0.05464912950992584,-1.4339734315872192,-1.1564768552780151
1758972231114920700,2.781920654296875,-0.007700263988226652,-1.7241020202636719,-1.4387937784194946
1758972231124878600,2.791878662109375,-0.1455601304769516,-1.6691255569458008,-1.2202575206756592
1758972231134836700,2.801836669921875,-0.3826935887336731,-1.2361911535263062,-0.7468326687812805
1758972231144794600,2.811794677734375,-0.5858685374259949,-0.821220338344574,-0.26875555515289307
1758972231154752800,2.821752685546875,-0.6925970911979675,-0.592275857925415,0.11073902994394302
1758972231164710700,2.831710693359375,-0.7557952404022217,-0.4605550765991211,0.391106516122818
1758972231174668800,2.841668701171875,-0.8002876043319702,-0.2743820250034332,0.5746638178825378
1758972231184627000,2.851626953125,-0.773470401763916,0.19864678382873535,0.7302172183990479
1758972231194584600,2.86158447265625,-0.4921495020389557,1.0948907136917114,0.903337836265564
1758972231204542700,2.871542724609375,-0.17847226560115814,1.82489812374115,1.0580909252166748
1758972231214501600,2.881501708984375,-0.0518014132976532,1.9020527601242065,1.1881085634231567
1758972231224459800,2.891459716796875,-0.02455727383494377,1.6096113920211792,1.3456569910049438
1758972231234417700,2.901417724609375,-0.03871144354343414,1.180397629737854,1.4157878160476685
1758972231244375800,2.911375732421875,-0.05234310030937195,0.9034312963485718,1.328840732574463
1758972231254333700,2.921333740234375,-0.00009933590627042577,0.9013314247131348,1.2270946502685547
1758972231264291800,2.931291748046875,0.15848897397518158,1.0091865062713623,1.169484257698059
1758972231274249700,2.941249755859375,0.40385425090789795,1.158366084098816,1.0153146982192993
1758972231284207900,2.951207763671875,0.575100302696228,1.2693382501602173,0.5540400147438049
1758972231294165500,2.96116552734375,0.7194042205810547,1.3018079996109009,0.4760302007198334
1758972231304123600,2.97112353515625,0.8869471549987793,1.3266019821166992,0.946148693561554
1758972231314081800,2.981081787109375,0.8817891478538513,1.3625246286392212,1.4884833097457886
1758972231324040700,2.991040771484375,0.7532998919487,1.4150373935699463,1.8597514629364014
1758972231333998600,3.00099853515625,0.5782276391983032,1.3146382570266724,2.0798542499542236
1758972231343956700,3.010956787109375,0.31588366627693176,0.9438745975494385,2.1077773571014404
1758972231353914600,3.02091455078125,0.018611501902341843,0.4280930161476135,1.9799840450286865
1758972231363872500,3.03087255859375,-0.2082677185535431,-0.11061759293079376,1.7683436870574951
1758972231373830700,3.04083056640625,-0.37396854162216187,-0.4918709397315979,1.4353737831115723
1758972231383788300,3.050788330078125,-0.46290773153305054,-0.39017361402511597,0.8170367479324341
1758972231393746400,3.060746337890625,-0.42350199818611145,0.14750289916992188,0.02257455140352249
1758972231403704300,3.070704345703125,-0.18933530151844025,0.6770085692405701,-0.6206573843955994
1758972231413662500,3.080662353515625,0.17097388207912445,0.8962783217430115,-0.9954802989959717
1758972231423620400,3.090620361328125,0.45250436663627625,1.1425045728683472,-0.9871861338615417
1758972231433579500,3.10057958984375,0.5425093173980713,1.492116928100586,-0.5685784816741943
1758972231443537400,3.110537353515625,0.46408697962760925,1.5160068273544312,0.2219046950340271
1758972231453495600,3.12049560546875,0.25321948528289795,1.104407787322998,1.035427451133728
1758972231463453400,3.130453369140625,-0.02112099714577198,0.5850487947463989,1.5085350275039673
1758972231473411600,3.14041162109375,-0.2168891727924347,0.10908334702253342,1.609493374824524
1758972231483369500,3.150369384765625,-0.2681683301925659,-0.22773782908916473,1.4805409908294678
1758972231493327400,3.160327392578125,-0.1889166533946991,-0.4732924699783325,1.243223786354065
1758972231503285500,3.170285400390625,-0.06064736843109131,-0.6644403338432312,0.9774951338768005
1758972231513243400,3.180243408203125,0.06191902607679367,-0.8334386348724365,0.7385401129722595
1758972231523201500,3.190201416015625,0.12967197597026825,-0.996648907661438,0.5702354907989502
1758972231533159400,3.200159423828125,0.144016832113266,-1.0641107559204102,0.4963708817958832
1758972231543118600,3.21011865234375,0.12713557481765747,-1.0227715969085693,0.4987967610359192
1758972231553076500,3.220076416015625,0.11498384177684784,-0.9536707997322083,0.5221436023712158
1758972231563034600,3.23003466796875,0.10624361783266068,-0.9012877345085144,0.5421583652496338
1758972231572992500,3.239992431640625,0.11343041807413101,-0.8484237194061279,0.5875955820083618
1758972231582950400,3.249950439453125,0.1297377496957779,-0.7959024906158447,0.6495175361633301
1758972231592908300,3.259908203125,0.1422375738620758,-0.7690809965133667,0.7048324942588806
1758972231602866400,3.269866455078125,0.14665494859218597,-0.7602280974388123,0.7331488132476807
1758972231612824300,3.27982421875,0.1578279733657837,-0.7554751634597778,0.7291439175605774
1758972231622782500,3.289782470703125,0.1742948442697525,-0.7502627968788147,0.6900319457054138
1758972231632740600,3.29974072265625,0.18945328891277313,-0.7562706470489502,0.6367034912109375
1758972231642698500,3.309698486328125,0.19996318221092224,-0.7778510451316833,0.5899106860160828
1758972231652657400,3.319657470703125,0.2027302086353302,-0.7933354377746582,0.5620124936103821
1758972231662615600,3.329615478515625,0.1817663311958313,-0.7990750670433044,0.5579096078872681
1758972231672573400,3.339573486328125,0.13177214562892914,-0.768984317779541,0.5912595987319946
1758972231682531300,3.34953125,0.07027682662010193,-0.6896498203277588,0.6717536449432373
1758972231692489500,3.359489501953125,0.01233096793293953,-0.5508666038513184,0.7971645593643188
1758972231702447400,3.369447265625,-0.03865045681595802,-0.3484916687011719,0.9598349332809448
1758972231712405500,3.379405517578125,-0.07901066541671753,-0.082628034055233,1.1190948486328125
1758972231722363400,3.38936328125,-0.11457398533821106,0.20668819546699524,1.2132967710494995
1758972231732321500,3.399321533203125,-0.15318049490451813,0.4758262038230896,1.2023969888687134
1758972231742279400,3.409279541015625,-0.18172132968902588,0.7126328945159912,1.1041433811187744
1758972231752237600,3.419237548828125,-0.19610080122947693,0.8997505903244019,0.9457412362098694
1758972231762196500,3.429196533203125,-0.2276342213153839,1.0204378366470337,0.7682220935821533
1758972231772154600,3.439154541015625,-0.2770385146141052,1.0384671688079834,0.6024810671806335
1758972231782112300,3.4491123046875,-0.33735379576683044,0.9412788152694702,0.47524455189704895
1758972231792070400,3.4590703125,-0.38897570967674255,0.7543776631355286,0.38781803846359253
1758972231802028500,3.469028564453125,-0.4206172525882721,0.5275900363922119,0.3297334313392639
1758972231811986400,3.478986328125,-0.4298030436038971,0.28256431221961975,0.24871553480625153
1758972231821944600,3.488944580078125,-0.4193442761898041,0.03512256592512131,0.05253458023071289
1758972231831902500,3.49890234375,-0.39413559436798096,-0.21162356436252594,-0.34732601046562195
1758972231841860600,3.508860595703125,-0.3710286617279053,-0.417072057723999,-0.9210721254348755
1758972231851818500,3.518818603515625,-0.3950549066066742,-0.4602232575416565,-1.4549424648284912
1758972231861776400,3.5287763671875,-0.451181024312973,-0.28967976570129395,-1.7862534523010254
1758972231871734300,3.538734375,-0.45614728331565857,-0.09521226584911346,-2.005409002304077
1758972231881693400,3.548693359375,-0.3647073805332184,-0.011289140209555626,-2.2764337062835693
1758972231891651300,3.5586513671875,-0.18248485028743744,-0.0020266654901206493,-2.6828577518463135
1758972231901609500,3.568609375,0.0014745922526344657,-0.0205747839063406,-3.1278533935546875
1758972231911567400,3.5785673828125,0.14862169325351715,-0.09118051081895828,-3.4145641326904297
1758972231921525500,3.588525390625,0.2243199199438095,-0.20367856323719025,-3.410496234893799
1758972231931483400,3.5984833984375,0.20131047070026398,-0.30668509006500244,-3.179276943206787
1758972231941441500,3.608441650390625,0.1519027054309845,-0.24098704755306244,-2.8391051292419434
1758972231951399700,3.618399658203125,0.1614520102739334,0.19771574437618256,-2.4320549964904785
1758972231961357300,3.628357421875,0.20931407809257507,1.013161301612854,-2.013456344604492
1758972231971315500,3.6383154296875,0.2773740887641907,2.045900344848633,-1.6397045850753784
1758972231981273300,3.6482734375,0.2659347355365753,2.8617372512817383,-1.4191524982452393
1758972231991231500,3.6582314453125,0.14642086625099182,2.963902473449707,-1.4525340795516968
1758972232001190400,3.6681904296875,0.007881359197199345,2.2870171070098877,-1.667786717414856
1758972232011148500,3.6781484375,-0.01968262530863285,0.8611347079277039,-2.0261385440826416
1758972232021106400,3.6881064453125,0.12427321821451187,-0.672005295753479,-2.240994691848755
1758972232031064600,3.698064697265625,0.4263150990009308,-1.6264747381210327,-2.127244472503662
1758972232041022500,3.7080224609375,0.7269912958145142,-1.8935389518737793,-1.7848143577575684
1758972232050980600,3.717980712890625,0.9215525388717651,-1.6380795240402222,-1.4576332569122314
1758972232060938200,3.727938232421875,0.9796363711357117,-1.086081862449646,-1.236800193786621
1758972232070896400,3.737896484375,0.874936580657959,-0.4474765658378601,-1.0959267616271973
1758972232080854500,3.7478544921875,0.6107110381126404,0.14892131090164185,-0.9891390204429626
1758972232090812400,3.7578125,0.29727083444595337,0.5327579379081726,-0.8502642512321472
1758972232100770600,3.7677705078125,0.006284793838858604,0.7519744038581848,-0.7206809520721436
1758972232110728400,3.777728515625,-0.3150375783443451,0.7622153162956238,-0.5867902636528015
1758972232120687400,3.787687255859375,-0.5653544664382935,0.5296497344970703,-0.46697917580604553
1758972232130645500,3.7976455078125,-0.6948445439338684,0.20017224550247192,-0.3731514811515808
1758972232140603600,3.807603759765625,-0.698754608631134,-0.18409021198749542,-0.3124268651008606
1758972232150561500,3.8175615234375,-0.6517897844314575,-0.5563167929649353,-0.29948604106903076
1758972232160519400,3.82751953125,-0.6119856238365173,-0.7821083664894104,-0.2868373692035675
1758972232170477300,3.837477294921875,-0.5971478223800659,-0.8383175730705261,-0.27546167373657227
1758972232180435500,3.847435546875,-0.5923677086830139,-0.8052847981452942,-0.27799752354621887
1758972232190393300,3.857393310546875,-0.5665273070335388,-0.7636576890945435,-0.2925216257572174
1758972232200351500,3.8673515625,-0.5482305884361267,-0.6567501425743103,-0.28691378235816956
1758972232210309600,3.8773095703125,-0.5504239797592163,-0.6030083894729614,-0.26149898767471313
1758972232220267500,3.887267578125,-0.5442590713500977,-0.6546159386634827,-0.2117527276277542
1758972232230225700,3.8972255859375,-0.5355795621871948,-0.7787567377090454,-0.1299862265586853
1758972232240184600,3.9071845703125,-0.5249479413032532,-0.9897481203079224,-0.013084642589092255
1758972232250142500,3.917142578125,-0.4794161319732666,-1.2516071796417236,0.1615542769432068
1758972232260100400,3.927100341796875,-0.35647130012512207,-1.4871432781219482,0.43838852643966675
1758972232270058500,3.93705859375,-0.1434924453496933,-1.5642644166946411,0.8399343490600586
1758972232280016400,3.947016357421875,0.10177669674158096,-1.4395251274108887,1.341554880142212
1758972232289974500,3.956974609375,0.31149157881736755,-1.1486445665359497,1.8463480472564697
1758972232299932400,3.966932373046875,0.4566066861152649,-0.8324080109596252,2.1829841136932373
1758972232309890600,3.976890625,0.5549225807189941,-0.719753623008728,2.1550629138946533
1758972232319848400,3.986848388671875,0.5538360476493835,-0.8563082814216614,1.3175749778747559
1758972232329806600,3.996806640625,0.2718704044818878,-1.0054956674575806,-0.7436882853507996
1758972232339764500,4.006764404296875,0.03213530033826828,-0.9888375401496887,-2.4859540462493896
1758972232349722400,4.016722412109375,0.24508538842201233,-1.1939613819122314,-2.249729871749878
1758972232359681800,4.026681884765625,0.20562292635440826,-1.1302064657211304,-1.3214935064315796
1758972232369640000,4.036639892578125,-0.3511415123939514,-0.87359619140625,-0.8344078063964844
1758972232379597800,4.046597900390625,-0.7361429929733276,-0.5078304409980774,-0.6005383133888245
1758972232389556000,4.056555908203125,-0.8687607049942017,-0.34585195779800415,-0.1700260490179062
1758972232399513600,4.066513671875,-0.9159992933273315,-0.012661732733249664,0.48581862449645996
1758972232409471700,4.0764716796875,-0.737689197063446,0.8561248183250427,1.1418260335922241
1758972232419430000,4.086429931640625,-0.378071665763855,1.8841321468353271,1.568233847618103
1758972232429387800,4.0963876953125,-0.09653186798095703,2.45599627494812,1.6640199422836304
1758972232439346000,4.106345947265625,-0.07931026816368103,2.3781964778900146,1.6729894876480103
1758972232449303800,4.1163037109375,-0.09424740821123123,2.0440988540649414,1.5687930583953857
1758972232459262000,4.126261962890625,-0.03202531114220619,1.8876973390579224,1.407514214515686
1758972232469219800,4.1362197265625,0.07713260501623154,1.688681960105896,1.2686516046524048
1758972232479178000,4.146177978515625,0.22620171308517456,1.4137738943099976,1.1543759107589722
1758972232489137000,4.156136962890625,0.46714669466018677,1.3051246404647827,1.0313738584518433
1758972232499094800,4.1660947265625,0.7226916551589966,1.3378150463104248,0.9348883032798767
1758972232509052700,4.176052734375,0.8783648610115051,1.268998384475708,0.9423427581787109
1758972232519010800,4.1860107421875,0.8973377346992493,1.0227971076965332,0.9694907665252686
1758972232528968700,4.19596875,0.7948712706565857,0.5907623767852783,0.9694020748138428
1758972232538926800,4.2059267578125,0.6011574864387512,-0.0011936287628486753,0.9461976885795593
1758972232548885000,4.215885009765625,0.35526835918426514,-0.6122825741767883,0.8904896974563599
1758972232558843000,4.2258427734375,0.1577526181936264,-1.1349116563796997,0.7993081212043762
1758972232568801000,4.235801025390625,0.06538912653923035,-1.5417324304580688,0.6737344861030579
1758972232578759000,4.245759033203125,0.028923260048031807,-1.7681019306182861,0.448006272315979
1758972232588716800,4.255716796875,-0.09116053581237793,-1.5079227685928345,0.05862602964043617
1758972232598674700,4.2656748046875,-0.4396788477897644,1.209733247756958,-0.6137121319770813
1758972232608632800,4.2756328125,-0.49048396944999695,3.875641345977783,-0.4259049594402313
1758972232618591700,4.285591796875,-0.2706940770149231,4.558650970458984,0.39668023586273193
1758972232628550000,4.2955498046875,-0.01889725774526596,3.8523244857788086,1.3179001808166504
1758972232638507800,4.3055078125,0.034982483834028244,2.561631441116333,1.8152486085891724
1758972232648466000,4.3154658203125,-0.12549054622650146,1.2599886655807495,1.8979028463363647
1758972232658423800,4.325423828125,-0.29347795248031616,0.1102713793516159,1.752550721168518
1758972232668382000,4.3353818359375,-0.2756214439868927,-0.7953327894210815,1.5593910217285156
1758972232678339800,4.34533984375,-0.10660181194543839,-1.3657909631729126,1.4058289527893066
1758972232688297700,4.355297607421875,0.11415427178144455,-1.5773967504501343,1.284637212753296
1758972232698256000,4.365255859375,0.2958202064037323,-1.534537672996521,1.141152024269104
1758972232708213800,4.3752138671875,0.3791387975215912,-1.3990943431854248,0.9442381262779236
1758972232718172000,4.385171875,0.4117414653301239,-1.2277995347976685,0.7141913771629333
1758972232728129800,4.3951298828125,0.42886480689048767,-1.0472865104675293,0.530119776725769
1758972232738088000,4.405087890625,0.4421854019165039,-0.8978927731513977,0.42581868171691895
1758972232748045800,4.4150458984375,0.44356730580329895,-0.8163400888442993,0.4063331186771393
1758972232758005000,4.4250048828125,0.43758586049079895,-0.7521775960922241,0.4825165867805481
1758972232767963000,4.434962890625,0.42570337653160095,-0.6763837933540344,0.6270428895950317
1758972232777920800,4.444920654296875,0.40518423914909363,-0.6247549653053284,0.7577694654464722
1758972232787878700,4.454878662109375,0.383822500705719,-0.6359343528747559,0.8115224242210388
1758972232797836800,4.4648369140625,0.3659686744213104,-0.7312023043632507,0.7711113691329956
1758972232807794700,4.474794677734375,0.3562302887439728,-0.8690091371536255,0.6692584753036499
1758972232817752800,4.4847529296875,0.3509625494480133,-1.0148375034332275,0.5511323809623718
1758972232827711000,4.4947109375,0.3496900796890259,-1.1249144077301025,0.45311447978019714
1758972232837668900,4.5046689453125,0.3273581564426422,-1.203683853149414,0.39243409037590027
1758972232847627000,4.514626953125,0.27330103516578674,-1.2350009679794312,0.38778048753738403
1758972232857585000,4.5245849609375,0.17543813586235046,-1.167604684829712,0.5019400715827942
1758972232867542800,4.534542724609375,0.05074653401970863,-0.9538167119026184,0.7874346971511841
1758972232877500700,4.544500732421875,-0.061824485659599304,-0.6286711096763611,1.1845448017120361
1758972232887459800,4.5544599609375,-0.1344001591205597,-0.2998274564743042,1.4891411066055298
1758972232897417700,4.564417724609375,-0.15746712684631348,0.0011259844759479165,1.6063814163208008
1758972232907375900,4.5743759765625,-0.1582098752260208,0.3019063174724579,1.5534580945968628
1758972232917333800,4.584333740234375,-0.16252446174621582,0.628149688243866,1.4009917974472046
1758972232927292000,4.5942919921875,-0.1867230087518692,0.9893326163291931,1.2131385803222656
1758972232937249800,4.604249755859375,-0.23635634779930115,1.3674399852752686,1.0291908979415894
1758972232947208000,4.6142080078125,-0.309706449508667,1.6783368587493896,0.868443489074707
1758972232957166000,4.624166015625,-0.38825851678848267,1.7642459869384766,0.7021445631980896
1758972232967123700,4.634123779296875,-0.4445268511772156,1.6188764572143555,0.5196807384490967
1758972232977081900,4.644081787109375,-0.4700407385826111,1.315920352935791,0.3128093183040619
1758972232987039700,4.654039794921875,-0.43670886754989624,0.9555384516716003,-0.028608474880456924
1758972232996998000,4.663997802734375,-0.3426385819911957,0.5892478227615356,-0.6159425377845764
1758972233006955800,4.673955810546875,-0.28208494186401367,0.19480784237384796,-1.2365506887435913
1758972233016915000,4.6839150390625,-0.30105677247047424,-0.1551632136106491,-1.616585373878479
1758972233026872800,4.693872802734375,-0.3833255469799042,-0.3174096643924713,-1.667467713356018
1758972233036831000,4.7038310546875,-0.4755833148956299,-0.2905074656009674,-1.5021471977233887
1758972233046788900,4.713788818359375,-0.5047036409378052,-0.2730453908443451,-1.4094058275222778
1758972233056747000,4.7237470703125,-0.44137686491012573,-0.2778196334838867,-1.7464033365249634
1758972233066704600,4.73370458984375,-0.30934906005859375,-0.260726660490036,-2.5649993419647217
1758972233076662800,4.743662841796875,-0.15415574610233307,-0.3300524652004242,-3.312188148498535
1758972233086621000,4.753620849609375,-0.05188982933759689,-0.45637500286102295,-3.5677804946899414
1758972233096578800,4.763578857421875,-0.01750202849507332,-0.5712408423423767,-3.361900806427002
1758972233106537000,4.773536865234375,-0.019147861748933792,-0.7088959217071533,-2.9988462924957275
1758972233116494800,4.783494873046875,-0.04671024903655052,-0.6875437498092651,-2.6476657390594482
1758972233126453000,4.793452880859375,-0.03171824663877487,-0.24519005417823792,-2.308250665664673
1758972233136411000,4.803410888671875,0.024175643920898438,0.5936346054077148,-1.9565017223358154
1758972233146368800,4.81336865234375,0.11349193751811981,1.6888058185577393,-1.6056544780731201
1758972233156327700,4.82332763671875,0.16052550077438354,2.8038525581359863,-1.3113529682159424
1758972233166285800,4.833285888671875,0.08242084085941315,3.344174861907959,-1.2474251985549927
1758972233176243700,4.84324365234375,-0.05206506699323654,3.268653392791748,-1.3729474544525146
1758972233186201900,4.853201904296875,-0.12701360881328583,2.737948417663574,-1.5607506036758423
1758972233196159700,4.86315966796875,-0.05578683316707611,0.9508103132247925,-1.8654745817184448
1758972233206118000,4.873117919921875,0.19025090336799622,-1.2136707305908203,-2.0055270195007324
1758972233216075800,4.88307568359375,0.5783107280731201,-2.4701125621795654,-1.7590045928955078
1758972233226034000,4.893033935546875,0.8833047747612,-2.726344585418701,-1.3992661237716675
1758972233235992000,4.902991943359375,1.0014257431030273,-2.2321324348449707,-1.1943427324295044
1758972233245949700,4.91294970703125,0.927470862865448,-1.2425806522369385,-1.1024826765060425
1758972233255907800,4.922907958984375,0.6530364155769348,-0.34453287720680237,-1.0231937170028687
1758972233265865700,4.93286572265625,0.23843014240264893,0.1512710154056549,-0.9236734509468079
1758972233275823900,4.942823974609375,-0.13382278382778168,0.4688977003097534,-0.7967655658721924
1758972233285781800,4.95278173828125,-0.36684271693229675,0.590202808380127,-0.683070182800293
1758972233295741000,4.962740966796875,-0.43124887347221375,0.5973049402236938,-0.5685122013092041
1758972233305698800,4.97269873046875,-0.4051426947116852,0.488949716091156,-0.45169395208358765
1758972233315657000,4.982656982421875,-0.3863261342048645,0.25660887360572815,-0.3267059326171875
1758972233325614800,4.99261474609375,-0.36750930547714233,-0.012236958369612694,-0.24018970131874084
1758972233335573000,5.002572998046875,-0.34435951709747314,-0.25708186626434326,-0.18706442415714264
1758972233345530600,5.012530517578125,-0.3573261797428131,-0.5355329513549805,-0.1410684436559677
1758972233355488800,5.02248876953125,-0.3839905560016632,-0.7452943921089172,-0.12352433800697327
1758972233365447000,5.032447021484375,-0.3953936696052551,-0.8090302348136902,-0.11238086968660355
1758972233375404500,5.042404541015625,-0.40645164251327515,-0.7504127621650696,-0.09004653245210648
1758972233385362700,5.05236279296875,-0.4312344789505005,-0.7030242085456848,-0.07444946467876434
1758972233395320600,5.062320556640625,-0.46553707122802734,-0.7318617105484009,-0.0706736370921135
1758972233405278700,5.07227880859375,-0.5122504830360413,-0.9115696549415588,-0.08390368521213531
1758972233415236600,5.082236572265625,-0.5149685144424438,-1.1945468187332153,-0.08660386502742767
1758972233425194800,5.09219482421875,-0.41862761974334717,-1.410210371017456,-0.00196381495334208
1758972233435153700,5.102153564453125,-0.2484247237443924,-1.6035993099212646,0.21728438138961792
1758972233445111800,5.11211181640625,-0.06481281667947769,-1.7399640083312988,0.5777895450592041
1758972233455069700,5.122069580078125,0.10515385121107101,-1.712911605834961,0.9600069522857666
1758972233465027800,5.13202783203125,0.21448726952075958,-1.5513360500335693,1.262059211730957
1758972233474985500,5.1419853515625,0.2098754644393921,-1.354693055152893,1.3815281391143799
1758972233484943600,5.151943603515625,0.15835288166999817,-1.2102727890014648,1.220215082168579
1758972233494901800,5.16190185546875,0.04935609921813011,-0.9619508385658264,0.5362809896469116
1758972233504859600,5.171859619140625,-0.1748967170715332,-0.3847024142742157,-0.6802283525466919
1758972233514817800,5.18181787109375,-0.26348942518234253,0.07785618305206299,-1.4857783317565918
1758972233524775700,5.191775634765625,-0.08621211349964142,0.1684739589691162,-1.339002013206482
1758972233534733800,5.20173388671875,-0.04989885166287422,0.07738427072763443,-0.8969542384147644
1758972233544691700,5.211691650390625,-0.36572232842445374,-0.1304837018251419,-0.4726053476333618
1758972233554649900,5.22164990234375,-0.7053600549697876,-0.29037004709243774,-0.00814953912049532
1758972233564607700,5.231607666015625,-0.8163952231407166,-0.22481420636177063,0.5319358110427856
1758972233574565600,5.241565673828125,-0.7857222557067871,0.13092951476573944,1.0081537961959839
1758972233584524500,5.251524658203125,-0.6282069683074951,0.6341894865036011,1.100664496421814
1758972233594482700,5.261482666015625,-0.40258607268333435,0.9757310748100281,0.7830420732498169
1758972233604440600,5.271440673828125,-0.2620164453983307,1.207806944847107,0.6532361507415771
1758972233614398700,5.281398681640625,-0.1369040608406067,1.282814383506775,0.8562249541282654
1758972233624356900,5.29135693359375,-0.1181681826710701,1.4145065546035767,1.0144129991531372
1758972233634314800,5.301314697265625,-0.14219628274440765,1.7475987672805786,1.0874197483062744
1758972233644273000,5.31127294921875,-0.058396730571985245,2.0912249088287354,1.1048640012741089
1758972233654230800,5.321230712890625,0.16883136332035065,2.2289352416992188,1.0783178806304932
1758972233664188700,5.331188720703125,0.47821372747421265,1.9779438972473145,0.9716785550117493
1758972233674146600,5.341146484375,0.8037198781967163,1.6260817050933838,0.6973122358322144
1758972233684104700,5.351104736328125,1.0761122703552246,0.9118210673332214,0.627549946308136
1758972233694062600,5.3610625,1.255538821220398,0.6169255375862122,0.9783678650856018
1758972233704020700,5.371020751953125,1.1945198774337769,0.622326135635376,1.2673578262329102
1758972233713979000,5.380978759765625,0.8992229700088501,0.6156613230705261,1.4501609802246094
1758972233723936800,5.390936767578125,0.4957982897758484,0.4359419047832489,1.5509957075119019
1758972233733895700,5.400895751953125,0.2245180606842041,0.144706591963768,1.5365941524505615
1758972233743853800,5.410853759765625,0.044798363000154495,-0.24842312932014465,1.4403762817382812
1758972233753811700,5.420811767578125,-0.06839556992053986,-0.6324416399002075,1.2520045042037964
1758972233763769600,5.43076953125,-0.1283441185951233,-0.9499836564064026,0.9398044943809509
1758972233773727700,5.440727783203125,-0.19572369754314423,-1.0567960739135742,0.47671833634376526
1758972233783685600,5.450685546875,-0.1736396998167038,-0.6918442249298096,-0.16328425705432892
1758972233793643800,5.460643798828125,-0.07863488793373108,0.9205639958381653,-0.6564944982528687
1758972233803601700,5.4706015625,0.1442359983921051,2.536203145980835,-0.41853973269462585
1758972233813559800,5.480559814453125,0.3665279150009155,3.2710683345794678,0.5047672986984253
1758972233823517700,5.490517578125,0.3842321038246155,3.0655553340911865,1.434195876121521
1758972233833475800,5.500475830078125,0.14758706092834473,2.295100450515747,1.8835358619689941
1758972233843433700,5.510433837890625,-0.1436101645231247,1.3116127252578735,1.8404695987701416
1758972233853391600,5.5203916015625,-0.28154221177101135,0.3931635320186615,1.5406019687652588
1758972233863349800,5.530349853515625,-0.26398104429244995,-0.2838362455368042,1.2136043310165405
1758972233873307600,5.5403076171875,-0.11964783817529678,-0.7646113634109497,0.9408609867095947
1758972233883265800,5.550265869140625,0.07333200424909592,-1.127636432647705,0.7399060130119324
1758972233893224700,5.560224609375,0.26750680804252625,-1.3770138025283813,0.6148415803909302
1758972233903182800,5.570182861328125,0.3728652000427246,-1.4553145170211792,0.6122916340827942
1758972233913140700,5.580140625,0.3553607761859894,-1.4155044555664062,0.692180871963501
1758972233923099000,5.590098876953125,0.27435192465782166,-1.3319743871688843,0.8093039989471436
1758972233933056800,5.600056884765625,0.19864384829998016,-1.1780942678451538,0.9541014432907104
1758972233943014700,5.6100146484375,0.15979765355587006,-0.9784533381462097,1.0946779251098633
1758972233952972500,5.61997265625,0.1466541588306427,-0.7755830883979797,1.1770918369293213
1758972233962930700,5.6299306640625,0.1423928290605545,-0.6261536478996277,1.1597459316253662
1758972233972888800,5.639888916015625,0.14150840044021606,-0.5630191564559937,1.0292047262191772
1758972233982846700,5.6498466796875,0.17032353579998016,-0.5647389888763428,0.8198608160018921
1758972233992804900,5.659804931640625,0.2064698189496994,-0.6065234541893005,0.5943059921264648
1758972234002762800,5.6697626953125,0.2310662418603897,-0.6647553443908691,0.4106522500514984
1758972234012721000,5.679720947265625,0.233976811170578,-0.7098149657249451,0.30642277002334595
1758972234022678500,5.689678466796875,0.21980959177017212,-0.7128688097000122,0.30949339270591736
1758972234032636700,5.69963671875,0.1908423900604248,-0.6733331680297852,0.41199979186058044
1758972234042594600,5.709594482421875,0.13168692588806152,-0.5976506471633911,0.6060395836830139
1758972234052553700,5.7195537109375,0.04968606308102608,-0.5030695199966431,0.8510549068450928
1758972234062511600,5.72951171875,-0.03552177548408508,-0.3852539360523224,1.0951136350631714
1758972234072469800,5.7394697265625,-0.10466702282428741,-0.2316790372133255,1.2674745321273804
1758972234082427600,5.749427734375,-0.13392610847949982,-0.028654547408223152,1.3419415950775146
1758972234092385800,5.7593857421875,-0.10869532078504562,0.2315991371870041,1.3230088949203491
1758972234102343700,5.76934375,-0.05309464409947395,0.5213223099708557,1.2348880767822266
1758972234112301800,5.7793017578125,-0.009163671173155308,0.795731782913208,1.0945578813552856
1758972234122259700,5.789259765625,0.010905378498136997,1.0167381763458252,0.9229640364646912
1758972234132217600,5.799217529296875,0.008852347731590271,1.1511350870132446,0.7303415536880493
1758972234142175700,5.80917578125,-0.02913125418126583,1.1159098148345947,0.5359816551208496
1758972234152133600,5.819133544921875,-0.08961883187294006,0.9085866808891296,0.3378046751022339
1758972234162091800,5.829091796875,-0.15175597369670868,0.6404194235801697,0.12232804298400879
1758972234172049700,5.839049560546875,-0.20158079266548157,0.3615792393684387,-0.17798997461795807
1758972234182007800,5.8490078125,-0.24727822840213776,0.06449536979198456,-0.5890709757804871
1758972234191965700,5.858965576171875,-0.3303574025630951,-0.14986112713813782,-0.9796307682991028
1758972234201923600,5.868923583984375,-0.4812110960483551,-0.14228124916553497,-1.1620335578918457
1758972234211882800,5.8788828125,-0.6578196883201599,-0.031094003468751907,-1.1373714208602905
1758972234221840600,5.888840576171875,-0.6969332695007324,-0.004366785287857056,-1.1938806772232056
1758972234231798500,5.898798583984375,-0.5632756352424622,-0.045458294451236725,-1.5902069807052612
1758972234241756700,5.908756591796875,-0.3871610462665558,-0.07831238210201263,-2.373521089553833
1758972234251714800,5.91871484375,-0.25450313091278076,-0.15635737776756287,-3.114428997039795
1758972234261672700,5.928672607421875,-0.12856782972812653,-0.29364919662475586,-3.441641092300415
1758972234271630800,5.938630859375,-0.01991059072315693,-0.45003214478492737,-3.360813617706299
1758972234281588700,5.948588623046875,0.04141188785433769,-0.5049214959144592,-3.0634095668792725
1758972234291547000,5.958546875,0.05245868116617203,-0.47529301047325134,-2.7844176292419434
1758972234301504500,5.96850439453125,0.05299796909093857,-0.3115387260913849,-2.569573402404785
1758972234311462700,5.978462646484375,0.09316190332174301,0.19418172538280487,-2.3581926822662354
1758972234321420500,5.988420654296875,0.16327467560768127,1.1503695249557495,-2.0582218170166016
1758972234331378700,5.998378662109375,0.2039661854505539,2.245771646499634,-1.7376869916915894
1758972234341336800,6.0083369140625,0.11577852815389633,3.0322461128234863,-1.5558711290359497
1758972234351294700,6.018294677734375,-0.11335159093141556,3.2013068199157715,-1.5841044187545776
1758972234361252900,6.0282529296875,-0.3221109211444855,2.713871479034424,-1.6453059911727905
1758972234371211800,6.038211669921875,-0.31860193610191345,1.2543938159942627,-1.8052191734313965
1758972234381170000,6.048169921875,-0.08838605135679245,-0.37553128600120544,-1.891974925994873
1758972234391127800,6.0581279296875,0.27666568756103516,-1.3768366575241089,-1.8062211275100708
1758972234401085700,6.068085693359375,0.6495540142059326,-1.5375571250915527,-1.5650883913040161
1758972234411043600,6.078043701171875,0.8681343197822571,-1.1384899616241455,-1.3447104692459106
1758972234421001700,6.088001708984375,0.8275360465049744,-0.6097807884216309,-1.2231634855270386
1758972234430959600,6.097959716796875,0.5914755463600159,-0.20769540965557098,-1.1285110712051392
1758972234440917800,6.107917724609375,0.31956762075424194,0.02231915481388569,-1.0040857791900635
1758972234450875600,6.117875732421875,0.01938221976161003,0.11207274347543716,-0.8703399300575256
1758972234460833800,6.127833740234375,-0.22057950496673584,0.1074894443154335,-0.7627125382423401
1758972234470792000,6.1377919921875,-0.38226136565208435,0.1282368004322052,-0.6925294995307922
1758972234480749600,6.14774951171875,-0.4540351331233978,0.22645658254623413,-0.614246666431427
1758972234490707700,6.157707763671875,-0.4593723714351654,0.2861502766609192,-0.5035539865493774
1758972234500665600,6.16766552734375,-0.4300467073917389,0.16549335420131683,-0.39649727940559387
1758972234510623700,6.177623779296875,-0.4015255868434906,-0.11394361406564713,-0.27662041783332825
1758972234520582700,6.187582763671875,-0.38071832060813904,-0.44694820046424866,-0.19042746722698212
1758972234530540800,6.197540771484375,-0.35392823815345764,-0.6750250458717346,-0.14622938632965088
1758972234540498700,6.207498779296875,-0.33864277601242065,-0.7416200637817383,-0.12889699637889862
1758972234550456800,6.217456787109375,-0.3303917646408081,-0.6688768863677979,-0.12370117008686066
1758972234560414700,6.227414794921875,-0.34642931818962097,-0.5667774081230164,-0.12617337703704834
1758972234570372900,6.237372802734375,-0.3797404170036316,-0.4864346385002136,-0.14488928020000458
1758972234580330500,6.24733056640625,-0.43215009570121765,-0.49000486731529236,-0.1666712760925293
1758972234590288600,6.25728857421875,-0.47842755913734436,-0.5994860529899597,-0.18407316505908966
1758972234600246800,6.267246826171875,-0.45053336024284363,-0.786031186580658,-0.1893070787191391
1758972234610204700,6.27720458984375,-0.3128660321235657,-0.9893006682395935,-0.1209125742316246
1758972234620162800,6.287162841796875,-0.09241568297147751,-1.3538967370986938,0.14661447703838348
1758972234630120700,6.29712060546875,0.17589379847049713,-1.7739688158035278,0.6573507189750671
1758972234640078800,6.307078857421875,0.4120842218399048,-1.9861946105957031,1.2425897121429443
1758972234650036700,6.31703662109375,0.5468518733978271,-2.064307451248169,1.7096256017684937
1758972234659994600,6.32699462890625,0.5689670443534851,-2.054428815841675,1.8161112070083618
1758972234669952500,6.336952392578125,0.4269055128097534,-1.8843193054199219,1.2459114789962769
1758972234679911700,6.34691162109375,0.0801885798573494,-1.4092355966567993,-0.5282089710235596
1758972234689869600,6.35686962890625,-0.3297906816005707,-0.8333789706230164,-2.2802042961120605
1758972234699827700,6.36682763671875,-0.21581432223320007,-0.7943210601806641,-2.184549331665039
1758972234709785600,6.37678564453125,-0.08846887946128845,-0.8828067183494568,-1.3405561447143555
1758972234719743700,6.38674365234375,-0.33090388774871826,-0.5101737976074219,-0.8672932982444763
1758972234729701600,6.39670166015625,-0.5200319886207581,-0.049552373588085175,-0.617688000202179
1758972234739659800,6.40665966796875,-0.7006132006645203,0.1825498342514038,-0.11892851442098618
1758972234749618000,6.416617919921875,-0.7431508302688599,0.4820502698421478,0.5868885517120361
1758972234759575600,6.426575439453125,-0.6339146494865417,1.1346038579940796,1.2780104875564575
1758972234769533700,6.43653369140625,-0.34373739361763,2.107042074203491,1.701689600944519
1758972234779491600,6.44649169921875,0.15988872945308685,2.9439523220062256,1.9246861934661865
1758972234789449700,6.45644970703125,0.3963809013366699,3.011521339416504,2.0932741165161133
1758972234799407600,6.46640771484375,0.23991192877292633,2.491023302078247,2.071629047393799
1758972234809365800,6.47636572265625,0.03574494644999504,1.8227286338806152,1.8805915117263794
1758972234819324000,6.486323974609375,0.05428347736597061,1.2051695585250854,1.6285514831542969
1758972234829281800,6.49628173828125,0.1810707151889801,0.6629135012626648,1.217154622077942
1758972234839240700,6.50624072265625,0.26250165700912476,0.4191434681415558,0.45010536909103394
1758972234849198800,6.51619873046875,0.5088016986846924,0.8902955651283264,-0.014326474629342556
1758972234859156700,6.52615673828125,0.7845275402069092,1.3373692035675049,0.03517982363700867
1758972234869114600,6.536114501953125,0.9089347720146179,1.4190824031829834,0.24320146441459656
1758972234879072800,6.54607275390625,0.874123215675354,1.2629916667938232,0.467507004737854
1758972234889030700,6.55603076171875,0.756068229675293,0.9942057132720947,0.6793683767318726
1758972234898988800,6.56598876953125,0.5766537189483643,0.572711706161499,0.8107029795646667
1758972234908946700,6.57594677734375,0.40640637278556824,0.02436046674847603,0.8782833814620972
1758972234918904800,6.58590478515625,0.26672011613845825,-0.5631831884384155,0.878301739692688
1758972234928862700,6.59586279296875,0.13875068724155426,-1.0939594507217407,0.7725667953491211
1758972234938820600,6.605820556640625,-0.002829342382028699,-1.3352551460266113,0.5306934118270874
1758972234948778800,6.61577880859375,-0.2594534158706665,-0.25266313552856445,0.1978720724582672
1758972234958736600,6.625736572265625,-0.2644212543964386,1.1333379745483398,0.0807156190276146
1758972234968694800,6.63569482421875,-0.08582010120153427,1.8080847263336182,0.2197536677122116
1758972234978652700,6.645652587890625,0.04866047948598862,1.7987911701202393,0.3901059627532959
1758972234988611600,6.655611572265625,0.010689661838114262,1.4184224605560303,0.49675703048706055
1758972234998569700,6.66556982421875,-0.09674865007400513,0.9659242630004883,0.5847958326339722
1758972235008528000,6.67552783203125,-0.22229725122451782,0.5030394196510315,0.6762317419052124
1758972235018485800,6.68548583984375,-0.31133630871772766,0.10221158713102341,0.8185827136039734
1758972235028444000,6.69544384765625,-0.3154381215572357,-0.17542055249214172,1.0193378925323486
1758972235038401500,6.705401611328125,-0.22245357930660248,-0.2959858477115631,1.2382612228393555
1758972235048359700,6.715359619140625,-0.08411701023578644,-0.29962852597236633,1.3865175247192383
1758972235058317600,6.725317626953125,0.051309794187545776,-0.28373903036117554,1.395267367362976
1758972235068275700,6.735275634765625,0.13658420741558075,-0.3384752571582794,1.2753551006317139
1758972235078233600,6.745233642578125,0.19760894775390625,-0.45004600286483765,1.0680298805236816
1758972235088191700,6.755191650390625,0.25341150164604187,-0.5609205961227417,0.8737171292304993
1758972235098150000,6.76514990234375,0.30921056866645813,-0.6398255228996277,0.7808260321617126
1758972235108107800,6.775107666015625,0.3206925392150879,-0.6602514386177063,0.8480535745620728
1758972235118066000,6.78506591796875,0.29445984959602356,-0.6063652634620667,1.09260892868042
1758972235128024800,6.79502490234375,0.26847246289253235,-0.4744812846183777,1.3996570110321045
1758972235137982700,6.804982666015625,0.2630457580089569,-0.31094056367874146,1.573490858078003
1758972235147940600,6.814940673828125,0.2606230676174164,-0.17701312899589539,1.5455085039138794
1758972235157898800,6.824898681640625,0.25494733452796936,-0.10030928999185562,1.357829213142395
1758972235167856600,6.834856689453125,0.25167644023895264,-0.06893245875835419,1.0860506296157837
1758972235177814800,6.844814697265625,0.259868323802948,-0.04736112430691719,0.8316996097564697
1758972235187772700,6.854772705078125,0.27126187086105347,0.013484915718436241,0.6679484844207764
1758972235197730800,6.864730712890625,0.27757036685943604,0.12670361995697021,0.6416098475456238
1758972235207688700,6.874688720703125,0.27315858006477356,0.2748235762119293,0.7253878116607666
1758972235217646600,6.884646484375,0.25291508436203003,0.3970932960510254,0.8455773591995239
1758972235227604700,6.894604736328125,0.20096665620803833,0.43033885955810547,0.9290786385536194
1758972235237562600,6.904562744140625,0.1185426265001297,0.36532363295555115,0.9515839219093323
1758972235247520800,6.914520751953125,0.028299281373620033,0.26143771409988403,0.9611207246780396
1758972235257478700,6.924478759765625,-0.04029868543148041,0.1954302191734314,1.0058727264404297
1758972235267436800,6.934436767578125,-0.06873805075883865,0.2007536143064499,1.089608073234558
1758972235277395700,6.944395751953125,-0.06715959310531616,0.25905072689056396,1.1635185480117798
1758972235287353900,6.954353759765625,-0.05269410461187363,0.32245129346847534,1.1539322137832642
1758972235297311700,6.964311767578125,-0.03472628816962242,0.3401075005531311,1.0414520502090454
1758972235307270000,6.974269775390625,-0.026980219408869743,0.2839917838573456,0.8394416570663452
1758972235317227500,6.9842275390625,-0.031009048223495483,0.16865745186805725,0.6125390529632568
1758972235327185700,6.994185546875,-0.04994731768965721,0.0641198605298996,0.4352489411830902
1758972235337143600,7.0041435546875,-0.08978874236345291,0.009221461601555347,0.3244401216506958
1758972235347101700,7.014101806640625,-0.12732653319835663,-0.00980629213154316,0.19397640228271484
1758972235357059800,7.024059814453125,-0.15833264589309692,-0.06474890559911728,-0.07557651400566101
1758972235367017500,7.034017578125,-0.18529342114925385,-0.18793074786663055,-0.49302008748054504
1758972235376975600,7.0439755859375,-0.2468193769454956,-0.30380916595458984,-0.8293879628181458
1758972235386933200,7.053933349609375,-0.37850522994995117,-0.2477743774652481,-0.9261121153831482
1758972235396891400,7.063891357421875,-0.48176395893096924,0.002251702593639493,-0.9178158640861511
1758972235406849300,7.073849365234375,-0.4918088912963867,0.23635980486869812,-1.057464599609375
1758972235416808400,7.083808349609375,-0.39438486099243164,0.29783859848976135,-1.563299298286438
1758972235426766300,7.093766357421875,-0.2687219977378845,0.17299920320510864,-2.374998092651367
1758972235436724500,7.103724365234375,-0.19335082173347473,-0.11023063212633133,-3.0881106853485107
1758972235446682400,7.113682373046875,-0.17924273014068604,-0.42208999395370483,-3.4153356552124023
1758972235456640500,7.123640625,-0.1765396147966385,-0.6674454212188721,-3.427717447280884
1758972235466598400,7.133598388671875,-0.1485937386751175,-0.8031449317932129,-3.275400400161743
1758972235476556500,7.143556640625,-0.11096726357936859,-0.8039398789405823,-3.019024610519409
1758972235486514400,7.153514404296875,-0.08140670508146286,-0.7513294219970703,-2.7264671325683594
1758972235496472300,7.163472412109375,-0.05606779456138611,-0.5072834491729736,-2.4062907695770264
1758972235506430500,7.173430419921875,-0.011354653164744377,0.10638875514268875,-2.038933753967285
1758972235516388400,7.183388427734375,-0.0005283711361698806,1.000110149383545,-1.6731511354446411
1758972235526346500,7.193346435546875,-0.05078355222940445,1.8694990873336792,-1.3743234872817993
1758972235536304400,7.203304443359375,-0.17589379847049713,2.246736526489258,-1.2701786756515503
1758972235546262500,7.213262451171875,-0.3217221200466156,2.0880839824676514,-1.4102028608322144
1758972235556220400,7.223220458984375,-0.36944594979286194,1.6874324083328247,-1.6395940780639648
1758972235566179600,7.2331796875,-0.259905606508255,1.20041823387146,-1.8741666078567505
1758972235576137500,7.243137451171875,-0.0737336054444313,0.6054619550704956,-2.0606629848480225
1758972235586095400,7.253095458984375,0.11747869104146957,-0.09064361453056335,-2.072279930114746
1758972235596053200,7.26305322265625,0.2627272307872772,-0.7681917548179626,-1.9177228212356567
1758972235606011400,7.273011474609375,0.3411770462989807,-1.4256361722946167,-1.612186312675476
1758972235615969500,7.282969482421875,0.28944966197013855,-2.0889546871185303,-1.2353339195251465
1758972235625927400,7.292927490234375,0.1550084948539734,-2.313415050506592,-0.9950997233390808
1758972235635885600,7.302885498046875,-0.033186715096235275,-1.9328488111495972,-0.9396500587463379
1758972235645843500,7.312843505859375,-0.18714991211891174,-1.1088683605194092,-0.9925215244293213
1758972235655801600,7.322801513671875,-0.2520034909248352,-0.3151419758796692,-0.9898719191551208
1758972235665759200,7.33275927734375,-0.25473296642303467,0.17616410553455353,-0.8992879986763
1758972235675717400,7.34271728515625,-0.23158235847949982,0.2694794237613678,-0.7685073018074036
1758972235685675300,7.35267529296875,-0.18645216524600983,0.1059567928314209,-0.6379884481430054
1758972235695633400,7.36263330078125,-0.12117409706115723,-0.1550700068473816,-0.5259112119674683
1758972235705592300,7.37259228515625,-0.05672479793429375,-0.35197216272354126,-0.44410261511802673
1758972235715550500,7.382550537109375,-0.049065012484788895,-0.3931874930858612,-0.3970181941986084
1758972235725508400,7.39250830078125,-0.12018179893493652,-0.2985270321369171,-0.33514416217803955
1758972235735466500,7.402466552734375,-0.258450448513031,-0.27046504616737366,-0.2626936733722687
1758972235745424400,7.41242431640625,-0.4259401261806488,-0.3469963073730469,-0.19756340980529785
1758972235755382500,7.422382568359375,-0.5707548260688782,-0.42533984780311584,-0.14748185873031616
1758972235765340400,7.43234033203125,-0.6619390845298767,-0.5264992117881775,-0.10604148358106613
1758972235775298300,7.44229833984375,-0.6630165576934814,-0.6628695726394653,-0.07136605679988861
1758972235785256400,7.45225634765625,-0.6087597608566284,-0.9020006656646729,-0.006726878695189953
1758972235795214300,7.46221435546875,-0.5162883996963501,-1.1471291780471802,0.1126631647348404
1758972235805172500,7.47217236328125,-0.38910701870918274,-1.2813818454742432,0.2948164641857147
1758972235815130400,7.48213037109375,-0.23806315660476685,-1.3040679693222046,0.537065863609314
1758972235825088500,7.492088623046875,-0.038911979645490646,-1.1974937915802002,0.8612532615661621
1758972235835046700,7.502046630859375,0.20127426087856293,-1.0215656757354736,1.2590421438217163
1758972235845005600,7.512005615234375,0.42278215289115906,-0.8971047401428223,1.6448756456375122
1758972235854963500,7.52196337890625,0.5711005330085754,-0.859476625919342,1.9171875715255737
1758972235864921300,7.53192138671875,0.6277888417243958,-0.9554497599601746,1.9598939418792725
1758972235874879500,7.54187939453125,0.6098907589912415,-1.1844379901885986,1.550595760345459
1758972235884837400,7.55183740234375,0.5120891332626343,-1.4432852268218994,0.26517680287361145
1758972235894795500,7.56179541015625,0.26139405369758606,-1.6702121496200562,-1.5915931463241577
1758972235904753400,7.57175341796875,0.07480952888727188,-1.9129445552825928,-2.5536437034606934
1758972235914711600,7.581711669921875,0.12455284595489502,-1.8312281370162964,-2.0210535526275635
1758972235924669400,7.59166943359375,-0.011506454087793827,-1.2895259857177734,-0.9495357275009155
1758972235934627600,7.601627685546875,-0.44875115156173706,-0.744493842124939,-0.1648786962032318
1758972235944585200,7.611585205078125,-0.6987303495407104,-0.33411353826522827,0.2769935131072998
1758972235954543400,7.62154345703125,-0.8118377327919006,-0.15552088618278503,0.5929669141769409
1758972235964501500,7.63150146484375,-0.98768550157547,-0.13046053051948547,0.9171513915061951
1758972235974459400,7.64145947265625,-0.9837285280227661,0.4831189811229706,1.1822086572647095
1758972235984418300,7.651418212890625,-0.5571244955062866,1.762352466583252,1.3973217010498047
1758972235994376400,7.66137646484375,-0.12439625710248947,2.698078155517578,1.448472261428833
1758972236004334300,7.671334228515625,0.02334314025938511,2.8830785751342773,1.3505162000656128
1758972236014292500,7.68129248046875,-0.07240575551986694,2.584547996520996,1.228413701057434
1758972236024250600,7.691250732421875,-0.07427449524402618,2.195775270462036,1.062427043914795
1758972236034208500,7.70120849609375,0.01395869255065918,1.7785588502883911,0.9568008184432983
1758972236044166400,7.71116650390625,0.15112507343292236,1.466106653213501,0.922766923904419
1758972236054124300,7.721124267578125,0.33689385652542114,1.3289456367492676,0.8976096510887146
1758972236064082400,7.73108251953125,0.5810990929603577,1.2996026277542114,0.7723201513290405
1758972236074040300,7.741040283203125,0.7829920053482056,0.848407506942749,0.5655470490455627
1758972236083998500,7.75099853515625,0.9513538479804993,0.7119172811508179,0.8024455904960632
1758972236093956400,7.760956298828125,0.9137459993362427,0.8724182844161987,1.1248526573181152
1758972236103914500,7.77091455078125,0.6235538721084595,0.9942184686660767,1.3439186811447144
1758972236113872600,7.78087255859375,0.3134703040122986,0.8588193655014038,1.4765691757202148
1758972236123831600,7.79083154296875,0.17538513243198395,0.5466406941413879,1.5185834169387817
1758972236133789400,7.80078955078125,0.11548212170600891,0.0904364213347435,1.428901195526123
1758972236143747300,7.810747314453125,0.03671034425497055,-0.4047088623046875,1.2431985139846802
1758972236153705500,7.82070556640625,-0.03941771388053894,-0.8328958749771118,0.9332616329193115
1758972236163663400,7.830663330078125,-0.12122229486703873,-1.058586835861206,0.5011858940124512
1758972236173621500,7.84062158203125,-0.11497318744659424,-0.8070725798606873,-0.03501550853252411
1758972236183579400,7.850579345703125,-0.03122689574956894,0.7546298503875732,-0.2859172523021698
1758972236193537500,7.86053759765625,0.19173695147037506,2.1893794536590576,-0.0408686026930809
1758972236203495400,7.870495361328125,0.40188539028167725,2.6647274494171143,0.46167415380477905
1758972236213453600,7.88045361328125,0.3878744840621948,2.3856935501098633,0.9603955149650574
1758972236223411200,7.8904111328125,0.1444823443889618,1.6618192195892334,1.2670724391937256
1758972236233369300,7.900369384765625,-0.10458207130432129,0.8430420160293579,1.3862664699554443
1758972236243327500,7.910327392578125,-0.2136790007352829,0.14357660710811615,1.4024072885513306
1758972236253285400,7.920285400390625,-0.1903907209634781,-0.3174962103366852,1.3615515232086182
1758972236263244300,7.930244384765625,-0.10186351090669632,-0.5683486461639404,1.2768629789352417
1758972236273202400,7.940202392578125,0.0139554962515831,-0.7024044990539551,1.1455614566802979
1758972236283160600,7.95016064453125,0.12863041460514069,-0.8384688496589661,0.9596242904663086
1758972236293118500,7.960118408203125,0.23310382664203644,-1.0139501094818115,0.7298278212547302
1758972236303076600,7.97007666015625,0.31262022256851196,-1.1574820280075073,0.5234629511833191
1758972236313034500,7.980034423828125,0.34424713253974915,-1.2587065696716309,0.4081171751022339
1758972236322992400,7.989992431640625,0.336188942193985,-1.2871443033218384,0.435600221157074
1758972236332950300,7.9999501953125,0.28536781668663025,-1.2310584783554077,0.6135390400886536
1758972236342908400,8.009908447265625,0.21600019931793213,-1.102675199508667,0.8549631237983704
1758972236352866300,8.0198662109375,0.15244972705841064,-0.9538494944572449,1.0430063009262085
1758972236362824400,8.029824462890625,0.11071932315826416,-0.8536965250968933,1.0901389122009277
1758972236372783600,8.03978369140625,0.09963630884885788,-0.8272877931594849,0.9854252338409424
1758972236382741800,8.04974169921875,0.11950642615556717,-0.8508613109588623,0.7974303364753723
1758972236392699400,8.059699462890626,0.15174372494220734,-0.8761560320854187,0.5916556119918823
1758972236402658800,8.069658935546874,0.17109239101409912,-0.8697510957717896,0.4301612377166748
1758972236412616400,8.079616455078124,0.1627092808485031,-0.8096457123756409,0.3607669770717621
1758972236422574600,8.08957470703125,0.12781254947185516,-0.6728678941726685,0.411695659160614
1758972236432532500,8.099532470703124,0.07246115058660507,-0.4769465923309326,0.5688445568084717
1758972236442490600,8.10949072265625,0.006283994764089584,-0.26028725504875183,0.7727414965629578
1758972236452448500,8.119448486328125,-0.04963546246290207,-0.04800427705049515,0.9548974633216858
1758972236462406700,8.12940673828125,-0.07802662253379822,0.15726551413536072,1.0670498609542847
1758972236472364500,8.139364501953125,-0.07819733023643494,0.3577757179737091,1.091030478477478
1758972236482322700,8.14932275390625,-0.055147942155599594,0.5568113327026367,1.0450140237808228
1758972236492280600,8.159280517578125,-0.016635701060295105,0.7491384148597717,0.9497852325439453
1758972236502238500,8.169238525390625,0.019286878407001495,0.9233118295669556,0.8391079902648926
1758972236512196600,8.179196533203125,0.03909626975655556,1.0453754663467407,0.7382295727729797
1758972236522154500,8.189154541015625,0.014003433287143707,1.1005686521530151,0.6677383780479431
1758972236532112600,8.199112548828126,-0.04306517913937569,1.078924536705017,0.6352768540382385
1758972236542071600,8.209071533203126,-0.115578792989254,0.9522960782051086,0.6334879994392395
1758972236552029700,8.21902978515625,-0.1689876914024353,0.7297942638397217,0.640469491481781
1758972236561987600,8.228987548828124,-0.2084251046180725,0.49991607666015625,0.6698886156082153
1758972236571945700,8.23894580078125,-0.2238626629114151,0.3548968434333801,0.6976656317710876
1758972236581903600,8.248903564453125,-0.2162065953016281,0.38806411623954773,0.5133290886878967
1758972236591861500,8.258861572265625,-0.17550604045391083,0.6796576380729675,-0.3453315496444702
1758972236601819400,8.2688193359375,-0.2409958392381668,0.7251095175743103,-1.3413764238357544
1758972236611777500,8.278777587890625,-0.3806557357311249,0.5040213465690613,-1.8287136554718018
1758972236621735700,8.288735595703125,-0.420734167098999,0.36647626757621765,-1.8947229385375977
1758972236631693600,8.298693603515625,-0.42603757977485657,0.23447109758853912,-1.8412413597106934
1758972236641651700,8.308651611328125,-0.3544374406337738,0.016079634428024292,-2.03655743598938
1758972236651609600,8.318609619140625,-0.23555099964141846,-0.2304782122373581,-2.5800211429595947
1758972236661567700,8.328567626953125,-0.11236728727817535,-0.44676604866981506,-3.203066349029541
1758972236671525400,8.338525390625,-0.01007766742259264,-0.6301220059394836,-3.561142921447754
1758972236681484800,8.34848486328125,0.013420999981462955,-0.7749851942062378,-3.5341060161590576
1758972236691442400,8.3584423828125,-0.03218456730246544,-0.9087685346603394,-3.2240002155303955
1758972236701400600,8.368400634765624,-0.08886036276817322,-0.9704135656356812,-2.8556606769561768
1758972236711358500,8.3783583984375,-0.06954339146614075,-0.792224645614624,-2.507539749145508
1758972236721316600,8.388316650390625,0.005525260232388973,-0.23538535833358765,-2.159287452697754
1758972236731274500,8.3982744140625,0.07578131556510925,0.7465293407440186,-1.8046069145202637
1758972236741232600,8.408232666015625,0.07148909568786621,1.8531489372253418,-1.480989694595337
1758972236751190800,8.418190673828125,-0.016342487186193466,2.6080739498138428,-1.268711805343628
1758972236761148700,8.428148681640625,-0.20450760424137115,2.6500329971313477,-1.3001389503479004
1758972236771106600,8.4381064453125,-0.3620961606502533,2.153688669204712,-1.475963830947876
1758972236781064400,8.448064453125,-0.33722278475761414,0.8016141653060913,-1.8669915199279785
1758972236791022600,8.458022705078125,-0.1155359148979187,-0.7844915986061096,-2.054128885269165
1758972236800980500,8.46798046875,0.24610644578933716,-1.8491933345794678,-1.895137071609497
1758972236810938600,8.477938720703126,0.581519603729248,-2.063755750656128,-1.5251615047454834
1758972236820897500,8.4878974609375,0.7401548027992249,-1.7171902656555176,-1.2071645259857178
1758972236830855700,8.497855712890624,0.7348175644874573,-1.152829647064209,-1.0451018810272217
1758972236840813600,8.5078134765625,0.5875514149665833,-0.5007845163345337,-0.9709398150444031
1758972236850771700,8.517771728515624,0.30296438932418823,-0.04866926744580269,-0.8649659752845764
1758972236860729600,8.5277294921875,-0.10157082974910736,0.2387385368347168,-0.7427588105201721
1758972236870687500,8.5376875,-0.4591342806816101,0.3670448362827301,-0.6185228824615479
1758972236880645600,8.547645751953125,-0.7037307024002075,0.2896363437175751,-0.48074212670326233
1758972236890603500,8.557603515625,-0.7705441117286682,0.21820956468582153,-0.36019253730773926
1758972236900561700,8.567561767578125,-0.7004960775375366,0.16105972230434418,-0.27636048197746277
1758972236910519600,8.57751953125,-0.6158688068389893,0.03519207611680031,-0.211562842130661
1758972236920477700,8.587477783203125,-0.5873593688011169,-0.1545477658510208,-0.15768496692180634
1758972236930435600,8.597435546875,-0.5696107149124146,-0.29373201727867126,-0.11458756774663925
1758972236940393700,8.607393798828125,-0.5359004735946655,-0.35676637291908264,-0.09665250778198242
1758972236950351400,8.617351318359376,-0.5053651928901672,-0.43535518646240234,-0.09638991951942444
1758972236960310800,8.627310791015624,-0.4614664316177368,-0.5320364832878113,-0.12733983993530273
1758972236970268400,8.637268310546874,-0.40625616908073425,-0.6013503074645996,-0.16110552847385406
1758972236980226600,8.6472265625,-0.38544437289237976,-0.7085608839988708,-0.18803994357585907
1758972236990184400,8.657184326171874,-0.3827471137046814,-0.8835492134094238,-0.2077247053384781
1758972237000142600,8.667142578125,-0.33638760447502136,-1.0535271167755127,-0.2033965289592743
1758972237010100500,8.6771005859375,-0.2172257900238037,-1.1817268133163452,-0.11210177093744278
1758972237020058600,8.68705859375,-0.042273420840501785,-1.2831743955612183,0.09905681014060974
1758972237030016800,8.697016845703125,0.13144297897815704,-1.4082108736038208,0.42962488532066345
1758972237039974700,8.706974609375,0.30816370248794556,-1.4589240550994873,0.8146108984947205
1758972237049932500,8.7169326171875,0.4820462763309479,-1.414607286453247,1.1526979207992554
1758972237059890400,8.726890380859375,0.6293054819107056,-1.4176480770111084,1.374407410621643
1758972237069848600,8.7368486328125,0.7248005867004395,-1.5603500604629517,1.3103951215744019
1758972237079806500,8.746806396484375,0.7476984262466431,-1.6944719552993774,0.4871661961078644
1758972237089764600,8.7567646484375,0.5213915705680847,-1.4109896421432495,-1.238969326019287
1758972237099723500,8.7667236328125,0.2663730978965759,-0.8587130904197693,-2.3350460529327393
1758972237109681700,8.776681640625,0.3024141788482666,-0.6800642609596252,-1.862243890762329
1758972237119639600,8.7866396484375,0.1176547259092331,-0.6890652179718018,-0.9862279295921326
1758972237129597700,8.79659765625,-0.3857617974281311,-0.7381675243377686,-0.4885909855365753
1758972237139555600,8.8065556640625,-0.59489905834198,-0.6561440229415894,-0.23399758338928223
1758972237149513500,8.816513427734375,-0.6636000871658325,-0.6951838135719299,0.0996759906411171
1758972237159471600,8.8264716796875,-0.6699554324150085,-0.5743410587310791,0.6348264813423157
1758972237169429500,8.836429443359375,-0.5583149194717407,0.38113829493522644,1.2178078889846802
1758972237179387600,8.8463876953125,-0.34537816047668457,1.737991213798523,1.6728670597076416
1758972237189345500,8.856345458984375,-0.2096264660358429,2.62811017036438,1.8613200187683105
1758972237199303700,8.8663037109375,-0.22890055179595947,2.7272422313690186,1.8973301649093628
1758972237209261600,8.876261474609375,-0.25113528966903687,2.381633758544922,1.8567484617233276
1758972237219219700,8.8862197265625,-0.18305876851081848,1.971419334411621,1.672323226928711
1758972237229177600,8.896177490234376,-0.06494864076375961,1.553596019744873,1.3433330059051514
1758972237239136800,8.90613671875,0.10309629142284393,1.2110631465911865,0.9725043773651123
1758972237249094400,8.916094482421874,0.3412228524684906,1.0562549829483032,0.5876421928405762
1758972237259052500,8.926052490234374,0.5734744668006897,1.107979416847229,0.1451558619737625
1758972237269010400,8.936010498046874,0.6887832283973694,1.229554533958435,-0.08571010828018188
1758972237278968600,8.945968505859375,0.667162299156189,1.1285552978515625,-0.015390674583613873
1758972237288926700,8.9559267578125,0.5799437761306763,0.7956246733665466,0.23324017226696014
1758972237298884600,8.965884521484375,0.44635725021362305,0.3811851739883423,0.507788896560669
1758972237308842800,8.9758427734375,0.31724318861961365,-0.049256227910518646,0.7313857674598694
1758972237318800600,8.985800537109375,0.2311389446258545,-0.502996027469635,0.8722699284553528
1758972237328758500,8.995758544921875,0.17965126037597656,-0.9535160660743713,0.8877298831939697
1758972237338716400,9.00571630859375,0.12822161614894867,-1.3460566997528076,0.8008261322975159
1758972237348674600,9.015674560546875,0.028497422114014626,-1.6345489025115967,0.6392899751663208
1758972237358632400,9.025632568359375,-0.03067775070667267,-1.5447719097137451,0.6819918751716614
1758972237368590300,9.03559033203125,-0.03880305588245392,-0.24787132441997528,0.6457004547119141
1758972237378549200,9.04554931640625,0.05674370750784874,0.8655002117156982,0.6634682416915894
1758972237388507400,9.05550732421875,0.10908680409193039,1.223122477531433,0.7362785339355469
1758972237398465300,9.06546533203125,0.06460002809762955,1.079300880432129,0.773627519607544
1758972237408423400,9.07542333984375,-0.03768080100417137,0.7250096201896667,0.744330883026123
1758972237418381600,9.085381591796875,-0.13476181030273438,0.27949342131614685,0.7068173289299011
1758972237428339500,9.09533935546875,-0.1703946441411972,-0.10186964273452759,0.7867606282234192
1758972237438297600,9.105297607421875,-0.1545560210943222,-0.40580928325653076,0.9729142785072327
1758972237448255500,9.11525537109375,-0.12673664093017578,-0.625245213508606,1.1568758487701416
1758972237458213400,9.12521337890625,-0.0631755068898201,-0.7457367777824402,1.2592434883117676
1758972237468171300,9.135171142578125,0.035477299243211746,-0.8504775762557983,1.260489821434021
1758972237478129400,9.14512939453125,0.13680019974708557,-0.961016058921814,1.1370922327041626
1758972237488087300,9.15508740234375,0.22522751986980438,-1.0756592750549316,0.9487809538841248
1758972237498045400,9.16504541015625,0.29471099376678467,-1.1561378240585327,0.794241726398468
1758972237508003600,9.175003662109376,0.3159148097038269,-1.1792432069778442,0.7491003274917603
1758972237517961500,9.18496142578125,0.29321643710136414,-1.1313360929489136,0.842953622341156
1758972237527920400,9.19492041015625,0.24348722398281097,-1.0176979303359985,1.067193627357483
1758972237537878500,9.20487841796875,0.19721639156341553,-0.8185513019561768,1.3234986066818237
1758972237547836400,9.21483642578125,0.16110552847385406,-0.6019705533981323,1.4755635261535645
1758972237557794300,9.224794189453124,0.1254892200231552,-0.43180227279663086,1.4465044736862183
1758972237567752400,9.23475244140625,0.10813472419977188,-0.3402118980884552,1.243910551071167
1758972237577710300,9.24471044921875,0.10945325344800949,-0.31281036138534546,0.928662121295929
1758972237587668500,9.25466845703125,0.12293284386396408,-0.32482922077178955,0.5888766050338745
1758972237597626400,9.26462646484375,0.13367310166358948,-0.3317427933216095,0.3285432755947113
1758972237607584500,9.27458447265625,0.1275494396686554,-0.28553906083106995,0.22690531611442566
1758972237617542400,9.28454248046875,0.09215708822011948,-0.14608104526996613,0.3255687654018402
1758972237627500500,9.29450048828125,0.03683285042643547,0.054786548018455505,0.5921400189399719
1758972237637458400,9.30445849609375,-0.01986132189631462,0.2315349578857422,0.9135074019432068
1758972237647416300,9.314416259765625,-0.050391800701618195,0.3267674744129181,1.1724106073379517
1758972237657374500,9.32437451171875,-0.040818534791469574,0.34380263090133667,1.307186484336853
1758972237667333400,9.33433349609375,-0.020793162286281586,0.32533973455429077,1.3045707941055298
1758972237677291500,9.34429150390625,-0.007301056291908026,0.3089306652545929,1.2040259838104248
1758972237687249400,9.35424951171875,0.00324852392077446,0.33760467171669006,1.0765719413757324
1758972237697207600,9.36420751953125,0.023141538724303246,0.4406932294368744,0.9925438761711121
1758972237707165400,9.37416552734375,0.015920376405119896,0.6010749340057373,0.9695962071418762
1758972237717123600,9.38412353515625,-0.040770865976810455,0.7474627494812012,0.9820395708084106
1758972237727081500,9.39408154296875,-0.1462450921535492,0.8485369086265564,0.9443771839141846
1758972237737039400,9.404039306640625,-0.2130528837442398,1.1009747982025146,0.45822030305862427
1758972237746997200,9.413997314453125,-0.18597066402435303,1.260485053062439,-0.6250729560852051
1758972237756955400,9.423955322265625,-0.20641948282718658,0.9249744415283203,-1.577433466911316
1758972237766913500,9.43391357421875,-0.31886613368988037,0.33702197670936584,-2.0674655437469482
1758972237776871400,9.443871337890625,-0.4736615717411041,-0.29330459237098694,-2.0768258571624756
1758972237786829600,9.45382958984375,-0.6617262959480286,-0.8295198082923889,-1.6225892305374146
1758972237796787500,9.463787353515626,-0.6933603882789612,-0.8351052403450012,-1.1740103960037231
1758972237806746400,9.473746337890624,-0.6222363710403442,-0.4739004671573639,-1.1907306909561157
1758972237816704500,9.48370458984375,-0.4405267834663391,0.06000927463173866,-2.0578010082244873
1758972237826662700,9.49366259765625,-0.29006457328796387,0.28184154629707336,-3.1306960582733154
1758972237836620300,9.503620361328124,-0.2304835468530655,0.1549014300107956,-3.6844351291656494
1758972237846578400,9.513578369140625,-0.1872686892747879,-0.11386159062385559,-3.6333396434783936
1758972237856536300,9.523536376953125,-0.14090891182422638,-0.385841965675354,-3.2396624088287354
1758972237866494500,9.533494384765625,-0.09649484604597092,-0.5801174640655518,-2.8241934776306152
1758972237876452400,9.543452392578125,-0.07337114959955215,-0.5200154781341553,-2.4955577850341797
1758972237886410500,9.553410400390625,-0.02833949588239193,0.05098328739404678,-2.18989896774292
1758972237896368400,9.563368408203125,0.04066460579633713,1.1068238019943237,-1.8358279466629028
1758972237906326500,9.573326416015625,0.034335870295763016,2.4467875957489014,-1.460486888885498
1758972237916284400,9.583284423828125,-0.11818389594554901,3.4792850017547607,-1.1921502351760864
1758972237926242300,9.5932421875,-0.4125279188156128,3.784776210784912,-1.1756737232208252
1758972237936200400,9.603200439453126,-0.6357942819595337,3.4988632202148438,-1.3011270761489868
1758972237946158300,9.613158447265626,-0.6206659078598022,1.8316720724105835,-1.5303746461868286
1758972237956117500,9.623117431640624,-0.31809887290000916,-0.6637385487556458,-1.8186588287353516
1758972237966075400,9.633075439453124,0.1649700403213501,-2.221191167831421,-1.7888168096542358
1758972237976033500,9.643033447265625,0.5914033651351929,-2.592231035232544,-1.5359538793563843
1758972237985991400,9.652991455078125,0.7809498906135559,-2.1569347381591797,-1.298589825630188
1758972237995949600,9.662949462890625,0.6668936014175415,-1.2559611797332764,-1.1650413274765015
1758972238005907500,9.672907470703125,0.3193367123603821,-0.27052098512649536,-1.0434560775756836
1758972238015865300,9.682865234375,-0.07370484620332718,0.46132901310920715,-0.8767051696777344
1758972238025823200,9.6928232421875,-0.36126258969306946,0.8349459767341614,-0.6818915009498596
1758972238035781400,9.702781494140625,-0.5108174681663513,0.8818738460540771,-0.49414047598838806
1758972238045739500,9.712739501953125,-0.5767200589179993,0.6766969561576843,-0.301033079624176
1758972238055697400,9.722697509765625,-0.5917572975158691,0.3624221384525299,-0.11142799258232117
1758972238065655600,9.732655517578126,-0.5482351183891296,0.07813847810029984,0.025837989524006844
1758972238075613400,9.742613525390626,-0.4743771553039551,-0.169046550989151,0.11209005117416382
1758972238085571600,9.752571533203126,-0.4215019643306732,-0.37415361404418945,0.18436744809150696
1758972238095530500,9.762530517578124,-0.3876497149467468,-0.5002487301826477,0.25250256061553955
1758972238105488600,9.772488525390624,-0.3312719464302063,-0.5099372863769531,0.2756158709526062
1758972238115446300,9.7824462890625,-0.3295954763889313,-0.5083423256874084,0.2758505046367645
1758972238125404400,9.792404296875,-0.35568273067474365,-0.49534767866134644,0.2811219394207001
1758972238135362300,9.8023623046875,-0.37052398920059204,-0.4918895661830902,0.2680128216743469
1758972238145320400,9.812320556640625,-0.3735293745994568,-0.570846438407898,0.21627184748649597
1758972238155278300,9.8222783203125,-0.3489585220813751,-0.748450517654419,0.13627953827381134
1758972238165236500,9.832236572265625,-0.2841606140136719,-1.0415700674057007,0.0759056806564331
1758972238175194600,9.842194580078125,-0.15357518196105957,-1.383335828781128,0.08725021779537201
1758972238185152500,9.852152587890625,0.04153279587626457,-1.712310552597046,0.20305564999580383
1758972238195110400,9.8621103515625,0.2508588433265686,-2.0551533699035645,0.4171474277973175
1758972238205068300,9.872068359375,0.4213581681251526,-2.3730788230895996,0.6392737030982971
1758972238215026400,9.8820263671875,0.5317371487617493,-2.6678695678710938,0.7955594658851624
1758972238224984300,9.891984375,0.5381652116775513,-2.868617534637451,0.789980411529541
1758972238234942500,9.9019423828125,0.44024983048439026,-2.995837450027466,0.42888665199279785
1758972238244901400,9.9119013671875,0.2504684329032898,-2.8865723609924316,-0.6091828942298889
1758972238254859500,9.921859619140625,-0.02522226609289646,-2.2892799377441406,-2.0653743743896484
1758972238264817400,9.9318173828125,-0.1261773705482483,-1.5387877225875854,-2.487312078475952
1758972238274775600,9.941775634765625,-0.030792267993092537,-0.6600798964500427,-1.8220045566558838
1758972238284733400,9.9517333984375,-0.1397504359483719,-0.05410930886864662,-0.9606016874313354
1758972238294691300,9.96169140625,-0.31664344668388367,0.2518652677536011,-0.41647231578826904
1758972238304649500,9.9716494140625,-0.44749948382377625,0.2688860595226288,-0.02490641549229622
1758972238314607400,9.981607421875,-0.6118913292884827,0.19121655821800232,0.45458322763442993
1758972238324565500,9.9915654296875,-0.7563811540603638,0.1589939147233963,0.9079911708831787
1758972238334523400,10.0015234375,-0.8203018307685852,0.27108103036880493,1.1385141611099243
1758972238344481500,10.0114814453125,-0.7420256733894348,0.7384181022644043,1.1543946266174316
1758972238354439400,10.021439453125,-0.36869120597839355,1.6482210159301758,1.2505085468292236
1758972238364397600,10.0313974609375,-0.015372298657894135,2.42030930519104,1.5336449146270752
1758972238374355500,10.04135546875,0.04704021289944649,2.5664634704589844,1.734877347946167
1758972238384313600,10.051313720703124,0.002264219569042325,2.34194016456604,1.792852520942688
1758972238394272500,10.0612724609375,0.060015399008989334,1.9698201417922974,1.743963599205017
1758972238404230700,10.071230712890625,0.21664921939373016,1.52521812915802,1.562583088874817
1758972238414188500,10.0811884765625,0.3159489035606384,0.824576735496521,0.5996541380882263
1758972238424146700,10.091146728515625,0.4935420751571655,0.3717653155326843,-0.433210551738739
1758972238434104300,10.101104248046875,0.8177012205123901,0.6003992557525635,-0.3593350052833557
1758972238444062500,10.1110625,0.9061610698699951,0.8836003541946411,0.21018466353416443
1758972238454020600,10.1210205078125,0.722288191318512,0.9908503890037537,0.6810163855552673
1758972238463978500,10.130978515625,0.49346455931663513,0.9186297059059143,0.9814180135726929
1758972238473936600,10.1409365234375,0.3816962242126465,0.6930549144744873,1.1595635414123535
1758972238483894500,10.15089453125,0.3564526438713074,0.3840951919555664,1.2414690256118774
1758972238493852700,10.160852783203126,0.35066482424736023,-0.009808688424527645,1.2323814630508423
1758972238503810600,10.170810546875,0.26027151942253113,-0.4041208326816559,1.158126711845398
1758972238513768400,10.1807685546875,0.09201914072036743,-0.7670460343360901,1.008844256401062
1758972238523726300,10.190726318359374,-0.07177991420030594,-1.0074725151062012,0.7872655391693115
1758972238533684500,10.2006845703125,-0.174838125705719,-1.0314122438430786,0.5123450756072998
1758972238543643400,10.210643310546875,-0.08320754021406174,-0.7750911712646484,0.2674306333065033
1758972238553601500,10.2206015625,0.14322586357593536,0.2093963623046875,0.48616909980773926
1758972238563559400,10.230559326171875,0.28759288787841797,1.2482761144638062,0.8822408318519592
1758972238573517600,10.240517578125,0.22890855371952057,1.695275068283081,1.247841477394104
1758972238583475700,10.250475830078125,-0.0005070658517070115,1.6241698265075684,1.4455190896987915
1758972238593433600,10.26043359375,-0.22673460841178894,1.2779918909072876,1.4864917993545532
1758972238603391700,10.270391845703125,-0.30669814348220825,0.8197066187858582,1.429263949394226
1758972238613349400,10.280349365234375,-0.277090460062027,0.47000664472579956,1.3729617595672607
1758972238623307500,10.2903076171875,-0.19408957660198212,0.23360610008239746,1.3140321969985962
1758972238633265400,10.300265380859376,-0.07728786021471024,0.054360177367925644,1.2006629705429077
1758972238643223600,10.3102236328125,0.05771123245358467,-0.13390719890594482,1.0061579942703247
1758972238653181400,10.320181396484376,0.19338729977607727,-0.39041754603385925,0.7697009444236755
1758972238663139600,10.3301396484375,0.31751298904418945,-0.6913124322891235,0.528548002243042
1758972238673097700,10.34009765625,0.40178951621055603,-0.968869686126709,0.35833579301834106
1758972238683056600,10.350056640625,0.42786797881126404,-1.160679578781128,0.32302120327949524
1758972238693014500,10.3600146484375,0.40996646881103516,-1.2518683671951294,0.43877363204956055
1758972238702972700,10.36997265625,0.37001267075538635,-1.2672185897827148,0.6393256187438965
1758972238712930600,10.3799306640625,0.324945330619812,-1.2174667119979858,0.8192304372787476
1758972238722888400,10.389888427734375,0.2921842038631439,-1.1431293487548828,0.8869391679763794
1758972238732846600,10.3998466796875,0.27838608622550964,-1.0848459005355835,0.822565495967865
1758972238742804500,10.409804443359375,0.27843722701072693,-1.0545462369918823,0.6755622029304504
1758972238752762600,10.4197626953125,0.2805160880088806,-1.0042353868484497,0.518912136554718
1758972238762720500,10.429720458984375,0.2693025767803192,-0.9173945188522339,0.4093867242336273
1758972238772678700,10.4396787109375,0.239056795835495,-0.7718203067779541,0.387109637260437
1758972238782636500,10.449636474609376,0.193201944231987,-0.5591652989387512,0.47904062271118164
1758972238792594400,10.459594482421876,0.14050064980983734,-0.2852250933647156,0.6745992302894592
1758972238802552600,10.469552490234374,0.08837620168924332,0.004333495628088713,0.9181585907936096
1758972238812510500,10.479510498046874,0.044077444821596146,0.2672186493873596,1.1290193796157837
1758972238822468600,10.489468505859374,0.005505020264536142,0.48419705033302307,1.2404820919036865
1758972238832427500,10.499427490234375,-0.03753778710961342,0.6671288013458252,1.2442376613616943
1758972238842385400,10.509385498046875,-0.07142038643360138,0.8506410717964172,1.1845836639404297
1758972238852343600,10.519343505859375,-0.08604353666305542,1.063066840171814,1.110681176185608
1758972238862301700,10.5293017578125,-0.08627256751060486,1.3048322200775146,1.064934253692627
1758972238872259600,10.539259521484375,-0.09566020965576172,1.5516782999038696,1.0514566898345947
1758972238882217700,10.5492177734375,-0.12132296711206436,1.7670449018478394,1.0378050804138184
1758972238892175400,10.55917529296875,-0.17364902794361115,1.8734328746795654,0.9847850203514099
1758972238902133500,10.569133544921876,-0.25214090943336487,1.7724639177322388,0.867096483707428
1758972238912091400,10.57909130859375,-0.33889949321746826,1.5074511766433716,0.7457684278488159
1758972238922049500,10.589049560546876,-0.40427690744400024,1.151833415031433,0.6843610405921936
1758972238932007400,10.59900732421875,-0.388570100069046,0.8910961151123047,0.6213812828063965
1758972238941965600,10.608965576171874,-0.2529803216457367,0.8578523993492126,0.2450885772705078
1758972238951923700,10.618923828125,-0.06848158687353134,0.8136417865753174,-0.51323401927948
1758972238961881600,10.628881591796874,-0.00977699737995863,0.4671221673488617,-1.2309186458587646
1758972238971840500,10.638840576171875,-0.1068609356880188,-0.050630684942007065,-1.6230789422988892
1758972238981798700,10.648798583984375,-0.2810353934764862,-0.6543674468994141,-1.5446925163269043
1758972238991756500,10.658756591796875,-0.381989985704422,-0.993374764919281,-1.152348518371582
1758972239001714400,10.66871435546875,-0.3333745002746582,-0.7611034512519836,-0.9821466207504272
1758972239011672600,10.678672607421875,-0.2579529881477356,-0.25799185037612915,-1.494052529335022
1758972239021630500,10.68863037109375,-0.1663583517074585,0.12665994465351105,-2.4988811016082764
1758972239031588600,10.698588623046875,-0.16936852037906647,0.18703433871269226,-3.284276008605957
1758972239041546500,10.70854638671875,-0.2800569534301758,0.057440921664237976,-3.517383575439453
1758972239051504600,10.718504638671876,-0.38952991366386414,-0.1660933643579483,-3.35626482963562
1758972239061462500,10.728462646484376,-0.43449684977531433,-0.40925833582878113,-3.0674219131469727
1758972239071420400,10.73842041015625,-0.43974754214286804,-0.588388979434967,-2.783297061920166
1758972239081378600,10.748378662109374,-0.39072006940841675,-0.647493302822113,-2.5831146240234375
1758972239091336400,10.75833642578125,-0.31022098660469055,-0.4559265077114105,-2.4234724044799805
1758972239101294600,10.768294677734374,-0.19316492974758148,0.00034408041392453015,-2.2356865406036377
1758972239111252500,10.77825244140625,-0.06077812984585762,0.817712664604187,-1.9501521587371826
1758972239121211600,10.788211669921875,0.0019459717441350222,1.8840820789337158,-1.5885391235351562
1758972239131169500,10.79816943359375,-0.030305974185466766,2.6469600200653076,-1.3885767459869385
1758972239141127700,10.808127685546875,-0.16554422676563263,2.837085008621216,-1.3950916528701782
1758972239151085600,10.81808544921875,-0.2559715807437897,2.6377975940704346,-1.4508213996887207
1758972239161043700,10.828043701171875,-0.18275703489780426,1.3909908533096313,-1.4266871213912964
1758972239171001300,10.83800146484375,-0.0009286442655138671,-1.2189573049545288,-1.4264702796936035
1758972239180959500,10.84795947265625,0.25686001777648926,-2.9061439037323,-1.355211615562439
1758972239190917400,10.85791748046875,0.48714888095855713,-3.3156628608703613,-1.2759848833084106
1758972239200875500,10.86787548828125,0.63330078125,-2.803832530975342,-1.1802064180374146
1758972239210833700,10.877833740234376,0.5909013748168945,-1.8537787199020386,-1.0972048044204712
1758972239220791600,10.88779150390625,0.32033300399780273,-0.7784448862075806,-1.0721588134765625
1758972239230749700,10.897749755859374,-0.05886198580265045,0.1623191386461258,-1.0825568437576294
1758972239240707600,10.90770751953125,-0.37232163548469543,0.7447250485420227,-1.0152190923690796
1758972239250665700,10.917665771484375,-0.5351302623748779,0.918353259563446,-0.8569101691246033
1758972239260623400,10.927623291015625,-0.505992591381073,0.8957030773162842,-0.7212367653846741
1758972239270582500,10.93758251953125,-0.3969963490962982,0.7632803320884705,-0.6260359287261963
1758972239280540400,10.94754052734375,-0.3009300231933594,0.5267359614372253,-0.5317760109901428
1758972239290498600,10.95749853515625,-0.24990969896316528,0.15638934075832367,-0.40329259634017944
1758972239300456400,10.96745654296875,-0.2419753521680832,-0.30670294165611267,-0.2848876714706421
1758972239310414600,10.97741455078125,-0.27224695682525635,-0.6880966424942017,-0.16822682321071625
1758972239320372500,10.98737255859375,-0.31742429733276367,-0.8739525079727173,-0.10094258934259415
1758972239330330600,10.99733056640625,-0.34124547243118286,-0.9087246060371399,-0.10057055205106735
1758972239340288500,11.00728857421875,-0.36139601469039917,-0.8836171627044678,-0.11187300831079483
1758972239350246700,11.01724658203125,-0.3942796587944031,-0.9272146821022034,-0.1164427250623703
1758972239360204500,11.02720458984375,-0.40252241492271423,-1.0565252304077148,-0.11007137596607208
1758972239370162200,11.037162109375,-0.3616628646850586,-1.2097816467285156,-0.05506511777639389
1758972239380120300,11.047120361328124,-0.2595095932483673,-1.3540805578231812,0.063772052526474
1758972239390078200,11.057078125,-0.10938374698162079,-1.4382833242416382,0.26432061195373535
1758972239400036400,11.067036376953125,0.05462143197655678,-1.4599698781967163,0.5367894172668457
1758972239409994200,11.076994140625,0.20744293928146362,-1.478296160697937,0.8392840027809143
1758972239419953400,11.086953369140625,0.34746289253234863,-1.5418310165405273,1.125757098197937
1758972239429911300,11.096911376953125,0.4403187930583954,-1.660140872001648,1.3111101388931274
1758972239439869400,11.106869384765625,0.47923609614372253,-1.9186437129974365,1.254571795463562
1758972239449827000,11.1168271484375,0.4322137236595154,-2.2082016468048096,0.6831101179122925
1758972239459785200,11.12678515625,0.18058788776397705,-2.243772029876709,-0.607895016670227
1758972239469743400,11.136743408203126,-0.15799948573112488,-2.021803617477417,-1.9123547077178955
1758972239479701200,11.146701171875,-0.20367082953453064,-1.6521623134613037,-2.177168369293213
1758972239489659400,11.156659423828126,-0.06579126417636871,-1.232395052909851,-1.6722017526626587
1758972239499617300,11.1666171875,-0.21548116207122803,-0.8797392845153809,-1.088714838027954
1758972239509575400,11.176575439453124,-0.5776697397232056,-0.6505354046821594,-0.5490596294403076
1758972239519533300,11.186533203125,-0.8171704411506653,-0.37987807393074036,0.03275395184755325
1758972239529491200,11.1964912109375,-0.8958626389503479,0.0159510038793087,0.6180869340896606
1758972239539449000,11.206448974609375,-0.9608248472213745,0.5346176028251648,1.0906771421432495
1758972239549407200,11.2164072265625,-0.9820398688316345,1.2722653150558472,1.4138774871826172
1758972239559365400,11.226365478515625,-0.6791590452194214,2.328582763671875,1.6275200843811035
1758972239569324300,11.23632421875,-0.27876532077789307,2.9894180297851562,1.7907726764678955
1758972239579282200,11.2462822265625,-0.09688020497560501,2.915839195251465,1.8294020891189575
1758972239589240300,11.256240234375,-0.02949663996696472,2.3959882259368896,1.6898236274719238
1758972239599198500,11.266198486328125,0.07979603111743927,1.7009130716323853,1.3132617473602295
1758972239609156400,11.27615625,0.2818452715873718,1.0029832124710083,0.8057172894477844
1758972239619114500,11.286114501953126,0.5982333421707153,0.31153684854507446,0.3583243191242218
1758972239629072100,11.296072021484376,0.9247536659240723,-0.12796089053153992,0.0169073436409235
1758972239639030300,11.3060302734375,1.1057524681091309,-0.22024261951446533,0.013288907706737518
1758972239648988200,11.31598828125,1.066365361213684,-0.054311707615852356,0.2524658143520355
1758972239658946300,11.3259462890625,0.7915098667144775,0.1664227992296219,0.45640456676483154
1758972239668904200,11.335904296875,0.44797512888908386,0.27527204155921936,0.6472805142402649
1758972239678862300,11.3458623046875,0.1938677430152893,0.18925301730632782,0.8719543814659119
1758972239688820500,11.355820556640625,0.10407952964305878,-0.042095255106687546,1.0615376234054565
1758972239698778400,11.3657783203125,0.05143363028764725,-0.3983103632926941,1.1304527521133423
1758972239708736300,11.375736328125,-0.04495788738131523,-0.7876495718955994,1.08085298538208
1758972239718695400,11.3856953125,-0.22642222046852112,-1.1109386682510376,0.9550644159317017
1758972239728653300,11.3956533203125,-0.3623078763484955,-1.2871371507644653,0.7369520664215088
1758972239738611200,11.405611083984375,-0.3890659809112549,-1.295830249786377,0.4328952431678772
1758972239748569300,11.4155693359375,-0.28957003355026245,-0.31888025999069214,0.3023742437362671
1758972239758527200,11.42552734375,-0.12000097334384918,2.1559231281280518,0.401381254196167
1758972239768485400,11.4354853515625,0.04488438367843628,3.2980990409851074,0.7739756107330322
1758972239778443300,11.445443359375,0.028659608215093613,3.1842305660247803,1.2210077047348022
1758972239788401400,11.4554013671875,-0.16679084300994873,2.2985897064208984,1.4773547649383545
1758972239798359300,11.465359375,-0.34810444712638855,1.2360564470291138,1.5177786350250244
1758972239808317200,11.475317138671874,-0.39235740900039673,0.2433900237083435,1.4339170455932617
1758972239818275300,11.485275390625,-0.3189321756362915,-0.49223312735557556,1.358079195022583
1758972239828233200,11.495233154296875,-0.18069148063659668,-0.9522936940193176,1.304482102394104
1758972239838191400,11.50519140625,-0.018458370119333267,-1.1831969022750854,1.2125097513198853
1758972239848149200,11.515149169921875,0.1302964836359024,-1.2709451913833618,1.0454905033111572
1758972239858107400,11.525107421875,0.24036572873592377,-1.3155930042266846,0.8303003907203674
1758972239868065300,11.535065185546875,0.308734655380249,-1.3582683801651,0.601624608039856
1758972239878024400,11.5450244140625,0.3386225402355194,-1.3814114332199097,0.43580472469329834
1758972239887982300,11.554982421875,0.35210397839546204,-1.3623110055923462,0.4095153510570526
1758972239897940500,11.5649404296875,0.3436814546585083,-1.2733612060546875,0.572868824005127
1758972239907898000,11.574898193359376,0.30149567127227783,-1.1076067686080933,0.8636564612388611
1758972239917856300,11.584856201171876,0.2519150674343109,-0.9260088205337524,1.1272492408752441
1758972239927814100,11.594814208984374,0.2166271209716797,-0.7740592360496521,1.22455632686615
1758972239937772300,11.604772216796874,0.21106749773025513,-0.7016034126281738,1.1341053247451782
1758972239947730200,11.614730224609374,0.2253124862909317,-0.6881523132324219,0.9327402114868164
1758972239957688300,11.624688232421875,0.24212342500686646,-0.7096075415611267,0.7109503149986267
1758972239967646500,11.634646484375,0.24538205564022064,-0.7324835658073425,0.5225755572319031
1758972239977604400,11.644604248046875,0.231678768992424,-0.7271902561187744,0.3954312205314636
1758972239987562500,11.6545625,0.2020055651664734,-0.6889064908027649,0.35478684306144714
1758972239997520100,11.66452001953125,0.1635255515575409,-0.5873873233795166,0.43323078751564026
1758972240007478300,11.674478271484375,0.11003302782773972,-0.42340800166130066,0.6242334842681885
1758972240017436200,11.684436279296875,0.051605936139822006,-0.21552589535713196,0.8764644265174866
1758972240027394300,11.694394287109375,-0.004204066004604101,-0.008550877682864666,1.1048866510391235
1758972240037353200,11.704353271484376,-0.049682069569826126,0.19279368221759796,1.2404119968414307
1758972240047311400,11.714311279296876,-0.07080226391553879,0.409492164850235,1.270033597946167
1758972240057269200,11.724269287109376,-0.057376738637685776,0.6557480096817017,1.2405468225479126
1758972240067227400,11.734227294921874,-0.037749242037534714,0.9216268062591553,1.1947251558303833
1758972240077185300,11.744185302734374,-0.0336943157017231,1.1898926496505737,1.1491789817810059
1758972240087143200,11.75414306640625,-0.06078452244400978,1.384966254234314,1.0713963508605957
1758972240097101300,11.764101318359375,-0.11067751049995422,1.411049485206604,0.9373946189880371
1758972240107059200,11.77405908203125,-0.1814315766096115,1.2759252786636353,0.7870639562606812
1758972240117017300,11.784017333984375,-0.2492830604314804,1.0716373920440674,0.6742239594459534
1758972240126975200,11.793975341796875,-0.2583135664463043,0.9946911931037903,0.41772374510765076
1758972240136933400,11.803933349609375,-0.1618855744600296,1.0882093906402588,-0.2804955840110779
1758972240146891300,11.813891357421875,-0.07149575650691986,0.9572442173957825,-1.0796138048171997
1758972240156849400,11.823849365234375,-0.09081406146287918,0.5155328512191772,-1.6310434341430664
1758972240166807300,11.833807373046875,-0.22065460681915283,-0.051527637988328934,-1.9056116342544556
1758972240176765200,11.84376513671875,-0.36530980467796326,-0.5672873854637146,-1.8413095474243164
1758972240186723300,11.853723388671876,-0.46971395611763,-0.9126226902008057,-1.4551475048065186
1758972240196681200,11.86368115234375,-0.42504796385765076,-0.7591460347175598,-1.3840436935424805
1758972240206640000,11.87364013671875,-0.31134429574012756,-0.2922196090221405,-2.1165006160736084
1758972240216598300,11.883598388671874,-0.21505504846572876,-0.10967136919498444,-3.0950839519500732
1758972240226556400,11.893556396484374,-0.22638998925685883,-0.2750917673110962,-3.6266021728515625
1758972240236514300,11.903514404296875,-0.2617173492908478,-0.46282729506492615,-3.661588191986084
1758972240246472400,11.913472412109375,-0.2715170085430145,-0.5069854259490967,-3.4115989208221436
1758972240256430300,11.923430419921875,-0.23935532569885254,-0.4689136743545532,-3.049172878265381
1758972240266388500,11.933388427734375,-0.17142395675182343,-0.3217093348503113,-2.674933671951294
1758972240276346000,11.94334619140625,-0.10676905512809753,0.10340841114521027,-2.2958314418792725
1758972240286304300,11.95330419921875,-0.05047888681292534,0.8170818090438843,-1.9097295999526978
1758972240296262100,11.96326220703125,-0.03183303028345108,1.7727339267730713,-1.5410445928573608
1758972240306220300,11.97322021484375,-0.12059618532657623,2.6134696006774902,-1.265655279159546
1758972240316178400,11.983178466796875,-0.2905431389808655,2.767317295074463,-1.2211112976074219
1758972240326136300,11.99313623046875,-0.4449297785758972,2.154404878616333,-1.3437045812606812
1758972240336094500,12.003094482421876,-0.4101489186286926,1.0224688053131104,-1.5192090272903442
1758972240346052400,12.01305224609375,-0.20088650286197662,-0.20317256450653076,-1.7541989088058472
1758972240356010200,12.02301025390625,0.05484221130609512,-1.2992665767669678,-1.862863540649414
1758972240365969200,12.03296923828125,0.32527104020118713,-1.8879013061523438,-1.768349289894104
1758972240375927300,12.04292724609375,0.5118774175643921,-2.0121681690216064,-1.5407824516296387
1758972240385885200,12.05288525390625,0.5229966044425964,-2.0540387630462646,-1.2547369003295898
1758972240395843300,12.06284326171875,0.32012954354286194,-2.0303797721862793,-1.0068618059158325
1758972240405801200,12.07280126953125,0.039807599037885666,-1.6199440956115723,-0.9039884805679321
1758972240415759400,12.08275927734375,-0.2260078340768814,-0.933600664138794,-0.8629494309425354
1758972240425717200,12.09271728515625,-0.41371995210647583,-0.3272492289543152,-0.7424954175949097
1758972240435675400,12.10267529296875,-0.5178146362304688,-0.04797365143895149,-0.5576763153076172
1758972240445633500,12.112633544921875,-0.554398238658905,-0.06679554283618927,-0.37485644221305847
1758972240455591200,12.122591064453125,-0.5217961072921753,-0.1806589961051941,-0.24894990026950836
1758972240465549300,12.13254931640625,-0.4595947563648224,-0.31653106212615967,-0.1674550473690033
1758972240475507200,12.142507080078126,-0.423984557390213,-0.45724213123321533,-0.10796348750591278
1758972240485465300,12.15246533203125,-0.4020363986492157,-0.5196136236190796,-0.07247553020715714
1758972240495423200,12.16242333984375,-0.4212348461151123,-0.5496383905410767,-0.07899308204650879
1758972240505381400,12.17238134765625,-0.47529780864715576,-0.5935365557670593,-0.07614616304636002
1758972240515339300,12.18233935546875,-0.5428933501243591,-0.6427358388900757,-0.07342921197414398
1758972240525297400,12.19229736328125,-0.5786505937576294,-0.7066444754600525,-0.08416307717561722
1758972240535255300,12.20225537109375,-0.5787890553474426,-0.7868269681930542,-0.09470174461603165
1758972240545214500,12.21221435546875,-0.5556866526603699,-0.9072838425636292,-0.08193587511777878
1758972240555172000,12.222172119140625,-0.5261951088905334,-1.0792471170425415,-0.058332014828920364
1758972240565130200,12.232130126953125,-0.5033084154129028,-1.2770522832870483,-0.011514176614582539
1758972240575088400,12.24208837890625,-0.46194392442703247,-1.4538511037826538,0.07289444655179977
1758972240585046300,12.25204638671875,-0.3609837591648102,-1.5442004203796387,0.2058602273464203
1758972240595004400,12.26200439453125,-0.17469671368598938,-1.537543773651123,0.40549635887145996
1758972240604962300,12.27196240234375,0.057617757469415665,-1.5285258293151855,0.653108537197113
1758972240614920400,12.28192041015625,0.28500643372535706,-1.6293234825134277,0.9234950542449951
1758972240624878300,12.29187841796875,0.47453269362449646,-1.8351925611495972,1.1569501161575317
1758972240634836200,12.301836181640626,0.6107118129730225,-2.0764191150665283,1.2465330362319946
1758972240644794000,12.311794189453124,0.6870859861373901,-2.3115625381469727,0.88331538438797
1758972240654752300,12.321752197265624,0.6576295495033264,-2.3071506023406982,-0.4768911898136139
1758972240664710400,12.33171044921875,0.352364182472229,-2.0436861515045166,-2.0282397270202637
1758972240674668300,12.341668212890625,0.20333075523376465,-1.323707938194275,-2.1206445693969727
1758972240684626400,12.35162646484375,0.22975702583789825,-0.3807830214500427,-1.290883183479309
1758972240694584300,12.361584228515625,-0.06145776808261871,0.09721043705940247,-0.5130558609962463
1758972240704542500,12.37154248046875,-0.48346173763275146,0.06124285236001015,-0.11880548298358917
1758972240714500000,12.3815,-0.6719730496406555,-0.19201578199863434,0.07734032720327377
1758972240724459500,12.39145947265625,-0.7418200373649597,-0.5137147307395935,0.34364739060401917
1758972240734417200,12.401417236328125,-0.8045862317085266,-0.6907017230987549,0.6562089920043945
1758972240744375300,12.411375244140626,-0.796340823173523,-0.25433188676834106,0.8876947164535522
1758972240754333200,12.421333251953126,-0.5338255763053894,1.0516825914382935,1.0711063146591187
1758972240764291300,12.431291259765626,-0.18823514878749847,2.481928586959839,1.3407042026519775
