time,seconds_elapsed,z,y,x
1758273892839158300,0.048158203125,-0.011765256595611572,0.09290157105922699,-0.02653963187932968
1758273892849116200,0.0581162109375,0.02080576440244913,0.13115443708598612,0.03242868991792202
1758273892859073300,0.0680732421875,0.1511976926833391,0.20303952360153196,-0.07699614591896534
1758273892869031200,0.07803125,0.15470774663090706,0.10593933180868625,-0.09288520444631576
1758273892878989300,0.0879892578125,0.1548836877197027,0.07769114244580268,-0.01835749446749687
1758273892888946200,0.0979462890625,0.157044665145874,0.016205284869670867,0.001115267765522003
1758273892898904000,0.107904052734375,0.07032733567953109,-0.07840601271688938,-0.05836567972898483
1758273892908861200,0.117861083984375,-0.031792730101943015,-0.09333236369192599,-0.07309037065207957
1758273892918819000,0.127819091796875,0.00943476782143116,-0.002114215674996376,-0.04528057270646095
1758273892928777200,0.137777099609375,0.08086860343813895,0.1435118143558502,0.009963760131597518
1758273892938734300,0.147734375,0.1386924313753843,0.2076823809713125,-0.09707856448292732
1758273892948692200,0.157692138671875,0.21215309664458035,0.22883622815907,-0.1949474025607109
1758273892958649000,0.167649169921875,0.26359745267778634,0.09035130205452442,-0.21195114433169363
1758273892968607200,0.177607177734375,0.24171003051847217,-0.11116145037114619,-0.21431261276602745
1758273892978565000,0.187565185546875,0.2348141335248947,-0.2954214547008276,-0.1405138015836477
1758273892988522200,0.197522216796875,0.11878683068305253,-0.633070524278283,-0.07718377744555473
1758273892998480400,0.20748046875,-0.062089084166288375,-0.5145189636558294,-0.008452771046757698
1758273893008438000,0.21743798828125,0.04398907159119844,-0.22679507772028445,0.14733867916762827
1758273893018395100,0.22739501953125,0.203710846991837,0.0634469285160303,0.2139391032785177
1758273893028353300,0.237353271484375,0.19402765736728905,0.2675911984890699,0.09545359362959861
1758273893038310400,0.247310302734375,0.09878566066175698,0.2638783154457807,-0.07349193719029426
1758273893048268300,0.257268310546875,0.10697598138004541,0.20526070678234098,-0.12877894012629984
1758273893058226200,0.26722607421875,0.1095385253444314,0.00971358476281166,-0.11137596990466117
1758273893068183300,0.277183349609375,0.057531566992402076,0.017355623948574064,-0.14474164841175077
1758273893078141200,0.28714111328125,0.17018413270413874,-0.07480944952964783,-0.11243979974389076
1758273893088098300,0.297098388671875,-0.00457622187435627,-0.07773615063130855,-0.10858838501274586
1758273893098056200,0.30705615234375,0.08420563890635967,-0.21738953599333763,0.14157237072587012
1758273893108014000,0.31701416015625,0.05301905800402164,-0.164155958455801,0.4195090221405029
1758273893117971200,0.32697119140625,0.05895253970623016,0.19944237589240074,0.31095570844113823
1758273893127929000,0.33692919921875,0.33764936183840033,0.49700727236270903,0.1712707588970661
1758273893137886200,0.34688623046875,0.18324089041501282,0.7750690114617347,-0.02572890001833439
1758273893147844400,0.35684423828125,0.2307642736122012,0.3413105146944523,-0.09400397934317588
1758273893157802000,0.366802001953125,0.05993950491696596,0.2640776374101639,0.03565057457387447
1758273893167759000,0.376759033203125,-0.5239128149449825,0.2936480152875185,-0.17884674710929394
1758273893177717200,0.38671728515625,-0.46293081523776053,0.13110825985670088,-0.29609014774262904
1758273893187674400,0.39667431640625,0.0035468788266181943,-0.07838496992886065,-0.18373861080408097
1758273893197632300,0.40663232421875,0.04344780432134866,0.14376374329030514,0.11650339592099189
1758273893207590100,0.416590087890625,-0.09186579827070236,0.2956733836352825,-0.16610416991412638
1758273893217547300,0.42654736328125,-0.05975947217494249,0.059613049441576,-0.33378537988662715
1758273893227505200,0.436505126953125,0.10260025051385163,-0.25196049863696096,-0.16327859109938145
1758273893237463300,0.44646337890625,0.2762383230641484,-0.30179625042974945,0.29171383235454557
1758273893247420400,0.45642041015625,0.19060002100616694,-0.42392566953897476,0.6379062738716602
1758273893257378000,0.4663779296875,-0.0950640097901225,-0.4188461743175983,0.6575222439676522
1758273893267335200,0.476335205078125,-0.2096568959146738,-0.15233692584633826,0.5812731170237064
1758273893277293300,0.486293212890625,-0.31381402048170565,0.056070262268185615,0.3249707897901535
1758273893287251200,0.496251220703125,-0.0016547814697027206,0.25959026286303993,0.20437924777269362
1758273893297208300,0.506208251953125,0.5254100677654147,0.4952484459966421,0.003869534909725189
1758273893307166200,0.516166259765625,0.2292985849738121,0.5915840831577778,-0.3522574406445026
1758273893317123000,0.526123046875,-0.023957798692584038,0.358381476482749,-0.6004255612611771
1758273893327080400,0.53608056640625,-0.005787643490731716,0.17039339154064653,-0.4276923285961151
1758273893337038600,0.54603857421875,0.09295242446362972,0.04466156402528286,0.026583471021056175
1758273893346995500,0.555995361328125,-0.1731704550385475,-0.07861293346583843,-0.0656301177740097
1758273893356953300,0.565953369140625,-0.24091741883605716,-0.001991466078162193,-0.016389993786811826
1758273893366910500,0.575910400390625,0.06454144575446844,-0.04784253214895725,0.263406021758914
1758273893376868600,0.58586865234375,0.26645371889173985,-0.1487538066625595,0.38421675948500633
1758273893386826500,0.595826416015625,0.49897944921851156,-0.15610592299103737,0.15751754335463047
1758273893396783400,0.605783447265625,0.33040655110329387,0.03653203358352184,0.5187842198848724
1758273893406741500,0.615741455078125,0.17109774041771889,0.009898293679952621,0.518242368093133
1758273893416698400,0.625698486328125,-0.10277677612453698,-0.1739765107244253,0.3892769654840231
1758273893426656500,0.635656494140625,-0.23261983835101127,-0.31678572976887226,0.21541794365942477
1758273893436614400,0.645614501953125,-0.25594138496667146,-0.405258378469944,-0.00966565396785736
1758273893446571300,0.6555712890625,-0.25783435910642144,-0.37902620510458945,-0.13763152414560317
1758273893456529400,0.665529296875,-0.39345571247339245,-0.23827917928695677,-0.1671966413259506
1758273893466486500,0.675486572265625,-0.05516542238295078,-0.018690087422728537,0.03472001572549343
1758273893476444400,0.6854443359375,0.27037644529342647,0.2538029116332531,0.2579372349590063
1758273893486402600,0.695402587890625,0.21049977647960186,0.28098259498178957,0.22328677733838556
1758273893496359400,0.705359375,0.20230507184714078,0.19054069203436375,0.06374561920166015
1758273893506317300,0.7153173828125,0.053665539214015005,0.13284019821584223,-0.11544950295388698
1758273893516275500,0.725275390625,-0.13143529985398053,0.1526665961921215,-0.1774362957894802
1758273893526232600,0.735232666015625,-0.10245616586804389,0.10545008698701858,-0.021862287718057632
1758273893536190500,0.7451904296875,-0.0547308303579688,0.1715285330504179,0.07603636097609996
1758273893546147300,0.755147216796875,0.029682606080174444,0.223416541197896,0.03769347857832908
1758273893556105500,0.76510546875,-0.02148760918676853,0.20766893696784972,-0.018522914162278175
1758273893566063400,0.7750634765625,0.17067630013525484,0.0997720413506031,0.24953765540421008
1758273893576020500,0.7850205078125,0.04172200344204902,0.07815875995755195,0.05719312881827354
1758273893585978600,0.794978515625,-0.07471241889595985,0.009662731358408927,0.07777180646657943
1758273893595935200,0.804935302734375,-0.03188976073563099,-0.01200841770172119,0.0025187048226594923
1758273893605893400,0.814893310546875,-0.0556178423255682,0.030241993528604506,-0.01606792222559452
1758273893615851500,0.8248515625,-0.012623334729671478,0.06053425593972206,-0.12420914799273014
1758273893625808400,0.834808349609375,0.12733838592916727,0.25807752021253105,0.12197218272089957
1758273893635766500,0.8447666015625,0.10287380675822495,0.2711749021947384,0.4712801259100437
1758273893645723400,0.854723388671875,0.1331403502061963,0.14612404268085954,-0.4035305317640304
1758273893655681300,0.864681396484375,0.050365328624844545,0.13613164097666738,-0.9492074347496032
1758273893665639400,0.874639404296875,0.035934944473207,0.32694238212406634,-0.696615067949891
1758273893675596500,0.884596435546875,-0.0507335774153471,0.5070289001613855,-0.6175958917707205
1758273893685554400,0.894554443359375,-0.41196226002275943,0.9899942031681537,-0.8523159172713756
1758273893695511300,0.90451123046875,-0.6531178715288639,1.718932747095823,-1.4046166223108767
1758273893705469400,0.914469482421875,0.3067348758757114,2.0389818625748157,-2.2925164786607026
1758273893715427300,0.92442724609375,0.6612529549285769,1.6823060209661722,-1.8852888459444046
1758273893725384400,0.934384521484375,-0.11515607296526431,1.8369523927986622,-1.3061311136394738
1758273893735342600,0.944342529296875,-0.35591187149882314,1.558726987570524,-0.9302963980525731
1758273893745299500,0.954299560546875,-0.3148959704995155,1.0336860453784464,-0.6451993534892797
1758273893755257300,0.96425732421875,-0.755157857811451,1.1585375829279423,-0.4458049083918333
1758273893765215500,0.974215576171875,0.4638298099040985,1.6266677203744648,-0.5894844805300236
1758273893775172400,0.98417236328125,1.9916011027187108,0.9581623100996017,0.41203415621519085
1758273893785130500,0.994130615234375,-0.034831221015006304,-0.2730564781576395,1.352367964157462
1758273893795088600,1.004088623046875,-0.5623538970202208,0.5519570061683654,1.3086001341015099
1758273893805045200,1.014045166015625,-0.29022520123198625,1.1259604244500399,1.5892372766464948
1758273893815003400,1.02400341796875,-0.5220739090800285,0.9222457780659198,1.47814772246778
1758273893824960500,1.03396044921875,0.5039471546284854,0.5997019231617451,0.46038931406140327
1758273893834918400,1.04391845703125,1.0266530780017376,-0.14095979178547857,-0.34472704513967034
1758273893844876500,1.05387646484375,-0.056336219727993006,-0.16246669019460677,-0.39831308937668797
1758273893854833400,1.06383349609375,-0.604396218457818,0.039943887853622434,-0.447841967177391
1758273893864791300,1.073791259765625,-0.5488742377221584,-0.22154490210711955,-0.47653351639360186
1758273893874748400,1.08374853515625,-0.2779705536842346,-0.645159606000781,-0.4913607909083366
1758273893884706600,1.09370654296875,-0.6209434486329555,-0.18660685971677302,-0.6898068492397665
1758273893894664400,1.10366455078125,-1.165706670839712,-0.6691869627982377,-0.1369336050093174
1758273893904621300,1.113621337890625,-0.7104968783080577,-0.7505290289670229,0.2847501308217645
1758273893914579500,1.123579345703125,-1.1633114462662488,-0.5315618683934211,0.34157296502292156
1758273893924536600,1.13353662109375,-1.4080658859819173,1.62279760094285,-0.7870520024612545
1758273893934494500,1.143494384765625,1.6875409990102053,1.9516963778316974,-1.607623704947531
1758273893944452600,1.15345263671875,2.4288743296086786,1.9033084867596626,-0.6262798412248491
1758273893954409500,1.163409423828125,2.2472587023079393,1.740681053045392,0.47595337841808794
1758273893964367400,1.173367431640625,0.9359621687293053,0.5638455968827009,0.7946949184298515
1758273893974325500,1.183325439453125,0.09989007823970168,0.4048907142013311,0.7266603698626161
1758273893984282400,1.193282470703125,-0.7740227172791957,-0.18017068918943405,0.7979811004936694
1758273893994240500,1.203240478515625,0.11242756131682544,-0.8529103760331869,0.12530161940455437
1758273894004197400,1.213197265625,-0.20974925037324427,-0.23693945511579512,-0.31666677956432104
1758273894014155300,1.2231552734375,-0.5724047509133815,0.07773322802186011,0.6856307325989007
1758273894024113400,1.233113525390625,-0.31722470570802686,-1.127405362561345,1.9948945913061498
1758273894034070500,1.243070556640625,-0.08504325877428054,-3.248197493338585,2.4179943314149974
1758273894044028400,1.2530283203125,0.42291912284493444,-4.530280791914463,2.445321314279735
1758273894053985300,1.2629853515625,0.3912766148686409,-4.123063680592179,1.8952721875593066
1758273894063943400,1.272943359375,-0.6461515396475792,-3.267796512299776,1.3836036448985338
1758273894073901300,1.2829013671875,-0.9624947863459586,-2.3335633593201637,1.1448498338371516
1758273894083858400,1.2928583984375,-1.080662900608778,-1.5415584106266498,0.7676540590301155
1758273894093816600,1.302816650390625,-1.0808405952632427,-0.7425351076036691,0.4234703269869089
1758273894103773400,1.3127734375,-0.955265419614315,-0.027262685456871986,0.5020701087102294
1758273894113731300,1.3227314453125,-0.86424367095232,0.42614334558844563,0.922769509679079
1758273894123689500,1.332689453125,-0.8101070070952177,0.6412158368110656,1.2166171391919254
1758273894133646600,1.342646484375,-0.3224164291322231,1.7515099055737255,1.2091276602193712
1758273894143604500,1.3526044921875,-0.030436054795980452,2.6330145079284906,0.9420549326464533
1758273894153561300,1.362561279296875,0.07499416301336605,2.3712404712855815,0.6988198845177889
1758273894163519500,1.37251953125,-0.32556232594251633,1.585093016448617,0.5227303271621465
1758273894173477400,1.382477294921875,-0.8233774075567721,0.418279772606492,0.35107349155694245
1758273894183434500,1.3924345703125,-1.5438415531277656,-0.5750730933398008,0.2577604170873761
1758273894193392600,1.402392578125,-2.1313971114218235,-1.5817653333306312,0.31353052736520765
1758273894203349200,1.412349365234375,-1.8269629137039183,-2.864371194475889,0.579740792889893
1758273894213307400,1.422307373046875,-1.5578911212682722,-3.177535811138153,0.6348328577756881
1758273894223265500,1.432265625,-2.074858647119999,-0.5859948848485946,0.29218495699763297
1758273894233222400,1.442222412109375,-0.4145803335666656,2.000444334387779,-0.19874562579989433
1758273894243180500,1.4521806640625,0.20109781494922935,2.3451532593488693,1.0679194466307758
1758273894253138400,1.462138427734375,-0.9346796546380967,0.8274287287741899,0.06448766974061727
1758273894263095300,1.47209521484375,0.10394216664209961,-0.17629180192947386,-0.12866934227198362
1758273894273053400,1.482053466796875,-1.1922316166065632,-0.6414730264425277,-0.6205614635780453
1758273894283010600,1.492010498046875,-1.6935247495949268,-0.7862327950328588,-1.0286974433109164
1758273894292968400,1.501968505859375,-1.831021833705902,-1.1305635343313216,-0.933364553451538
1758273894302926600,1.511926513671875,-1.8567571634650228,-1.416543206948042,-0.8449372051969171
1758273894312883500,1.521883544921875,-1.356401749718189,-1.3397300163805483,-0.528003591389954
1758273894322841300,1.53184130859375,-1.0134497514270246,-0.8704016090601682,-0.1778799479037523
1758273894332798500,1.541798583984375,-0.4824737200975418,0.11687398279905319,-0.1965805567204952
1758273894342756600,1.551756591796875,0.1855973904132843,1.432121299830079,-0.7425579039573669
1758273894352714500,1.561714599609375,0.7902186497986317,2.4196833074152466,-1.1893883560046552
1758273894362671400,1.57167138671875,0.3020399960577488,3.055017684972286,-1.3628532639451325
1758273894372629500,1.58162939453125,-0.20897826600074768,3.0867700830638407,-1.2225237328872083
1758273894382586400,1.59158642578125,-0.7658081389024853,2.990178425315022,-1.0520267348416148
1758273894392544500,1.60154443359375,-1.073518727942556,2.560940036320686,-1.0469608297541737
1758273894402502700,1.611502685546875,-0.9284367416605352,1.8976620053052902,-1.205462269579619
1758273894412459300,1.621459228515625,-0.625174218070507,1.10165892688632,-1.2838250276766716
1758273894422417400,1.63141748046875,-0.5098296367958188,-0.10154314267635345,-1.321961866108328
1758273894432374500,1.64137451171875,0.24690350750833748,-0.2670183670371771,-1.2388067591682075
1758273894442332400,1.65133251953125,1.0681683068253098,0.6379413451850414,-0.8492986152768135
1758273894452290600,1.66129052734375,0.7584662517070769,2.5432319456726313,-0.8130709714673459
1758273894462247400,1.671247314453125,-1.2193676069438457,3.3678169754534957,-0.7881877284929156
1758273894472205300,1.681205322265625,-3.2356136138364673,-0.5618880330741405,-0.8672923909984529
1758273894482163500,1.69116357421875,-2.1802654794871805,-9.066635935306548,-0.2542871149536222
1758273894492120600,1.70112060546875,1.2417341909222304,-10.009345824730396,2.383093406164646
1758273894502078500,1.711078369140625,3.4872128779456015,-6.163054427948594,4.814415713447332
1758273894512035300,1.721035400390625,1.7887644082129,-3.286796980845928,4.039231551173329
1758273894521993500,1.730993408203125,0.19040961300060152,-0.6812585088640452,1.7920972058974205
1758273894531951400,1.740951416015625,0.030300591848045587,0.48488487289249893,0.16813447016533464
1758273894541908500,1.750908447265625,-0.38696269719228144,1.5432213754028081,-1.7579715028032659
1758273894551866600,1.76086669921875,-0.8544342245995998,1.9603999087691306,-3.2212077796041965
1758273894561823500,1.770823486328125,-1.6542448786079882,1.7934750701218842,-3.3144030729129907
1758273894571781400,1.780781494140625,-2.1599483753845092,0.9841197581768035,-3.2223382449388502
1758273894581739500,1.790739501953125,-2.949253417469561,0.577008445316553,-2.4351348513081668
1758273894591696400,1.8006962890625,-2.9130115990042684,0.5442986003696918,-1.7399585839897393
1758273894601654500,1.810654541015625,-2.1058440063618122,1.5737018538624048,-1.1225629640314727
1758273894611611400,1.820611328125,-0.9658274379000067,2.86295197532773,0.12499226119443774
1758273894621569300,1.8305693359375,0.27212796513587234,1.8673492846280335,-0.5234356258872896
1758273894631527400,1.84052734375,1.2917081821419298,-0.02468962009847164,-1.1491512573581188
1758273894641484500,1.850484619140625,2.933087587827444,-0.48398178657293317,0.20798859737627207
1758273894651442400,1.8604423828125,3.945125280499458,-0.6783855837762356,1.0874555564235895
1758273894661400600,1.870400634765625,3.05670812227726,-1.238768472984433,0.8992055326096713
1758273894671357400,1.880357421875,1.6715433655418455,-2.117712284940481,0.6064603113807737
1758273894681315300,1.8903154296875,1.5802889771677553,-1.954343677470088,1.2830039205521344
1758273894691272400,1.9002724609375,2.3916895312048494,-1.1049012698084115,1.8197542974993586
1758273894701230600,1.910230712890625,2.5123896481633183,-0.5605307732462883,1.117014463058859
1758273894711188500,1.9201884765625,0.9131130619309842,-0.005302782583236694,0.16229922467321156
1758273894721145300,1.930145263671875,-0.848523539251089,0.7032049677342176,-0.3029911593027413
1758273894731103500,1.940103515625,-1.1321662933528422,1.0052841267585755,-0.6745484167661517
1758273894741060600,1.950060546875,-0.34399449308142066,1.0211316842317582,-0.704612861770764
1758273894751018500,1.9600185546875,0.5727624783098697,0.7540764923155308,-0.47944991529695685
1758273894760976600,1.9699765625,1.342069272983074,0.11378069295883178,-0.25778394409343597
1758273894770933500,1.97993359375,1.1611924813508987,-0.43618601617515085,-0.08048354964330792
1758273894780891400,1.989891357421875,0.5438250645738095,-0.5868769283801317,0.037920565332472324
1758273894790848500,1.9998486328125,0.18227723301462828,-0.5683230345577002,-0.0012086451373994349
1758273894800806400,2.009806396484375,-0.030017464057728645,-0.42838674060106274,0.024542101386561987
1758273894810764500,2.0197646484375,0.03491473457999527,-0.12732640323042868,0.5513635703198612
1758273894820721400,2.029721435546875,-0.1490319660168141,-0.241533212646842,0.812785067198053
1758273894830679300,2.03967919921875,-0.4171428775310516,-0.5760878233402967,1.4308464575886726
1758273894840637400,2.049637451171875,-0.14690562151260672,-1.2448925088226794,1.4669154037050902
1758273894850594600,2.059594482421875,0.34868951902985573,-1.494315597936511,1.4797972432404756
1758273894860552400,2.069552490234375,0.411085988644883,-1.070427337798476,1.8046482060432434
1758273894870509300,2.07950927734375,0.6629531099099666,-0.7526759778678417,1.6641735674262046
1758273894880467500,2.089467529296875,0.7892787386000156,-0.09901859263479709,1.2297517844446002
1758273894890425300,2.09942529296875,0.43443537311553954,0.3091045276165008,0.6957838047575206
1758273894900382500,2.109382568359375,0.28787469258308407,0.32134733859598635,0.5099946180991828
1758273894910340600,2.119340576171875,0.2530605688333511,0.18659166214764117,0.3838791980937123
1758273894920297500,2.12929736328125,0.48897827968597407,0.0660614949285984,0.3002652414701879
1758273894930255400,2.13925537109375,0.5695780030548572,-0.0011889175236225128,0.2219704340428114
1758273894940213500,2.149213623046875,0.35073534564375874,0.11960486906766891,0.30391543454080816
1758273894950170600,2.159170654296875,-0.012784644504915923,0.4358639446139335,0.3620721476942301
1758273894960128500,2.16912841796875,-0.09168810361623764,0.24731179604828357,0.24319910003244877
1758273894970086400,2.17908642578125,-0.15566285539865493,-0.3025491146236658,0.1606973424345255
1758273894980043500,2.18904345703125,-0.5468155516266823,-0.6661620620191097,0.15674363637268543
1758273894990001400,2.19900146484375,-0.6117559335708618,-0.7604816831827164,0.5203798185132443
1758273894999958500,2.20895849609375,-0.6668973905563355,-0.6935135948032141,0.5697860928475856
1758273895009916400,2.21891650390625,-0.5671674347817898,-0.5067331320852041,0.10995017488524317
1758273895019874300,2.228874267578125,-0.5887672721713781,-0.053446928027272224,-0.062072863683849566
1758273895029831400,2.23883154296875,-0.692045860338211,0.1697363889366388,-0.2610182498395443
1758273895039789300,2.248789306640625,-0.7576525972366333,0.29314941811561585,-0.44657486985102296
1758273895049746400,2.258746337890625,-0.9761936413526534,0.5682067147016525,-0.0475843196041882
1758273895059704600,2.26870458984375,-1.1029635797441004,0.5681394946843386,0.07716083496138453
1758273895069662500,2.278662353515625,-0.9344634546041488,0.5490916798651219,0.2747116980187595
1758273895079619300,2.288619384765625,-1.0294377402842043,0.5523211633056402,0.024679537095874546
1758273895089577500,2.298577392578125,-1.2811948253035546,0.762791129168868,0.14571502348855137
1758273895099534600,2.30853466796875,-1.086507534983754,0.9047913699179887,-0.09108999159261584
1758273895109492500,2.318492431640625,-1.0550146646112204,1.050820720052719,0.04318988403752446
1758273895119450600,2.32845068359375,-0.9624187985002994,1.1862971119910477,0.331761326713115
1758273895129407500,2.338407470703125,-0.8667319806367159,1.2619576253920792,0.36999694934412836
1758273895139365400,2.348365478515625,-0.9151526049345731,1.2265946355879307,0.5153099679030477
1758273895149323500,2.358323486328125,-0.9327817851275205,0.981188965421915,1.0622330715574324
1758273895159280600,2.36828076171875,-0.8902724307000637,0.6430044737935066,1.5123336313165723
1758273895169238500,2.378238525390625,-1.1186533163070678,0.5768365958809852,1.580568232500553
1758273895179195400,2.3881953125,-1.5113117409229277,0.4476514130413532,1.5786279120877384
1758273895189153500,2.398153564453125,-1.7886691311448812,0.3799117557674646,1.7146935020908711
1758273895199111400,2.408111328125,-1.8254063319116829,0.3438654598742723,1.875878920303285
1758273895209068500,2.418068603515625,-1.5926929700583219,0.22212357877790925,2.045222072138637
1758273895219026700,2.428026611328125,-1.2880822467297315,-0.07115092702209949,2.10333056223616
1758273895228983300,2.4379833984375,-1.064062478941679,-0.13332652042806148,1.9800975657992064
1758273895238941400,2.44794140625,-1.0882261024046689,-0.14253449375629423,1.6663199318051338
1758273895248899600,2.457899658203125,-1.4016314690202474,-0.3118202163159847,1.4288418397679925
1758273895258856400,2.4678564453125,-1.6868915951907635,-0.7329729140102863,1.2063541769180446
1758273895268814600,2.477814697265625,-2.0450072603441773,-1.2939777345091104,0.8863275655318051
1758273895278772500,2.4877724609375,-2.427935587453842,-1.9335154089748858,0.5018520820453762
1758273895288729300,2.497729248046875,-2.8852415485471483,-2.8532740464001893,-0.07848097764924168
1758273895298687500,2.5076875,-3.2647271878570314,-3.8274908347219228,-0.35707784653827546
1758273895308644600,2.51764453125,-3.3781565831601617,-4.467604847770929,-0.029436814625561237
1758273895318602500,2.5276025390625,-3.091435736787319,-4.729694526234269,0.7135213406957686
1758273895328561000,2.537560791015625,-2.3824790736585855,-4.857404960346222,1.5903040290951729
1758273895338518000,2.54751806640625,-2.1346948377929627,-4.920217682611942,2.1170438841596244
1758273895348476000,2.557475830078125,-2.9134640189468857,-5.286521184265613,2.1384477605856955
1758273895358432800,2.567432861328125,-4.635618066176772,-5.713311595585942,2.020541950520873
1758273895368391000,2.577390869140625,-7.016855615341663,-5.253246106651425,2.0017590702481565
1758273895378348800,2.587348876953125,-7.927252550181746,-4.088433681237698,1.4624550632953643
1758273895388306000,2.597305908203125,-6.354974007120728,-3.1008886247873306,0.7209164193831383
1758273895398263800,2.607263916015625,-4.213764526736736,-2.19382521828413,1.1665391761410981
1758273895408221700,2.6172216796875,-1.9671575663357972,-1.6750392448335885,1.7221826888024805
1758273895418178800,2.6271787109375,0.15757307293415068,-1.4778969625771046,1.8367904802352188
1758273895428136700,2.63713671875,1.183827507007122,-1.4953496171593665,1.4136566917262972
1758273895438093800,2.64709375,1.060046813559532,-1.8192881412923334,0.5587005256118253
1758273895448052000,2.657052001953125,0.2952818270344287,-2.274671609890461,-0.3882754237586632
1758273895458009600,2.667009521484375,-0.31342516729459163,-2.3823078087449074,-0.6941143371753394
1758273895467966700,2.676966796875,-0.24175226222500204,-2.700478855392337,-0.7289854518093168
1758273895477924900,2.6869248046875,0.4599602749943733,-2.806753702765703,-0.8940474922593682
1758273895487882000,2.696882080078125,1.568121423381567,-2.2423107245117424,-0.521968001020141
1758273895497839900,2.70683984375,2.455261693535745,-1.9822914225816726,-0.049036240012128834
1758273895507797800,2.7167978515625,2.21160783547312,-2.0557535491555927,0.007176577098481357
1758273895517755000,2.7267548828125,2.2185785512685774,-1.4124994845151901,-0.10409845318235457
1758273895527712800,2.736712646484375,2.239782667338848,-0.9584352818220854,0.02976668590074405
1758273895537670000,2.746669921875,2.509331721897423,-1.247254561778903,0.48762923969719557
1758273895547628000,2.7566279296875,2.2099790652275084,-1.3830653002381323,0.2741087636895478
1758273895557585700,2.766585693359375,2.0948516338348386,-1.3173586100965737,0.3759021547999233
1758273895567542800,2.776542724609375,1.2390718398451805,-1.5402502506375313,0.8777513142358511
1758273895577501000,2.7865009765625,0.6340156961739063,-1.725855824357271,1.0640588987451045
1758273895587458800,2.796458740234375,0.35636750631183384,-1.8443372423529625,1.1249546084083617
1758273895597416000,2.806416015625,0.4662231347814202,-1.92923670874238,0.558193416339904
1758273895607373800,2.816373779296875,0.8136784358412027,-1.8112006964266298,0.22038564906939861
1758273895617330700,2.82633056640625,1.0100643467724322,-1.8748843563079833,0.017679010684043168
1758273895627288800,2.836288818359375,2.020981510981917,-2.144273544129729,-0.5012449099324643
1758273895637246700,2.846246826171875,3.5844226675927637,-2.39591723190248,-0.23280878505185246
1758273895647203800,2.856203857421875,4.483593859541416,-2.093629398563504,0.9025674102582036
1758273895657161700,2.86616162109375,4.477832227274775,-2.0660516558080912,1.6804276598736643
1758273895667118800,2.876118896484375,2.985891541776061,-2.024984901404381,1.111116198800504
1758273895677076700,2.88607666015625,2.592884157592058,-1.5345751276105641,0.4274740096703171
1758273895687035000,2.896034912109375,3.737933313393593,-1.7546213155925272,1.7702131447389722
1758273895696992000,2.905991943359375,3.9596839672058817,-0.9270371039956807,2.4475977347791193
1758273895706949600,2.91594970703125,4.518533655497431,-0.7372428464144468,2.481591482056677
1758273895716907800,2.92590771484375,4.377143071079254,-0.21451836447119713,2.174292834818363
1758273895726865000,2.935864990234375,3.7888913472145793,0.7742477582067251,2.059516701081395
1758273895736822800,2.94582275390625,4.5442689852565525,1.908690179798007,2.4064403794825076
1758273895746780000,2.95577978515625,5.3048909536927935,3.0591964319616554,2.634343418444693
1758273895756737800,2.96573779296875,5.429571226328611,4.712329549935459,1.2650287034004926
1758273895766695700,2.97569580078125,5.36200341849029,5.507607236689329,0.0034048400074243542
1758273895776652800,2.98565283203125,4.548259516197443,5.88731908597052,-0.29388270082622764
1758273895786611000,2.99561083984375,3.9745635564297435,5.694461933687329,-0.04655249233841896
1758273895796567800,3.00556787109375,3.8317192660719153,5.304265515270829,0.13205869244933127
1758273895806526000,3.01552587890625,3.8263089314609764,4.800241057622433,-0.07161386835873126
1758273895816483800,3.02548388671875,3.8385429746121167,4.028301576358079,0.5338578703761101
1758273895826440700,3.035440673828125,3.2982845895439383,3.473284598097205,1.135859594912827
1758273895836398800,3.04539892578125,2.7038720049619673,2.654320915329456,1.0822586453676224
1758273895846357000,3.05535693359375,2.7394617892593143,2.6253736377865073,1.621585594804585
1758273895856313900,3.06531396484375,2.3333318886518475,2.6060633726388214,1.6900354461744427
1758273895866271700,3.075271728515625,1.5807476807206868,2.6892835076391695,1.4070868118166924
1758273895876228900,3.085228759765625,0.5881085160017013,2.6997446958988904,0.8394061668157577
1758273895886186800,3.095186767578125,-0.6080512338340283,2.3716660032212733,0.04373948074430227
1758273895896145000,3.105144775390625,-1.8409663046151399,2.0247855794399974,-0.6677458240792155
1758273895906102000,3.11510205078125,-3.015044571024179,1.825924802827835,-1.1202572443723677
1758273895916059600,3.1250595703125,-4.090432746100426,1.6879186001509427,-1.0600476903423666
1758273895926016800,3.135016845703125,-4.61956300343275,1.5980945368409156,-0.7804127105772495
1758273895935975000,3.144974853515625,-4.7731584049075835,1.4386813889980314,-0.7652355997115373
1758273895945932800,3.154932861328125,-4.4837674625426525,1.0598428154200314,-0.6950491338074207
1758273895955890000,3.164889892578125,-2.6800486463040114,0.6365677187442779,-0.04738631281405687
1758273895965847800,3.174847900390625,0.02831950103342533,-0.06212824713289737,0.6810384363725781
1758273895975805700,3.1848056640625,2.8419676394879816,-1.7872189323365688,-0.3962719389379024
1758273895985762800,3.1947626953125,3.426319433304667,-3.8259488659769296,-1.9811644643783568
1758273895995721000,3.204720947265625,0.06808218710124492,-5.100833777481317,-4.325175275693834
1758273896005677800,3.214677734375,0.11808218954503535,-4.607631158098578,-7.684601731681823
1758273896015635700,3.2246357421875,-1.9650088638693093,-2.355196514457464,-7.306656892073154
1758273896025593900,3.23459375,-2.264299268957972,-0.9708218851864338,-3.8947263418659563
1758273896035550700,3.24455078125,3.201355078142881,-0.49236032333970065,-2.22417856323272
1758273896045508900,3.2545087890625,3.731608202025294,0.0263034850358963,-1.8537705488696694
1758273896055466000,3.264466064453125,2.615518598726392,-0.3382388521641493,-1.1887629175826906
1758273896065423600,3.274423583984375,2.567447518518567,-1.8668010030955076,-0.378202613762021
1758273896075381800,3.2843818359375,3.0430355707556007,-3.2517356043368575,0.6883893836572766
1758273896085339000,3.2943388671875,3.221583627179265,-3.7615783928751942,1.5868790230825542
1758273896095296800,3.304296875,2.694443082359433,-3.4234032535970207,1.6402340350426732
1758273896105255000,3.3142548828125,1.3550924206852912,-2.5539754580050706,1.5831323839001357
1758273896115211800,3.324211669921875,0.7691188708856701,-1.940792121979594,1.8680562638536093
1758273896125169700,3.334169677734375,1.1934195112168788,-1.3427245220214128,2.2982037305168808
1758273896135126800,3.344126708984375,1.520429113358259,-0.7605851435571909,2.409389876937866
1758273896145085000,3.3540849609375,1.7082050168544054,-0.31868133425712586,2.2122606002934275
1758273896155042800,3.364042724609375,1.6686776008471846,-0.24797172126173972,1.4421012804441153
1758273896164999700,3.373999755859375,1.683272235649824,-0.2730646614640951,1.319124158464372
1758273896174957800,3.383957763671875,1.712437539857626,-0.44752457179129124,1.467992093025893
1758273896184915000,3.3939150390625,1.9046999411180614,-0.6064157415866851,1.717234126484394
1758273896194872800,3.403872802734375,1.698872832624614,-0.8674743234366178,1.4046546162337064
1758273896204831000,3.4138310546875,1.2452572504818438,-1.05682434438169,0.6471440578162669
1758273896214787800,3.423787841796875,0.9429054119959474,-0.8284732693910598,0.6586303513400257
1758273896224745700,3.433745849609375,0.8671554667457938,-0.48240942268967624,1.1485609633147715
1758273896234704000,3.443703857421875,1.073939437572658,-0.5675333454847336,0.8829188530668616
1758273896244660700,3.45366064453125,1.9189783495783805,-0.02090016468763351,1.3883286275938151
1758273896254619000,3.463618896484375,2.250015307539701,0.36502164514958857,2.098384776397049
1758273896264575700,3.47357568359375,1.3444412628114222,-0.15581366204619407,1.4784129492752254
1758273896274533600,3.48353369140625,0.4946817520245909,-0.7440583716481923,0.8825316073149442
1758273896284491800,3.49349169921875,-0.0549367281936109,-0.8232382913470268,0.4913632751263678
1758273896294449000,3.503448974609375,-0.44830125525221226,-0.6303016440868378,0.3925498496748507
1758273896304406800,3.51340673828125,0.11025982535630464,-0.20426468148231505,0.6038093584805727
1758273896314365000,3.523364990234375,0.4423965612530708,0.38285073182880874,0.8355432808425277
1758273896324321800,3.53332177734375,-0.15458163603320718,0.8155453987568616,0.8053189691010862
1758273896334279700,3.54327978515625,-0.3324154067076742,1.1098504166483878,0.9463985878739506
1758273896344236800,3.55323681640625,-0.16408479291573166,1.2543085719436406,0.7734173717971891
1758273896354195000,3.56319482421875,-0.08954992254376411,1.4019243144869804,0.26822803508788345
1758273896364152800,3.57315283203125,-0.5352770895242691,1.655657083493471,-0.21873707814477383
1758273896374110000,3.58310986328125,-0.7974993813913315,2.2119220159888267,-0.5099911840330809
1758273896384067800,3.59306787109375,-1.1164145974695683,2.7063381028145552,-0.6999682508353143
1758273896394025000,3.60302490234375,-1.2142097857892513,2.2660241930544376,-0.17195004639811812
1758273896403982800,3.61298291015625,-1.0863187344133853,1.619936366292834,0.2152616571191698
1758273896413941000,3.62294091796875,-0.7924258775193244,1.2143050628572702,0.8893936751041561
1758273896423897900,3.63289794921875,-0.5740249725263565,0.4475520443201065,1.6750161562189458
1758273896433855700,3.642855712890625,-0.7684919711589813,0.15310907926261424,1.946151457055658
1758273896443814000,3.65281396484375,-0.665756330762431,0.3290817322403192,1.2988923945575952
1758273896453770800,3.662770751953125,-0.3955412500431761,0.4716442830473184,0.2980928658671677
1758273896463729000,3.67272900390625,-0.4922223031084984,0.9254185628831386,-0.3345382440805435
1758273896473686000,3.68268603515625,-0.7293301735937595,1.0570511388748884,-0.6145093969974667
1758273896483643600,3.6926435546875,-1.305994920039177,0.9639654434204101,-0.6517893263388425
1758273896493601800,3.702601806640625,-2.085429140973091,0.8530454005897045,-0.5459210139397531
1758273896503559000,3.712558837890625,-2.760204717558622,0.471094832471013,-0.28020160067193206
1758273896513516800,3.722516845703125,-3.28418182991147,0.028527006304264066,0.00012523381486535072
1758273896523475000,3.732474853515625,-3.6675136232554912,-0.2520131056070328,0.6253303584802895
1758273896533431800,3.742431884765625,-3.788074770134687,-0.6103945820897817,1.3197872985482215
1758273896543389700,3.7523896484375,-3.660934244865179,-1.2313748556017874,1.9520169880881904
1758273896553346800,3.762346923828125,-3.3342806165546177,-1.728761482670903,2.4257024215742944
1758273896563305000,3.772304931640625,-2.70998435036242,-2.075851165288687,2.6862644520789383
1758273896573262800,3.782262939453125,-2.416646716198325,-2.513350602149963,2.455061494788527
1758273896583219700,3.7922197265625,-2.448727031069994,-2.8501141210645438,1.9148796820878982
1758273896593177900,3.802177734375,-2.6453496733665465,-2.9701065281450747,1.2120856332421301
1758273896603135000,3.812135009765625,-3.1262019297420975,-3.2581770355612036,0.2250220766983926
1758273896613092900,3.8220927734375,-3.896182093632221,-3.8008454043805595,-0.7500736133497208
1758273896623051000,3.832051025390625,-4.303996001803875,-4.410103091394901,-1.0349999044559894
1758273896633007900,3.8420078125,-3.6858939140766855,-4.919521517041325,-0.20430939740687606
1758273896642965800,3.8519658203125,-2.3667285468190906,-5.241621135309338,1.3177492168493568
1758273896652924000,3.861923828125,-1.0913234108328818,-5.387911766728759,2.350425646793842
1758273896662881000,3.871881103515625,-0.8775906437814235,-5.1395086683124305,2.4292308879613875
1758273896672839000,3.8818388671875,-1.5926806950986385,-4.448267694616318,1.1129309200722723
1758273896682795800,3.891795654296875,-2.7351988711178303,-3.6788410729557275,-0.614660276710242
1758273896692753700,3.901753662109375,-3.9181495952904224,-2.633261760687828,-1.5843258314684032
1758273896702711800,3.9117119140625,-4.189071984028816,-1.426483586204052,-1.8716994426615534
1758273896712669000,3.9216689453125,-3.434682187980413,-0.544068883267045,-1.465681916387379
1758273896722626800,3.931626708984375,-2.229386361008882,-0.20754618737101554,-1.0572202118314802
1758273896732583700,3.941583740234375,-0.8759539824903011,-0.24278233592510223,-0.037499271180480714
1758273896742541800,3.951541748046875,-0.9509269520185887,-1.1644845086336135,0.5065883167870342
1758273896752499700,3.961499755859375,-0.5476769907616078,-2.23657130407691,0.6117334294781088
1758273896762456800,3.971456787109375,-0.07575272172912954,-2.90448517819941,-0.11501125766709447
1758273896772415000,3.9814150390625,0.36372342203259467,-2.8425381328523156,-0.2836288717068732
1758273896782372900,3.991372802734375,0.572806609712541,-3.25661753115952,-0.6066862290911376
1758273896792329700,4.001329833984375,1.660642470690608,-3.5642397112637756,-0.4502107421353459
1758273896802287900,4.011287841796875,2.857606522646546,-3.4812083768337962,0.20887495175674556
1758273896812245800,4.021245849609375,3.7602982899367805,-3.815864109814167,-0.11981237433850765
1758273896822203000,4.031202880859375,4.218733255060017,-3.3531080666214224,0.09615092824399471
1758273896832161000,4.0411611328125,4.042364003980159,-2.6257576686680317,0.35907603461816906
1758273896842118000,4.051117919921875,3.460140162102878,-1.9042974977970122,0.27245617417693135
1758273896852075800,4.06107568359375,2.9143621368303894,-0.9967156203776597,0.31726649902313947
1758273896862034000,4.071033935546875,2.39369780228734,-0.5084750073164701,0.4198883768469095
1758273896871991000,4.080990966796875,1.5890917306959629,-0.7362626032054423,0.4068853951498866
1758273896881949000,4.090948974609375,1.41281687990129,-0.8153016531288624,0.4538736485570669
1758273896891905800,4.10090576171875,2.031593505889177,-0.24475977347791195,0.21931495109796523
1758273896901864000,4.110864013671875,2.2638532787561414,-0.3256365602225065,-0.05100917948633432
1758273896911821800,4.12082177734375,2.433651627013087,-0.3022393180221319,-0.18479308829307556
1758273896921779000,4.130779052734375,2.5945430307149886,-0.8368746025115251,-0.00016746552139520644
1758273896931736800,4.14073681640625,2.728376916143298,-0.9757067346185445,0.4134551289290189
1758273896941695000,4.150695068359375,3.1231548171311614,-1.0850929920107126,0.8778475411519407
1758273896951651800,4.16065185546875,3.098374011617899,-0.7711924622893332,1.2932973510295152
1758273896961609700,4.170609619140625,2.9155367335677145,-1.0298965899676085,2.0861723605558273
1758273896971566800,4.18056689453125,3.228629454037547,-1.564670990666747,3.3088033532097936
1758273896981525000,4.19052490234375,3.5510008749842643,-1.7339678191423415,3.1280417123898863
1758273896991483000,4.20048291015625,4.018446537297963,-1.3520663508623838,2.384420855376124
1758273897001439700,4.210439697265625,4.2447658142000435,-0.5769371336460113,1.9850626408606766
1758273897011398000,4.22039794921875,4.860418170687556,0.19872224492430685,1.9706521304532885
1758273897021355800,4.230355712890625,4.695510517081618,1.1363748509585856,1.6939593416199088
1758273897031313000,4.24031298828125,4.314878630346059,1.9466385099202392,1.2402721555456517
1758273897041271000,4.25027099609375,4.068241372558474,2.51913853790164,1.0136863366618751
1758273897051228000,4.260227783203125,3.5798926229476926,3.393717724907398,0.5728942879959941
1758273897061185800,4.270185791015625,3.38328868535161,4.5223780559659,0.0006648936495184898
1758273897071144000,4.28014404296875,3.0557875003010033,4.247058309051394,-0.41979017716944217
1758273897081101000,4.29010107421875,3.3869425316840407,3.932650414329767,-1.1172688762113452
1758273897091059000,4.300058837890625,3.847091022726893,3.843583306866884,-1.4290055058971047
1758273897101016800,4.310016845703125,4.017069403725862,3.2658880483299493,-1.0701923599988221
1758273897110974000,4.319973876953125,4.115260313364863,3.0698095959126945,-0.1713099218636751
1758273897120931800,4.329931884765625,3.9566426998138424,2.883575076639652,0.7073106494873762
1758273897130889000,4.339888916015625,3.427902903103828,2.6377269234031435,1.52373779951483
1758273897140846800,4.349846923828125,2.777504227405786,2.6519389886289835,2.082764597938955
1758273897150804700,4.3598046875,1.8392904803574084,2.9330922640025614,2.2839041331380603
1758273897160761900,4.369761962890625,0.5548731858760119,3.256208950358629,2.434517011670768
1758273897170719700,4.3797197265625,-0.9163871151655912,3.42342312734127,2.073185745471716
1758273897180676900,4.3896767578125,-2.5083722292155026,3.3622494044542313,0.9991492772653698
1758273897190635000,4.399635009765625,-4.062832206991315,3.294432005769014,0.040294893248379225
1758273897200592600,4.409592529296875,-5.250835538378357,3.0489059240937233,-0.5394815554767847
1758273897210549800,4.4195498046875,-5.713768107181787,2.590976278144121,-0.9018626229897141
1758273897220508000,4.4295078125,-5.525201345568895,2.018124952507019,-1.2708669080346822
1758273897230465800,4.4394658203125,-6.164274909654259,1.5200345610827206,-1.6558751101583242
1758273897240423000,4.4494228515625,-5.880664888778329,0.6981418391257525,-1.1093252237305045
1758273897250380800,4.459380859375,-2.8713071312189102,-1.7029460734128952,-0.9284288506150246
1758273897260338000,4.469337890625,1.2912848421633243,-5.9345665748357765,-2.5173095689088103
1758273897270295800,4.4792958984375,2.2957418704479933,-8.394064006245136,-4.504111746913194
1758273897280254000,4.48925390625,-0.44293958208858963,-8.04556094969809,-5.946372163441777
1758273897290211000,4.499211181640625,2.5314029761910435,-6.018745910257101,-4.757205341233313
1758273897300168700,4.509168701171875,0.7677659949719905,-2.2724533493191004,0.48353696541488167
1758273897310126800,4.519126953125,1.17185766775012,-0.08539572547376155,1.1527367876946926
1758273897320084000,4.529083984375,3.0471891833037135,1.9854478407859801,-1.0196446605443954
1758273897330041300,4.539041259765625,-0.002010170778632164,3.296086202716827,-2.4866221697002646
1758273897339998200,4.548998291015625,-1.2529010432332754,3.0472581568866968,-2.5818282183095813
1758273897349956400,4.558956298828125,1.4556009596168995,1.6316186207801102,-1.3447519361957907
1758273897359914200,4.568914306640625,4.913430798950791,-0.20776012238264083,0.1264016896009445
1758273897369871400,4.578871337890625,5.636279209309816,-1.1994757425159215,1.1937371988639234
1758273897379829500,4.58882958984375,4.87345739274174,-1.7332073561638592,1.1544704796195029
1758273897389787400,4.598787353515625,2.420178981977701,-2.3323516454428432,0.5015678582765162
1758273897399744300,4.608744140625,-0.3098153062343597,-3.0716882492661473,0.07630509491488337
1758273897409702400,4.618702392578125,-0.16283669255077837,-3.625456104248762,0.14261428099423645
1758273897419659300,4.6286591796875,1.0038242833390831,-2.9775574286729096,0.6369328987948596
1758273897429617400,4.638617431640625,1.6568576914548874,-1.7745184407174586,0.6115427292115986
1758273897439575600,4.648575439453125,1.905256698217988,-0.46235213856697077,0.4691765777595341
1758273897449532200,4.6585322265625,1.764941049554944,0.5039163210988045,0.04791632803753018
1758273897459490300,4.668490234375,1.6349688079908489,1.0796382337361574,-0.3474798509791493
1758273897469448400,4.678448486328125,1.6507281026586889,1.205498656067252,-0.5519840403057634
1758273897479405300,4.6884052734375,1.814848405279219,0.9983318234026431,-0.6088119890734554
1758273897489363500,4.698363525390625,1.6879679922506212,0.4941442841470241,-0.7321912621133029
1758273897499320300,4.7083203125,1.2673504243463276,-0.11750877357125282,-0.8050814340181648
1758273897509278200,4.7182783203125,0.712299836076796,-0.29666473276019095,-0.5598939366474748
1758273897519236400,4.728236328125,0.2827569111779332,-0.16692776125669478,0.021096564042568204
1758273897529193500,4.738193359375,0.286962838435173,-0.11783259869813918,0.7794023644909263
1758273897539151400,4.7481513671875,1.1677242212072014,-0.06128770465552807,1.7246505402207373
1758273897549109200,4.758109130859375,1.9305644502148032,-0.051263154247403145,2.821910939887166
1758273897559066400,4.76806640625,1.7497933109141885,-0.3300590528398752,3.085511022913456
1758273897569024300,4.778024169921875,1.0452280146121977,-0.3737029642552137,2.9622067148059603
1758273897578981400,4.7879814453125,0.6833528507947921,-0.3039607349872589,2.781011358743906
1758273897588939500,4.797939453125,0.13126374267935753,-0.20838906793594358,2.7030732557997106
1758273897598897200,4.807897216796875,-0.3953204834319651,0.0029874913781881333,2.4613129563987255
1758273897608854300,4.817854248046875,-0.5068192029334604,0.600227992862463,2.2067354071311653
1758273897618812400,4.8278125,-0.535195256459713,1.155145602402091,1.5298463455229996
1758273897628770300,4.837770263671875,-0.5711528511561453,1.414336636814475,0.8768956472545861
1758273897638727400,4.8477275390625,-0.627082097518444,1.6050561925470828,0.6713124305196106
1758273897648685300,4.857685302734375,-0.7575612656913697,1.4894816019088029,0.05612937204428017
1758273897658642200,4.86764208984375,-0.8902665854811668,1.2848147693663834,-0.6713355191342533
1758273897668600300,4.877600341796875,-0.8283189556121826,1.420608556690812,-0.1223024375885725
1758273897678558500,4.887558349609375,-0.7560369787335396,1.1115274099498986,-0.27401867425329984
1758273897688515300,4.897515380859375,-1.010570542728901,0.47485038561224935,-0.49868601922988887
1758273897698473200,4.90747314453125,-1.3122680089592933,0.5588865131705999,-0.10217610681764781
1758273897708430300,4.917430419921875,-1.4597896434783935,0.4108043221592903,0.01829071284160018
1758273897718388200,4.92738818359375,-1.3001941248059272,0.6050801090687513,0.3618687340766191
1758273897728346400,4.937346435546875,-1.066494016937539,0.7849988693237304,0.2492495591778308
1758273897738303500,4.947303466796875,-1.087217656014487,0.8658563668459653,0.20994353083632886
1758273897748261000,4.95726123046875,-1.1919663167338819,0.8511755150645971,0.44324733286350965
1758273897758219300,4.96721923828125,-1.2780524356245995,0.88341598893404,1.1767563265118748
1758273897768176400,4.97717626953125,-1.2744471046090124,0.43774610509872436,1.2352537428617476
1758273897778134300,4.98713427734375,-1.144160682529211,-0.30044249773323534,0.6917520650234072
1758273897788091400,4.99709130859375,-1.6490449718773363,-0.6869301247596741,0.9911503874659537
1758273897798049300,5.00704931640625,-1.8866461057722568,-1.3054764491230249,1.6071603252194822
1758273897808007200,5.017007080078125,-1.6753355974316595,-1.6336907508790492,1.92777277366966
1758273897817964300,5.02696435546875,-1.8839865311741828,-1.8044015378057956,1.353925422732532
1758273897827922400,5.03692236328125,-2.4310581033885477,-1.6917296828716992,0.9086544020216911
1758273897837880300,5.04688037109375,-3.006159838300943,-1.7660154007881879,0.44227527296096086
1758273897847837200,5.056837158203125,-3.3261522551566363,-1.834520781737566,-0.33707879540883
1758273897857795300,5.06679541015625,-3.3935324314683672,-2.023383895948529,-1.4186796344548462
1758273897867752200,5.076752197265625,-3.4979169350504873,-2.477095047420263,-2.474043843156099
1758273897877710300,5.08671044921875,-3.640228725966811,-2.8359079010576007,-3.0072207455307245
1758273897887668500,5.09666845703125,-3.324917160403728,-3.3075083449631926,-2.78733500880748
1758273897897625300,5.106625244140625,-2.3482693455427883,-3.750029409378767,-1.6602537636339663
1758273897907583200,5.116583251953125,-1.1932429856061935,-4.565498820289969,-0.02890015046559274
1758273897917541400,5.126541259765625,-0.39090953512191773,-5.413664047622681,1.6352116768360137
1758273897927498200,5.136498291015625,-0.23481997874379157,-5.259245639327168,2.3970928515531122
1758273897937456400,5.146456298828125,-0.4508604382157326,-4.112334196785092,1.7338357171952723
1758273897947413500,5.15641357421875,-0.7197060206800698,-2.4386656557828186,0.5627937497422099
1758273897957371100,5.16637109375,-1.7142051340520381,-1.1765361809551715,-0.39164910144284365
1758273897967329300,5.176329345703125,-3.162559775802493,-0.5889432132601737,-1.5382782199122012
1758273897977286400,5.186286376953125,-4.053798421186208,-0.0313707052975893,-2.3965637131124735
1758273897987244300,5.196244384765625,-3.2064965326845645,0.1960322751879692,-2.3176196479961275
1758273897997202400,5.206202392578125,-2.412218962883949,-0.2902408371925354,-1.832120442597568
1758273898007159300,5.2161591796875,-1.781709229004383,-0.9761807818710804,-1.358344554349035
1758273898017117200,5.2261171875,-1.6988181798279285,-1.5434136831045149,-0.826176975147426
1758273898027074300,5.23607421875,-1.2792789086796343,-2.0067560017526147,-0.16268851625174283
1758273898037032400,5.246032470703125,-0.6545055264949798,-2.3325310936629773,-0.11713161082193255
1758273898046990300,5.255990234375,-0.25977424112781883,-2.280938269069791,-0.1813436784915626
1758273898056947200,5.265947265625,0.3940066243544221,-2.1155758574336767,-0.24875045054927467
1758273898066905300,5.2759052734375,1.626177014248073,-2.275915472471714,-0.5313650306470692
1758273898076863200,5.28586328125,2.3356430882036685,-2.082538680228591,0.29840383151248095
1758273898086820400,5.2958203125,2.127675460550189,-2.145173123317957,0.3639829497516155
1758273898096778500,5.305778564453125,2.2823384912565348,-2.479967387986183,0.1455411282263696
1758273898106735000,5.315735107421875,2.803475411747396,-2.3959780221790075,0.5657252731494605
1758273898116693200,5.325693359375,2.7029797322973605,-1.9910662651896476,0.3859118729650974
1758273898126651400,5.3356513671875,2.1847455475106834,-1.1734756243407725,-0.17171879492551087
1758273898136608300,5.345608154296875,1.8040458562359212,-0.673028440657258,-0.39956469687297935
1758273898146566400,5.35556640625,2.0386746963217854,-0.38767128385305405,-0.30913229240626094
1758273898156523300,5.365523193359375,1.7711060019254683,-0.470233247205615,-0.13191548458635807
1758273898166481200,5.375481201171875,0.9628805707931518,-0.8906640603661536,-0.4212728169426322
1758273898176439300,5.385439208984375,0.6327823549866676,-1.022558502164483,-0.8855033166021108
1758273898186396400,5.395396484375,0.8758891005605459,-0.9247393484473228,-1.1372428659647702
1758273898196354300,5.405354248046875,1.7322610152244566,-0.9409972402870654,-1.3845461864456534
1758273898206312400,5.4153125,3.0919065691694616,-0.7474182034701109,-0.9367708547636866
1758273898216269300,5.425269287109375,3.5559430075615643,-0.5984259118765592,0.6001444062322377
1758273898226227200,5.435227294921875,3.4923481950074433,-0.8459446286737918,3.6501404636502266
1758273898236184300,5.445184326171875,3.6147447406202553,-1.7619535581767558,4.52647175502032
1758273898246142500,5.455142578125,3.2284254558980465,-1.6704571777403354,2.7996882944241164
1758273898256100400,5.465100341796875,3.256820944777131,-1.6733569908350705,3.8014147287011144
1758273898266057200,5.47505712890625,3.669020520687103,-1.299282270658016,3.1502181806236504
1758273898276015400,5.485015380859375,3.51576005025506,-0.41258360679149625,2.3559134305551646
1758273898285973200,5.49497314453125,4.153569878014922,-0.026896190232038496,2.515068804244697
1758273898295930400,5.504930419921875,4.26687301658988,0.5793319198280572,2.398619476598501
1758273898305888500,5.514888427734375,3.96186949455142,1.1755734734028578,1.7742387469932437
1758273898315845400,5.524845458984375,3.644342591026425,2.077573166775703,1.39675889454782
1758273898325803300,5.53480322265625,3.406192591077089,3.0938235087066888,1.1177101902380584
1758273898335761700,5.54476171875,3.276186739504337,3.5049814666092396,0.542341913343966
1758273898345718500,5.554718505859375,2.8657442363947627,3.277864901849627,-0.19391776725202797
1758273898355676700,5.5646767578125,2.4916823756992814,2.7802678469002244,-0.5153457698687911
1758273898365634600,5.574634521484375,2.6791215945869684,2.6410136899888514,-0.5309563037157058
1758273898375591400,5.58459130859375,2.7868045551925897,2.6651918534338472,-0.4588011680871248
1758273898385549600,5.594549560546875,2.9282699584126473,2.626588274273276,-0.31474077993780375
1758273898395506700,5.604506591796875,3.065480626797676,2.7563118017733097,-0.17650281433165071
1758273898405464600,5.614464599609375,3.12858502548635,2.6439731243163345,0.06424976933151483
1758273898415422700,5.624422607421875,2.935672928145528,2.333973109164834,0.37486850090324875
1758273898425379600,5.634379638671875,2.5108207914114,2.1783500012546777,0.5602461110860109
1758273898435337500,5.64433740234375,2.146299496999383,2.324192888906598,0.5720660204783081
1758273898445294600,5.654294677734375,1.7019284208029508,2.610217569708824,0.7626546433076262
1758273898455252700,5.664252685546875,1.099596149137616,2.9670874725848435,0.8968231675177812
1758273898465210600,5.674210693359375,0.3752496091753244,3.2353070321053266,0.8643710967242717
1758273898475167500,5.68416748046875,-0.64105860042274,3.280162657397985,0.4708136774420738
1758273898485125600,5.694125732421875,-1.9102987840384245,3.2344472004055973,-0.11540215668082236
1758273898495083500,5.70408349609375,-3.218709533047676,3.110954676249623,-0.8817275974556803
1758273898505040600,5.71404052734375,-4.473566386523842,3.063837535765767,-1.70952077562809
1758273898514998800,5.723998779296875,-5.311216649582982,2.973678541412949,-2.4618074619174
1758273898524955400,5.733955322265625,-6.174022981208562,2.4932839656770227,-3.2035444048807022
1758273898534913500,5.74391357421875,-7.047315051013231,2.0534587162166833,-3.157760851088166
1758273898544871700,5.75387158203125,-5.057748668992519,1.3181307635128496,-2.272186807337403
1758273898554828500,5.76382861328125,0.4043862718105316,-0.7009814464658498,-1.3972349876269696
1758273898564786700,5.77378662109375,6.9784618795394895,-3.5979964349150655,-2.150198842525482
1758273898574744600,5.78374462890625,3.7227649703562258,-5.091589563795924,-4.364355485698581
1758273898584701400,5.793701416015625,-1.0357529147803783,-5.5541053684920065,-6.673799718284607
1758273898594659600,5.80365966796875,-1.5715543204396962,-5.376549830237031,-5.191422979944944
1758273898604616700,5.81361669921875,-3.326812180370092,-4.566770155400038,-0.45645752757042646
1758273898614574600,5.82357470703125,2.052919787034392,-2.8965964707762,1.7462898328378795
1758273898624532700,5.83353271484375,3.735823189371824,-0.8323182543814182,1.5738392165064812
1758273898634489600,5.843489501953125,2.6116812125205993,0.31996494432687755,0.24283669646084308
1758273898644447500,5.853447509765625,1.8014082012087105,0.5392676204651594,-0.9380509577021002
1758273898654405600,5.863405517578125,1.295360128778219,-0.09534721064567565,-1.143880988804996
1758273898664362800,5.87336279296875,2.8915134684234856,-1.214728841227293,-0.4707894197836518
1758273898674320600,5.883320556640625,3.9576872404307126,-1.9899755473434924,0.3226853092014789
1758273898684277500,5.893277587890625,3.6483746230214833,-2.1952917837053536,0.9781764857329428
1758273898694235600,5.903235595703125,2.2835051969483495,-2.3625813640117643,1.1141352543607355
1758273898704193500,5.913193603515625,1.0047761772364376,-2.7063375182926652,0.7081234271749853
1758273898714150700,5.923150634765625,0.1367939042776823,-2.6033137816697356,0.3907476225584745
1758273898724108800,5.93310888671875,-0.13075345506966113,-2.1436849305868146,0.3847042507410049
1758273898734066700,5.943066650390625,0.49189972009062766,-1.483838043063879,0.620428630978614
1758273898744023600,5.9530234375,1.3829977879598736,-0.6242945126265287,1.1378365940742194
1758273898753981700,5.962981689453125,2.0230992337882516,0.0819254190146923,1.2947607015803455
1758273898763938600,5.9729384765625,2.150778980500996,0.5222282228589058,1.241414165187627
1758273898773896700,5.982896728515625,2.028042827670276,0.663804100716114,0.9937971025824546
1758273898783854800,5.992854736328125,1.4576315886616706,0.6408201154917478,0.671343410179764
1758273898793811500,6.0028115234375,0.8742503934428095,0.532908606827259,0.5403467940039932
1758273898803769600,6.01276953125,0.6186570912614464,0.4243967941820621,0.505359651774913
1758273898813727700,6.022727783203125,0.2575038119778037,0.2790174323886633,0.7014804820291698
1758273898823684600,6.0326845703125,0.23764760338515042,0.49610360152125355,1.3137607317350803
1758273898833642800,6.042642822265625,0.6346762059092521,0.3331090880602598,1.816526859885454
1758273898843599600,6.052599609375,1.2281671456016598,0.037164486268162725,2.9341882425457237
1758273898853557500,6.0625576171875,0.7479147548153996,-0.40968730082809923,3.011973785276711
1758273898863515600,6.072515625,-0.02027384948283434,-0.2781055782407522,3.261384599430859
1758273898873472800,6.08247265625,-0.49792964790463445,0.23700725965499878,3.0498680471241473
1758273898883430700,6.0924306640625,-0.48663668499588963,0.5245417604982853,2.8529925991103053
1758273898893388500,6.102388427734375,-0.4816778935447335,0.7538941214859485,2.9673814870953557
1758273898903345700,6.112345703125,-0.8642482009969651,0.7650771942794322,2.3059315482899545
1758273898913303600,6.122303466796875,-1.3245090663731098,1.1465759269773959,1.1065651844326405
1758273898923260700,6.1322607421875,-1.0221006023291497,1.7890321192383765,1.7591440537139773
1758273898933218800,6.14221875,-1.0372514827750623,1.6868910106688737,1.4698027957096695
1758273898943176400,6.152176513671875,-0.9023499681152403,1.3909002316474914,0.1465828192990273
1758273898953133600,6.162133544921875,-1.0687573587596415,1.5991285560637711,-0.4047133118078112
1758273898963091700,6.172091796875,-1.7108955711126326,1.576553151640296,-0.7222039019104093
1758273898973049600,6.182049560546875,-1.8967770391643046,1.6208423752218484,-1.2815262492150068
1758273898983006700,6.1920068359375,-1.5876058760523795,0.8481219727128744,-1.2385396326646207
1758273898992964600,6.201964599609375,-0.8894085073471069,0.6047270578473806,-1.1862495465222744
1758273899002921500,6.21192138671875,-0.6851987709224223,0.8091004604011773,-0.7777271247550844
1758273899012879600,6.221879638671875,-1.2922387818872927,0.5519692811280489,-0.559603283137828
1758273899022837800,6.231837646484375,-1.4580220492839813,0.49777358056008814,-0.5517205670639872
1758273899032794600,6.241794677734375,-1.2864356485664843,0.7383581141799688,-0.2289307745747268
1758273899042752500,6.25175244140625,-1.196972235262394,0.9491080660283565,0.3097279932770878
1758273899052710700,6.261710693359375,-1.1153250486671924,1.0169435848921538,0.6690415629781782
1758273899062667500,6.27166748046875,-1.4055366597652434,0.8456699033856392,0.8714785906419158
1758273899072625700,6.281625732421875,-1.5669173082888126,0.4035755399495363,1.3737760783672333
1758273899082583600,6.29158349609375,-1.612437534970045,-0.37117023090720175,2.139178120686859
1758273899092540400,6.30154052734375,-1.8176210848629473,-1.0690244852632285,3.0274405267387627
1758273899102498600,6.31149853515625,-1.551731429594755,-1.7134242128074169,3.6496141016885635
1758273899112455700,6.32145556640625,-1.2320476402968168,-1.8743091867685318,3.523999763073027
1758273899122413600,6.33141357421875,-0.7977092978149652,-1.9067191719859837,3.000546674594283
1758273899132371700,6.341371826171875,-0.8768260891497135,-2.182064053341746,2.044138660816103
1758273899142328600,6.35132861328125,-2.009192873510718,-2.4502327594578266,0.4585127795998007
1758273899152286500,6.361286376953125,-3.3152246184289456,-2.3870202242195604,-1.0553113094702362
1758273899162244600,6.37124462890625,-4.07554263548255,-2.305902614456415,-2.1365686688408254
1758273899172201700,6.38120166015625,-4.092822271585464,-2.4862252793371677,-2.658347394366562
1758273899182159600,6.39115966796875,-3.8966824443697927,-2.76535669349432,-2.4881933645397423
1758273899192116700,6.40111669921875,-3.4501462990939613,-3.5301088936030864,-1.8570491321489213
1758273899202074600,6.41107470703125,-3.5010780294299124,-4.728867427760362,-0.9624076925843954
1758273899212032500,6.421032470703125,-3.5987346860617397,-5.817350062209368,0.15269048852436243
1758273899221989600,6.43098974609375,-2.542885324192047,-6.7223670575767756,1.097661235552281
1758273899231947800,6.44094775390625,-1.6402385650873184,-6.424457877713442,1.2511748039625585
1758273899241905700,6.45090576171875,-1.759776798659563,-4.914369541105628,0.4807977497093379
1758273899251862500,6.460862548828125,-2.9569366654485463,-3.2108722635507583,-0.5388405541595072
1758273899261820700,6.470820556640625,-3.88214070879817,-1.9686516042858362,-1.0354292357839643
1758273899271778600,6.480778564453125,-3.8202106145858763,-0.9821393980145454,-1.3606956475198269
1758273899281735700,6.490735595703125,-3.643468146279454,-0.37272447461187835,-1.979244163840264
1758273899291693600,6.500693603515625,-3.550456100583076,-0.468431750741601,-2.375477524333447
1758273899301650400,6.510650390625,-2.957026097297668,-0.7834253363966941,-1.8233105286762117
1758273899311608600,6.520608642578125,-1.9261410808145998,-1.372984051206708,-1.2415553272239863
1758273899321566500,6.53056640625,-1.0440145471692084,-1.6469091288924216,-0.3870984524011612
1758273899331523000,6.540523193359375,-0.4122165270447731,-1.6806997548133134,0.292389101267606
1758273899341481200,6.550481201171875,-0.06817746416926383,-2.237054703679681,-0.5087082315504551
1758273899351439400,6.560439453125,0.7563188644148409,-1.7229115875989198,-0.21467311664149163
1758273899361396000,6.57039599609375,2.2616616139307615,-1.7830267413437366,0.05274389432445168
1758273899371354000,6.58035400390625,3.0629321113586423,-2.4632319417625665,-0.546062687432766
1758273899381311200,6.590311279296875,4.034167253521084,-2.297530507430434,-1.0094023757323622
1758273899391269000,6.60026904296875,3.791288179223239,-2.014812466958165,-1.2281126389354466
1758273899401227300,6.610227294921875,2.85303936086148,-1.4207207848936318,-1.1550748752534388
1758273899411184000,6.62018408203125,2.538452017919719,-0.6269955882787704,-1.537862332587689
1758273899421142000,6.63014208984375,2.378751869828999,0.05130816243290901,-0.6709361445531249
1758273899431100200,6.64010009765625,1.9379224117621778,0.14478548755347728,0.37591274925917384
1758273899441057300,6.650057373046875,1.2034501991048454,-0.3266659032702446,0.7319155139118433
1758273899451015200,6.66001513671875,0.5989271393969655,-0.7000199079573154,0.9034300184369086
1758273899460973000,6.66997314453125,0.5601327138394117,-1.1135849270015954,1.0265084088340402
1758273899470930200,6.67993017578125,1.0250646397665142,-0.9465735791146754,0.9611348961696028
1758273899480888000,6.68988818359375,1.2975640685632823,-0.20469138246178625,0.8110682533428073
1758273899490845200,6.69984521484375,2.2542183121874926,-0.3205781077891588,1.8098758775636552
1758273899500803300,6.70980322265625,3.59580623139441,-1.6772995909810064,2.577751178129017
1758273899510761000,6.719760986328125,3.378068320354819,-2.619816588181257,1.5745231071174144
1758273899520718000,6.729718017578125,3.5341955783948302,-2.35902688640058,1.345678403390944
1758273899530676200,6.73967626953125,4.096659950052201,-2.320274838680029,1.7162863242402673
1758273899540634000,6.749634033203125,4.475797506576776,-2.3354694852024314,1.9776319063380359
1758273899550591200,6.75959130859375,4.983364751398563,-1.5163041423827408,2.4307953607991335
1758273899560549000,6.769549072265625,4.3802188252627845,-0.912222981223464,2.822693906958401
1758273899570507000,6.779507080078125,4.640408223062753,-0.48003860190510744,3.144737995646894
1758273899580464000,6.789464111328125,4.915622171515226,1.0982038179963827,2.658508722408116
1758273899590422300,6.79942236328125,4.618011097815632,2.931273231881857,2.0244635078787803
1758273899600379100,6.809379150390625,4.173784398525953,4.024326827508211,1.6212015639230608
1758273899610337000,6.8193369140625,3.769610308161378,4.2680134187966585,1.2779641728192568
1758273899620295200,6.829295166015625,3.440758293023705,4.063484533420205,0.28161797027587887
1758273899630252000,6.839251953125,2.938732900238037,3.5909196283966303,-0.3077072280392051
1758273899640210200,6.849210205078125,2.8478187036037443,2.925250318330526,-0.5266691279157996
1758273899650168000,6.85916796875,2.889502128601074,2.5685382363647222,-0.4932645787030458
1758273899660125000,6.869125,2.9750393083721396,2.3331997867047787,-0.22343232328891752
1758273899670083000,6.8790830078125,3.0234289530098435,2.1385773783147335,0.0199792504504323
1758273899680041000,6.889041015625,3.0178228035658594,2.122418270674348,0.34078356821089983
1758273899689998000,6.898998046875,2.921304211053252,2.2070547022134064,0.15445260282605885
1758273899699956200,6.908956298828125,2.4354735817432402,2.1124235308825967,-0.6872086494401097
1758273899709913000,6.9189130859375,1.9075602989852427,2.471196052509546,-0.5172241309612989
1758273899719871000,6.92887109375,1.122084459799528,2.7358827617287633,-0.7553355524659157
1758273899729829000,6.9388291015625,0.21487842995524406,2.854233246821165,-1.4533961430490017
1758273899739786200,6.9487861328125,-0.5920400102317332,3.0560055269658566,-2.0816104594677687
1758273899749744000,6.958744140625,-1.2210948691278696,3.1728070290505883,-2.2165309710890053
1758273899759702300,6.968702392578125,-2.1092361330181357,3.1411855638623236,-1.8397434848219154
1758273899769659100,6.9786591796875,-3.37153921084702,3.076871204861998,-1.304825583998859
1758273899779617000,6.988616943359375,-4.636307802006602,2.9359973377943036,-1.2673027858123183
1758273899789575200,6.9985751953125,-4.975834355893731,2.7771254572212696,-1.2533490792617201
1758273899799532300,7.0085322265625,-4.711671378287673,1.9725345831990242,-0.8180503673151135
1758273899809490200,7.018490234375,-0.2615922503352165,-0.038976504126191136,-0.249921978546679
1758273899819448300,7.0284482421875,6.430644457393885,-1.4026795167684554,0.5781915176212787
1758273899829405200,7.0384052734375,5.083457110744715,-2.1103759507030246,-1.2098863696321844
1758273899839363000,7.048363037109375,3.871263925474882,-3.1571190460532903,-5.261230091142654
1758273899849320200,7.0583203125,-3.6122272048413753,-4.383245479607582,-8.190702995604276
1758273899859278000,7.068278076171875,-5.894586446624994,-6.27363661712706,-7.685012066048383
1758273899869236200,7.078236328125,4.223334319114684,-5.9652305931687355,-2.670582606561482
1758273899879193000,7.088193115234375,6.246638720086216,-3.465485322523117,-0.06280570800304412
1758273899889151000,7.09815087890625,3.266713977760076,-1.982721630692482,-0.26950463089495896
1758273899899109000,7.108109130859375,0.9764379715025424,-1.7159779889434574,-1.129723576375842
1758273899909066200,7.118066162109375,0.6182242528021336,-1.8393799122065304,-0.645819823475182
1758273899919024000,7.128024169921875,2.7969629611134526,-2.418305004799366,0.6703878630205988
1758273899928982000,7.13798193359375,4.5387207034796475,-2.680817292588949,1.4572686005681752
1758273899938939100,7.147939208984375,4.546168389137089,-2.515564771068096,1.5721686529457568
1758273899948897000,7.15789697265625,3.503990117484331,-2.415898528179526,1.2803045984655619
1758273899958855200,7.167855224609375,2.0895739856928586,-2.2929478558152914,1.1552174985945225
1758273899968812300,7.177812255859375,1.4816840799003839,-2.2330074741154906,1.5281956557065248
1758273899978770000,7.18777001953125,1.765412758719921,-2.474607322257757,2.1237562412798403
1758273899988727000,7.19772705078125,2.1310212638467547,-2.5358991185665127,2.8218898970991373
1758273899998685200,7.207685302734375,2.3711998470142484,-2.348316107293963,3.614189444825053
1758273900008643000,7.21764306640625,2.4452064557284117,-2.1336276469528674,3.984963369891047
1758273900018600200,7.22760009765625,2.392968318969011,-1.9187515550851821,3.8983746352404354
1758273900028558000,7.23755810546875,2.0402450143784283,-1.6766911036938428,3.4752684653908013
1758273900038516000,7.247515869140625,1.62981917014271,-1.3461767083019018,2.6382418871879576
1758273900048473000,7.25747314453125,1.3256076752647756,-0.6871323693335056,2.081338656789064
1758273900058431200,7.26743115234375,1.0931029877260328,0.11652326966524124,1.3347703481465578
1758273900068389000,7.27738916015625,0.5126946708381176,1.0962900933295487,0.4910070090346038
1758273900078346000,7.287345947265625,-0.14007044173032043,1.8257535379141567,-0.14759893753901124
1758273900088304000,7.29730419921875,-0.506427427136898,2.2866847037672997,-0.8357701484009623
1758273900098262000,7.307261962890625,-0.3232245306447148,2.506122404462099,-0.6234443255379796
1758273900108219100,7.31721923828125,0.2191337493121624,2.0099141735225916,-0.13658917548581956
1758273900118177300,7.32717724609375,0.42212446533590553,1.503295607727766,-0.06040697629824281
1758273900128135200,7.33713525390625,0.45877501073256133,1.0895312667191028,0.9214964210033416
1758273900138092000,7.347092041015625,0.14262889404147863,0.4383177675068378,1.5543360591351985
1758273900148050200,7.35705029296875,-0.10370002844929695,0.09448737894594669,2.2465815336987376
1758273900158007000,7.367007080078125,-0.7333774031579494,0.08713584713935851,2.4456033460915085
1758273900167965200,7.376965087890625,-1.152170970505476,-0.026444939333200454,3.0224232830986377
1758273900177923300,7.38692333984375,-1.4612883576035498,-0.3360235142022371,3.031408845847845
1758273900187880000,7.3968798828125,-1.256003100901842,0.14490940619409085,1.9366753343105314
1758273900197838000,7.406838134765625,-1.2424305026233196,1.0262988577365875,1.210890212912485
1758273900207796200,7.416796142578125,-1.5001096711680293,1.7749480643063782,0.6179965084608644
1758273900217753000,7.426753173828125,-1.6021544797562062,2.2610843985646962,0.04666384375840425
1758273900227711200,7.436711181640625,-1.636399425315857,2.394510872235894,-0.08377586918696761
1758273900237669000,7.446669189453125,-1.2643521193131804,1.948002199488878,-0.16984912859611212
1758273900247626000,7.4566259765625,-1.298126086360216,1.3882798200160265,-0.3942577495712787
1758273900257584000,7.466584228515625,-1.5303519569575785,0.7616577412247657,-0.17506510967873035
1758273900267542000,7.4765419921875,-1.3018763788044452,0.5725748467832803,0.3582596036687493
1758273900277499100,7.4864990234375,-1.1561223384797572,0.6264654269248247,0.8982602145835756
1758273900287457300,7.496457275390625,-1.2573299655914305,0.7972551243066788,0.8438097355369478
1758273900297415000,7.506414794921875,-1.2525719574093819,0.9477040444493293,0.40272885999232527
1758273900307372000,7.5163720703125,-1.2977227662563324,1.217097323924303,0.2235186133328825
1758273900317330200,7.526330078125,-1.587901644128561,1.2857044116824865,0.10917984809987247
1758273900327287300,7.536287353515625,-2.0139643256962296,0.996312300273776,-0.1881892335373908
1758273900337246000,7.546245849609375,-2.158343570536375,0.6146709442347288,-0.27521643267050383
1758273900347204000,7.5562041015625,-2.254286993509531,0.06599895108640194,0.17123254577852784
1758273900357161000,7.566160888671875,-2.4259178178906438,-0.5651835674881934,0.6600222440898418
1758273900367119000,7.576119140625,-2.674360663795471,-0.9004501258432864,1.1192206678662449
1758273900377077000,7.586076904296875,-2.7596786478579043,-0.909268807592988,1.8482761892370878
1758273900387033900,7.596033935546875,-2.7375930727779862,-1.0930541801482438,2.08024618537724
1758273900396992000,7.605991943359375,-2.6315759995579717,-1.2289689635038374,2.140182767684758
1758273900406950000,7.615949951171875,-2.7058722388684746,-1.7189005983918904,1.8278712607204912
1758273900416907000,7.625906982421875,-3.041546793502569,-2.429509704902768,1.2945990812778472
1758273900426865200,7.635865234375,-3.3632401690572498,-2.943654574549198,0.7336814276058227
1758273900436822800,7.64582275390625,-3.2826158957689997,-3.031515228831768,0.13121347379684448
1758273900446780000,7.65577978515625,-2.871547954237461,-2.7098136699706314,-0.4826738457795232
1758273900456738000,7.665738037109375,-2.3924586158812047,-2.4656664754331112,-0.9648469024300574
1758273900466696000,7.675696044921875,-1.395720199149847,-2.4982138232946394,-1.266636576988548
1758273900476653000,7.685653076171875,-0.6464853016465902,-2.824176546731591,-1.2017330199234186
1758273900486611000,7.69561083984375,-0.5715034181594848,-3.6224452319949862,-0.6499854917872697
1758273900496568800,7.70556884765625,-0.6838906109333038,-4.589120518895983,0.005979951192438602
1758273900506526000,7.71552587890625,-0.900505070900917,-5.398191753202677,0.6617015024136752
1758273900516484000,7.725484130859375,-1.6956290283977984,-5.146107335925102,1.1346276419650763
1758273900526441200,7.735441162109375,-2.800651294237375,-4.215027094018459,0.6534805673614144
1758273900536398800,7.74539892578125,-3.6955309264719483,-3.2679981723517177,-0.6337370253629983
1758273900546357000,7.75535693359375,-4.780242225688696,-2.519574591231346,-1.1171242070436478
1758273900556314000,7.765314208984375,-4.717482110393047,-1.7861299680560827,-0.9815612328004092
1758273900566272000,7.77527197265625,-4.19016503996253,-0.9548357960253954,-0.03676635379604995
1758273900576230100,7.785230224609375,-3.479626076078415,-0.5607324332982302,0.8720908773213625
1758273900586187000,7.79518701171875,-2.5822505353748797,-0.4742898291200399,1.3303123458243906
1758273900596145000,7.805144775390625,-1.9347345755062997,-0.723252899506688,1.58166026552096
1758273900606103000,7.81510302734375,-1.3953250623524187,-1.3897750270098448,1.6335875827655195
1758273900616060000,7.825059814453125,-1.1431364540480076,-2.3908751460820437,1.0185111264698208
1758273900626018000,7.83501806640625,-1.2355905736006796,-2.9551673176884647,0.2714484584391117
1758273900635976200,7.84497607421875,-1.3809353024721145,-3.2347955754518507,-0.021368074460327624
1758273900645932800,7.854932861328125,-0.9233283126056194,-3.073830521991849,-0.09950564549937843
1758273900655891000,7.864890869140625,0.5440381958678364,-2.5426813260525463,0.1331802438251674
1758273900665849000,7.87484912109375,2.369666938358545,-2.3872867662012576,0.5141657663039862
1758273900675806000,7.884805908203125,3.267710003060102,-2.031127641943097,1.2011077276319264
1758273900685764000,7.89476416015625,3.4274624658599495,-1.7092606633871792,1.7077127032928168
1758273900695722000,7.904721923828125,3.6768715264484286,-1.3972563226759434,0.9669814302407205
1758273900705678800,7.914678955078125,4.051029540994763,-0.4451794699698686,-0.16049655916541813
1758273900715637000,7.924636962890625,3.833909469592571,0.12372808647751807,-0.10207534985691308
1758273900725594000,7.934593994140625,3.737477678580582,0.02556640293300152,-0.18492460571825503
1758273900735552000,7.944552001953125,2.4918653310507533,0.3143254771351814,-0.8815773753300309
1758273900745510100,7.95451025390625,1.587750252959132,0.06661854428946971,-0.9274944923743605
1758273900755467000,7.964467041015625,1.6421809313267468,-0.582995118510723,-0.3666033613830805
1758273900765425000,7.9744248046875,2.503345633225143,-1.0406319189935922,0.7015972402766346
1758273900775383000,7.984383056640625,2.2706600361615417,-1.7416536974698305,1.556608387981355
1758273900785340200,7.994340087890625,2.043742501105368,-2.8008319115012883,1.9133999649241566
1758273900795298000,8.004298095703126,2.5658985355108976,-2.8393080648899076,1.5200918442279099
1758273900805256000,8.014255859375,2.7152611217215656,-2.103258227652311,1.6674486435741185
1758273900815213000,8.024213134765626,2.924551230150461,-1.9644412931144237,2.51424229029268
1758273900825171000,8.0341708984375,3.3451351880460978,-2.0443343295186756,2.9719048097386955
1758273900835129000,8.044129150390624,3.7414831148296592,-1.2234048996359108,2.7364278283908963
1758273900845086200,8.054086181640624,3.5855192306578156,-0.23338556202650068,2.5597984650701284
1758273900855043800,8.0640439453125,4.274166096207499,0.02965805616080761,2.320645133297145
1758273900865002000,8.074001953125,4.59416260471642,0.3511252217441797,2.4331679351493714
1758273900874959000,8.083958984375,4.64753822107315,1.7432167090028523,1.1097121772214769
1758273900884917000,8.0939169921875,4.3115252282649275,2.8331746767014265,0.21621903090924025
1758273900894875100,8.103875244140625,3.80612305252254,3.1087177109777926,-0.07328618548512458
1758273900904832000,8.11383203125,3.408084103912115,3.085704499658942,-0.30601942108273505
1758273900914790000,8.123789794921874,2.962287963348627,2.781937825939059,-0.06323211672157049
1758273900924748000,8.133748046875,2.9170044680327174,2.512112584787607,-0.29147943907678125
1758273900934705000,8.143704833984375,2.9450334616869687,2.6958985418647528,-0.404329573187232
1758273900944663000,8.1536630859375,2.959855767765641,2.8637691369295117,-0.34302316383123393
1758273900954620000,8.163619873046875,2.9914626199066636,3.077858462333679,0.3354845850199461
1758273900964577800,8.173577880859375,2.925963435035944,2.620422737380862,-0.37805619102865456
1758273900974536000,8.183535888671875,2.796796372374892,2.397192658665776,-0.2369102290213108
1758273900984493000,8.1934931640625,2.7901848452806473,2.7473201015442608,0.5381675502687693
1758273900994451000,8.203450927734375,2.52284908285737,2.905664743372798,0.715565559874475
1758273901004409000,8.2134091796875,2.1092349639743566,2.8305034116655587,0.7315861358270048
1758273901014366000,8.223365966796875,1.5399106434196232,2.7064322108387944,0.7035778926998376
1758273901024323800,8.23332373046875,0.6324947702169418,2.6658868499606845,0.3969400474578142
1758273901034282000,8.243281982421875,-0.5111129546046257,2.812767848488688,-0.05248918891102075
1758273901044239000,8.253239013671875,-1.9205518825054169,3.088880207085609,-0.9268667158648372
1758273901054197000,8.263197021484375,-3.3900036728203293,3.4111534283548592,-1.6266884709015488
1758273901064155100,8.273155029296875,-4.612465738648176,3.4455122095525264,-2.287803186403215
1758273901074112000,8.283112060546875,-6.2015872799605125,3.306752558159828,-3.2572865164622664
1758273901084070000,8.29306982421875,-8.702460677853226,2.9033061975479124,-3.590712999908626
1758273901094028000,8.303028076171875,-9.765705410671234,1.6147563333064316,-3.0816829890578985
1758273901103985200,8.312985107421875,-6.664423402652144,-1.8607488634496927,-2.4798133664682505
1758273901113943000,8.322943115234375,3.867764392921328,-5.118694428342581,-1.2467708699151874
1758273901123901000,8.33290087890625,5.599897397851944,-4.975964119753241,0.7762208118453622
1758273901133858000,8.342858154296875,2.195990287363529,-3.6415637739628552,-0.9521092936709523
1758273901143816000,8.35281591796875,4.16491427884996,-1.318413672107458,-1.9233809684514998
1758273901153774000,8.362774169921876,-2.9394723204284903,-0.33241818318665023,-1.1809341236531734
1758273901163731200,8.372731201171876,-2.4095120420128104,-0.815499806049466,-0.8609042973965406
1758273901173688800,8.382688720703126,3.5801597494512793,-0.5158218629479407,-0.7506774975270032
1758273901183646000,8.39264599609375,3.222974789276719,0.3691431089937687,-1.4748437124863265
1758273901193604000,8.40260400390625,2.580280112084746,0.29550562585294243,-1.7572285754814743
1758273901203562000,8.41256201171875,2.9498423232734203,-0.8238082001894712,-1.2927858943760395
1758273901213519000,8.42251904296875,4.285397099795937,-2.1170786632120606,-0.4861208444282412
1758273901223477000,8.43247705078125,4.255107175472379,-2.591310624665022,0.4505065102115273
1758273901233435000,8.442434814453126,3.4895611946374174,-2.5881366708040234,0.9620854748927056
1758273901243392000,8.45239208984375,2.413912322798371,-3.1902386408448216,0.9519389055401086
1758273901253350100,8.46235009765625,1.9476684374898672,-3.6931881627380845,1.5993410297706723
1758273901263308000,8.47230810546875,2.351345099726319,-3.727168173751235,2.165455302237719
1758273901273265000,8.482264892578126,2.7449197624042627,-3.180014183950424,2.156012643370777
1758273901283223000,8.49222314453125,2.873080570632219,-2.208609530439973,1.758545503298938
1758273901293181000,8.502180908203124,2.4306425083249805,-1.1930974396556615,1.3372943136662243
1758273901303138000,8.512137939453124,2.302064059206843,-0.3193593796491623,1.0508297801420092
1758273901313096000,8.522095947265624,2.2434406053245066,0.2903881367087364,1.0186515578538178
1758273901323054000,8.53205419921875,2.352425003917515,0.48760816037654875,0.8408755087159574
1758273901333010700,8.5420107421875,2.254645013166964,0.43653380669951436,0.7128869883149862
1758273901342968600,8.551968505859374,1.693781646965444,0.24569500850141046,0.5858735965564846
1758273901352926500,8.561926513671875,1.3310688632801175,0.13530161989331244,0.3533411442279816
1758273901362883600,8.571883544921874,0.9439330014780163,0.07352057876288891,0.025485446651279924
1758273901372841500,8.581841552734375,0.8215741575270891,0.2750654798924923,0.2952636337906122
1758273901382799600,8.591799560546875,1.224553485149145,0.5829781673759221,1.2883987653329967
1758273901392756500,8.601756591796875,1.6081494823873042,0.18222119197845457,1.7580116886831818
1758273901402714400,8.61171435546875,1.4468962596356867,-0.4379577020227909,1.8718749453589318
1758273901412672500,8.621672607421875,1.2495546554148196,-0.4515723858773708,2.1843511413656174
1758273901422629600,8.631629638671875,0.8236310900568962,0.41095805141627784,2.1072619103357195
1758273901432587500,8.64158740234375,0.18916545815840363,1.268718790090084,1.9437666077457367
1758273901442545700,8.651545654296875,-1.0179977701202034,1.2821493495494127,1.2646779902666807
1758273901452502500,8.66150244140625,-1.547468949844688,0.9486883793115616,0.8615692641112953
1758273901462460400,8.67146044921875,-0.8138075421135872,0.8013882785886526,0.6447548976574092
1758273901472417500,8.68141748046875,-0.20549312729872762,0.9754495449870825,0.30861316390298305
1758273901482375700,8.691375732421875,-0.626179595720768,0.9784709386348723,0.20679131388310343
1758273901492333600,8.70133349609375,-1.0328257022220642,0.8932266043305397,-0.10445424435008317
1758273901502290400,8.71129052734375,-1.1243698673229663,1.2356459570497274,0.05518960697613656
1758273901512248600,8.72124853515625,-1.4574503868758677,1.275740651550889,0.07745207299292087
1758273901522206500,8.73120654296875,-1.386989780205488,1.157915067115426,0.10233078592270613
1758273901532163600,8.74116357421875,-0.5626807178217917,0.8897130432516336,0.4663115437172353
1758273901542121700,8.751121826171875,0.1212217296797782,0.8805506626307964,0.28250333827566354
1758273901552079600,8.76107958984375,-0.41135373620297755,1.2937737363696098,0.31598091619201
1758273901562036500,8.771036376953125,-0.8952104716241359,1.3293150053501128,0.27746293295565994
1758273901571994600,8.78099462890625,-0.47463761964440343,1.0821242053329945,0.24639950350895523
1758273901581952500,8.790952392578125,-0.11353166836751624,0.6958651263654232,0.0503784803673625
1758273901591909600,8.80090966796875,-0.15225158565044403,0.3328758638262749,0.0917033742506057
1758273901601867800,8.81086767578125,-0.6683166097044945,-0.013257540979981422,0.08770739994961768
1758273901611825400,8.820825439453126,-1.3513807066857815,-0.18585224195718764,-0.18998780739195645
1758273901621782500,8.830782470703125,-2.03177529219687,-0.22012042226195333,-0.15096735452618448
1758273901631740700,8.84074072265625,-2.3728490755259988,-0.25451953547000883,0.26728352077938616
1758273901641698600,8.850698486328126,-2.5210534316122533,-0.8043149796903133,1.0978029821105302
1758273901651655700,8.86065576171875,-2.873130839514732,-1.416626793578267,2.0129428736940027
1758273901661613600,8.870613525390626,-3.22431568249166,-1.6914064422667026,2.6375389996156096
1758273901671571500,8.880571533203126,-4.171754354003071,-1.6721517066985367,2.9123405678749084
1758273901681528600,8.890528564453126,-5.148526672026515,-1.4739578695625066,2.815043684466183
1758273901691486700,8.90048681640625,-5.408637159371375,-1.1148562621116638,2.6869845830470322
1758273901701444600,8.910444580078124,-4.86081973722577,-1.137743216702342,2.2963090028114617
1758273901711401500,8.9204013671875,-3.7378403744131323,-1.589216233858466,1.583725089096278
1758273901721359600,8.930359619140624,-2.346875260835886,-2.745620896410942,0.6609124709278345
1758273901731317500,8.9403173828125,-1.3163760288000106,-3.9629970372766254,0.12138313078656791
1758273901741274600,8.950274658203124,-0.6168325061827897,-4.707809442162514,-0.15270765885487197
1758273901751232500,8.960232421875,-0.43988954686820503,-5.2584314003348345,-0.6576278962992131
1758273901761189400,8.970189453125,-0.7910247054845094,-6.072800741049647,-0.7589420525252819
1758273901771147500,8.9801474609375,-1.0269938542634247,-6.360335241892933,-0.3998088078271597
1758273901781105400,8.99010546875,-1.2612936085253954,-5.681863148877024,-0.34378377294018864
1758273901791062500,9.0000625,-2.372336449828744,-3.66827993145287,-1.1203170848008244
1758273901801020700,9.010020751953125,-4.683118068498373,-2.162979998165369,-1.4922762010633945
1758273901810978600,9.019978515625,-6.107530693647265,-1.2679010439664125,-1.192089139395952
1758273901820935400,9.029935302734375,-5.806448144444823,-0.5354553687006235,-0.8361147240549326
1758273901830893600,9.0398935546875,-5.237886624956131,-0.0935802009731531,-0.4922005296681076
1758273901840851500,9.0498515625,-4.68359036218524,-0.18943243853151798,-0.10830430737435817
1758273901850808600,9.05980859375,-3.6377135282754898,-0.6500351030826568,0.22761399288773534
1758273901860766700,9.0697666015625,-2.568047822499275,-1.5473463463783264,0.008357932370156048
1758273901870724600,9.079724609375,-2.176491806167364,-2.5836218237280844,-0.3433918510131538
1758273901880681500,9.089681396484375,-1.6739783376038073,-3.0916864966779944,-0.31987185921594496
1758273901890639600,9.0996396484375,-1.083424035885185,-3.4709079320937395,-0.35350101096481085
1758273901900597500,9.109597412109375,-0.3943232890881598,-3.346273252165317,-0.3319419439770281
1758273901910554600,9.1195546875,0.5599404061377048,-2.983351794165373,-0.6186306416459382
1758273901920512800,9.1295126953125,1.3553934494584798,-2.81448108214736,-0.49907019624188537
1758273901930470400,9.139470458984375,3.0750898744031785,-2.7966245229393243,-0.41607700186520813
1758273901940427500,9.149427490234375,3.7360982069209214,-2.7571628656446934,-0.7108714107088744
1758273901950385700,9.1593857421875,4.34857690180838,-2.375108837151527,-0.4525407925181091
1758273901960343600,9.169343505859375,4.563009633822739,-1.7964771745473145,0.8962985591217875
1758273901970300700,9.17930078125,3.7290357211887835,-1.5889561216175556,1.246331017193198
1758273901980258600,9.189258544921875,3.3371842290416356,-1.5408569843590258,0.7001128469377755
1758273901990216400,9.199216552734375,3.5491757053837176,-1.070392266485095,0.04421688899770379
1758273902000173600,9.209173583984375,3.176633601601422,-0.2607908708244562,-0.879897605549544
1758273902010131700,9.219131591796875,2.7656308342605826,-0.035792028871178626,-1.2089284843854606
1758273902020089600,9.229089599609376,1.965673465257883,-0.7094172663778067,-1.494227189000696
1758273902030046500,9.23904638671875,1.7634592865645884,-1.3465817819714545,-1.9669656970255076
1758273902040004600,9.249004638671876,2.038574743078649,-1.2495084781855343,-1.7662860344231128
1758273902049961500,9.25896142578125,1.5387117890238762,-0.9327671720802784,-0.41749417518675325
1758273902059919600,9.268919677734376,1.7503385237067937,-1.091220534980297,1.349827632024884
1758273902069877500,9.27887744140625,1.8326994115293025,-1.479428994449973,2.5706430996894833
1758273902079834400,9.28883447265625,1.642972958487272,-1.8477654632359741,2.6251851294770834
1758273902089792500,9.29879248046875,3.2013959946751593,-2.332967731514573,2.657033096897602
1758273902099750400,9.30875048828125,4.899166711276769,-1.0517641383826732,3.0288883874595163
1758273902109707500,9.31870751953125,3.736546827471256,0.401795086273551,3.3687636086538433
1758273902119665700,9.328665771484374,3.0240409474283454,0.997399510988593,3.431475208632648
1758273902129623600,9.33862353515625,3.506334050261974,0.9688923784285783,4.373820648658275
1758273902139580400,9.348580322265626,3.8432939685314893,0.5293570518255234,5.022649298560619
1758273902149538600,9.35853857421875,3.856213071337342,1.8663479986310003,4.1729269049137825
1758273902159496400,9.368496337890624,3.374079542979598,3.2006904767543074,2.4639728232577442
1758273902169453600,9.37845361328125,3.739927702081203,3.0354022993981835,1.2630804919421672
1758273902179411700,9.38841162109375,3.592849719676375,2.889593314015865,0.5829340359732509
1758273902189369600,9.39836962890625,3.576408287963271,2.9851369240164756,0.028840310037136076
1758273902199326500,9.408326416015624,3.795304136866331,3.0059096629321576,-0.24716303522735833
1758273902209284600,9.41828466796875,3.9613855104267595,2.7156337544262406,-0.3378659271985292
1758273902219242500,9.428242431640625,4.255383069804311,2.9964830784171816,0.12926789268702268
1758273902229199600,9.43819970703125,4.046688296920061,2.98384220803082,-0.5073910114720463
1758273902239157800,9.44815771484375,3.44287601583004,2.9949785190731286,-0.530512067079544
1758273902249115400,9.458115478515625,3.10163564376235,3.1941952695161104,0.2300967496141791
1758273902259072500,9.468072509765625,2.682683670982718,3.219173643428087,0.7296224345386028
1758273902269030700,9.47803076171875,2.188010394525528,3.2236931666791437,0.8416244273871183
1758273902278988500,9.487988525390625,1.4250292957425117,2.870171405187249,0.7989832632735371
1758273902288945700,9.497945556640625,0.7031377477169036,2.4904835213035343,0.3421794064834714
1758273902298903600,9.507903564453125,-0.012310615518689155,2.3374200347483156,-0.3812307294115424
1758273902308860400,9.5178603515625,-0.8915098635405302,2.587574360746145,-1.2517056959688664
1758273902318818600,9.527818603515625,-1.980177206906676,3.1075650338113308,-2.1011182930141685
1758273902328776700,9.537776611328125,-3.182843269896507,3.4389719941288233,-2.9603067264035343
1758273902338734000,9.547734130859375,-4.0275487121641635,3.540277236396074,-3.553309736448526
1758273902348692200,9.557692138671875,-4.232227235144377,3.5405104606300593,-3.635943303732574
1758273902358649900,9.56764990234375,-4.353844028556346,3.3662679924458265,-3.2992373602241276
1758273902368607000,9.57760693359375,-5.411013240852951,2.5549866808742285,-2.7802628784641623
1758273902378565000,9.587565185546875,-5.672078836965561,0.590095305904746,-1.9325129539340733
1758273902388523000,9.59752294921875,-4.460689369294047,-4.197676730766892,-1.4117653250217437
1758273902398480100,9.607480224609375,4.561869523876905,-7.860313103374838,-0.8114519919633865
1758273902408438000,9.61743798828125,2.3991981532692908,-7.077959780123829,-0.32274346912950275
1758273902418396000,9.62739599609375,-0.1697679531186819,-4.812099253198504,-2.122727775014937
1758273902428353000,9.63735302734375,2.035303466323018,-1.0004811103910207,1.3676701627075671
1758273902438311200,9.647311279296876,-2.035902601259947,0.3510381279826164,0.43394817412048575
1758273902448269000,9.65726904296875,1.55381115847826,1.2198001531422138,-2.41425017645061
1758273902458226000,9.667225830078126,1.7455711631745099,2.4066490537971257,-3.100211748439073
1758273902468184000,9.67718408203125,0.4713105210483074,2.0776257737457753,-2.800161172632873
1758273902478142000,9.687141845703126,2.2738234686285255,0.07124035887122154,-2.147714039972424
1758273902488099000,9.69709912109375,4.5557998485744,-2.095731923800707,-1.4112661433279514
1758273902498057200,9.70705712890625,4.669194172564149,-3.4119133068114516,-0.442069813516736
1758273902508015000,9.71701513671875,3.26410496430546,-3.7277567872941493,0.13565379433184863
1758273902517972000,9.726971923828126,1.8619822046369312,-3.5116900243371725,0.8053111511208116
1758273902527930000,9.73693017578125,0.7459250423029065,-3.2520272807598114,1.4012208423927426
1758273902537887000,9.746886962890626,0.7205249358475208,-2.7740485339939593,1.2236841549687087
1758273902547845000,9.75684521484375,1.0986837104678153,-1.8862579832375048,1.1460652009762824
1758273902557803300,9.76680322265625,1.379035606330633,-0.8819558532536029,1.3903857062540947
1758273902567760000,9.776759765625,1.8669842507079242,-0.004870236384868621,1.943647511410713
1758273902577718000,9.786718017578124,2.326087908872962,0.5115846637696028,2.081796045167744
1758273902587676200,9.79667626953125,2.545671447779238,0.6897983736723661,1.911548053447157
1758273902597633000,9.806633056640624,2.4747692348212,0.4549187736958265,1.6829900577075778
1758273902607591200,9.816591064453124,2.4347674793004987,-0.04843348377943039,1.559713660520315
1758273902617549000,9.826549072265625,2.1289327671349048,-0.5063794963419437,1.434025672146678
1758273902627506000,9.836505859375,1.4904533695504067,-0.7265805826246738,1.357864223486185
1758273902637464000,9.846464111328125,0.8612529647037387,-0.5499947661846876,1.7013051743380725
1758273902647422000,9.856421875,0.4456847891435027,-0.4265712156116962,1.4199287577331066
1758273902657379000,9.866379150390625,0.5297457588821649,0.08540390878021717,1.3615727226153016
1758273902667337200,9.876337158203125,0.9793398304238915,0.3481932599455118,1.1042187674369663
1758273902677294800,9.886294921875,1.6737562192857265,0.1854670420318842,0.530779631974548
1758273902687252000,9.896251953125,1.9793445554748177,0.4700643203794956,1.3547525212064384
1758273902697210000,9.906210205078125,0.9514821016833186,-0.164439451572299,1.16154648242034
1758273902707168000,9.91616796875,0.4526429377183318,-0.7844546794444323,1.1775558793917298
1758273902717125000,9.926125,-0.12659019791036843,-0.9848498260170221,1.0223074500128626
1758273902727083000,9.9360830078125,-0.2570692199528217,-0.6484282524079084,1.3795406332433222
1758273902737040100,9.9460400390625,-0.03914411577805876,-0.1091962877780199,1.6703103166155515
1758273902746998000,9.955998046875,0.06116919284239411,0.3732669109255075,1.2088849375046788
1758273902756956200,9.9659560546875,0.1708347055673599,0.5583727184295654,0.09429313501548021
1758273902766913300,9.975913330078125,0.3060312576510012,0.982175638371706,-0.35683987306393683
1758273902776871000,9.985870849609375,0.13435498669296503,1.3682166906744242,-0.4789925269182771
1758273902786829000,9.9958291015625,-0.4797356734357774,1.1520856303095817,-0.648030266066268
1758273902796786200,10.0057861328125,-0.5853131131295114,1.2229092250734568,-0.4004924061771482
1758273902806744000,10.015744140625,-0.6024914077498018,0.9695932201743125,-0.3640388081246987
1758273902816702200,10.0257021484375,-0.7780897475223988,0.7891068891644477,-0.5138014630362391
1758273902826659000,10.0356591796875,-0.6679413466513157,0.8207324460059404,-0.048925285884365434
1758273902836617000,10.045616943359375,-0.37210312784314153,0.9277665873140096,0.5563780009483918
1758273902846575000,10.0555751953125,-0.13837152885794637,1.4602911632597446,0.7466806829757988
1758273902856532200,10.0655322265625,-0.24113990248031913,1.3371779938101769,-0.07551181651218794
1758273902866490000,10.075489990234376,-0.455492189669609,1.0551508582115172,-0.5296825574528425
1758273902876448300,10.0854482421875,-0.8930465715885162,0.7460708805143833,-0.51764177185148
1758273902886404900,10.09540478515625,-0.8155939140737056,0.2797656204074621,-0.15322952730450778
1758273902896363000,10.105363037109376,-0.5506850500037893,0.21768939572274684,-0.21109412564355878
1758273902906320100,10.115320068359376,-0.31496724563743916,0.7500082199633121,0.17381247926913201
1758273902916278000,10.125278076171876,-0.07729249851703643,1.1436094783872366,0.6117954618636519
1758273902926236200,10.135236083984376,-0.5065700504779815,1.6119740091115236,0.287523577590473
1758273902936193000,10.145193115234376,-1.249643502742052,1.7380571342825888,-0.21893756915293633
1758273902946151000,10.15515087890625,-1.7155074488222597,1.576039941421151,-0.11625232550306246
1758273902956109000,10.165109130859374,-1.7658149097800253,1.2268424728691578,0.3525585424829274
1758273902966066200,10.175066162109376,-1.732769549268484,0.5348761075079441,0.707698041369766
1758273902976024000,10.185024169921874,-1.6274854664981364,-0.16676877130270004,0.9957749785266816
1758273902985982200,10.194982177734374,-1.4845944143891334,-0.5443418549895286,1.3116713582403956
1758273902995939000,10.20493896484375,-1.565618500649929,-0.537610500907898,1.5169851103842258
1758273903005897000,10.21489697265625,-1.757083321791887,-0.14600129308402537,1.5941569051310418
1758273903015855000,10.224855224609374,-1.7266963668346405,0.1646960566818714,1.4984629268743097
1758273903025812200,10.234812255859374,-1.5256003785163164,0.28916531691551206,1.184881838365644
1758273903035770000,10.24477001953125,-1.4303817626863717,0.21283844856023787,0.53334630412478
1758273903045727000,10.25472705078125,-1.4433400284588336,-0.07020984677970409,0.16927706432919948
1758273903055685000,10.26468505859375,-1.4579332019567488,-0.2416203064084053,0.30488851735666395
1758273903065643000,10.27464306640625,-1.2876789266258477,-0.6571317833453416,0.5302651065811514
1758273903075600100,10.28460009765625,-1.1955120995819568,-1.4290221647709607,0.4544487084986642
1758273903085558300,10.294558349609375,-1.206163330521062,-2.191279625454545,0.03748622903581708
1758273903095516000,10.304515869140625,-1.1757126626778394,-2.9994302377849817,-0.6704357938155532
1758273903105473000,10.31447314453125,-1.2223784791976213,-3.9172698898464438,-1.2348596289776266
1758273903115431200,10.32443115234375,-1.1212251395564525,-4.035553154921532,-0.9026663405880332
1758273903125389000,10.33438916015625,-0.7362730515342205,-3.659204644593596,-0.07047686368543654
1758273903135346200,10.34434619140625,-0.5304098488140851,-3.878766263929009,0.3522258033972233
1758273903145304000,10.354303955078125,-0.9927123030204326,-4.244647740778326,0.2729776042351499
1758273903155262000,10.364261962890625,-1.127142327710986,-5.091688347995281,0.3631011984810233
1758273903165219000,10.374218994140625,-0.7321680273681879,-6.694244540420174,1.1398564094640313
1758273903175177200,10.38417724609375,-1.0526946972310542,-6.813298789867758,2.112930311360955
1758273903185135000,10.394135009765625,-1.8680512954175472,-5.319774050047993,2.293935551678389
1758273903195092000,10.404092041015625,-2.8368910668760536,-4.240132893702388,1.7424442633256316
1758273903205050000,10.414050048828125,-3.1675662057876584,-3.3049516462177038,1.1400838615443556
1758273903215007000,10.424007080078125,-2.5669448296934365,-2.6883067715615034,0.22340214734636246
1758273903224965000,10.433965087890625,-2.0207722521454095,-2.500223994073272,-0.49669974078349766
1758273903234923000,10.443923095703125,-1.5324632500231266,-2.0324153436660763,-0.42216180167160927
1758273903244880000,10.4538798828125,-1.3189029169291258,-1.3686223488658666,-0.1413533942129463
1758273903254838000,10.463838134765625,-1.5188567494750023,-0.8132371218144894,-0.10829875441640614
1758273903264796000,10.4737958984375,-1.7221733364522456,-0.6101058282762766,-0.0758165076803416
1758273903274753000,10.4837529296875,-1.7911936811864375,-0.38779169536232944,0.1495727948952466
1758273903284711200,10.493711181640625,-1.7659727306902409,-0.225206931746006,0.3610596827160567
1758273903294669000,10.5036689453125,-1.6767583237111567,-0.09589256956875324,0.4218035628184676
1758273903304626000,10.5136259765625,-1.2837760739684103,0.10720189909040927,0.4038592522617429
1758273903314584000,10.523583984375,-0.5956359158318489,-0.1050830072402954,0.31611499090045686
1758273903324542000,10.5335419921875,0.11382175562158227,-0.4672276356488466,0.22943463244363665
1758273903334499000,10.5434990234375,1.4034874721504746,-0.2280091296851635,0.3214866009362042
1758273903344456700,10.553456787109376,2.5644740556657313,0.13106558975875376,-0.055051294483989474
1758273903354413800,10.563413818359376,3.328460532099008,0.6604927842110395,-0.4243405339501798
1758273903364371700,10.573371826171876,3.8123321362957356,1.2575795564383268,-0.6990946098059415
1758273903374329900,10.583329833984376,3.687664430880546,1.6935650816053152,-1.0745283433765171
1758273903384286700,10.59328662109375,3.4972783448860048,1.3209189329266546,-1.9770973610699176
1758273903394244600,10.60324462890625,3.814877436864376,0.7167120995610952,-2.7396605267018077
1758273903404202800,10.61320263671875,3.7874072461366652,0.711179015353322,-3.4045810642272234
1758273903414160000,10.623159912109376,3.1890529381915926,0.9140595490008592,-3.9350232809409498
1758273903424117800,10.63311767578125,3.313431013010442,1.0309826316386461,-3.781547998714447
1758273903434076000,10.643075927734374,3.7021141042545436,1.1054723476946353,-3.08574600071311
1758273903444032800,10.65303271484375,3.384905472898483,0.8141466378748416,-2.176571155013889
1758273903453990700,10.66299072265625,2.4891242156490683,0.6757733554512262,-1.0798379940919578
1758273903463947800,10.67294775390625,1.6961340553104876,0.41491117295622826,-0.25789661068767306
1758273903473906000,10.682906005859374,0.9280003960698843,0.13702771303355693,0.7949372027531266
1758273903483863800,10.69286376953125,1.2614590282201765,0.31425767259597776,1.911890437144041
1758273903493820700,10.702820556640624,2.1306381097480656,0.5469394702672958,2.554524324059486
1758273903503778800,10.71277880859375,2.6545573544338343,0.7310662036061286,2.7356217727050183
1758273903513736700,10.72273681640625,3.2573458454340694,0.8228741342097521,2.99039732876271
1758273903523693800,10.73269384765625,3.6090675717666745,0.9951526088446379,3.4047572975769635
1758273903533651700,10.742651611328125,3.470162374423444,1.478543443787098,2.8217835141152143
1758273903543609900,10.75260986328125,3.608135259352624,1.7129846523463725,1.958618286049366
1758273903553566700,10.762566650390625,3.72216963481158,1.5909277139514684,1.4348866728901861
1758273903563524600,10.772524658203125,3.4060663343489166,1.3126456101000308,0.5984212357014417
1758273903573481700,10.782481689453125,3.4958421746030446,1.5822382115393876,0.052878480489552016
1758273903583440000,10.79243994140625,3.5751439671158787,1.8456243595540522,-0.23890344866514204
1758273903593397800,10.802397705078125,3.733178520081937,1.84730719807446,-0.489236784491688
1758273903603354600,10.812354736328125,3.4560672135755417,1.7856243566215038,-0.8611186707995832
1758273903613312800,10.822312744140625,3.0856741045206784,1.7221528781861066,-0.6351619435995817
1758273903623270700,10.832270751953125,2.551374920117855,1.5582301439642905,-0.47491439075917
1758273903633227800,10.842227783203125,2.2121301057815552,1.7131828052669762,-0.23020094064101576
1758273903643186000,10.85218603515625,1.8990730411469936,1.9142834697604179,0.04552914064005017
1758273903653142800,10.862142822265625,1.9045637475177644,1.9762737697273491,0.19651932805255054
1758273903663100700,10.8721005859375,2.0120982395634055,1.7167600792318582,0.36480405687615275
1758273903673058800,10.882058837890625,2.282043599963188,1.1930915944367646,0.32218992689996956
1758273903683016000,10.892015869140625,2.4913185108229516,0.9699924486249685,0.1741600505977869
1758273903692973800,10.901973876953125,2.0946404753021897,1.2300322088211775,0.12420111081674694
1758273903702931700,10.911931640625,1.4204514664329588,1.1838099713504313,-0.06341887146532535
1758273903712888800,10.921888916015625,1.0922015088416634,1.0381915401041506,-0.2771189052909612
1758273903722846700,10.9318466796875,1.1984241876363753,0.2628425426572561,-0.7056545528434216
1758273903732804900,10.941804931640625,1.3889960054613648,-2.3224112661868332,-2.0189025127507745
1758273903742761700,10.95176171875,1.329128250606358,-5.242969042786956,-3.7667780073449015
1758273903752719600,10.9617197265625,0.7767068417966365,-6.156199155226349,-4.561272142505645
1758273903762676700,10.9716767578125,-1.5385118825376032,-4.951916304689646,-3.3738001415163277
1758273903772634600,10.981634521484375,-6.712490391206741,-2.5729320874094963,-0.1932313924230635
1758273903782592800,10.9915927734375,-17.166698290520905,-2.1701076580882073,2.5943168207436798
1758273903792550000,11.0015498046875,-15.978752242279052,-2.3512293643921613,1.7364802403546868
1758273903802507500,11.011507568359375,-7.030919212007523,1.047721000471711,1.3822063453212379
1758273903812465700,11.021465576171876,0.4289548958778381,3.7426468979120253,1.8609727353334427
1758273903822422800,11.0314228515625,10.217277796548604,5.476280370533466,2.131464915961027
1758273903832380700,11.041380615234376,16.17071975224614,5.508172469356656,1.6219757631659506
1758273903842338800,11.0513388671875,12.865229761368035,1.864346011158824,1.8425594190254806
1758273903852295700,11.061295654296876,6.676160017675161,-1.4559884976297617,2.079963715174049
1758273903862253600,11.071253662109376,2.8902830498456953,-3.571697041532397,0.7475939984284341
1758273903872210700,11.081210693359376,0.48267844888940453,-3.7333699510008094,-0.31871392135247584
1758273903882168800,11.0911689453125,-0.9002525574445724,-2.3529542884886263,-1.1277429970178752
1758273903892126700,11.101126708984374,-0.8956009322464465,0.17690262730419634,-1.146188096703589
1758273903902083600,11.11108349609375,-1.5949147377610207,1.762432866126299,-1.1396221623167395
1758273903912041700,11.121041748046874,-1.0615338372468948,1.698724071803689,-1.8395602372094988
1758273903921999600,11.13099951171875,-0.48919805991649623,0.7127297519266605,-2.4593776044219733
1758273903931956700,11.140956787109374,-0.4092483248889446,-0.610293459802866,-2.48094295502007
1758273903941915000,11.150914794921874,1.4086533304810522,-1.5475824932217597,-2.230767001712322
1758273903951871700,11.160871826171874,3.1139637949377295,-0.9760784905403852,-1.5446338725492357
1758273903961829600,11.17082958984375,3.92522231015563,-0.13522855465710162,-0.5075693637136369
1758273903971787800,11.180787841796874,2.4375825367212296,0.46092181350290773,0.6019407150644809
1758273903981744600,11.19074462890625,-6.794710993775725,-0.6524257976114749,1.1895626165930182
1758273903991702800,11.200702880859374,-8.412878012308477,-2.4045535428225993,0.2644901637338102
1758273904001661000,11.210660888671875,-2.412171032088995,-2.2253321171820164,-0.5634539672166109
1758273904011617500,11.220617431640624,-1.1805729621905834,-2.918581508091092,-1.3008046579197048
1758273904021575700,11.23057568359375,-0.9895447058349848,-4.504214038243889,-2.074743204046786
1758273904031532800,11.24053271484375,-0.07494860227201133,-4.655263846889138,-2.077855490848422
1758273904041490700,11.25049072265625,0.7504010186731815,-4.38004171513021,-1.7514524762980639
1758273904051448800,11.26044873046875,1.022820879427716,-4.196988748502731,-1.3082640340149403
1758273904061405700,11.27040576171875,0.9832886411149054,-4.032387384366989,-0.8154851199369877
1758273904071363600,11.280363525390625,0.8990162936478853,-3.9127737474709745,-0.24849581820107994
1758273904081321700,11.29032177734375,1.4560165546804666,-3.16137144280076,0.6595210896346718
1758273904091278800,11.30027880859375,1.36734750662446,-1.6372154178738594,1.746764464612305
1758273904101236700,11.31023681640625,0.6436170527338981,-0.5821329487234354,2.534686527906358
1758273904111193600,11.320193603515625,-1.1977490648537874,0.5436205549776554,2.0765533222086727
1758273904121151700,11.33015185546875,-0.9711001176059245,1.1940958030432463,0.7335018332552165
1758273904131109600,11.340109619140625,-0.9131856887757778,-1.1112047538667917,-1.6582994146957992
1758273904141066800,11.350066650390625,0.25892332338690754,-2.5026690491378307,-2.7372701244339344
1758273904151025000,11.36002490234375,2.0168015949487685,-2.572292620462179,-2.723361718329787
1758273904160982800,11.369982666015625,3.7765485829919574,-3.58536199426949,-1.8275607334665953
1758273904170939600,11.379939697265625,0.9704735101401806,-3.9547868428140878,-2.927191515526175
1758273904180897800,11.389897705078125,-3.283710120746493,-4.3534068061828615,-4.9016240413010115
1758273904190855000,11.39985498046875,-1.037286700218916,-4.616921549013257,-4.122136044353247
1758273904200812800,11.409812744140625,3.9064404527962204,-3.655141632938385,-1.2716831928536294
1758273904210771000,11.41977099609375,2.9429823743760584,-3.1672254295259714,1.4149780034579336
1758273904220727800,11.429727783203125,0.4763759877443313,-2.959587472218275,2.4311605408497154
1758273904230685700,11.439685791015625,1.6505914706669746,-3.9766467924445865,3.920819399021566
1758273904240643800,11.449643798828125,4.1015614583581685,-3.8914217473626134,4.842918169832229
1758273904250600700,11.4596005859375,-5.547810652261972,-0.7045417692959308,5.311140077215433
1758273904260558800,11.469558837890625,-4.328505296899378,-0.4869342066377401,4.915152215915918
1758273904270515700,11.479515625,3.229688023179769,-0.5450105480313301,2.9698902550458905
1758273904280473600,11.4894736328125,-3.9209146760895845,-0.7444318811357021,0.40117724663615223
1758273904290431700,11.499431640625,-6.9254007359594105,-0.008925649255514144,-1.1987766543358565
1758273904300388900,11.509388916015626,-10.52999350039959,2.723257088911533,-2.834990201690793
1758273904310346800,11.5193466796875,-5.200886973860859,2.3771581708967684,-0.8798705714121461
1758273904320304600,11.5293046875,8.080123144513369,-0.6523749442070722,-0.5210369672477245
1758273904330261800,11.53926171875,0.7181856792449951,-2.3210206886112688,-1.332513216869533
1758273904340220000,11.549219970703126,-9.942361954259871,-2.2820891926705835,3.4623578381523488
1758273904350177000,11.559177001953126,-8.093981573995947,-1.0210615416049957,12.734587949979305
1758273904360135200,11.56913525390625,-9.82964392209649,0.36356852373182774,18.877356545746327
1758273904370093000,11.579093017578124,-9.26730697621107,-2.7098773828566074,14.018644594454765
1758273904380050000,11.5890498046875,-2.917811108240485,-5.073287014386057,8.185963692122698
1758273904390008000,11.599008056640624,2.058368115568161,-3.6287241661339995,5.38432806302309
1758273904399966000,11.608966064453124,4.136782409343123,-2.1012135700821877,2.8207220223635434
1758273904409923000,11.618923095703124,4.568695570504665,-1.528611250770092,0.5351169305264949
1758273904419881200,11.628881103515624,4.104478222587704,-1.3578916960150003,-0.6821215554341673
1758273904429837800,11.638837890625,3.420062710997462,-0.7791857991307973,-0.6710714613705873
1758273904439796000,11.6487958984375,2.940700985440612,0.12184300338327884,0.19664163925796746
1758273904449754000,11.658754150390624,2.4058652099430557,0.7363698629721999,0.6807227945521473
1758273904459711000,11.6687109375,1.4478841016292572,0.9758566644832491,0.46552872277647256
1758273904469669000,11.678669189453124,0.5021978267431259,1.4470584644600748,0.22432430369257925
1758273904479627000,11.688626953125,-0.3629343174815178,1.6483349239118397,-0.12970453053861855
1758273904489583900,11.698583984375,-0.5221598337978124,1.991317317341268,-0.5690422887429595
1758273904499542000,11.7085419921875,-0.5917956800818442,2.446374184333533,-1.1707152197167277
1758273904509499100,11.7184990234375,-1.5394348426014184,2.2903956871144473,-2.3152985115721822
1758273904519457000,11.72845703125,-2.590653622061014,2.9123329690903423,-2.546380180570483
1758273904529415000,11.738414794921875,-2.9032646964937445,2.0961646161295473,-2.4665140321731567
1758273904539372000,11.7483720703125,-3.645587038129568,1.3825650956310331,-3.3053920834615824
1758273904549330000,11.758329833984375,-4.427998229047656,1.5497849717020988,-3.345975146001577
1758273904559287000,11.768287109375,-4.408437204009294,1.5610557227790354,-3.2566312674239275
1758273904569245200,11.7782451171875,-3.627676702907681,1.8064865273863076,-2.9082275795981287
1758273904579202800,11.788202880859375,-2.8417706556111573,1.5303997416220605,-2.597248490281403
1758273904589160000,11.798159912109375,-2.6355273675322533,0.9104556792899966,-2.5170664078027007
1758273904599118000,11.8081181640625,-3.1791344785064455,0.05387070639729499,-2.571373167529702
1758273904609076000,11.818075927734375,-3.599607377243042,-1.370990685432404,-2.90620191898942
1758273904619033000,11.828033203125,-3.2010750921577213,-2.5396803906708953,-3.2604303674459456
1758273904628991000,11.837990966796875,-1.9948411075532435,-3.3477035772293804,-3.4773344580098984
1758273904638947800,11.84794775390625,-1.1734463982462882,-3.9783752236723897,-3.6872275007680058
1758273904648906000,11.857906005859375,-1.1549579708755016,-4.21754346075356,-3.792659467576444
1758273904658864000,11.867864013671875,-1.5782283913761377,-4.042684321975708,-3.827895031608641
1758273904668821000,11.877821044921875,-2.0826380489498377,-3.723391285561025,-3.9711692378163335
1758273904678779000,11.88777880859375,-2.2721429681956766,-3.59731663595736,-4.182847702686488
1758273904688737000,11.897737060546875,-2.2253987526774406,-3.466863625138998,-4.305006055629253
1758273904698694000,11.90769384765625,-2.6640795082777737,-3.1616368157386776,-4.365797501200437
1758273904708652000,11.917652099609375,-2.8864667064279317,-3.1623043397367,-4.380903592656552
1758273904718609200,11.927609130859375,-2.400741875579953,-3.326583047789335,-4.251994888670742
1758273904728566800,11.93756689453125,-1.4315537290751934,-3.156796389970183,-3.77593804987818
1758273904738525000,11.94752490234375,-0.7262509122788906,-2.6573119138389822,-3.1203613870203495
1758273904748482000,11.95748193359375,1.7561860806912182,-2.2259391431644557,-0.714588239274919
1758273904758440000,11.96743994140625,7.567977339729667,-0.6279324307374656,9.628677113115787
1758273904768397000,11.97739697265625,5.803710243913531,2.583725284102559,26.476395963215825
1758273904778355000,11.98735498046875,-0.8354688273668288,-3.4663404780477283,19.692984362089632
1758273904788312800,11.997312744140626,-2.2533254550009962,-7.690082208919525,0.8216679732903838
1758273904798270000,12.00727001953125,-2.8764725511580704,-5.38181052724421,-6.678662940406799
1758273904808228000,12.01722802734375,-2.1979601261317727,-2.999182985025644,-2.8927722363129256
1758273904818186000,12.02718603515625,-0.9184387869983911,0.32026392727345226,-0.028794607731886208
1758273904828142800,12.037142822265626,-0.905307502746582,-0.8993785510890185,-2.4974115670010444
1758273904838101000,12.04710107421875,0.925606194409728,-2.6430525023400784,-1.3898289491541682
1758273904848058000,12.05705810546875,0.4203296908736229,-3.0508468290284276,-0.39357440694961693
1758273904858016000,12.06701611328125,-1.1188982309788464,-2.290286089260131,0.5473214187895878
1758273904867974100,12.07697412109375,-0.6584890431731939,-1.3143360474050043,1.2319535322725772
1758273904877930800,12.0869306640625,-0.8017834153860807,-1.1077047829218207,1.2440404220379888
1758273904887889000,12.096888916015626,-0.8976695552140473,-1.2809540022850037,0.7764800473034381
1758273904897846000,12.106845947265626,-0.38703240142762657,-1.260516778934002,0.17079525033980608
1758273904907804000,12.116803955078124,-0.22058920881748198,-0.7744998332716524,-0.10690477930735796
1758273904917762000,12.126761962890624,-0.3358756301641464,-0.5212969333581626,-0.29916045856606216
1758273904927719000,12.136718994140624,-0.6547036794155836,-0.5659710646040738,-0.3182037433406338
1758273904937676800,12.1466767578125,-0.951001916950941,-0.34920828220695255,0.04665701215881854
1758273904947635000,12.156635009765624,-0.9650801266640424,-0.1354747845031321,0.5074557472713291
1758273904957592000,12.166592041015624,-0.6986106256812811,-0.31849618694856763,0.7943024850461632
1758273904967550000,12.176550048828124,-0.5421498979032039,-0.4714603047825396,0.9925115197513252
1758273904977506800,12.1865068359375,-0.5985808101773261,-0.34010143116563557,1.0134076658509672
1758273904987465000,12.19646484375,-0.5652022721886635,-0.30023075467869637,0.6797520498238504
1758273904997422800,12.2064228515625,-0.43402971492409703,-0.4599895010888576,0.2514579194096848
1758273905007380000,12.2163798828125,-0.38228900629282,-0.5079033449083566,-0.005629822580516338
1758273905017338000,12.226338134765625,-0.1953787797152996,-0.3350716203048825,-0.1131563505154103
1758273905027295200,12.236295166015625,0.15099252550005912,-0.1486672974228859,-0.024999599363096058
1758273905037252900,12.2462529296875,0.23087036433517932,-0.1440571732789278,0.10290478641837834
1758273905047211000,12.2562109375,-0.07326572721898555,-0.20779607047885656,0.14729180781859905
1758273905057168100,12.266168212890625,-0.34629064119458197,-0.2396715104281902,0.20498346074353901
1758273905067126000,12.2761259765625,-0.26775895627141,-0.3438450016081333,0.21871640068292617
1758273905077084200,12.286084228515625,-0.07598901470303535,-0.4536509457170963,0.18743264301642776
1758273905087041000,12.296041015625,-0.11249649836719035,-0.3813201612606644,0.15018285308498888
1758273905096999000,12.3059990234375,-0.1420744750291109,-0.24785832401514052,-0.07973433871120214
1758273905106956000,12.3159560546875,-0.0284732302904129,-0.3228293938472867,-0.2223140598487109
1758273905116914000,12.325913818359375,-0.1691360849559307,-0.19855594844669103,-0.25223533352296795
1758273905126872000,12.3358720703125,0.003541618129611015,-0.13129910625368357,-0.2846965009383857
1758273905136829000,12.345828857421875,0.2408224340289831,-0.488217524446547,-0.09289404533989727
1758273905146786800,12.355786865234375,0.5346645105838775,-0.4140001955911517,0.4395045296059921
1758273905156744000,12.365743896484375,-1.2060744101285934,0.39261575451791286,0.29406390261203047
1758273905166702000,12.3757021484375,-0.8345429446935653,-0.18586802404820918,-0.27613124596048144
1758273905176660000,12.385659912109375,0.1982411834090948,-0.07037497421354055,0.2112462109327316
1758273905186616800,12.395616943359375,-0.6672896047443151,0.6995344625279307,0.5940470757378264
1758273905196575000,12.405574951171875,-0.8233060958862304,0.11856032845079899,0.1306757136583328
1758273905206532900,12.415532958984375,-0.15939561218619347,0.05376023176014423,-0.13808935091570018
1758273905216490000,12.425489990234375,0.12595920653045176,-0.05265022469162941,0.007771328121237456
