time,seconds_elapsed,z,y,x
1758273892839158300,0.048158203125,4.244114949075877,-6.7154130006551735,5.749878700482845
1758273892849116200,0.0581162109375,4.248205433259904,-6.712963853937387,5.7497173724412916
1758273892859073300,0.0680732421875,4.249644233891368,-6.711377461528778,5.750505892470478
1758273892869031200,0.07803125,4.248977294415235,-6.710494248953461,5.752029156515002
1758273892878989300,0.0879892578125,4.247753597839177,-6.7094801034748555,5.754116484183073
1758273892888946200,0.0979462890625,4.246640375900268,-6.708148562610149,5.7564908120989795
1758273892898904000,0.107904052734375,4.245819414906204,-6.7061629417508835,5.759408745372295
1758273892908861200,0.117861083984375,4.2449893938228485,-6.702908323869109,5.763808441635966
1758273892918819000,0.127819091796875,4.245660132691264,-6.69731094225347,5.769816742140055
1758273892928777200,0.137777099609375,4.246351329825818,-6.689408790826797,5.7784676661074155
1758273892938734300,0.147734375,4.244491965694725,-6.6807058444112535,5.78989156191945
1758273892948692200,0.157692138671875,4.2377696717023845,-6.673278324759006,5.803364206954837
1758273892958649000,0.167649169921875,4.226428485737741,-6.668270141208171,5.817375196650624
1758273892968607200,0.177607177734375,4.211055560038983,-6.666523589801788,5.830510572555661
1758273892978565000,0.187565185546875,4.196852554902434,-6.6685624021530145,5.838413893026114
1758273892988522200,0.197522216796875,4.18598746201694,-6.671487934210896,5.842869703391194
1758273892998480400,0.20748046875,4.177572392632067,-6.674969346585869,5.844917868092656
1758273893008438000,0.21743798828125,4.170254470834136,-6.679428664082288,5.845048216474056
1758273893018395100,0.22739501953125,4.164360444359481,-6.68416212234497,5.8438388406842945
1758273893028353300,0.237353271484375,4.1599774069696664,-6.688091278487444,5.842465214243531
1758273893038310400,0.247310302734375,4.155710397174954,-6.691261725217103,5.8418713400036095
1758273893048268300,0.257268310546875,4.146921233780682,-6.696389735755324,5.842240757837891
1758273893058226200,0.26722607421875,4.129245876358449,-6.707342506924271,5.842196334174275
1758273893068183300,0.277183349609375,4.104188884252309,-6.722316788694262,5.8426417398542165
1758273893078141200,0.28714111328125,4.074585773149132,-6.7402855761051175,5.8426621981203555
1758273893088098300,0.297098388671875,4.039105002184212,-6.762348354831338,5.841803535464406
1758273893098056200,0.30705615234375,4.002996162448823,-6.786848005315661,5.838246135243773
1758273893108014000,0.31701416015625,3.9638527773231265,-6.81329586725831,5.834145714187621
1758273893117971200,0.32697119140625,3.9245495254606007,-6.83990973341763,5.829572414922714
1758273893127929000,0.33692919921875,3.886619900038838,-6.865283828648924,5.825156352046132
1758273893137886200,0.34688623046875,3.8470980369895695,-6.888961641356349,5.8234372731685635
1758273893147844400,0.35684423828125,3.8164834107562897,-6.90606124471724,5.823327967575192
1758273893157802000,0.366802001953125,3.8008603096887468,-6.911577962312102,5.827000518608093
1758273893167759000,0.376759033203125,3.7882568487033246,-6.911371041563153,5.835447444435954
1758273893177717200,0.38671728515625,3.770071788193285,-6.913283012664317,5.8449517703622575
1758273893187674400,0.39667431640625,3.7474189346194264,-6.917472281047702,5.854554880487918
1758273893197632300,0.40663232421875,3.715298579998314,-6.922047333878278,5.869598720362782
1758273893207590100,0.416590087890625,3.6734418442606924,-6.927911257475614,5.888994325706363
1758273893217547300,0.42654736328125,3.6257734996348616,-6.936508989951014,5.908385254874825
1758273893227505200,0.436505126953125,3.581477554051578,-6.947702584138512,5.9222308248758315
1758273893237463300,0.44646337890625,3.548498536774516,-6.95742259864211,5.9306660602658985
1758273893247420400,0.45642041015625,3.531036529842019,-6.965477894803882,5.93163285947144
1758273893257378000,0.4663779296875,3.5286484656617043,-6.971155940440297,5.926382683858275
1758273893267335200,0.476335205078125,3.5377471333965658,-6.9729568523824215,5.918834752696752
1758273893277293300,0.486293212890625,3.543741989897191,-6.975013784912228,5.912822360539436
1758273893287251200,0.496251220703125,3.5392376642152663,-6.980862510940432,5.908616141021251
1758273893297208300,0.506208251953125,3.5263279137596486,-6.991316684937477,5.903973283651471
1758273893307166200,0.516166259765625,3.5061052099421617,-7.0056509152382604,5.899024136811494
1758273893317123000,0.526123046875,3.482232459184527,-7.022641797527671,5.892957968640327
1758273893327080400,0.53608056640625,3.4645112167939542,-7.039208901447057,5.8836295838028185
1758273893337038600,0.54603857421875,3.4521120462089776,-7.054884024962782,5.872130869188904
1758273893346995500,0.555995361328125,3.4382626768156883,-7.072418512609601,5.8591492225408555
1758273893356953300,0.565953369140625,3.4189202629640696,-7.092177106046676,5.84656972695291
1758273893366910500,0.575910400390625,3.3941818352878093,-7.115458612912893,5.832679733288288
1758273893376868600,0.58586865234375,3.3664483174487945,-7.143685174965858,5.814221701055764
1758273893386826500,0.595826416015625,3.34341494012475,-7.17449064759612,5.7895297428697345
1758273893396783400,0.605783447265625,3.334367418055236,-7.203125205928087,5.759111223730445
1758273893406741500,0.615741455078125,3.340897112084925,-7.226471010202169,5.725985199198126
1758273893416698400,0.625698486328125,3.360686392921209,-7.244007835936546,5.692144304394722
1758273893426656500,0.635656494140625,3.3931159596219658,-7.255625208494067,5.658007641515136
1758273893436614400,0.645614501953125,3.4370874955564736,-7.262472297909856,5.622572755518555
1758273893446571300,0.6555712890625,3.4853681268617507,-7.267156071811914,5.586684865057468
1758273893456529400,0.665529296875,3.5268671352028846,-7.274127079868316,5.551456899809837
1758273893466486500,0.675486572265625,3.561922958754003,-7.2816796872049565,5.519079647818208
1758273893476444400,0.6854443359375,3.5929669163152576,-7.289014852398633,5.489194212642312
1758273893486402600,0.695402587890625,3.619923896823823,-7.296292734447121,5.4617450647026295
1758273893496359400,0.705359375,3.645775546438992,-7.301170569616556,5.437980742755532
1758273893506317300,0.7153173828125,3.6727594149544833,-7.301828156742453,5.4189054554075
1758273893516275500,0.725275390625,3.698646135883033,-7.298160866406559,5.4062224994450805
1758273893526232600,0.735232666015625,3.722937696574628,-7.291197457134723,5.398939941221475
1758273893536190500,0.7451904296875,3.74733768607676,-7.281708328777551,5.3948634855628015
1758273893546147300,0.755147216796875,3.773058110527694,-7.2714973158866165,5.390709873014688
1758273893556105500,0.76510546875,3.7943002205207943,-7.261136080870032,5.389764116597175
1758273893566063400,0.7750634765625,3.8098333052173254,-7.252599138671159,5.390303630301356
1758273893576020500,0.7850205078125,3.8198257069215176,-7.247296356087922,5.390363836055994
1758273893585978600,0.794978515625,3.8229850477352736,-7.245688336369395,5.390284925600886
1758273893595935200,0.804935302734375,3.8186189614802597,-7.248557754325867,5.389522709056735
1758273893605893400,0.814893310546875,3.8031422831460833,-7.257887892729044,5.38790825959742
1758273893615851500,0.8248515625,3.777504860803485,-7.273515085449814,5.384868161249161
1758273893625808400,0.834808349609375,3.745731419923901,-7.296131990927457,5.376460982909799
1758273893635766500,0.8447666015625,3.709144149021804,-7.321649294021725,5.3671296754628415
1758273893645723400,0.854723388671875,3.6675051476880904,-7.352071904814243,5.354140430030227
1758273893655681300,0.864681396484375,3.6230884983345866,-7.386672093552351,5.336731614589691
1758273893665639400,0.874639404296875,3.5758681897372004,-7.4212623454183335,5.320567246252298
1758273893675596500,0.884596435546875,3.5205300411358476,-7.460688346877694,5.302300352677703
1758273893685554400,0.894554443359375,3.4488577205881477,-7.508806773358583,5.281439350956678
1758273893695511300,0.90451123046875,3.3569197338640686,-7.56258044912219,5.263920060878991
1758273893705469400,0.914469482421875,3.2455121997773646,-7.621212670832872,5.249205891349911
1758273893715427300,0.92442724609375,3.117695090420544,-7.683521535229683,5.235823847207427
1758273893725384400,0.934384521484375,2.969343434818089,-7.749882305365801,5.224242130485177
1758273893735342600,0.944342529296875,2.8009903169333934,-7.819863604086637,5.212924617657065
1758273893745299500,0.954299560546875,2.6103365199133752,-7.893971627348661,5.200168011936545
1758273893755257300,0.96425732421875,2.396831862529367,-7.973632608562707,5.181386154577136
1758273893765215500,0.974215576171875,2.192387294435501,-8.052704976233839,5.1495408175051205
1758273893775172400,0.98417236328125,2.0097084218174217,-8.12266114051342,5.114082550632953
1758273893785130500,0.994130615234375,1.8373659420356154,-8.189847255557774,5.071573780727386
1758273893795088600,1.004088623046875,1.6767055706106124,-8.257994324588775,5.016431739220023
1758273893805045200,1.014045166015625,1.5355093397207558,-8.323977493584156,4.9521699871897695
1758273893815003400,1.02400341796875,1.414063518961519,-8.386768004018068,4.881899350133538
1758273893824960500,1.03396044921875,1.322529144602269,-8.447145608091354,4.802813538458943
1758273893834918400,1.04391845703125,1.2520283520519733,-8.50480167824626,4.719232753452658
1758273893844876500,1.05387646484375,1.1829578115005046,-8.561555246603488,4.633655826193094
1758273893854833400,1.06383349609375,1.107926682044193,-8.618966986608505,4.544919558119774
1758273893864791300,1.073791259765625,1.0329520320154726,-8.675607742241024,4.453900732067227
1758273893874748400,1.08374853515625,0.9499933244302868,-8.732479384019971,4.360241036117077
1758273893884706600,1.09370654296875,0.8537797062136232,-8.792846466699242,4.257616235683858
1758273893894664400,1.10366455078125,0.7546518079854547,-8.858240437629819,4.1391415396898985
1758273893904621300,1.113621337890625,0.6760800833128392,-8.928779370233416,3.998775914405286
1758273893914579500,1.123579345703125,0.6139922412555664,-9.001101094600557,3.843640882273018
1758273893924536600,1.13353662109375,0.5723399420488625,-9.072505119600892,3.6786487652540205
1758273893934494500,1.143494384765625,0.5458001275064424,-9.137143888249993,3.519243800717592
1758273893944452600,1.15345263671875,0.521979106936045,-9.18916224477887,3.3848487742751834
1758273893954409500,1.163409423828125,0.4890144104452803,-9.23079072471857,3.2747128675594923
1758273893964367400,1.173367431640625,0.4471385681483894,-9.267815510255097,3.174591866640746
1758273893974325500,1.183325439453125,0.38493597713764754,-9.297703283518553,3.094335549882054
1758273893984282400,1.193282470703125,0.3025150114246644,-9.320918739411235,3.033040538702905
1758273893994240500,1.203240478515625,0.23173870813492684,-9.347886241313814,2.9552880214586854
1758273894004197400,1.213197265625,0.17413562854258344,-9.3811671641469,2.8519767000660297
1758273894014155300,1.2231552734375,0.11107197285625152,-9.412725500971078,2.749300461706519
1758273894024113400,1.233113525390625,0.04443522618981078,-9.437157346916198,2.6661665436849
1758273894034070500,1.243070556640625,-0.011024158188013824,-9.455137240242957,2.6020479995176196
1758273894044028400,1.2530283203125,-0.03745241809776052,-9.466970301377772,2.5584105178430674
1758273894053985300,1.2629853515625,-0.043817710779397744,-9.474506542101501,2.5302602358967063
1758273894063943400,1.272943359375,-0.041582608671090565,-9.478484213560819,2.515353758665919
1758273894073901300,1.2829013671875,-0.031099028199759775,-9.478978134557604,2.513639940485358
1758273894083858400,1.2928583984375,-0.01528325296268449,-9.478352696135639,2.516142863216996
1758273894093816600,1.302816650390625,0.0015045520660707551,-9.478161557477712,2.5169082946315404
1758273894103773400,1.3127734375,0.01524200535355485,-9.478915006193517,2.5140254326716063
1758273894113731300,1.3227314453125,0.024178300442313776,-9.481014024299382,2.50602654287219
1758273894123689500,1.332689453125,0.027053839895606505,-9.482852930164336,2.4990341997668146
1758273894133646600,1.342646484375,0.0165568062876584,-9.480740468055009,2.507121936893463
1758273894143604500,1.3526044921875,-0.007871244831755757,-9.473996839013695,2.5325302266553043
1758273894153561300,1.362561279296875,-0.03878153867651708,-9.464510633265972,2.56746943808943
1758273894163519500,1.37251953125,-0.07441874231216497,-9.453336328300834,2.6075384136274455
1758273894173477400,1.382477294921875,-0.11799231930449604,-9.440978366509079,2.6503575646564363
1758273894183434500,1.3924345703125,-0.1693598655081354,-9.427154423817992,2.6963854485988614
1758273894193392600,1.402392578125,-0.2280885698632337,-9.412857602918148,2.741620428597927
1758273894203349200,1.412349365234375,-0.2941499551939778,-9.397830714178085,2.7865064490288494
1758273894213307400,1.422307373046875,-0.37033962530195713,-9.381397465771435,2.832420058941841
1758273894223265500,1.432265625,-0.48065275174807753,-9.371641210910678,2.8481097955048083
1758273894233222400,1.442222412109375,-0.6120834119595587,-9.365756829047202,2.8422432415589687
1758273894243180500,1.4521806640625,-0.7318628338765353,-9.362408103141188,2.824902522918582
1758273894253138400,1.462138427734375,-0.8359821106512099,-9.36290670031309,2.794188820225
1758273894263095300,1.47209521484375,-0.9282962372113018,-9.365348832768202,2.7566049395009875
1758273894273053400,1.482053466796875,-1.0218062955576925,-9.366887294381856,2.718031463217735
1758273894283010600,1.492010498046875,-1.1320821222007273,-9.364882968822121,2.680995864026248
1758273894292968400,1.501968505859375,-1.266176704391837,-9.358433938813208,2.64327345161438
1758273894302926600,1.511926513671875,-1.4173138990595935,-9.347039269095658,2.6066207142606377
1758273894312883500,1.521883544921875,-1.5732023799076675,-9.331376420539616,2.573100721974671
1758273894322841300,1.53184130859375,-1.7225240495860576,-9.313184930288791,2.5432012582734225
1758273894332798500,1.541798583984375,-1.858457099250704,-9.294148221385479,2.517010878223181
1758273894342756600,1.551756591796875,-1.9725696545124052,-9.277321589747071,2.4921207671165466
1758273894352714500,1.561714599609375,-2.061838714288175,-9.265454041820764,2.4638518272265792
1758273894362671400,1.57167138671875,-2.1324067268557845,-9.25824454883337,2.43066720437482
1758273894372629500,1.58162939453125,-2.193303678628057,-9.25468247243762,2.3896970422133803
1758273894382586400,1.59158642578125,-2.2537292134962974,-9.25400968774259,2.335468608419597
1758273894392544500,1.60154443359375,-2.312480823802948,-9.256623669633269,2.2666567918695506
1758273894402502700,1.611502685546875,-2.3620937266252935,-9.263871156543493,2.184391181115061
1758273894412459300,1.621459228515625,-2.404389584432542,-9.276361220282316,2.0828898317538203
1758273894422417400,1.63141748046875,-2.4351881889306006,-9.295998817688226,1.9556774102918804
1758273894432374500,1.64137451171875,-2.4359508438661694,-9.32430195210874,1.8149113875128329
1758273894442332400,1.65133251953125,-2.3999428341567515,-9.35956849580109,1.6760462299190462
1758273894452290600,1.66129052734375,-2.347467966032028,-9.395736372247338,1.542703927399963
1758273894462247400,1.671247314453125,-2.3340761311478913,-9.420059497120976,1.4088845088884234
1758273894472205300,1.681205322265625,-2.3738507999144494,-9.434202004241943,1.2373461850963532
1758273894482163500,1.69116357421875,-2.4085208390183745,-9.453262094020843,1.00262477135621
1758273894492120600,1.70112060546875,-2.415939736972749,-9.473767706432938,0.7624385894041508
1758273894502078500,1.711078369140625,-2.406231120646,-9.489189731970429,0.5794213516771793
1758273894512035300,1.721035400390625,-2.389409457443654,-9.500035535633563,0.45872507064361123
1758273894521993500,1.730993408203125,-2.3649428324460984,-9.509359828817844,0.38662626831214875
1758273894531951400,1.740951416015625,-2.3246945548184215,-9.520601353800297,0.3526043909186497
1758273894541908500,1.750908447265625,-2.2656620817437765,-9.534916294878721,0.35003117942977696
1758273894551866600,1.76086669921875,-2.189194343613088,-9.5516651851058,0.37884131352435796
1758273894561823500,1.770823486328125,-2.106597455077618,-9.567747135856747,0.43687202567793426
1758273894571781400,1.780781494140625,-2.0269114855527874,-9.580798925131559,0.5198831575701013
1758273894581739500,1.790739501953125,-1.9596090506523847,-9.588784663188457,0.6209284702595324
1758273894591696400,1.8006962890625,-1.9184879357129334,-9.590938626351951,0.709703682103753
1758273894601654500,1.810654541015625,-1.9158163784161208,-9.588291326713561,0.7514616336420178
1758273894611611400,1.820611328125,-1.941631787674129,-9.581529577493667,0.7711874207880347
1758273894621569300,1.8305693359375,-1.9631820868335663,-9.576527239161729,0.7787173048362136
1758273894631527400,1.84052734375,-1.950263568549603,-9.579051204681395,0.7801448534213006
1758273894641484500,1.850484619140625,-1.8883181306377053,-9.590220248949526,0.7951818251639604
1758273894651442400,1.8604423828125,-1.7889964634031057,-9.606956279695034,0.8223692534275352
1758273894661400600,1.870400634765625,-1.6824365154780447,-9.624324178603292,0.8439228405226021
1758273894671357400,1.880357421875,-1.5917859382160007,-9.639014382734894,0.8520572663351893
1758273894681315300,1.8903154296875,-1.5247732800424099,-9.649154083955287,0.8598065652877092
1758273894691272400,1.9002724609375,-1.4697719621799885,-9.656435473135113,0.8737224971111863
1758273894701230600,1.910230712890625,-1.4137505074895917,-9.663608141243458,0.8867826888881624
1758273894711188500,1.9201884765625,-1.359782478197664,-9.670714758378267,0.8936932719942182
1758273894721145300,1.930145263671875,-1.3119443299628792,-9.677271340414881,0.894209258692339
1758273894731103500,1.940103515625,-1.2626339172184466,-9.683965869617461,0.8927199699826538
1758273894741060600,1.950060546875,-1.2013136985328048,-9.691432552236318,0.8962985591217875
1758273894751018500,1.9600185546875,-1.1262723399434238,-9.6991131698668,0.9105558517288416
1758273894760976600,1.9699765625,-1.0453378316622226,-9.706000006771086,0.9333976520035415
1758273894770933500,1.97993359375,-0.97294786436446,-9.711338445189595,0.955863604703173
1758273894780891400,1.989891357421875,-0.9167219000779092,-9.715224346712231,0.9718339848384261
1758273894790848500,1.9998486328125,-0.8752498528089374,-9.718515204951167,0.9771451699238269
1758273894800806400,2.009806396484375,-0.8405738954208791,-9.72183061310947,0.974588178917393
1758273894810764500,2.0197646484375,-0.8061464329011738,-9.725710084891318,0.9649140493821352
1758273894820721400,2.029721435546875,-0.7715381339218467,-9.729417707237602,0.9557816255081445
1758273894830679300,2.03967919921875,-0.73805978882052,-9.731698511651159,0.9590157120585441
1758273894840637400,2.049637451171875,-0.6998937242943793,-9.732672909641265,0.9775646374449133
1758273894850594600,2.059594482421875,-0.6557461742058396,-9.732245624139905,1.0118184969633817
1758273894860552400,2.069552490234375,-0.6063636826058849,-9.730416070625186,1.0591164739068597
1758273894870509300,2.07950927734375,-0.5525196450198069,-9.727491707611083,1.1139981109123676
1758273894880467500,2.089467529296875,-0.49494098748266696,-9.724090959256888,1.1693878435704856
1758273894890425300,2.09942529296875,-0.43638055236656215,-9.72071125369072,1.219727087906003
1758273894900382500,2.109382568359375,-0.3812484477313235,-9.717242116275429,1.2650066376991569
1758273894910340600,2.119340576171875,-0.3314705270729959,-9.713868255928158,1.3043322475239634
1758273894920297500,2.12929736328125,-0.28517127884328364,-9.710803607660532,1.3376679692842066
1758273894930255400,2.13925537109375,-0.24052420000107957,-9.70819664003253,1.3650859914332627
1758273894940213500,2.149213623046875,-0.19900345475217326,-9.705988316333293,1.3872887631520627
1758273894950170600,2.159170654296875,-0.16139321574419735,-9.704117261764406,1.4051478065781295
1758273894960128500,2.16912841796875,-0.12334117865231818,-9.702313427212834,1.4213696041911839
1758273894970086400,2.17908642578125,-0.08615100082047283,-9.700722943150996,1.4348884264558552
1758273894980043500,2.18904345703125,-0.05308176624299958,-9.699084528294206,1.4475209674052893
1758273894990001400,2.19900146484375,-0.02121108010059688,-9.696942255568503,1.4626177065111696
1758273894999958500,2.20895849609375,0.011184939381940057,-9.694328858199714,1.4799498034536838
1758273895009916400,2.21891650390625,0.0453812155027641,-9.691816583117841,1.4956611673265694
1758273895019874300,2.228874267578125,0.07850301595111377,-9.689456283727287,1.50951725872159
1758273895029831400,2.23883154296875,0.10741134059000759,-9.687435007032752,1.5206674521587789
1758273895039789300,2.248789306640625,0.132915327544976,-9.685753337556124,1.5293525706566868
1758273895049746400,2.258746337890625,0.15662861342458054,-9.684577864035964,1.5345330420345067
1758273895059704600,2.26870458984375,0.17999915028112007,-9.684210199767351,1.534286373797059
1758273895069662500,2.278662353515625,0.20243640660922974,-9.684764911040663,1.527972222214192
1758273895079619300,2.288619384765625,0.220047868482396,-9.686499772009252,1.5144928551770747
1758273895089577500,2.298577392578125,0.23298383109150453,-9.689123106250166,1.4956598521523177
1758273895099534600,2.30853466796875,0.24314985406324266,-9.692708563521505,1.470599060653895
1758273895109492500,2.318492431640625,0.25205922803739084,-9.696581605562567,1.4433099255815147
1758273895119450600,2.32845068359375,0.2616660096911713,-9.700526543796062,1.4148087843708692
1758273895129407500,2.338407470703125,0.2726707485093735,-9.704511229518056,1.3851023590236902
1758273895139365400,2.348365478515625,0.28517834790488705,-9.708504098546504,1.3542623996019363
1758273895149323500,2.358323486328125,0.2998149221531115,-9.71239350720048,1.3228406947694717
1758273895159280600,2.36828076171875,0.3189560230126604,-9.715831664955616,1.292772888763994
1758273895169238500,2.378238525390625,0.3454761830065399,-9.718646137854456,1.2644913816533982
1758273895179195400,2.3881953125,0.3800514930317178,-9.720843355637788,1.2374021530672907
1758273895189153500,2.398153564453125,0.4209813231827691,-9.722385908904672,1.211769187704101
1758273895199111400,2.408111328125,0.4669962380457669,-9.723150463536381,1.1885495670929551
1758273895209068500,2.418068603515625,0.5197911319050937,-9.722913732171058,1.168395033140853
1758273895219026700,2.428026611328125,0.5822418524580076,-9.721432553702591,1.1511376819349826
1758273895228983300,2.4379833984375,0.655701604411751,-9.718663673511147,1.1349084316678344
1758273895238941400,2.44794140625,0.7364282420959323,-9.714841484874487,1.1179867421571166
1758273895248899600,2.457899658203125,0.8196906818680465,-9.710307933098077,1.0992854757532478
1758273895258856400,2.4678564453125,0.9033889557741582,-9.705298580503463,1.077714279936254
1758273895268814600,2.477814697265625,0.9855728065293282,-9.70004548228085,1.0526763578567653
1758273895278772500,2.4877724609375,1.0621928126122802,-9.69512146988213,1.023104664805159
1758273895288729300,2.497729248046875,1.1265509376890956,-9.691742933359741,0.9855839855104684
1758273895298687500,2.5076875,1.168603999716416,-9.691517307910322,0.9376716760609298
1758273895308644600,2.51764453125,1.1784838809568434,-9.695294488361478,0.8847653577163815
1758273895318602500,2.5276025390625,1.1594644154492766,-9.701953946250677,0.835527060360089
1758273895328561000,2.537560791015625,1.1268700866408645,-9.709217215251922,0.7947696641664952
1758273895338518000,2.54751806640625,1.0948635676577687,-9.715388597363233,0.7634800612810999
1758273895348476000,2.557475830078125,1.067683811243996,-9.720036715430021,0.7425250246010721
1758273895358432800,2.567432861328125,1.0351875359825788,-9.724050627246498,0.7359323483377694
1758273895368391000,2.577390869140625,0.9734420045569538,-9.729816351166367,0.7439413211397826
1758273895378348800,2.587348876953125,0.8660037394274026,-9.739726919806003,0.7470937938213348
1758273895388306000,2.597305908203125,0.7113920005168766,-9.753578919547795,0.7293711631912738
1758273895398263800,2.607263916015625,0.5162188994415104,-9.768354463875292,0.6951021061036735
1758273895408221700,2.6172216796875,0.29495727125518023,-9.780617148599028,0.6503215188086032
1758273895418178800,2.6271787109375,0.06404036436453461,-9.78801894928813,0.600806085011363
1758273895428136700,2.63713671875,-0.1680876718815416,-9.789719907987116,0.5509353715030476
1758273895438093800,2.64709375,-0.4046338898960501,-9.78555694308877,0.49953657164461907
1758273895448052000,2.657052001953125,-0.6532143907058984,-9.774895263820886,0.44169601176828144
1758273895458009600,2.667009521484375,-0.9142017339505255,-9.75674176749289,0.3749372918231412
1758273895467966700,2.676966796875,-1.1810014898009598,-9.730813545510172,0.2947369978343136
1758273895477924900,2.6869248046875,-1.4456222941771149,-9.697413380211591,0.20182391900038346
1758273895487882000,2.696882080078125,-1.6981566471792757,-9.657918989691138,0.10612512757121585
1758273895497839900,2.70683984375,-1.9370662333242594,-9.613426937013864,0.014469850795634556
1758273895507797800,2.7167978515625,-2.165219301524758,-9.564353401765226,-0.0730170633872738
1758273895517755000,2.7267548828125,-2.385424479460716,-9.51074631474018,-0.16076008720612153
1758273895527712800,2.736712646484375,-2.5918799489855764,-9.454546288612484,-0.2531755552488379
1758273895537670000,2.746669921875,-2.7833170053377745,-9.396467609131335,-0.3604373130340129
1758273895547628000,2.7566279296875,-2.9640026583120225,-9.335027344262599,-0.49228046303652223
1758273895557585700,2.766585693359375,-3.1394717456817625,-9.267706204661726,-0.6509361435756087
1758273895567542800,2.776542724609375,-3.31753786380738,-9.190561590182782,-0.835403726241365
1758273895577501000,2.7865009765625,-3.503915298682451,-9.099975894850491,-1.040865143227577
1758273895587458800,2.796458740234375,-3.6998701247200367,-8.994061697483062,-1.2602265638157724
1758273895597416000,2.806416015625,-3.903698168350756,-8.873101322153211,-1.4831032990485429
1758273895607373800,2.816373779296875,-4.110046085847914,-8.740047188925743,-1.6998527835726738
1758273895617330700,2.82633056640625,-4.311818950514495,-8.59885241934061,-1.9074527469575404
1758273895627288800,2.836288818359375,-4.500178499117493,-8.455307287237048,-2.1039460637859997
1758273895637246700,2.846246826171875,-4.674832178451121,-8.31693809646666,-2.2682342703193425
1758273895647203800,2.856203857421875,-4.8321007154807445,-8.193508700674771,-2.384877951493859
1758273895657161700,2.86616162109375,-4.963706695726514,-8.088656579580903,-2.4709634127974507
1758273895667118800,2.876118896484375,-5.085307122525572,-7.988762373155355,-2.5474872650295493
1758273895677076700,2.88607666015625,-5.2024149140805,-7.888854722726345,-2.6213115029141307
1758273895687035000,2.896034912109375,-5.3133185902982945,-7.790162877827882,-2.6930282471254468
1758273895696992000,2.905991943359375,-5.422690234643221,-7.687748797535896,-2.768270827375352
1758273895706949600,2.91594970703125,-5.548490451219678,-7.567346056088804,-2.849550349701941
1758273895716907800,2.92590771484375,-5.6857239159584045,-7.419692904144525,-2.9649779330849646
1758273895726865000,2.935864990234375,-5.813638932731747,-7.25131202147007,-3.1289772396743296
1758273895736822800,2.94582275390625,-5.920934939846396,-7.083009464728832,-3.3081568719998
1758273895746780000,2.95577978515625,-5.999658932471275,-6.937205155521631,-3.4712668285340067
1758273895756737800,2.96573779296875,-6.05580518258512,-6.822967950966953,-3.5978786537542935
1758273895766695700,2.97569580078125,-6.104654845950007,-6.735233553412557,-3.679701196916401
1758273895776652800,2.98565283203125,-6.147885500389338,-6.667978464785218,-3.729872172012925
1758273895786611000,2.99561083984375,-6.180970608389377,-6.6178761710107326,-3.764268947133422
1758273895796567800,3.00556787109375,-6.201978325104713,-6.578728401970863,-3.7981791077807543
1758273895806526000,3.01552587890625,-6.213629599931836,-6.546663284668326,-3.8343773793652653
1758273895816483800,3.02548388671875,-6.218679284536838,-6.525005579611658,-3.86299615560621
1758273895826440700,3.035440673828125,-6.220407131242752,-6.511077007502317,-3.8836543282315135
1758273895836398800,3.04539892578125,-6.218260766863823,-6.506441748917102,-3.894846753375232
1758273895846357000,3.05535693359375,-6.20880963242948,-6.515353369647264,-3.8950305855095384
1758273895856313900,3.06531396484375,-6.193831843528151,-6.538987343212962,-3.879233004657924
1758273895866271700,3.075271728515625,-6.177912389862537,-6.576717062148451,-3.840642284978926
1758273895876228900,3.085228759765625,-6.163155550235509,-6.627431350341439,-3.7766418142333626
1758273895886186800,3.095186767578125,-6.146439393234252,-6.68990680347681,-3.692801501508057
1758273895896145000,3.105144775390625,-6.121997610417008,-6.762311529952287,-3.6003669634386894
1758273895906102000,3.11510205078125,-6.085615798959136,-6.840280904817581,-3.513720068860054
1758273895916059600,3.1250595703125,-6.039734337750077,-6.917455329912901,-3.4410525997951624
1758273895926016800,3.135016845703125,-5.99079056636095,-6.987292836248875,-3.3850495575442907
1758273895935975000,3.144974853515625,-5.946580253234505,-7.042759871926903,-3.347853507094085
1758273895945932800,3.154932861328125,-5.913353106415271,-7.082457676064967,-3.3228701647460457
1758273895955890000,3.164889892578125,-5.891942069596052,-7.115577270856499,-3.2899817483618854
1758273895965847800,3.174847900390625,-5.883190607863664,-7.1507041138172145,-3.228918500111997
1758273895975805700,3.1848056640625,-5.879759464371204,-7.19627460938096,-3.132482325185835
1758273895985762800,3.1947626953125,-5.871246487569809,-7.252769819062948,-3.015983020918071
1758273895995721000,3.204720947265625,-5.830925583097338,-7.3172922678560015,-2.9373367697045207
1758273896005677800,3.214677734375,-5.753434347137809,-7.387769241139292,-2.913631484468281
1758273896015635700,3.2246357421875,-5.6808747223615645,-7.444720962417125,-2.9110478977158665
1758273896025593900,3.23459375,-5.612624777477979,-7.502258374628425,-2.895678771409392
1758273896035550700,3.24455078125,-5.529567139562964,-7.576548184198141,-2.861853658697009
1758273896045508900,3.2545087890625,-5.4365784747421735,-7.6594667059034105,-2.818962319214642
1758273896055466000,3.264466064453125,-5.344309940889477,-7.74383893354833,-2.764363883064687
1758273896065423600,3.274423583984375,-5.255387210333347,-7.828817310392856,-2.694605287183821
1758273896075381800,3.2843818359375,-5.1657934486478565,-7.91571817973256,-2.6127286757469177
1758273896085339000,3.2943388671875,-5.070505859234928,-8.005024356648326,-2.5258546944141385
1758273896095296800,3.304296875,-4.968785021904111,-8.09270614723265,-2.4473791235923765
1758273896105255000,3.3142548828125,-4.862148355481028,-8.175489644381404,-2.385638998994231
1758273896115211800,3.324211669921875,-4.748730650615692,-8.256860352122784,-2.3332794278122484
1758273896125169700,3.334169677734375,-4.625658689959347,-8.341972584480047,-2.2771055590391156
1758273896135126800,3.344126708984375,-4.4914843205302954,-8.43255068102777,-2.2111200519561764
1758273896145085000,3.3540849609375,-4.348111622384191,-8.525500767403841,-2.1401357136726378
1758273896155042800,3.364042724609375,-4.200544687418639,-8.615959621486068,-2.071476603466272
1758273896164999700,3.373999755859375,-4.052783983446657,-8.702049174442887,-2.0049132964953778
1758273896174957800,3.383957763671875,-3.90612481097579,-8.784517029771209,-1.9351608380943535
1758273896184915000,3.3939150390625,-3.753771810777485,-8.866541817507148,-1.8611852090403436
1758273896194872800,3.403872802734375,-3.599569675581157,-8.945311987361311,-1.7874277527816593
1758273896204831000,3.4138310546875,-3.453309731560945,-9.016330227914452,-1.71780111271739
1758273896214787800,3.423787841796875,-3.3148110691919923,-9.079630441436171,-1.6561143257416784
1758273896224745700,3.433745849609375,-3.176064277280867,-9.138092567276955,-1.605703988931328
1758273896234704000,3.443703857421875,-3.0309000195428726,-9.193777629619836,-1.567959949209541
1758273896244660700,3.45366064453125,-2.875611842675507,-9.250496126663684,-1.526294498260319
1758273896254619000,3.463618896484375,-2.7134426741227506,-9.307963396248221,-1.4728994465507566
1758273896264575700,3.47357568359375,-2.5499220909610387,-9.363382501131296,-1.4125724036209284
1758273896274533600,3.48353369140625,-2.393582651475072,-9.413792253419757,-1.3497004985138774
1758273896284491800,3.49349169921875,-2.2518761329755184,-9.45731341523826,-1.2878840938091278
1758273896294449000,3.503448974609375,-2.1259138577051457,-9.493878766569495,-1.2317173854291439
1758273896304406800,3.51340673828125,-2.009609491487592,-9.526068971556425,-1.1772205099575221
1758273896314365000,3.523364990234375,-1.8983698613137006,-9.55533656709492,-1.123446103541553
1758273896324321800,3.53332177734375,-1.7898093872211873,-9.58236485927403,-1.07017774695158
1758273896334279700,3.54327978515625,-1.6790134091615676,-9.608220016020535,-1.0165789162982255
1758273896344236800,3.55323681640625,-1.5628829382061957,-9.633267363515495,-0.9633077101640403
1758273896354195000,3.56319482421875,-1.4440866090424358,-9.65683236349821,-0.9113703829821198
1758273896364152800,3.57315283203125,-1.3260641868606209,-9.678327571469545,-0.8613472919236869
1758273896374110000,3.58310986328125,-1.2070465430963784,-9.697841834756732,-0.815648420739919
1758273896384067800,3.59306787109375,-1.0868496994849295,-9.715064187714457,-0.7789002601876854
1758273896394025000,3.60302490234375,-0.9724447371479124,-9.729050042968987,-0.7552046195626259
1758273896403982800,3.61298291015625,-0.871239886515215,-9.739422383901477,-0.7449787013635039
1758273896413941000,3.62294091796875,-0.7875983112324029,-9.746941673490404,-0.7397561444096267
1758273896423897900,3.63289794921875,-0.7224352264482528,-9.752616211995482,-0.7314012077141553
1758273896433855700,3.642855712890625,-0.6695252548418938,-9.75714976377189,-0.7212180326782166
1758273896443814000,3.65281396484375,-0.6172365569390356,-9.760888950300217,-0.71725095567815
1758273896453770800,3.662770751953125,-0.5595955016901716,-9.763689979195593,-0.7263556147623806
1758273896463729000,3.67272900390625,-0.49433878380581736,-9.765707748758793,-0.7462941678762436
1758273896473686000,3.68268603515625,-0.42198059988580644,-9.767006556397677,-0.7732295210748911
1758273896483643600,3.6926435546875,-0.34675171936769034,-9.767295310211182,-0.8062794846963137
1758273896493601800,3.702601806640625,-0.2755531538115814,-9.766358321622013,-0.844212178857997
1758273896503559000,3.712558837890625,-0.2129443018211983,-9.764189745411276,-0.8863732313044369
1758273896513516800,3.722516845703125,-0.1583802063322626,-9.760957923883199,-0.9322180137649178
1758273896523475000,3.732474853515625,-0.10709484938620589,-9.757096572279929,-0.9787745246913283
1758273896533431800,3.742431884765625,-0.05192510245458688,-9.753206579104065,-1.0211105683784931
1758273896543389700,3.7523896484375,0.012171006118599325,-9.749930333912372,-1.0531440484337509
1758273896553346800,3.762346923828125,0.08579815052850172,-9.747543731036782,-1.0716317451521753
1758273896563305000,3.772304931640625,0.16360115585094318,-9.745819975984096,-1.078259127402678
1758273896573262800,3.782262939453125,0.2376241311780177,-9.744213709831238,-1.0789943098094315
1758273896583219700,3.7922197265625,0.30277413728488606,-9.742488201212883,-1.0782559125322848
1758273896593177900,3.802177734375,0.3584381751060486,-9.740559278976917,-1.0786087445579469
1758273896603135000,3.812135009765625,0.40489246776700016,-9.73814812618196,-1.0839419222794473
1758273896613092900,3.8220927734375,0.43880555102378127,-9.73492331891656,-1.0995969528552143
1758273896623051000,3.832051025390625,0.4508275953920558,-9.731399820965528,-1.1256176754269749
1758273896633007900,3.8420078125,0.4291815442405641,-9.728952427813411,-1.1548491036735475
1758273896642965800,3.8519658203125,0.3711611708179116,-9.728275551465153,-1.1803821888588368
1758273896652924000,3.861923828125,0.28821859238361935,-9.728628602686523,-1.2004607349652796
1758273896662881000,3.871881103515625,0.19823566698376088,-9.7295311044842,-1.2113305770911276
1758273896672839000,3.8818388671875,0.11141795501601881,-9.730644618684053,-1.2134876820597797
1758273896682795800,3.891795654296875,0.01733137770659523,-9.730634681811928,-1.2185502992115913
1758273896692753700,3.901753662109375,-0.10500688239731826,-9.727552497887611,-1.2385877095900475
1758273896702711800,3.9117119140625,-0.2713261655000038,-9.718973470112681,-1.2799676215961575
1758273896712669000,3.9216689453125,-0.4850741483869031,-9.702216396579146,-1.3424173557683825
1758273896722626800,3.931626708984375,-0.7329889883622527,-9.675568043628335,-1.4200303184114396
1758273896732583700,3.941583740234375,-0.9952643986560403,-9.639285016369818,-1.5046657270371913
1758273896742541800,3.951541748046875,-1.2587706659190356,-9.594009704360365,-1.5940046371787786
1758273896752499700,3.961499755859375,-1.5212113497771322,-9.539158754754066,-1.6913685944743453
1758273896762456800,3.971456787109375,-1.7846910212941467,-9.473386598160863,-1.800050795250386
1758273896772415000,3.9814150390625,-2.0483434190295635,-9.397967492300271,-1.9112556463718413
1758273896782372900,3.991372802734375,-2.310398610701412,-9.31384017932713,-2.0211000227950513
1758273896792329700,4.001329833984375,-2.5607111960008737,-9.226331991744042,-2.1184677794829008
1758273896802287900,4.011287841796875,-2.7910172044515607,-9.139524645906686,-2.202196886918694
1758273896812245800,4.021245849609375,-2.9975948390513656,-9.054615827167034,-2.2800753686301407
1758273896822203000,4.031202880859375,-3.1815947311401365,-8.972690408152342,-2.353433888699114
1758273896832161000,4.0411611328125,-3.34610081820786,-8.893045793551206,-2.426469168163091
1758273896842118000,4.051117919921875,-3.503236668768525,-8.811551751691102,-2.5008599538892504
1758273896852075800,4.06107568359375,-3.664790920293331,-8.724491307875514,-2.5735019962519408
1758273896862034000,4.071033935546875,-3.8365044545218345,-8.628995628669857,-2.6442513567358255
1758273896871991000,4.080990966796875,-4.020103656855225,-8.523013042241335,-2.7142969528645273
1758273896881949000,4.090948974609375,-4.209992022460699,-8.40835907357931,-2.7831322964206335
1758273896891905800,4.10090576171875,-4.395420193786919,-8.290421260941027,-2.849495696905255
1758273896901864000,4.110864013671875,-4.569617653785646,-8.173328666955232,-2.913011891265213
1758273896911821800,4.12082177734375,-4.727147764360905,-8.060708249947428,-2.9748049150943756
1758273896921779000,4.130779052734375,-4.86918453772813,-7.951940416714549,-3.0377748737484214
1758273896931736800,4.14073681640625,-5.002419580480456,-7.845131900855899,-3.098402945451438
1758273896941695000,4.150695068359375,-5.132637028977275,-7.738138091558217,-3.1539848396807906
1758273896951651800,4.16065185546875,-5.264828407895565,-7.628117627915739,-3.203721515013277
1758273896961609700,4.170609619140625,-5.399372487419844,-7.514711613488197,-3.2475106801182028
1758273896971566800,4.18056689453125,-5.529156220674515,-7.40161305757463,-3.288601692180335
1758273896981525000,4.19052490234375,-5.656850872695446,-7.28588766028881,-3.3296038569152353
1758273896991483000,4.20048291015625,-5.778184172990918,-7.162762215879559,-3.3878903339281674
1758273897001439700,4.210439697265625,-5.889881629934907,-7.031386244997382,-3.4697663608431815
1758273897011398000,4.22039794921875,-5.992726502859592,-6.898297624978423,-3.5596544293001293
1758273897021355800,4.230355712890625,-6.083250238871574,-6.769931941828132,-3.6513691286623478
1758273897031313000,4.24031298828125,-6.159459618327022,-6.6536378047436475,-3.7363761470794676
1758273897041271000,4.25027099609375,-6.22242490080595,-6.552471094164252,-3.8101144602462647
1758273897051228000,4.260227783203125,-6.27561463920176,-6.462485702812671,-3.8759944611281156
1758273897061185800,4.270185791015625,-6.321871947985887,-6.388358974850178,-3.923414968472719
1758273897071144000,4.28014404296875,-6.362928765517473,-6.324926659381389,-3.959653864328563
1758273897081101000,4.29010107421875,-6.397652872896194,-6.276575593188404,-3.9805855931982395
1758273897091059000,4.300058837890625,-6.425496573111414,-6.238532570520043,-3.995506683476269
1758273897101016800,4.310016845703125,-6.443293511086702,-6.209558989492058,-4.011949868755043
1758273897110974000,4.319973876953125,-6.4525996840924025,-6.192895439460873,-4.022732251793146
1758273897120931800,4.329931884765625,-6.455441044998168,-6.19191285816431,-4.019688938574492
1758273897130889000,4.339888916015625,-6.4508806052148335,-6.20942571850121,-3.9999402820095415
1758273897140846800,4.349846923828125,-6.4389855847597115,-6.246233061894774,-3.961613766224682
1758273897150804700,4.3598046875,-6.420445134940743,-6.302631825464964,-3.901935834853351
1758273897160761900,4.369761962890625,-6.394778778764605,-6.377198698410392,-3.82210563455224
1758273897170719700,4.3797197265625,-6.362286960482597,-6.464360264512896,-3.728777070252597
1758273897180676900,4.3896767578125,-6.31994653288126,-6.5576102106183765,-3.6368110264778135
1758273897190635000,4.399635009765625,-6.261864346268773,-6.652001143452525,-3.565158579674363
1758273897200592600,4.409592529296875,-6.18491846923232,-6.744205379897355,-3.5260222088113427
1758273897210549800,4.4195498046875,-6.092187578564882,-6.8321554660290476,-3.5181332091271877
1758273897220508000,4.4295078125,-5.9952481302917,-6.90783293056488,-3.5368396631628274
1758273897230465800,4.4394658203125,-5.914772325563431,-6.958613854253292,-3.572612695072591
1758273897240423000,4.4494228515625,-5.874565987381339,-6.984118882387876,-3.589146188983321
1758273897250380800,4.459380859375,-5.886832763758301,-6.994739645123481,-3.5481294112011788
1758273897260338000,4.469337890625,-5.907603749108314,-7.020308970665932,-3.4620594397276636
1758273897270295800,4.4792958984375,-5.8659442895084615,-7.072478133842349,-3.4265313224896787
1758273897280254000,4.48925390625,-5.7537032272070645,-7.146246549886465,-3.463588548991084
1758273897290211000,4.499211181640625,-5.636683698457479,-7.241840428769588,-3.4574513614103197
1758273897300168700,4.509168701171875,-5.559311704963445,-7.3480480561256405,-3.3571775080174207
1758273897310126800,4.519126953125,-5.489349695464968,-7.464269127973914,-3.2127970941334962
1758273897320084000,4.529083984375,-5.403681582790613,-7.583240375313163,-3.0765351047754286
1758273897330041300,4.539041259765625,-5.308778608781099,-7.689746693354844,-2.975749210207164
1758273897339998200,4.548998291015625,-5.215633292093873,-7.7829902097195385,-2.897003005750477
1758273897349956400,4.558956298828125,-5.121872473856807,-7.877043288901448,-2.8087393236249683
1758273897359914200,4.568914306640625,-5.018774502953887,-7.982204037553071,-2.695679053895175
1758273897369871400,4.578871337890625,-4.906946697628498,-8.095714681398869,-2.559629830504954
1758273897379829500,4.58882958984375,-4.789510404771566,-8.20781662749052,-2.421302140788734
1758273897389787400,4.598787353515625,-4.669980062244832,-8.307181257084011,-2.313529602203518
1758273897399744300,4.608744140625,-4.549515945999324,-8.391150749146938,-2.2496417980521914
1758273897409702400,4.618702392578125,-4.42206007117033,-8.468555475866793,-2.213449225556105
1758273897419659300,4.6286591796875,-4.28657578818649,-8.54573691522479,-2.1831388429664074
1758273897429617400,4.638617431640625,-4.146827418017387,-8.623050456529855,-2.1487699787661434
1758273897439575600,4.648575439453125,-4.008564025709033,-8.6983134950459,-2.107409502112865
1758273897449532200,4.6585322265625,-3.8766269138127565,-8.769896968266368,-2.0569505038551985
1758273897459490300,4.668490234375,-3.7463559815630316,-8.839843780195713,-1.9980892956942318
1758273897469448400,4.678448486328125,-3.6084374571695923,-8.910938593116402,-1.9351428640462458
1758273897479405300,4.6884052734375,-3.455624730505049,-8.984340513935685,-1.8736755650401113
1758273897489363500,4.698363525390625,-3.2913343320146202,-9.05730696594715,-1.8173342307455838
1758273897499320300,4.7083203125,-3.1250998137190935,-9.12605316991508,-1.7661410729944704
1758273897509278200,4.7182783203125,-2.96958367331475,-9.186766874074936,-1.7190866224832833
1758273897519236400,4.728236328125,-2.831234064027667,-9.239141788956523,-1.6711502745710312
1758273897529193500,4.738193359375,-2.7042092740923165,-9.28659152239561,-1.617672220753133
1758273897539151400,4.7481513671875,-2.5723721154391765,-9.335354676520824,-1.55062200704813
1758273897549109200,4.758109130859375,-2.4269126741468905,-9.386980234339832,-1.4714317120857536
1758273897559066400,4.76806640625,-2.2675397121839223,-9.439629874509572,-1.3863758860908448
1758273897569024300,4.778024169921875,-2.099873407519609,-9.490258237984776,-1.3022770685598253
1758273897578981400,4.7879814453125,-1.9332751704782247,-9.536058450651169,-1.223283976669982
1758273897588939500,4.797939453125,-1.7783248472630977,-9.574767828273773,-1.1540248547438532
1758273897598897200,4.807897216796875,-1.6431918619349597,-9.605832244101165,-1.0946730135217309
1758273897608854300,4.817854248046875,-1.53259199096933,-9.630110360789299,-1.040460288753733
1758273897618812400,4.8278125,-1.4463051618747413,-9.648575991806387,-0.9917495954681187
1758273897628770300,4.837770263671875,-1.3772778028778732,-9.663110713115334,-0.9475248884901404
1758273897638727400,4.8477275390625,-1.3143170504435897,-9.675760351330041,-0.9069915833760053
1758273897648685300,4.857685302734375,-1.2478820460274815,-9.687376554843782,-0.8762930051863193
1758273897658642200,4.86764208984375,-1.1738353244986384,-9.698189040759205,-0.8588586899783461
1758273897668600300,4.877600341796875,-1.0925789638519285,-9.70888579134047,-0.8451048168487847
1758273897678558500,4.887558349609375,-1.0125300062336027,-9.718682378211616,-0.8321027119345963
1758273897688515300,4.897515380859375,-0.9444444581314921,-9.726644735392927,-0.8190228656090796
1758273897698473200,4.90747314453125,-0.8917442568182945,-9.73271850234866,-0.8058246536009013
1758273897708430300,4.917430419921875,-0.8504653209686279,-9.737565357857942,-0.7917671944148839
1758273897718388200,4.92738818359375,-0.8116419615775347,-9.74195102559626,-0.7784596768133342
1758273897728346400,4.937346435546875,-0.7686610441155731,-9.745895963829755,-0.7726816779337823
1758273897738303500,4.947303466796875,-0.7227984337374568,-9.74909212952256,-0.776621063209325
1758273897748261000,4.95726123046875,-0.6798500303056091,-9.751170689362286,-0.7892094727560878
1758273897758219300,4.96721923828125,-0.6422472987506538,-9.752436179253458,-0.8049067350383847
1758273897768176400,4.97717626953125,-0.6015597894554957,-9.752837745791673,-0.8310828673675655
1758273897778134300,4.98713427734375,-0.5507849667143077,-9.752510998055339,-0.8692223361477255
1758273897788091400,4.99709130859375,-0.4891268213111907,-9.752088388729096,-0.9098972416896373
1758273897798049300,5.00704931640625,-0.4129842600142583,-9.752890937283635,-0.9385792924251407
1758273897808007200,5.017007080078125,-0.3158922515278682,-9.755525961962341,-0.9488434968080371
1758273897817964300,5.02696435546875,-0.19627585641918702,-9.759142983415723,-0.9439183884307741
1758273897827922400,5.03692236328125,-0.06175439971867017,-9.7625788030833,-0.9266106952771543
1758273897837880300,5.04688037109375,0.07101854194724,-9.764908707335591,-0.9010642391536384
1758273897847837200,5.056837158203125,0.1866057089393027,-9.765835174530745,-0.8740879694227128
1758273897857795300,5.06679541015625,0.2795741712222807,-9.765365218931436,-0.8543154935907572
1758273897867752200,5.076752197265625,0.3522351192148402,-9.763560215336083,-0.8480605979144573
1758273897877710300,5.08671044921875,0.4056623196283355,-9.760585583439468,-0.8583676185257733
1758273897887668500,5.09666845703125,0.43272133573926985,-9.757051564094423,-0.8849215711914002
1758273897897625300,5.106625244140625,0.4230317529065534,-9.75416577952504,-0.9206955529492348
1758273897907583200,5.116583251953125,0.3736779394118115,-9.752724348545074,-0.9566131078962236
1758273897917541400,5.126541259765625,0.2972365230324678,-9.752705643844603,-0.9832404911242425
1758273897927498200,5.136498291015625,0.22030509464647619,-9.753296595475078,-0.9975322705227881
1758273897937456400,5.146456298828125,0.16639960919674485,-9.75383435561359,-1.00270653135553
1758273897947413500,5.15641357421875,0.13582006341000086,-9.754106742814182,-1.0046738128405064
1758273897957371100,5.16637109375,0.10560091190086678,-9.753743754720688,-1.0118022034157066
1758273897967329300,5.176329345703125,0.04336384779836516,-9.751764563602208,-1.0351894356787203
1758273897977286400,5.186286376953125,-0.07275814302302896,-9.746548874780535,-1.0816127486795186
1758273897987244300,5.196244384765625,-0.2432489487898536,-9.736029234331845,-1.1493342127095907
1758273897997202400,5.206202392578125,-0.45139582373406734,-9.718421096926926,-1.2324578285329044
1758273898007159300,5.2161591796875,-0.6790810917597264,-9.693279641407727,-1.3227125383451581
1758273898017117200,5.2261171875,-0.9163980749510228,-9.661150226697325,-1.4116532429493962
1758273898027074300,5.23607421875,-1.156971283459291,-9.622630818688869,-1.4955955547444522
1758273898037032400,5.246032470703125,-1.3988210877746343,-9.577275427180528,-1.577813673095405
1758273898046990300,5.255990234375,-1.6431665813632308,-9.524570257431268,-1.659198701623082
1758273898056947200,5.265947265625,-1.8896341816723345,-9.464428215679526,-1.7390354777954518
1758273898066905300,5.2759052734375,-2.135243557716906,-9.39806335389018,-1.813157091191411
1758273898076863200,5.28586328125,-2.3778403079420327,-9.327927156868576,-1.8724419315919278
1758273898086820400,5.2958203125,-2.6108546985685823,-9.25406813993156,-1.9276957629106937
1758273898096778500,5.305778564453125,-2.823127914461493,-9.178447374019026,-1.989076406546682
1758273898106735000,5.315735107421875,-3.009377046781778,-9.103523358199,-2.0591089970633387
1758273898116693200,5.325693359375,-3.1759844900429246,-9.027499856704473,-2.1419097376078367
1758273898126651400,5.3356513671875,-3.332764366772771,-8.946365295806526,-2.241785823854804
1758273898136608300,5.345608154296875,-3.4865713651716708,-8.857242074242233,-2.358705545491725
1758273898146566400,5.35556640625,-3.643687049727142,-8.7590757145226,-2.4844518399238584
1758273898156523300,5.365523193359375,-3.81605378716737,-8.648682325914502,-2.6092957786887885
1758273898166481200,5.375481201171875,-4.00950276786387,-8.522289404141903,-2.7321900446906686
1758273898176439300,5.385439208984375,-4.217202099969983,-8.380967793306707,-2.853940401354432
1758273898186396400,5.395396484375,-4.424994078795612,-8.230240056222677,-2.975397328029573
1758273898196354300,5.405354248046875,-4.61577763967514,-8.078708601540326,-3.098297146989405
1758273898206312400,5.4153125,-4.781314531095326,-7.936200411269068,-3.213427500991523
1758273898216269300,5.425269287109375,-4.924079618737101,-7.811506110107898,-3.3021503250613806
1758273898226227200,5.435227294921875,-5.044837749493122,-7.713474774944782,-3.349967138247192
1758273898236184300,5.445184326171875,-5.1485295946359635,-7.631246573591232,-3.3803967633023855
1758273898246142500,5.455142578125,-5.246439349246025,-7.547969155445695,-3.416645011508465
1758273898256100400,5.465100341796875,-5.34531239593029,-7.460072260805964,-3.4562004845663905
1758273898266057200,5.47505712890625,-5.44596706533432,-7.358599845278262,-3.5160821218162774
1758273898276015400,5.485015380859375,-5.547839293834567,-7.235843234181404,-3.6103254628732797
1758273898285973200,5.49497314453125,-5.648001211285591,-7.097500346896052,-3.727732821896672
1758273898295930400,5.504930419921875,-5.737661023944616,-6.954342752805352,-3.8583340090140696
1758273898305888500,5.514888427734375,-5.81318534374535,-6.810027805373072,-4.000098395180702
1758273898315845400,5.524845458984375,-5.86945317441225,-6.6757865081876515,-4.141711097916961
1758273898325803300,5.53480322265625,-5.905439849072694,-6.568109392800927,-4.260997694815695
1758273898335761700,5.54476171875,-5.933150862818956,-6.488454841327667,-4.343734722474217
1758273898345718500,5.554718505859375,-5.961596036058664,-6.426538775640726,-4.396515003286302
1758273898355676700,5.5646767578125,-5.992454700180888,-6.375760190039872,-4.42838167540729
1758273898365634600,5.574634521484375,-6.024120589032769,-6.337510831144452,-4.440303291608393
1758273898375591400,5.58459130859375,-6.0541398797214026,-6.306922216135263,-4.443027455875277
1758273898385549600,5.594549560546875,-6.083079558479786,-6.280738558086752,-4.440592337682843
1758273898395506700,5.604506591796875,-6.113000064969063,-6.258429695644974,-4.430988935296237
1758273898405464600,5.614464599609375,-6.143184190830588,-6.242607272613048,-4.411520849238336
1758273898415422700,5.624422607421875,-6.1717357470542185,-6.234277835685014,-4.38336121494174
1758273898425379600,5.634379638671875,-6.196245334410667,-6.2350260237038135,-4.347573569984734
1758273898435337500,5.64433740234375,-6.216293266183137,-6.247541806405782,-4.300736123225093
1758273898445294600,5.654294677734375,-6.232205705586075,-6.273495162829756,-4.239483489882946
1758273898455252700,5.664252685546875,-6.243538415983319,-6.31463089081645,-4.161018732716143
1758273898465210600,5.674210693359375,-6.249274329286814,-6.371262878620624,-4.064970388063788
1758273898475167500,5.68416748046875,-6.245113702476024,-6.441855002716183,-3.9587165834784503
1758273898485125600,5.694125732421875,-6.22669424868822,-6.523630784127116,-3.8523882523521777
1758273898495083500,5.70408349609375,-6.191849145278335,-6.61172641620934,-3.757187464439869
1758273898505040600,5.71404052734375,-6.140977036175132,-6.7010793548762795,-3.6816233971506356
1758273898514998800,5.723998779296875,-6.0794964392960065,-6.78464844944477,-3.630238370089233
1758273898524955400,5.733955322265625,-6.018145606276392,-6.853425048550963,-3.6031706226825713
1758273898534913500,5.74391357421875,-5.968313361614943,-6.903812004485726,-3.58984790751189
1758273898544871700,5.75387158203125,-5.937473986715078,-6.943309317615628,-3.564727787041664
1758273898554828500,5.76382861328125,-5.9219736352443695,-6.993683414068817,-3.491276181861758
1758273898564786700,5.77378662109375,-5.888052660942077,-7.075803478872776,-3.3814544556617734
1758273898574744600,5.78374462890625,-5.810510571578145,-7.170764905071258,-3.314897578431666
1758273898584701400,5.793701416015625,-5.694498174044489,-7.265797058418393,-3.3092730165481568
1758273898594659600,5.80365966796875,-5.5886050194650885,-7.351026779675483,-3.301558496648073
1758273898604616700,5.81361669921875,-5.505697019153833,-7.436110954982042,-3.249916572216153
1758273898614574600,5.82357470703125,-5.419615649503469,-7.540327116259932,-3.1530326535224913
1758273898624532700,5.83353271484375,-5.326470917338132,-7.65348061723113,-3.0369957060694692
1758273898634489600,5.843489501953125,-5.230638553524017,-7.7654831946015355,-2.91686038338691
1758273898644447500,5.853447509765625,-5.135632703661918,-7.870162881737947,-2.8028888440310955
1758273898654405600,5.863405517578125,-5.040937819445133,-7.967875652471184,-2.6967174570322037
1758273898664362800,5.87336279296875,-4.940950089517235,-8.06534760018587,-2.589898419779539
1758273898674320600,5.883320556640625,-4.829325990070402,-8.168172014844417,-2.475670859836042
1758273898684277500,5.893277587890625,-4.702871401238442,-8.275600708428025,-2.359631282034516
1758273898694235600,5.903235595703125,-4.564878934825956,-8.381248363813757,-2.2554211121059953
1758273898704193500,5.913193603515625,-4.421302238540351,-8.479822719812393,-2.171429700472206
1758273898714150700,5.923150634765625,-4.276668726678192,-8.569827984908223,-2.106791808605939
1758273898724108800,5.93310888671875,-4.132123185360431,-8.652818402805924,-2.0554082428492606
1758273898734066700,5.943066650390625,-3.987134868711233,-8.731472252804041,-2.0086166810579598
1758273898744023600,5.9530234375,-3.840645499849319,-8.807961618244647,-1.95949653018862
1758273898753981700,5.962981689453125,-3.6905110524833202,-8.883459634560346,-1.906479079619795
1758273898763938600,5.9729384765625,-3.538068912696838,-8.957149724671243,-1.8498403698138892
1758273898773896700,5.982896728515625,-3.384507998013496,-9.027799131911992,-1.7928620527900754
1758273898783854800,5.992854736328125,-3.231734434315562,-9.093698714277147,-1.740953147985041
1758273898793811500,6.0028115234375,-3.0802076558083296,-9.154579591697454,-1.6959981539711355
1758273898803769600,6.01276953125,-2.9293603839978575,-9.21111630243361,-1.656671082841605
1758273898813727700,6.022727783203125,-2.7753064251005646,-9.264906344810127,-1.621602253678441
1758273898823684600,6.0326845703125,-2.618680862149596,-9.317391149806976,-1.5808641467072069
1758273898833642800,6.042642822265625,-2.4490312747135756,-9.372716731187701,-1.5247336786843835
1758273898843599600,6.052599609375,-2.2608155184954404,-9.43081411536932,-1.4556187875345348
1758273898853557500,6.0625576171875,-2.062032044903189,-9.4870433675915,-1.3836170889019965
1758273898863515600,6.072515625,-1.8711450236491858,-9.536775659009814,-1.3111580018907785
1758273898873472800,6.08247265625,-1.700845447871834,-9.578134674358367,-1.23970180831179
1758273898883430700,6.0924306640625,-1.5556171849869191,-9.611584524017571,-1.1695694837477058
1758273898893388500,6.102388427734375,-1.4339835865706205,-9.63832990760207,-1.1030470933090895
1758273898903345700,6.112345703125,-1.3403623229347168,-9.657590488389134,-1.0510703839648514
1758273898913303600,6.122303466796875,-1.2639224957242607,-9.672028763586281,-1.0122935671292246
1758273898923260700,6.1322607421875,-1.178469852431491,-9.686903676635026,-0.972349313949421
1758273898933218800,6.14221875,-1.0766779226258396,-9.702676999828219,-0.9323043038088827
1758273898943176400,6.152176513671875,-0.9639305913027375,-9.718084412318467,-0.8944716359555721
1758273898953133600,6.162133544921875,-0.8519911422964185,-9.731483407595753,-0.8618192933496087
1758273898963091700,6.172091796875,-0.7498954803038388,-9.741527831748128,-0.8430054334167391
1758273898973049600,6.182049560546875,-0.6627744654074311,-9.748408823433518,-0.8364443213354795
1758273898983006700,6.1920068359375,-0.5882745567509904,-9.753505854311586,-0.8327442977737635
1758273898992964600,6.201964599609375,-0.5177839568011462,-9.758357970517872,-0.8226352108873426
1758273899002921500,6.21192138671875,-0.44621158949658274,-9.763265031781792,-0.8061869110420345
1758273899012879600,6.221879638671875,-0.3750231069430709,-9.767400524151325,-0.7922227561626582
1758273899022837800,6.231837646484375,-0.3127886960219592,-9.770068866577743,-0.7863391049515456
1758273899032794600,6.241794677734375,-0.26590552869075906,-9.77138228726387,-0.7872582656230777
1758273899042752500,6.25175244140625,-0.23027066314266995,-9.771890236786007,-0.7921596277985722
1758273899052710700,6.261710693359375,-0.19669786295723168,-9.77179203710854,-0.802368887123838
1758273899062667500,6.27166748046875,-0.16326386845428495,-9.77080419511497,-0.8216492685899138
1758273899072625700,6.281625732421875,-0.13401283132494426,-9.768794608858228,-0.8503435942851006
1758273899082583600,6.29158349609375,-0.1106391709295567,-9.766177119836211,-0.8831199285969138
1758273899092540400,6.30154052734375,-0.08651691152341663,-9.763991007968782,-0.9096194476615637
1758273899102498600,6.31149853515625,-0.04759465376853477,-9.762882169944048,-0.9242643513467163
1758273899112455700,6.32145556640625,0.015494211707578505,-9.76270798242092,-0.9271887874260544
1758273899122413600,6.33141357421875,0.10129582598493433,-9.762918994823098,-0.9195362999115139
1758273899132371700,6.341371826171875,0.19537658775821326,-9.762908473429084,-0.904349252173677
1758273899142328600,6.35132861328125,0.28207574224704873,-9.762588739955424,-0.8846805289771408
1758273899152286500,6.361286376953125,0.3586849894739687,-9.76190718743205,-0.8642397984948009
1758273899162244600,6.37124462890625,0.42992184121385213,-9.760573893001675,-0.8466066727790981
1758273899172201700,6.38120166015625,0.49718014471158384,-9.758319392073155,-0.8356905803587287
1758273899182159600,6.39115966796875,0.552281927273795,-9.75542016350031,-0.8349583205614238
1758273899192116700,6.40111669921875,0.5830898110568523,-9.75232336652875,-0.8500448305342346
1758273899202074600,6.41107470703125,0.5797028354996815,-9.74961819922328,-0.8827736724425107
1758273899212032500,6.421032470703125,0.542686087139137,-9.74840239369273,-0.9189847304433584
1758273899221989600,6.43098974609375,0.4900071112770587,-9.748992176279424,-0.9420380545768886
1758273899231947800,6.44094775390625,0.44298813393805175,-9.750620069742203,-0.9484581507522613
1758273899241905700,6.45090576171875,0.40735246467236425,-9.75206091620028,-0.9496122892234474
1758273899251862500,6.460862548828125,0.3671583649173379,-9.753132344824076,-0.9549917903047055
1758273899261820700,6.470820556640625,0.3010131554943509,-9.754107911857963,-0.9680686409555375
1758273899271778600,6.480778564453125,0.19748411796409635,-9.754358671748637,-0.9919067587912082
1758273899281735700,6.490735595703125,0.05276398726440966,-9.751905433377623,-1.0334097126550972
1758273899291693600,6.500693603515625,-0.13137663760245777,-9.744633981069923,-1.0932717684216797
1758273899301650400,6.510650390625,-0.34472770272679626,-9.731159582468866,-1.1645035055950284
1758273899311608600,6.520608642578125,-0.5756491031294688,-9.710523037153482,-1.24287766186893
1758273899321566500,6.53056640625,-0.8173270945418626,-9.683201314985752,-1.3183213176488875
1758273899331523000,6.540523193359375,-1.0690462587036191,-9.64836322583854,-1.3916267923563719
1758273899341481200,6.550481201171875,-1.3300354285791516,-9.604816345056891,-1.465909587663412
1758273899351439400,6.560439453125,-1.5909969797953962,-9.554825110441445,-1.531148514162749
1758273899361396000,6.57039599609375,-1.8450693560197948,-9.499647413098812,-1.588324837976694
1758273899371354000,6.58035400390625,-2.0910357288084924,-9.43954102718234,-1.641040382989496
1758273899381311200,6.590311279296875,-2.3275493597276506,-9.375397933095693,-1.689610644891113
1758273899391269000,6.60026904296875,-2.5525880952998996,-9.30751799056828,-1.7392011897511779
1758273899401227300,6.610227294921875,-2.7580194824740287,-9.236769799128174,-1.8016146835662423
1758273899411184000,6.62018408203125,-2.9408278266906738,-9.163793994766474,-1.8833026405632496
1758273899421142000,6.63014208984375,-3.1038956976488232,-9.089867757812142,-1.9774995121300218
1758273899431100200,6.64010009765625,-3.261766876746714,-9.01096431696713,-2.0817818705119193
1758273899441057300,6.650057373046875,-3.431104037232697,-8.919889376813172,-2.198513522230834
1758273899451015200,6.66001513671875,-3.617715865385532,-8.812741253736615,-2.3276805848918856
1758273899460973000,6.66997314453125,-3.8153497305512425,-8.690971315589547,-2.4658731039211155
1758273899470930200,6.67993017578125,-4.010335419295728,-8.559156953290104,-2.613134626199305
1758273899480888000,6.68988818359375,-4.182876344259083,-8.427153205898403,-2.7671310096904636
1758273899490845200,6.69984521484375,-4.306198772545159,-8.312613219004868,-2.9201866052001715
1758273899500803300,6.70980322265625,-4.381255182573199,-8.216291025847196,-3.076942808793485
1758273899510761000,6.719760986328125,-4.461444863836467,-8.12012431551218,-3.2139529861703515
1758273899520718000,6.729718017578125,-4.559361924970149,-8.017142664465307,-3.3328651967987417
1758273899530676200,6.73967626953125,-4.673662257888913,-7.904461457180976,-3.4419062940150495
1758273899540634000,6.749634033203125,-4.816822190067172,-7.776441226467489,-3.534910448665917
1758273899550591200,6.75959130859375,-4.987704826429486,-7.629099040168524,-3.6180209858119485
1758273899560549000,6.769549072265625,-5.161327701410651,-7.467783858096599,-3.709896136432886
1758273899570507000,6.779507080078125,-5.3151241784155365,-7.306053665482997,-3.813317932462692
1758273899580464000,6.789464111328125,-5.439653059881925,-7.1496981516450635,-3.9322242978721853
1758273899590422300,6.79942236328125,-5.531548668769002,-7.00261257045567,-4.066417664262652
1758273899600379100,6.809379150390625,-5.588608526596427,-6.876122033527493,-4.202002192750573
1758273899610337000,6.8193369140625,-5.627510211920738,-6.777734724533557,-4.308574269504845
1758273899620295200,6.829295166015625,-5.659884541302919,-6.703990273886919,-4.380941002057493
1758273899630252000,6.839251953125,-5.6866778556823725,-6.64247928186953,-4.4395457512393595
1758273899640210200,6.849210205078125,-5.706792422950268,-6.587180003973841,-4.495766235633194
1758273899650168000,6.85916796875,-5.721244726672769,-6.539321689733862,-4.5469788287371395
1758273899660125000,6.869125,-5.735702291092276,-6.500605882370472,-4.584124318043887
1758273899670083000,6.8790830078125,-5.754763549914956,-6.472529542443156,-4.599936219681799
1758273899680041000,6.889041015625,-5.780132968971133,-6.4575687046766275,-4.589143899771571
1758273899689998000,6.898998046875,-5.80766511901915,-6.451975414714217,-4.562178735956549
1758273899699956200,6.908956298828125,-5.83224601804614,-6.455055260550975,-4.526313934110105
1758273899709913000,6.9189130859375,-5.855450952544808,-6.4695145785361525,-4.475435395266115
1758273899719871000,6.92887109375,-5.879661849215626,-6.4947793681740755,-4.406562934570014
1758273899729829000,6.9388291015625,-5.903352521404623,-6.526340043085813,-4.327553695262968
1758273899739786200,6.9487861328125,-5.9186921293556685,-6.561266395038366,-4.253147565837204
1758273899749744000,6.958744140625,-5.920210717225075,-6.598760551652312,-4.192597820067405
1758273899759702300,6.968702392578125,-5.906550440663099,-6.638215779206156,-4.149351383537054
1758273899769659100,6.9786591796875,-5.884743098002672,-6.675955435013771,-4.1196874821573495
1758273899779617000,6.988616943359375,-5.862417284426093,-6.707613725081086,-4.100049007968605
1758273899789575200,6.9985751953125,-5.846555698427558,-6.7302522578686474,-4.085571569804847
1758273899799532300,7.0085322265625,-5.85289191571176,-6.743729579079151,-4.054149134320021
1758273899809490200,7.018490234375,-5.859783428791165,-6.782405054432154,-3.978986925829947
1758273899819448300,7.0284482421875,-5.839426284939051,-6.868239755845069,-3.8598940979376435
1758273899829405200,7.0384052734375,-5.788849943912029,-6.985345793834329,-3.723515788723528
1758273899839363000,7.048363037109375,-5.726320714762807,-7.101735792508721,-3.5979148941114545
1758273899849320200,7.0583203125,-5.6783215307474135,-7.168327448791265,-3.541483689576387
1758273899859278000,7.068278076171875,-5.624515706279873,-7.218287703746557,-3.5258369153723117
1758273899869236200,7.078236328125,-5.5425388493388885,-7.3007403615057465,-3.4856577574580907
1758273899879193000,7.088193115234375,-5.4462271775752304,-7.407483410912752,-3.4114807606130837
1758273899889151000,7.09815087890625,-5.343235589656233,-7.519116570448875,-3.3291301019236443
1758273899899109000,7.108109130859375,-5.238567008435726,-7.623354359036684,-3.2576512581214305
1758273899909066200,7.118066162109375,-5.1431163374155755,-7.718123477533459,-3.185800658397376
1758273899919024000,7.128024169921875,-5.054546658080816,-7.812419717821478,-3.0964632095605134
1758273899928982000,7.13798193359375,-4.96458873925805,-7.910382079401612,-2.991502951917052
1758273899938939100,7.147939208984375,-4.87103162689954,-8.00844731683433,-2.8823952192053195
1758273899948897000,7.15789697265625,-4.774562426486611,-8.101378698509931,-2.7823662804841995
1758273899958855200,7.167855224609375,-4.67441395303905,-8.187519104871154,-2.6990283643230795
1758273899968812300,7.177812255859375,-4.566313643804192,-8.270954928448797,-2.628780523620546
1758273899978770000,7.18777001953125,-4.444973913767933,-8.357359538704156,-2.562643333107233
1758273899988727000,7.19772705078125,-4.308846948966384,-8.44974673050046,-2.491191085051
1758273899998685200,7.207685302734375,-4.162061812028289,-8.547395788347721,-2.4061649235419926
1758273900008643000,7.21764306640625,-4.013109852445125,-8.646865047359466,-2.3015407659851013
1758273900018600200,7.22760009765625,-3.867197991210222,-8.745172276854515,-2.1764948749072848
1758273900028558000,7.23755810546875,-3.726362118065357,-8.839391944774984,-2.0371018940471113
1758273900038516000,7.247515869140625,-3.5903701778203247,-8.927641306114197,-1.8912505308277905
1758273900048473000,7.25747314453125,-3.454951069027185,-9.010283348965645,-1.7460007867634295
1758273900058431200,7.26743115234375,-3.3171658156245947,-9.08669848012626,-1.612048681782931
1758273900068389000,7.27738916015625,-3.177890031403303,-9.155621794226764,-1.498666486622393
1758273900078346000,7.287345947265625,-3.040178135497868,-9.215907043841481,-1.4123735200479626
1758273900088304000,7.29730419921875,-2.906656677019596,-9.267727831971644,-1.3531288655273614
1758273900098262000,7.307261962890625,-2.7726281458020208,-9.314784182178974,-1.310621703056991
1758273900108219100,7.31721923828125,-2.6323393851459023,-9.35936508218348,-1.2819753081567584
1758273900118177300,7.32717724609375,-2.486224987076223,-9.402064990746974,-1.2610424102433024
1758273900128135200,7.33713525390625,-2.3395704907804724,-9.44260099927485,-1.2385782111093402
1758273900138092000,7.347092041015625,-2.201642175645381,-9.479572593319416,-1.2086733405806123
1758273900148050200,7.35705029296875,-2.075173412157595,-9.512827797189354,-1.170537525062263
1758273900158007000,7.367007080078125,-1.954861417733878,-9.543184941530226,-1.1298398962318896
1758273900167965200,7.376965087890625,-1.8287592956013976,-9.572956979459523,-1.088357473699376
1758273900177923300,7.38692333984375,-1.6999563900776207,-9.601260113880038,-1.0470646554548293
1758273900187880000,7.3968798828125,-1.5779836228348314,-9.62669616843164,-1.0035353833951055
1758273900197838000,7.406838134765625,-1.4673574483841656,-9.648866499185562,-0.9574041852086782
1758273900207796200,7.416796142578125,-1.3663475358016788,-9.668030633860825,-0.9124830203991383
1758273900217753000,7.426753173828125,-1.2701393244124948,-9.685053664854168,-0.8699699396446346
1758273900227711200,7.436711181640625,-1.173345787416026,-9.70071592888832,-0.8305097436547278
1758273900237669000,7.446669189453125,-1.0743328208044172,-9.714939684551954,-0.7975576874498277
1758273900247626000,7.4566259765625,-0.9778609900429844,-9.726984342610836,-0.7745615733962505
1758273900257584000,7.466584228515625,-0.8898873038399964,-9.736770408087969,-0.7574763638868928
1758273900267542000,7.4765419921875,-0.8123533247172832,-9.745060097527503,-0.7377404206730425
1758273900277499100,7.4864990234375,-0.7426283388450742,-9.75226432981789,-0.7157024110618978
1758273900287457300,7.496457275390625,-0.6762873693879693,-9.758452663064002,-0.6968655355796217
1758273900297415000,7.506414794921875,-0.609966310207732,-9.763603469955921,-0.6858432063058019
1758273900307372000,7.5163720703125,-0.544316684015654,-9.76768927796483,-0.682906056875363
1758273900317330200,7.526330078125,-0.4839807636596262,-9.770455820068717,-0.6887262874614447
1758273900327287300,7.536287353515625,-0.4317125605555251,-9.77181074180901,-0.7040998707473277
1758273900337246000,7.546245849609375,-0.3856454040486365,-9.772042796999216,-0.7272057287856936
1758273900347204000,7.5562041015625,-0.3410277156976983,-9.77164356854856,-0.7543703606955706
1758273900357161000,7.566160888671875,-0.2938951584490016,-9.770883690091967,-0.7834732671916484
1758273900367119000,7.576119140625,-0.24476992954574525,-9.769906954014301,-0.8120143750865012
1758273900377077000,7.586076904296875,-0.1962624672146514,-9.769020234307646,-0.835528813925758
1758273900387033900,7.596033935546875,-0.14906636147676036,-9.768390704232454,-0.8524694273326545
1758273900396992000,7.605991943359375,-0.099759528928902,-9.768197812008857,-0.8618286456998437
1758273900406950000,7.615949951171875,-0.04536453379602171,-9.768179691830277,-0.8665994402982294
1758273900416907000,7.625906982421875,0.010936727641377365,-9.768049927970766,-0.8691795929845422
1758273900426865200,7.635865234375,0.06133723375252448,-9.767910227239131,-0.8686546192623674
1758273900436822800,7.64582275390625,0.10072197161973453,-9.768036483967304,-0.8635398335319012
1758273900446780000,7.65577978515625,0.1295885486092884,-9.768466107556224,-0.8547871296904981
1758273900456738000,7.665738037109375,0.15388022803189233,-9.769003283172845,-0.8445710752982646
1758273900466696000,7.675696044921875,0.17961513766590506,-9.769076932930945,-0.8386149433728307
1758273900476653000,7.685653076171875,0.20310906344009563,-9.768427529111504,-0.8408203444626182
1758273900486611000,7.69561083984375,0.21252253274517133,-9.76727660551071,-0.8517773534152656
1758273900496568800,7.70556884765625,0.19726923310440034,-9.765763278338312,-0.872531241500005
1758273900506526000,7.71552587890625,0.15575838819500057,-9.763988085359335,-0.9003734804105014
1758273900516484000,7.725484130859375,0.10034209632351994,-9.761987851452826,-0.9294744872104376
1758273900526441200,7.735441162109375,0.04881581589421257,-9.759329445898532,-0.9609858430877327
1758273900536398800,7.74539892578125,-0.00006906146729759257,-9.755562202319503,-0.9997072764743119
1758273900546357000,7.75535693359375,-0.06876437894543633,-9.749961898094416,-1.050675831689313
1758273900556314000,7.765314208984375,-0.17821104302164167,-9.741202837577461,-1.1169563761960715
1758273900566272000,7.77527197265625,-0.3363720353789627,-9.727342654529213,-1.1983422084413469
1758273900576230100,7.785230224609375,-0.5369468859000132,-9.706052613741159,-1.294068773793429
1758273900586187000,7.79518701171875,-0.7681355589367449,-9.675929278156161,-1.3988465144768356
1758273900596145000,7.805144775390625,-1.0159695522282273,-9.637204702964425,-1.504147840642929
1758273900606103000,7.81510302734375,-1.2661287735968827,-9.590931612089276,-1.6066528140887617
1758273900616060000,7.825059814453125,-1.5114347827807069,-9.537634906187654,-1.7086397550098598
1758273900626018000,7.83501806640625,-1.7528220110855997,-9.477324522131681,-1.8106211429730057
1758273900635976200,7.84497607421875,-1.9960862853087484,-9.409731579852103,-1.9086577388331294
1758273900645932800,7.854932861328125,-2.244499905119091,-9.335017407390474,-1.997515733589977
1758273900655891000,7.864890869140625,-2.4926184875056148,-9.255344735738635,-2.072632933894545
1758273900665849000,7.87484912109375,-2.7310411669164893,-9.173864137881994,-2.13354391419217
1758273900675806000,7.884805908203125,-2.952722554884851,-9.094128922387958,-2.1791391058057545
1758273900685764000,7.89476416015625,-3.1558699227750298,-9.01691182719469,-2.2149840339079496
1758273900695722000,7.904721923828125,-3.3425805351272224,-8.940309064507485,-2.251321275571734
1758273900705678800,7.914678955078125,-3.512333875198662,-8.862577005529403,-2.2996948458574713
1758273900715637000,7.924636962890625,-3.6615266578003762,-8.783256216055154,-2.370236993331462
1758273900725594000,7.934593994140625,-3.8048146002724765,-8.693623291403055,-2.472788874658942
1758273900735552000,7.944552001953125,-3.958014864949882,-8.585545194000005,-2.6063258229672908
1758273900745510100,7.95451025390625,-4.111687715575099,-8.459493633010982,-2.775138667318225
1758273900755467000,7.964467041015625,-4.24497741112411,-8.325528814679384,-2.9725594742551444
1758273900765425000,7.9744248046875,-4.357953217440843,-8.194999816015363,-3.1655294392630458
1758273900775383000,7.984383056640625,-4.467938317508995,-8.071132613328098,-3.326372327648103
1758273900785340200,7.994340087890625,-4.589526469348371,-7.952424985361099,-3.444641564197838
1758273900795298000,8.004298095703126,-4.720082063758373,-7.8373361324131485,-3.5309222558125852
1758273900805256000,8.014255859375,-4.850739657238125,-7.726435378804802,-3.5976240944713354
1758273900815213000,8.024213134765626,-4.976980018797517,-7.621942154151201,-3.6477471387729046
1758273900825171000,8.0341708984375,-5.099785729733109,-7.518554844912886,-3.692409579581022
1758273900835129000,8.044129150390624,-5.2251376180201765,-7.402751706215739,-3.750670337630808
1758273900845086200,8.054086181640624,-5.348700284802914,-7.2716884545445435,-3.8320173722356556
1758273900855043800,8.0640439453125,-5.457050769406557,-7.14028676469922,-3.925208573891222
1758273900865002000,8.074001953125,-5.545858349150419,-7.012543012839555,-4.029651821923256
1758273900874959000,8.083958984375,-5.6141983104050155,-6.89015348148942,-4.144513295856118
1758273900884917000,8.0939169921875,-5.663050896379351,-6.7828586434185505,-4.253590341168642
1758273900894875100,8.103875244140625,-5.704723799982666,-6.689993897238374,-4.344015585242212
1758273900904832000,8.11383203125,-5.74736993253231,-6.608773996144532,-4.41160618943423
1758273900914790000,8.123789794921874,-5.789990930640697,-6.5379930714786045,-4.461062001998722
1758273900924748000,8.133748046875,-5.829700425216555,-6.481699521848559,-4.491387582157552
1758273900934705000,8.143704833984375,-5.866109709203243,-6.43833559641838,-4.506328253918886
1758273900944663000,8.1536630859375,-5.899338025066256,-6.40793636650145,-4.506282953472435
1758273900954620000,8.163619873046875,-5.93049537987411,-6.39098464717865,-4.489424757651984
1758273900964577800,8.173577880859375,-5.956872514668107,-6.383058530354499,-4.465711581370234
1758273900974536000,8.183535888671875,-5.9762967615842815,-6.386681397026777,-4.434476777411997
1758273900984493000,8.1934931640625,-5.990034779557585,-6.404314084351062,-4.390288091595471
1758273900994451000,8.203450927734375,-5.997732932844758,-6.436512472644448,-4.33230585822612
1758273901004409000,8.2134091796875,-6.000262159061432,-6.483606816774606,-4.257946782812476
1758273901014366000,8.223365966796875,-5.997315584215522,-6.545832679063081,-4.165892183971405
1758273901024323800,8.23332373046875,-5.987725918093323,-6.622604368576407,-4.056925905556977
1758273901034282000,8.243281982421875,-5.971788344249129,-6.712325556033849,-3.931014045299589
1758273901044239000,8.253239013671875,-5.946196222352981,-6.811265238213538,-3.797342364695668
1758273901054197000,8.263197021484375,-5.905333466088772,-6.916113852176069,-3.669434654445946
1758273901064155100,8.273155029296875,-5.844808562499284,-7.019007824939489,-3.5696114674299952
1758273901074112000,8.283112060546875,-5.770916812336445,-7.104853632268309,-3.5196506279528137
1758273901084070000,8.29306982421875,-5.701656229105591,-7.156007480922341,-3.5288948416382073
1758273901094028000,8.303028076171875,-5.6614832086712115,-7.1639172311335795,-3.5771903782516716
1758273901103985200,8.312985107421875,-5.648807851493358,-7.156563361239433,-3.6117841372489927
1758273901113943000,8.322943115234375,-5.624810305312276,-7.187203414174914,-3.588319967292249
1758273901123901000,8.33290087890625,-5.572813576093316,-7.256909987607598,-3.528654603141546
1758273901133858000,8.342858154296875,-5.487118575412035,-7.365777189561724,-3.4361624896660445
1758273901143816000,8.35281591796875,-5.3968806706041095,-7.491349442601203,-3.3051065445184706
1758273901153774000,8.362774169921876,-5.3227685556888575,-7.593587581804394,-3.189980574430525
1758273901163731200,8.372731201171876,-5.250885807260871,-7.689004935076833,-3.0786054813086983
1758273901173688800,8.382688720703126,-5.1706578398138285,-7.793705080479383,-2.9483643596753475
1758273901183646000,8.39264599609375,-5.074441445118189,-7.902799076926708,-2.822449284547567
1758273901193604000,8.40260400390625,-4.9638575023740525,-8.00827780548632,-2.719928529010713
1758273901203562000,8.41256201171875,-4.8479956192269915,-8.109259222626685,-2.628168821462989
1758273901213519000,8.42251904296875,-4.733710776138305,-8.20671772633791,-2.532218968749046
1758273901223477000,8.43247705078125,-4.6239638687402005,-8.29916570841074,-2.4317088223822414
1758273901233435000,8.442434814453126,-4.516824221231043,-8.385238894754648,-2.3359086072720587
1758273901243392000,8.45239208984375,-4.40648782350719,-8.46623258587718,-2.253038308622688
1758273901253350100,8.46235009765625,-4.2823146236106755,-8.549413557910919,-2.1770922562785446
1758273901263308000,8.47230810546875,-4.139215189447999,-8.638585294792055,-2.1005131667278705
1758273901273265000,8.482264892578126,-3.98496716928333,-8.730393225395678,-2.017598152153939
1758273901283223000,8.49222314453125,-3.8306118893519043,-8.818634403428435,-1.9309280228301882
1758273901293181000,8.502180908203124,-3.683407357957959,-8.899059354752302,-1.8465106408692895
1758273901303138000,8.512137939453124,-3.5433071056112646,-8.972086597040295,-1.7654986834377049
1758273901313096000,8.522095947265624,-3.407621454836428,-9.039399553334713,-1.6875316466599701
1758273901323054000,8.53205419921875,-3.2725460449144244,-9.102693337115644,-1.613005251855403
1758273901333010700,8.5420107421875,-3.133466660048067,-9.163248051321506,-1.5448716268278657
1758273901342968600,8.551968505859374,-2.9896441723078486,-9.221109288659692,-1.4844475532643495
1758273901352926500,8.561926513671875,-2.8416601809740065,-9.276063114118575,-1.4317790622636675
1758273901362883600,8.571883544921874,-2.6914006459236144,-9.327108826223014,-1.3898809716023504
1758273901372841500,8.581841552734375,-2.543154204261303,-9.37512496137321,-1.3452705532424152
1758273901382799600,8.591799560546875,-2.3975625148914754,-9.422669971880316,-1.2788219586923717
1758273901392756500,8.601756591796875,-2.250842844405025,-9.470526532554626,-1.1887901709157973
1758273901402714400,8.61171435546875,-2.1002143299117684,-9.517581713718176,-1.0840331076942384
1758273901412672500,8.621672607421875,-1.944171535284817,-9.562624970537424,-0.9730346658650785
1758273901422629600,8.631629638671875,-1.791637479431182,-9.60289677517116,-0.8630253081385045
1758273901432587500,8.64158740234375,-1.647982603342831,-9.636901336103676,-0.764622070923075
1758273901442545700,8.651545654296875,-1.5087838298805056,-9.66529916307032,-0.6899203195516019
1758273901452502500,8.66150244140625,-1.3662743244349955,-9.68991805602014,-0.6396566977355629
1758273901462460400,8.67146044921875,-1.2214130682315676,-9.711409172338247,-0.6058490110820159
1758273901472417500,8.68141748046875,-1.0878249742578714,-9.728948336160183,-0.5784094712208956
1758273901482375700,8.691375732421875,-0.9819756588201969,-9.741548290014267,-0.5552973295722157
1758273901492333600,8.70133349609375,-0.9073757603880017,-9.749828627103566,-0.5365934693524613
1758273901502290400,8.71129052734375,-0.8499487497486173,-9.755860893005131,-0.5207122288053855
1758273901512248600,8.72124853515625,-0.7920506875313817,-9.761239663434027,-0.5111016660256311
1758273901522206500,8.73120654296875,-0.7203567396737635,-9.767164961829781,-0.5039582240117714
1758273901532163600,8.74116357421875,-0.6303802622810005,-9.773848385116457,-0.4948925817636773
1758273901542121700,8.751121826171875,-0.5294330762038008,-9.780545252406597,-0.4806234160557389
1758273901552079600,8.76107958984375,-0.4317044137816876,-9.786305131107568,-0.460680332897231
1758273901562036500,8.771036376953125,-0.3458837408941239,-9.79057330994606,-0.4420643336240202
1758273901571994600,8.78099462890625,-0.2720541327146813,-9.79342694581151,-0.43030426466017957
1758273901581952500,8.790952392578125,-0.20654356793342157,-9.795177588871121,-0.4268665818290785
1758273901591909600,8.80090966796875,-0.1452279249581974,-9.796107563197612,-0.4307821843702346
1758273901601867800,8.81086767578125,-0.08690378281599842,-9.796235573491453,-0.44339594755396244
1758273901611825400,8.820825439453126,-0.036358067539392504,-9.795424257108568,-0.4676694245995953
1758273901621782500,8.830782470703125,0.004484882908404688,-9.793628021341561,-0.5051935744930058
1758273901631740700,8.84074072265625,0.041794502422679215,-9.790952080130577,-0.5530912708953023
1758273901641698600,8.850698486328126,0.08181077052592299,-9.787782802444696,-0.6025025136657058
1758273901651655700,8.86065576171875,0.12847765562478453,-9.784496035858988,-0.6461529278870671
1758273901661613600,8.870613525390626,0.18143550322717056,-9.781458275598286,-0.6786331287965178
1758273901671571500,8.880571533203126,0.2368839255362749,-9.779016727665066,-0.6965067852698266
1758273901681528600,8.890528564453126,0.29158921959418804,-9.77714333500862,-0.7020110087092966
1758273901691486700,8.90048681640625,0.34340445476640014,-9.775469264316559,-0.7018922777004539
1758273901701444600,8.910444580078124,0.3863566575905308,-9.773681796377897,-0.7044642470803112
1758273901711401500,8.9204013671875,0.4157358237447217,-9.771870363041758,-0.7128345274753868
1758273901721359600,8.930359619140624,0.4334591484945267,-9.770219088703394,-0.7248078738637268
1758273901731317500,8.9403173828125,0.4393501062292605,-9.769245275235175,-0.7342986096560955
1758273901741274600,8.950274658203124,0.4366690869843587,-9.768581258368492,-0.7446691239576786
1758273901751232500,8.960232421875,0.4276194825556129,-9.767727856409548,-0.7609367334738373
1758273901761189400,8.970189453125,0.4112441018160432,-9.767087220418453,-0.777985848756507
1758273901771147500,8.9801474609375,0.3935774026243016,-9.767156778523326,-0.7862189857032149
1758273901781105400,8.99010546875,0.3881584828481078,-9.767622057947516,-0.7831370940398424
1758273901791062500,9.0000625,0.3914335589960217,-9.767831316784024,-0.7788835282485932
1758273901801020700,9.010020751953125,0.37265729112718254,-9.767924840286373,-0.7868540687363594
1758273901810978600,9.019978515625,0.3039862164883874,-9.767872233316302,-0.8164964158713817
1758273901820935400,9.029935302734375,0.179325726265274,-9.76634487761855,-0.8699034502796829
1758273901830893600,9.0398935546875,0.008201743440490098,-9.761102885311841,-0.9440211181528866
1758273901840851500,9.0498515625,-0.1935476735643111,-9.750394444292784,-1.030886550853029
1758273901850808600,9.05980859375,-0.41162915561087426,-9.733468443933129,-1.122746430839598
1758273901860766700,9.0697666015625,-0.6410806661240757,-9.709441671657562,-1.2190757843904196
1758273901870724600,9.079724609375,-0.8843455979343503,-9.67708487793207,-1.3199797523804009
1758273901880681500,9.089681396484375,-1.14295013769567,-9.63529097829759,-1.4231070955082774
1758273901890639600,9.0996396484375,-1.414776489536464,-9.583475450864434,-1.5250493205048143
1758273901900597500,9.109597412109375,-1.6920736740037798,-9.522412202614545,-1.6220261781789362
1758273901910554600,9.1195546875,-1.9695272180765866,-9.452580541497468,-1.7146685137800872
1758273901920512800,9.1295126953125,-2.243343428560346,-9.375448786500096,-1.7996632572375237
1758273901930470400,9.139470458984375,-2.50586901422292,-9.293197204270959,-1.8781670312404632
1758273901940427500,9.149427490234375,-2.750435895477235,-9.208158621671796,-1.9532761943690478
1758273901950385700,9.1593857421875,-2.9705656700894236,-9.124992262685298,-2.0200714103996753
1758273901960343600,9.169343505859375,-3.163598471200466,-9.048207713690399,-2.0717014982633293
1758273901970300700,9.17930078125,-3.337285059067607,-8.975757979029417,-2.1139299899227915
1758273901980258600,9.189258544921875,-3.502982694007456,-8.903847173550725,-2.149652168428153
1758273901990216400,9.199216552734375,-3.6687367353096603,-8.829183854493499,-2.1808926714748145
1758273902000173600,9.209173583984375,-3.835936591506004,-8.749786492651701,-2.212961880430579
1758273902010131700,9.219131591796875,-4.001337873847782,-8.664436359885334,-2.255481025599688
1758273902020089600,9.229089599609376,-4.166543341356515,-8.56916162995398,-2.319436780420691
1758273902030046500,9.23904638671875,-4.324954618680477,-8.463958795726299,-2.4138247906453905
1758273902040004600,9.249004638671876,-4.467940655596554,-8.3503405998528,-2.545520641131699
1758273902049961500,9.25896142578125,-4.59475998608768,-8.22954330613017,-2.7079864545434713
1758273902059919600,9.268919677734376,-4.715556987549364,-8.102664646667241,-2.8776278586730357
1758273902069877500,9.27887744140625,-4.845802200835943,-7.965397279658913,-3.0399066250801083
1758273902079834400,9.28883447265625,-4.988720140951871,-7.812538960286974,-3.201140266348421
1758273902089792500,9.29879248046875,-5.143242594143748,-7.648458989676833,-3.3494062894940373
1758273902099750400,9.30875048828125,-5.310671290659904,-7.479975231149792,-3.4665792552396653
1758273902109707500,9.31870751953125,-5.465310063707828,-7.306373398956656,-3.594118132176995
1758273902119665700,9.328665771484374,-5.587033240103722,-7.138376547163724,-3.7415234468400476
1758273902129623600,9.33862353515625,-5.675780614092946,-6.991209132909774,-3.8831598227128383
1758273902139580400,9.348580322265626,-5.751472107154131,-6.8626184088319535,-3.999426487268507
1758273902149538600,9.35853857421875,-5.806290908056497,-6.743036920639872,-4.121750552166998
1758273902159496400,9.368496337890624,-5.839359649443626,-6.640560296505689,-4.239722851596772
1758273902169453600,9.37845361328125,-5.863885018891096,-6.55562692784667,-4.336935856114327
1758273902179411700,9.38841162109375,-5.886494325584173,-6.482541233369708,-4.415451466685533
1758273902189369600,9.39836962890625,-5.906864328917861,-6.424558415478468,-4.47262852115184
1758273902199326500,9.408326416015624,-5.922852171644568,-6.380538656488061,-4.514306685452163
1758273902209284600,9.41828466796875,-5.9321127519428725,-6.348385860902071,-4.547352630485594
1758273902219242500,9.428242431640625,-5.94105126067996,-6.3302592525809995,-4.560936042419076
1758273902229199600,9.43819970703125,-5.953219252857566,-6.322554669553041,-4.555746072560549
1758273902239157800,9.44815771484375,-5.967562250986695,-6.325761941161751,-4.532476256132125
1758273902249115400,9.458115478515625,-5.9842544425904745,-6.340176250961423,-4.490129983311891
1758273902259072500,9.468072509765625,-6.002544132518768,-6.368147961470484,-4.425671539665759
1758273902269030700,9.47803076171875,-6.018733050775528,-6.41127340196967,-4.340600516101718
1758273902278988500,9.487988525390625,-6.0278831564366815,-6.4694064419865605,-4.240499681188166
1758273902288945700,9.497945556640625,-6.028589258879423,-6.5389277219802135,-4.131451569709181
1758273902298903600,9.507903564453125,-6.02137625876069,-6.6172051398813725,-4.0157206194654105
1758273902308860400,9.5178603515625,-6.0070829449921845,-6.703506874284148,-3.8920878100559113
1758273902318818600,9.527818603515625,-5.983087152376771,-6.796580294778943,-3.765573307730257
1758273902328776700,9.537776611328125,-5.94175911668837,-6.892908917677402,-3.6542747869759795
1758273902338734000,9.547734130859375,-5.877860937273502,-6.988225733184814,-3.575724397352338
1758273902348692200,9.557692138671875,-5.7931935260742895,-7.0768959502846,-3.5393294341519472
1758273902358649900,9.56764990234375,-5.702552301162481,-7.146863805001973,-3.545935700549185
1758273902368607000,9.57760693359375,-5.629998521605134,-7.188216390609741,-3.578138472756743
1758273902378565000,9.587565185546875,-5.610446848917007,-7.188365443691611,-3.6084178756862877
1758273902388523000,9.59752294921875,-5.62817715139687,-7.173435001063346,-3.610522446750104
1758273902398480100,9.607480224609375,-5.612774415081739,-7.195175123706459,-3.5911852935954927
1758273902408438000,9.61743798828125,-5.5562523173928255,-7.238617959591746,-3.5917765374869104
1758273902418396000,9.62739599609375,-5.496109691119194,-7.310192080461978,-3.538960600839555
1758273902428353000,9.63735302734375,-5.4578153240382665,-7.403317523404955,-3.4019936780825257
1758273902438311200,9.647311279296876,-5.408119272977113,-7.502219211661815,-3.2617996099725364
1758273902448269000,9.65726904296875,-5.332458759576082,-7.610072852659225,-3.1340123112320897
1758273902458226000,9.667225830078126,-5.246491956216096,-7.711749850848316,-3.0287945716962215
1758273902468184000,9.67718408203125,-5.163794383785128,-7.80126294851303,-2.9403856358811256
1758273902478142000,9.687141845703126,-5.087160641437769,-7.88621502187252,-2.845842727355659
1758273902488099000,9.69709912109375,-5.007105692470073,-7.975625828206539,-2.7365380107671022
1758273902498057200,9.70705712890625,-4.921783032232523,-8.066189311707019,-2.623556066970527
1758273902508015000,9.71701513671875,-4.837244508109986,-8.151672715464233,-2.514292851436138
1758273902517972000,9.726971923828126,-4.752832240715622,-8.231720650169253,-2.412419161631167
1758273902527930000,9.73693017578125,-4.665083814635873,-8.309422314009069,-2.315356671500206
1758273902537887000,9.746886962890626,-4.570402082161605,-8.388020634427667,-2.218774950623512
1758273902547845000,9.75684521484375,-4.469719063445925,-8.467467096108198,-2.119906872375309
1758273902557803300,9.76680322265625,-4.365203626960516,-8.547308110064268,-2.0146736430093646
1758273902567760000,9.776759765625,-4.253106357043981,-8.629072201037406,-1.9027968839757143
1758273902577718000,9.786718017578124,-4.13071770247668,-8.712474706867336,-1.7889555468708276
1758273902587676200,9.79667626953125,-3.9991012008368965,-8.795966060024499,-1.6758685352645812
1758273902597633000,9.806633056640624,-3.857719676508009,-8.878467233100533,-1.5688165660388766
1758273902607591200,9.816591064453124,-3.703843996787071,-8.95975026255846,-1.4747193554542959
1758273902617549000,9.826549072265625,-3.5374721158474682,-9.038404697078466,-1.401404674527049
1758273902627506000,9.836505859375,-3.36556218226403,-9.112541946434973,-1.3434993057861924
1758273902637464000,9.846464111328125,-3.198592919953167,-9.179892312130331,-1.291897128842771
1758273902647422000,9.856421875,-3.0436928656205535,-9.239270968294143,-1.2418603015199303
1758273902657379000,9.866379150390625,-2.900453730726242,-9.292753552156686,-1.1842517968337982
1758273902667337200,9.876337158203125,-2.7636192021772263,-9.342460124611854,-1.1185837582021951
1758273902677294800,9.886294921875,-2.6247023143962025,-9.391172425332664,-1.0426898744367061
1758273902687252000,9.896251953125,-2.4863170492738482,-9.43754605397284,-0.9598587387539446
1758273902697210000,9.906210205078125,-2.350893556566536,-9.480004554995894,-0.879330253990367
1758273902707168000,9.91616796875,-2.2126802870102225,-9.519591884496808,-0.8073525207553058
1758273902717125000,9.926125,-2.0718860610499976,-9.556671615090966,-0.7400909293219446
1758273902727083000,9.9360830078125,-1.9345238553650677,-9.590524784854054,-0.670707450363785
1758273902737040100,9.9460400390625,-1.8031933310598134,-9.62083867457509,-0.598605725422874
1758273902746998000,9.955998046875,-1.6796493689775467,-9.647206457018852,-0.5296798540391028
1758273902756956200,9.9659560546875,-1.5651574590094386,-9.669657358279824,-0.46733975425381213
1758273902766913300,9.975913330078125,-1.458689427151531,-9.68883902861178,-0.41110041902903466
1758273902776871000,9.985870849609375,-1.3588392059981822,-9.705274030584096,-0.36271873850207775
1758273902786829000,9.9958291015625,-1.265936465895176,-9.719286773845553,-0.32132224068734794
1758273902796786200,10.0057861328125,-1.1768186511583625,-9.73160089649558,-0.2852964578592218
1758273902806744000,10.015744140625,-1.088113801136613,-9.74269746004939,-0.25740634295269843
1758273902816702200,10.0257021484375,-1.0000547747377306,-9.752698045060038,-0.23483548684017733
1758273902826659000,10.0356591796875,-0.9174691382486373,-9.761429633048175,-0.20770333242779596
1758273902836617000,10.045616943359375,-0.8402609570141881,-9.76910440545976,-0.17016327257920055
1758273902846575000,10.0555751953125,-0.7608003206778318,-9.776251354604959,-0.12837823210461063
1758273902856532200,10.0655322265625,-0.6779349904645234,-9.782725519055127,-0.09537434524777345
1758273902866490000,10.075489990234376,-0.5997519728485494,-9.788001413631438,-0.07560155888856389
1758273902876448300,10.0854482421875,-0.5349453002866357,-9.791813080874086,-0.06789019905994646
1758273902886404900,10.09540478515625,-0.48356045588832347,-9.794472655472159,-0.06973052969700656
1758273902896363000,10.105363037109376,-0.4408132375843823,-9.796440740674733,-0.0762100233428413
1758273902906320100,10.115320068359376,-0.39626068689152594,-9.79829425958693,-0.08238390337191522
1758273902916278000,10.125278076171876,-0.34603195372577755,-9.800144855889677,-0.08836316957776434
1758273902926236200,10.135236083984376,-0.29623640607921403,-9.801639478361606,-0.10242183434017933
1758273902936193000,10.145193115234376,-0.25451431130561974,-9.802476513707637,-0.13061580016463994
1758273902946151000,10.15515087890625,-0.2227486701400019,-9.802667652365566,-0.16880741925714537
1758273902956109000,10.165109130859374,-0.1951861614863388,-9.802422737693787,-0.2115998101433739
1758273902966066200,10.175066162109376,-0.16358807717366144,-9.80193290835023,-0.25639110149554906
1758273902976024000,10.185024169921874,-0.12372353816656395,-9.801340203154087,-0.2980147591296583
1758273902985982200,10.194982177734374,-0.07552707801340147,-9.800853880941867,-0.3285522650061175
1758273902995939000,10.20493896484375,-0.020688921673304866,-9.80055226764679,-0.34517310840673743
1758273903005897000,10.21489697265625,0.03849558417487424,-9.800260591223836,-0.35186544565223155
1758273903015855000,10.224855224609374,0.10238064381326548,-9.799712894213199,-0.3543339181249961
1758273903025812200,10.234812255859374,0.16853684042114764,-9.798784088930487,-0.3546924127064645
1758273903035770000,10.24477001953125,0.23208379524555056,-9.797427413624524,-0.35632516500744965
1758273903045727000,10.25472705078125,0.2942726499918848,-9.795547591227292,-0.36201037103701383
1758273903055685000,10.26468505859375,0.3573487359015271,-9.793077401721478,-0.37192616384103894
1758273903065643000,10.27464306640625,0.4203795944299549,-9.790115629306435,-0.3837698194351047
1758273903075600100,10.28460009765625,0.482788119808957,-9.786764565312861,-0.3956410571558401
1758273903085558300,10.294558349609375,0.5449147595066577,-9.78301953356564,-0.4073903855299577
1758273903095516000,10.304515869140625,0.6021516544014215,-9.779021403840183,-0.4225171179153025
1758273903105473000,10.31447314453125,0.646572906864807,-9.775319042190908,-0.4421290328906849
1758273903115431200,10.32443115234375,0.6745572576597333,-9.77255717626214,-0.46098132513780143
1758273903125389000,10.33438916015625,0.6915317733362316,-9.770621824285387,-0.47659825219288465
1758273903135346200,10.34434619140625,0.7069820020548999,-9.768781164854765,-0.49138870182856914
1758273903145304000,10.354303955078125,0.7287514238577336,-9.766219205412268,-0.5101530235312879
1758273903155262000,10.364261962890625,0.7575375194896012,-9.762836577236651,-0.5324908928718417
1758273903165219000,10.374218994140625,0.792471835552901,-9.759008543381094,-0.5514813149480149
1758273903175177200,10.38417724609375,0.8322784338276833,-9.75517524882853,-0.5605899560876191
1758273903185135000,10.394135009765625,0.862187103748694,-9.75202409132123,-0.5701103563658892
1758273903195092000,10.404092041015625,0.8606272340208292,-9.75068319810629,-0.5948733339615165
1758273903205050000,10.414050048828125,0.8175078579362481,-9.751975576004385,-0.6332610784143209
1758273903215007000,10.424007080078125,0.7427127291928977,-9.755107444289326,-0.6757565504468978
1758273903224965000,10.433965087890625,0.6496431080903857,-9.758836109423637,-0.7165619505006819
1758273903234923000,10.443923095703125,0.5445561553273349,-9.7626185505718,-0.7517450536932796
1758273903244880000,10.4538798828125,0.42661399530749766,-9.766211022105812,-0.7807134470894932
1758273903254838000,10.463838134765625,0.29242720478828993,-9.769132462510466,-0.8055380186792462
1758273903264796000,10.4737958984375,0.1391566878862679,-9.770554019746184,-0.8290422283854335
1758273903274753000,10.4837529296875,-0.034385481974924914,-9.76946037929058,-0.8525703304238617
1758273903284711200,10.493711181640625,-0.2269004195245914,-9.764599495255947,-0.8783569519788026
1758273903294669000,10.5036689453125,-0.43462852106746286,-9.754749132370948,-0.9090235275950282
1758273903304626000,10.5136259765625,-0.6523850272096693,-9.739074008855223,-0.9461457090914249
1758273903314584000,10.523583984375,-0.8760505016673356,-9.71697908142507,-0.9915790612068026
1758273903324542000,10.5335419921875,-1.1015796511050313,-9.688376087275147,-1.0451089182771742
1758273903334499000,10.5434990234375,-1.3229815645448864,-9.654206691169739,-1.1028940216392278
1758273903344456700,10.553456787109376,-1.5355660383440553,-9.615694881945847,-1.1622506121017038
1758273903354413800,10.563413818359376,-1.7364663579598067,-9.574554477784037,-1.2177824566442519
1758273903364371700,10.573371826171876,-1.9249543552480637,-9.532689851000905,-1.2620561173304914
1758273903374329900,10.583329833984376,-2.1015064155489207,-9.490731700715422,-1.2961802129894495
1758273903384286700,10.59328662109375,-2.2686048571974036,-9.447139811748265,-1.332437667415291
1758273903394244600,10.60324462890625,-2.423546997106075,-9.401678621777892,-1.3803117637462914
1758273903404202800,10.61320263671875,-2.565765849041939,-9.354097370913625,-1.4450238898925483
1758273903414160000,10.623159912109376,-2.696146963667869,-9.304091523250937,-1.5280961408548057
1758273903424117800,10.63311767578125,-2.8124443156227468,-9.252971576866507,-1.6257565968789158
1758273903434076000,10.643075927734374,-2.915319583685696,-9.200865542054176,-1.7364754180490969
1758273903444032800,10.65303271484375,-3.0073697986125945,-9.14671660323739,-1.8611003072358667
1758273903453990700,10.66299072265625,-3.0885724563106893,-9.090495534321665,-1.9985072288453578
1758273903463947800,10.67294775390625,-3.155999102112651,-9.034486062330007,-2.1419914245419203
1758273903473906000,10.682906005859374,-3.2075781904414296,-8.982104717707633,-2.281137298773229
1758273903483863800,10.69286376953125,-3.244008517216146,-8.936974951648711,-2.403599749229103
1758273903493820700,10.702820556640624,-3.2735704195261,-8.898813855558632,-2.5030492806270717
1758273903503778800,10.71277880859375,-3.306378464150429,-8.865814087754487,-2.5759578649714587
1758273903513736700,10.72273681640625,-3.3474276828974485,-8.838509901243448,-2.616452372445166
1758273903523693800,10.73269384765625,-3.3937390599563715,-8.819851962524652,-2.619757843731344
1758273903533651700,10.742651611328125,-3.4363436914518473,-8.810338284248113,-2.5961302999064326
1758273903543609900,10.75260986328125,-3.4626886775419115,-8.812242656564711,-2.5543258788779375
1758273903553566700,10.762566650390625,-3.4626983221530914,-8.826954488006233,-2.503000180788338
1758273903563524600,10.772524658203125,-3.434048566251993,-8.85288446355462,-2.4503363659627735
1758273903573481700,10.782481689453125,-3.3794241188779472,-8.885898844406007,-2.4063782740317285
1758273903583440000,10.79243994140625,-3.30265476745218,-8.924530480617284,-2.369728897678852
1758273903593397800,10.802397705078125,-3.2116917632400988,-8.968412292441725,-2.328738861773163
1758273903603354600,10.812354736328125,-3.1116011574596163,-9.016264176940917,-2.2793260115675626
1758273903613312800,10.822312744140625,-3.0024744277864692,-9.065915804338454,-2.2281531659521163
1758273903623270700,10.832270751953125,-2.8867133746653795,-9.114779496228694,-2.181302567449957
1758273903633227800,10.842227783203125,-2.7665380122333763,-9.161843445220589,-2.1394601524986325
1758273903643186000,10.85218603515625,-2.645465993222594,-9.205824625766276,-2.103495105148107
1758273903653142800,10.862142822265625,-2.5264576287433504,-9.245520091816783,-2.0755190107248724
1758273903663100700,10.8721005859375,-2.410732815979421,-9.28124139353931,-2.053614491300285
1758273903673058800,10.882058837890625,-2.295809821117669,-9.31661782734692,-2.0249162200823423
1758273903683016000,10.892015869140625,-2.1773792565263808,-9.354787106743455,-1.9792389031432567
1758273903692973800,10.901973876953125,-2.0513944771632553,-9.395455217218398,-1.9203008303537963
1758273903702931700,10.911931640625,-1.917847299721837,-9.436472871783375,-1.8561321634344756
1758273903712888800,10.921888916015625,-1.7772421665929257,-9.476554122281074,-1.790722848804295
1758273903722846700,10.9318466796875,-1.6332707719013093,-9.514187395104765,-1.7271536090828477
1758273903732804900,10.941804931640625,-1.490001826390624,-9.547591067534684,-1.6714600711725651
1758273903742761700,10.95176171875,-1.3481313495010137,-9.575641103976965,-1.6309491970859467
1758273903752719600,10.9617197265625,-1.2079625619627534,-9.596749942979216,-1.6166659663200378
1758273903762676700,10.9716767578125,-1.073113873468712,-9.611713118833302,-1.6228987232297658
1758273903772634600,10.981634521484375,-0.988608740159124,-9.618791678917407,-1.6345917913720012
1758273903782592800,10.9915927734375,-1.034022729986906,-9.615798926842212,-1.624066451834887
1758273903792550000,11.0015498046875,-1.1957543839052318,-9.604216041076183,-1.5810064777873456
1758273903802507500,11.011507568359375,-1.4098393253952264,-9.586939912104606,-1.5077522948756814
1758273903812465700,11.021465576171876,-1.6163292817115782,-9.566841711449623,-1.4259760750733315
1758273903822422800,11.0314228515625,-1.7391101504668591,-9.557646013081072,-1.3406300339601933
1758273903832380700,11.041380615234376,-1.7402676499389111,-9.56559726434648,-1.2811013018012045
1758273903842338800,11.0513388671875,-1.6468986074984073,-9.585499065646529,-1.255531391736865
1758273903852295700,11.061295654296876,-1.4954067541740834,-9.610911739322543,-1.2508220450021326
1758273903862253600,11.071253662109376,-1.2920036579571663,-9.641753452309965,-1.2400516446627676
1758273903872210700,11.081210693359376,-1.040378163428232,-9.677749479320644,-1.1954686988316476
1758273903882168800,11.0911689453125,-0.7709002744097262,-9.712026427453756,-1.1192153341040014
1758273903892126700,11.101126708984374,-0.5316425689468159,-9.736649996578693,-1.041812653210759
1758273903902083600,11.11108349609375,-0.35621052565183486,-9.749939686262607,-0.9910678968142718
1758273903912041700,11.121041748046874,-0.2425577516552992,-9.75461527685821,-0.9793130154822021
1758273903921999600,11.13099951171875,-0.13224716422613708,-9.75413246177733,-1.0048824140898882
1758273903931956700,11.140956787109374,0.014055276362085714,-9.750613640001415,-1.0467634805511683
1758273903941915000,11.150914794921874,0.17660737068466842,-9.745717100131511,-1.0771219400662928
1758273903951871700,11.160871826171874,0.33772688405402,-9.73917103948891,-1.0976668615754692
1758273903961829600,11.17082958984375,0.4974669257637113,-9.728731478539109,-1.1290170355416833
1758273903971787800,11.180787841796874,0.637470220541954,-9.716007021522522,-1.1675707842111587
1758273903981744600,11.19074462890625,0.693237700471282,-9.708930799525975,-1.194351166043803
1758273903991702800,11.200702880859374,0.6881359203528612,-9.708759534612298,-1.1986775048103182
1758273904001661000,11.210660888671875,0.6554251986231654,-9.713204823583364,-1.180871579810977
1758273904011617500,11.220617431640624,0.6155407858718186,-9.719361008125542,-1.151306608761102
1758273904021575700,11.23057568359375,0.582680061212182,-9.725573891291022,-1.1153809435728936
1758273904031532800,11.24053271484375,0.5669570069015025,-9.731493344467879,-1.0709685320030897
1758273904041490700,11.25049072265625,0.5593772558296098,-9.737518011584877,-1.0189382658407091
1758273904051448800,11.26044873046875,0.5495704763580114,-9.743698161524534,-0.9636835577391087
1758273904061405700,11.27040576171875,0.5289490920791402,-9.750434191781283,-0.9053473233003169
1758273904071363600,11.280363525390625,0.4994967876235023,-9.758117147499322,-0.8366759381342679
1758273904081321700,11.29032177734375,0.470567337998189,-9.76701766231358,-0.7445151024397462
1758273904091278800,11.30027880859375,0.43264326553437854,-9.77788918493986,-0.613259762262553
1758273904101236700,11.31023681640625,0.3700282943304628,-9.790148362532257,-0.43182931880298997
1758273904111193600,11.320193603515625,0.2699961590052582,-9.800801273971796,-0.2044371519723907
1758273904121151700,11.33015185546875,0.14300562753253615,-9.805440624210238,0.05718319651272613
1758273904131109600,11.340109619140625,0.016108222269942053,-9.800967862710356,0.3334081806046888
1758273904141066800,11.350066650390625,-0.06574088923868257,-9.78661843484044,0.6230402747817337
1758273904151025000,11.36002490234375,-0.0578952674719505,-9.762184835329652,0.9310024274300783
1758273904160982800,11.369982666015625,0.03906102690475527,-9.728345694091916,1.236193069538474
1758273904170939600,11.379939697265625,0.16273222752930597,-9.688571317586302,1.5084773942798375
1758273904180897800,11.389897705078125,0.2432233394245617,-9.650579148322343,1.725566047630459
1758273904190855000,11.39985498046875,0.32576000393908466,-9.616758127263187,1.8926853859364985
1758273904200812800,11.409812744140625,0.4759959023855626,-9.581052607631683,2.036480839539319
1758273904210771000,11.41977099609375,0.6930619055129588,-9.536109304055572,2.1800654268704354
1758273904220727800,11.429727783203125,0.9486234243165701,-9.48053471634984,2.3216290297679603
1758273904230685700,11.439685791015625,1.2529767388179898,-9.409483158048987,2.4621219346940517
1758273904240643800,11.449643798828125,1.5860142229467629,-9.319933820027112,2.606490950401127
1758273904250600700,11.4596005859375,1.889619714755565,-9.21538331222832,2.7706369719848034
1758273904260558800,11.469558837890625,2.234775798962265,-9.092866355106233,2.9147850384175777
1758273904270515700,11.479515625,2.6600477685436603,-8.940666791903972,3.026387510554492
1758273904280473600,11.4894736328125,3.0866853273898363,-8.778506391179562,3.095255295075476
1758273904290431700,11.499431640625,3.4665278173133727,-8.629204302984476,3.112940881630778
1758273904300388900,11.509388916015626,3.759788879109919,-8.508395903345942,3.105085784216225
1758273904310346800,11.5193466796875,4.084739795155823,-8.376129705625772,3.053805678834021
1758273904320304600,11.5293046875,4.527593452526629,-8.200036056616902,2.9035668943107127
1758273904330261800,11.53926171875,4.952929865646362,-8.010857300585508,2.7322233624383805
1758273904340220000,11.549219970703126,5.288931752538681,-7.832664633470773,2.6166698145881293
1758273904350177000,11.559177001953126,5.585456200045347,-7.643104184645414,2.560470080721378
1758273904360135200,11.56913525390625,5.829381860786676,-7.437386381745338,2.621825882177055
1758273904370093000,11.579093017578124,6.023612639510631,-7.221720016282797,2.780869319924712
1758273904380050000,11.5890498046875,6.223754103583097,-6.977627182281017,2.9576982974708077
1758273904390008000,11.599008056640624,6.465887035688757,-6.681755645725131,3.1171830492451784
1758273904399966000,11.608966064453124,6.749652539387345,-6.331314314591884,3.2445386785700916
1758273904409923000,11.618923095703124,7.056350590384006,-5.936359887993335,3.3373546171724793
1758273904419881200,11.628881103515624,7.367488669654726,-5.507780839690565,3.399241456764936
1758273904429837800,11.638837890625,7.677061983826756,-5.047253578463197,3.4290424285277723
1758273904439796000,11.6487958984375,7.986734666720032,-4.551714625087381,3.415310840295255
1758273904449754000,11.658754150390624,8.293073236754536,-4.022860554347932,3.348419324283302
1758273904459711000,11.6687109375,8.58441940484047,-3.4737574763059613,3.2266292201310396
1758273904469669000,11.678669189453124,8.846262415066361,-2.9227845127388834,3.0612682697996494
1758273904479627000,11.688626953125,9.069299017035961,-2.3790151969403026,2.8737589082852004
1758273904489583900,11.698583984375,9.253663650783896,-1.8433257272228598,2.6724980847939848
1758273904499542000,11.7085419921875,9.39901612457037,-1.3228950553052126,2.4655294050499794
1758273904509499100,11.7184990234375,9.500753328514099,-0.8269399223439395,2.2852213532164694
1758273904519457000,11.72845703125,9.55867769421637,-0.3550264304338023,2.162409943192452
1758273904529415000,11.738414794921875,9.583087328329682,0.06849289592714049,2.080897781153768
1758273904539372000,11.7483720703125,9.582608604902028,0.4317908864887431,2.039009042842686
1758273904549330000,11.758329833984375,9.564607668787241,0.7336847155414521,2.037244663518667
1758273904559287000,11.768287109375,9.539510636931658,0.9799404266655445,2.0513003691390157
1758273904569245200,11.7782451171875,9.517263149288295,1.1859662726014852,2.045866069130599
1758273904579202800,11.788202880859375,9.503636774995922,1.3649382535256445,1.997052061600983
1758273904589160000,11.798159912109375,9.497907875955104,1.5213050194099544,1.9093879528038202
1758273904599118000,11.8081181640625,9.49608533670306,1.6527460183523595,1.8064257371097803
1758273904609076000,11.818075927734375,9.496675703811645,1.754811139076203,1.704163194117695
1758273904619033000,11.828033203125,9.502164364355801,1.828901480551064,1.5919709393940864
1758273904628991000,11.837990966796875,9.515477434915304,1.8821527398757636,1.4434601477071642
1758273904638947800,11.84794775390625,9.53474678353071,1.9213069386564194,1.25202513718158
1758273904648906000,11.857906005859375,9.554864857929944,1.9488877501517534,1.037681544755399
1758273904658864000,11.867864013671875,9.571120996204018,1.966612061282247,0.8345444059982895
1758273904668821000,11.877821044921875,9.581426701641082,1.9787663171954453,0.6716599287830293
1758273904678779000,11.88777880859375,9.58717664346993,1.987216019502282,0.554435159784928
1758273904688737000,11.897737060546875,9.591309797751903,1.986798086351156,0.4793710048418492
1758273904698694000,11.90769384765625,9.596489830738305,1.9682767796240745,0.45127789644282307
1758273904708652000,11.917652099609375,9.604895840033889,1.9245020814359186,0.4611464160390198
1758273904718609200,11.927609130859375,9.617913142517208,1.8547477233387528,0.47544097191654144
1758273904728566800,11.93756689453125,9.636033321097493,1.7644184869855641,0.4517386092897504
1758273904738525000,11.94752490234375,9.655126728624104,1.6716488717429339,0.3930665304927155
1758273904748482000,11.95748193359375,9.664604751065372,1.6318778562381862,0.3205924651080742
1758273904758440000,11.96743994140625,9.660248309421538,1.6789868134155868,0.17602750670379028
1758273904768397000,11.97739697265625,9.642930094873904,1.7831487602882086,0.06826655352509114
1758273904778355000,11.98735498046875,9.628473699498176,1.8608784811787307,0.003663912495774275
1758273904788312800,11.997312744140626,9.62492214449644,1.8777083276875317,-0.07392890383545309
1758273904798270000,12.00727001953125,9.628270870402455,1.855899815983325,-0.14974986849520355
1758273904808228000,12.01722802734375,9.629711716860532,1.8447290181495248,-0.189762382871937
1758273904818186000,12.02718603515625,9.624803486552834,1.873273706240952,-0.15615747051518408
1758273904828142800,12.037142822265626,9.615562195476889,1.9258923667505383,-0.04777445361511781
1758273904838101000,12.04710107421875,9.60349415654242,1.9852455962121485,0.04563431348099839
1758273904848058000,12.05705810546875,9.59461585355997,2.0249314176514743,0.11569735850142314
1758273904858016000,12.06701611328125,9.590182255026697,2.0417381755456327,0.1734829185212031
1758273904867974100,12.07697412109375,9.586915946707128,2.052049433940649,0.22476859512766822
1758273904877930800,12.0869306640625,9.582817279216647,2.0664327640801665,0.2643066969256848
1758273904887889000,12.096888916015626,9.577548398903012,2.0873510489463807,0.28968793428381906
1758273904897846000,12.106845947265626,9.570890694579482,2.115097280136496,0.30789544408768416
1758273904907804000,12.116803955078124,9.56231517393589,2.1498190494276583,0.33285759751722216
1758273904917762000,12.126761962890624,9.55205564572811,2.188858535787463,0.37083687076698985
1758273904927719000,12.136718994140624,9.541680966708064,2.225751365507394,0.4156178233882412
1758273904937676800,12.1466767578125,9.53286813017726,2.2551424412950873,0.45732243730407207
1758273904947635000,12.156635009765624,9.526146128445863,2.2775369361937043,0.4855393547458574
1758273904957592000,12.166592041015624,9.520943883627652,2.297752625748515,0.4922815955476835
1758273904967550000,12.176550048828124,9.516665183395146,2.318437394119799,0.4778275747921317
1758273904977506800,12.1865068359375,9.513091416561602,2.3386614131115375,0.4495992226408794
1758273904987465000,12.19646484375,9.509191486513615,2.35999237043187,0.4196354980643838
1758273904997422800,12.2064228515625,9.50416342921853,2.3837305350244042,0.39886706999763843
1758273905007380000,12.2163798828125,9.497912552130222,2.409497867356986,0.39289194111078973
1758273905017338000,12.226338134765625,9.49131505356133,2.4346366925276817,0.397318086989969
1758273905027295200,12.236295166015625,9.485369881421327,2.4566776978135105,0.40358273687530305
1758273905037252900,12.2462529296875,9.4803102599442,2.475560385198891,0.40706009412966665
1758273905047211000,12.2562109375,9.475594337338208,2.493809743116796,0.40546942740473896
1758273905057168100,12.266168212890625,9.47044353044629,2.514462362784147,0.39820568347945806
1758273905067126000,12.2761259765625,9.464186808139086,2.5397768367826936,0.38611883024666455
1758273905077084200,12.286084228515625,9.4569200320065,2.568778474861383,0.37206235744133587
1758273905087041000,12.296041015625,9.449583697769045,2.5973034353390334,0.36023104987218973
1758273905096999000,12.3059990234375,9.442500461509823,2.623804196512699,0.35387046533171085
1758273905106956000,12.3159560546875,9.43484264023304,2.6511908006101845,0.3539951511573046
1758273905116914000,12.325913818359375,9.42676571676135,2.6786495931610466,0.36236860989015546
1758273905126872000,12.3358720703125,9.418539740207791,2.7061136464089155,0.3720848250014707
1758273905136829000,12.345828857421875,9.405266417136788,2.7517855565205216,0.37286603850703687
1758273905146786800,12.355786865234375,9.378077965959905,2.843665675577521,0.36823921895660455
1758273905156744000,12.365743896484375,9.351447733187674,2.9282915857225653,0.38199882770720867
1758273905166702000,12.3757021484375,9.335006301474571,2.9796017939820882,0.3873119855539873
1758273905176660000,12.385659912109375,9.33142961203158,2.992797375641763,0.37144258157517757
1758273905186616800,12.395616943359375,9.338938380226493,2.9719737833216784,0.349268378363736
1758273905196575000,12.405574951171875,9.35264892567098,2.9301559182897208,0.33544542205333705
1758273905206532900,12.415532958984375,9.366298096317053,2.886917665065825,0.3294758826570585
1758273905216490000,12.425489990234375,9.373933705762028,2.8622458728849884,0.32756650537177917
