time,seconds_elapsed,z,y,x
1758273892839158300,0.048158203125,-0.01052294485270977,0.030897362157702446,0.054138679057359695
1758273892849116200,0.0581162109375,-0.026358898729085922,0.034134432673454285,0.012827189639210701
1758273892859073300,0.0680732421875,-0.03677691891789436,0.029692014679312706,-0.02304106391966343
1758273892869031200,0.07803125,-0.04821702465415001,0.03122679889202118,-0.04599951580166817
1758273892878989300,0.0879892578125,-0.06174907833337784,0.04357880353927612,-0.053685665130615234
1758273892888946200,0.0979462890625,-0.05459040775895119,0.030533555895090103,-0.04023173823952675
1758273892898904000,0.107904052734375,-0.050553057342767715,-0.010287908837199211,-0.0061651114374399185
1758273892908861200,0.117861083984375,-0.04330304265022278,-0.045477963984012604,0.03709222748875618
1758273892918819000,0.127819091796875,-0.07485297322273254,-0.05302030220627785,0.0639033317565918
1758273892928777200,0.137777099609375,-0.11194544285535812,-0.0658361092209816,0.054252926260232925
1758273892938734300,0.147734375,-0.14965926110744476,-0.06557592004537582,-0.004015973303467035
1758273892948692200,0.157692138671875,-0.16782058775424957,-0.06443849951028824,-0.0787571519613266
1758273892958649000,0.167649169921875,-0.18145224452018738,-0.053881462663412094,-0.15958328545093536
1758273892968607200,0.177607177734375,-0.12196485698223114,-0.05807122215628624,-0.18712615966796875
1758273892978565000,0.187565185546875,-0.05345503240823746,-0.054200317710638046,-0.1423506885766983
1758273892988522200,0.197522216796875,0.005206170026212931,-0.07958852499723434,-0.0714007019996643
1758273892998480400,0.20748046875,0.02830616384744644,-0.0722736269235611,-0.05228399112820625
1758273893008438000,0.21743798828125,0.027428651228547096,-0.024418482556939125,-0.08039259910583496
1758273893018395100,0.22739501953125,0.010280870832502842,0.016065416857600212,-0.09013434499502182
1758273893028353300,0.237353271484375,0.00041105865966528654,0.030229691416025162,-0.08379998058080673
1758273893038310400,0.247310302734375,-0.016671255230903625,0.02702217921614647,-0.10229430347681046
1758273893048268300,0.257268310546875,-0.0009269134607166052,-0.003711498575285077,-0.19063349068164825
1758273893058226200,0.26722607421875,0.02539857104420662,-0.05517307668924332,-0.29423263669013977
1758273893068183300,0.277183349609375,0.04180986061692238,-0.07102511078119278,-0.33748701214790344
1758273893078141200,0.28714111328125,0.08603617548942566,-0.14334191381931305,-0.3665807247161865
1758273893088098300,0.297098388671875,0.14945004880428314,-0.19472548365592957,-0.3773033916950226
1758273893098056200,0.30705615234375,0.1774902194738388,-0.19088096916675568,-0.37309566140174866
1758273893108014000,0.31701416015625,0.16962194442749023,-0.1918923258781433,-0.4434347450733185
1758273893117971200,0.32697119140625,0.12977120280265808,-0.08554697036743164,-0.4727945029735565
1758273893127929000,0.33692919921875,0.07625491917133331,-0.058869827538728714,-0.5264662504196167
1758273893137886200,0.34688623046875,0.04248444363474846,-0.05119273439049721,-0.5114209651947021
1758273893147844400,0.35684423828125,-0.013829919509589672,-0.004369000904262066,-0.3154580593109131
1758273893157802000,0.366802001953125,-0.0647418349981308,-0.049036070704460144,-0.1205090656876564
1758273893167759000,0.376759033203125,-0.05958009883761406,-0.15746107697486877,-0.09372911602258682
1758273893177717200,0.38671728515625,-0.009412800893187523,-0.19776375591754913,-0.12406225502490997
1758273893187674400,0.39667431640625,-0.05154503881931305,-0.22866255044937134,-0.18827760219573975
1758273893197632300,0.40663232421875,-0.08488968014717102,-0.3095126450061798,-0.27901390194892883
1758273893207590100,0.416590087890625,-0.07743921875953674,-0.4271588623523712,-0.30171361565589905
1758273893217547300,0.42654736328125,0.00507483072578907,-0.4715108573436737,-0.2917928099632263
1758273893227505200,0.436505126953125,0.04587062448263168,-0.40764322876930237,-0.22829224169254303
1758273893237463300,0.44646337890625,0.06760228425264359,-0.27037617564201355,-0.1336408406496048
1758273893247420400,0.45642041015625,0.11000509560108185,-0.13960060477256775,-0.023959996178746223
1758273893257378000,0.4663779296875,0.12618327140808105,-0.03941754624247551,0.10926330089569092
1758273893267335200,0.476335205078125,0.12198930233716965,-0.030415231361985207,0.17923660576343536
1758273893277293300,0.486293212890625,0.11132201552391052,-0.08795762062072754,0.08299395442008972
1758273893287251200,0.496251220703125,0.10485036671161652,-0.0767112597823143,-0.05656033754348755
1758273893297208300,0.506208251953125,0.11446278542280197,-0.0964181199669838,-0.1644790768623352
1758273893307166200,0.516166259765625,0.15522828698158264,-0.1614069938659668,-0.1980067491531372
1758273893317123000,0.526123046875,0.21305616199970245,-0.21007759869098663,-0.14584633708000183
1758273893327080400,0.53608056640625,0.22713728249073029,-0.1510774791240692,-0.060818612575531006
1758273893337038600,0.54603857421875,0.2758025825023651,-0.20016086101531982,-0.008651277050375938
1758273893346995500,0.555995361328125,0.32613009214401245,-0.2929735481739044,0.00974230095744133
1758273893356953300,0.565953369140625,0.34610381722450256,-0.34239861369132996,-0.032105013728141785
1758273893366910500,0.575910400390625,0.3843681812286377,-0.35556164383888245,-0.09409739822149277
1758273893376868600,0.58586865234375,0.45642080903053284,-0.30781304836273193,-0.12667451798915863
1758273893386826500,0.595826416015625,0.4441135823726654,-0.1307077705860138,-0.14303620159626007
1758273893396783400,0.605783447265625,0.40267348289489746,0.11575739830732346,-0.098055399954319
1758273893406741500,0.615741455078125,0.3592279255390167,0.23167307674884796,0.00038956920616328716
1758273893416698400,0.625698486328125,0.3293651044368744,0.29947182536125183,0.12662632763385773
1758273893426656500,0.635656494140625,0.3164389431476593,0.3513433039188385,0.26063430309295654
1758273893436614400,0.645614501953125,0.32919493317604065,0.3575764298439026,0.3960304856300354
1758273893446571300,0.6555712890625,0.3625001609325409,0.272778183221817,0.4250001013278961
1758273893456529400,0.665529296875,0.38354140520095825,0.19016294181346893,0.37142205238342285
1758273893466486500,0.675486572265625,0.33862221240997314,0.17009587585926056,0.3274979591369629
1758273893476444400,0.6854443359375,0.303707093000412,0.19135135412216187,0.25200560688972473
1758273893486402600,0.695402587890625,0.26131966710090637,0.1881323754787445,0.2113148421049118
1758273893496359400,0.705359375,0.20854993164539337,0.17539925873279572,0.23351041972637177
1758273893506317300,0.7153173828125,0.15781937539577484,0.13612206280231476,0.27018582820892334
1758273893516275500,0.725275390625,0.09398099780082703,0.0633687674999237,0.2950805425643921
1758273893526232600,0.735232666015625,0.06274349987506866,0.035397179424762726,0.30490821599960327
1758273893536190500,0.7451904296875,0.017309172078967094,0.03871601074934006,0.315194696187973
1758273893546147300,0.755147216796875,0.015818394720554352,0.08671148121356964,0.2783032953739166
1758273893556105500,0.76510546875,-0.015473747625946999,-0.0032596911769360304,0.2515814006328583
1758273893566063400,0.7750634765625,0.00890947226434946,-0.017720257863402367,0.19248566031455994
1758273893576020500,0.7850205078125,0.023534219712018967,-0.04656176269054413,0.1291799396276474
1758273893585978600,0.794978515625,0.04669730365276337,-0.07749754190444946,0.05052673816680908
1758273893595935200,0.804935302734375,0.07746533304452896,-0.11862367391586304,-0.03419160842895508
1758273893605893400,0.814893310546875,0.14399129152297974,-0.21879248321056366,-0.13528968393802643
1758273893615851500,0.8248515625,0.19178570806980133,-0.21617218852043152,-0.2337813675403595
1758273893625808400,0.834808349609375,0.2182651311159134,-0.19055016338825226,-0.33963432908058167
1758273893635766500,0.8447666015625,0.24649304151535034,-0.1892279088497162,-0.3930690586566925
1758273893645723400,0.854723388671875,0.32824963331222534,-0.24429573118686676,-0.42087915539741516
1758273893655681300,0.864681396484375,0.3922797441482544,-0.2674553692340851,-0.4204152524471283
1758273893665639400,0.874639404296875,0.3443404734134674,-0.30459555983543396,-0.4513060450553894
1758273893675596500,0.884596435546875,0.49572065472602844,-0.43059131503105164,-0.5351357460021973
1758273893685554400,0.894554443359375,0.5390533208847046,-0.6215563416481018,-0.6558743119239807
1758273893695511300,0.90451123046875,0.5891540050506592,-0.8459324240684509,-0.7721625566482544
1758273893705469400,0.914469482421875,0.6025134325027466,-0.9862833023071289,-0.8885798454284668
1758273893715427300,0.92442724609375,0.5971031785011292,-1.065924882888794,-1.0732570886611938
1758273893725384400,0.934384521484375,0.562681257724762,-1.1049447059631348,-1.3130327463150024
1758273893735342600,0.944342529296875,0.5582523941993713,-1.119637370109558,-1.5417128801345825
1758273893745299500,0.954299560546875,0.589897871017456,-1.2405701875686646,-1.7724992036819458
1758273893755257300,0.96425732421875,0.7107235789299011,-1.289154291152954,-1.9095505475997925
1758273893765215500,0.974215576171875,0.7520248293876648,-1.1510671377182007,-1.6514108180999756
1758273893775172400,0.98417236328125,0.7490559220314026,-1.1752794981002808,-1.4323564767837524
1758273893785130500,0.994130615234375,0.8474336862564087,-1.1036710739135742,-1.3866482973098755
1758273893795088600,1.004088623046875,0.887081503868103,-0.7253673076629639,-1.3986908197402954
1758273893805045200,1.014045166015625,0.8730776309967041,-0.33451393246650696,-1.3947198390960693
1758273893815003400,1.02400341796875,0.8875865340232849,0.046346619725227356,-1.3145570755004883
1758273893824960500,1.03396044921875,0.9309911131858826,0.34587544202804565,-1.114646553993225
1758273893834918400,1.04391845703125,0.9459330439567566,0.36142268776893616,-0.987031877040863
1758273893844876500,1.05387646484375,0.9964524507522583,0.1796857863664627,-0.9482555985450745
1758273893854833400,1.06383349609375,1.0472849607467651,0.07320807874202728,-0.9202391505241394
1758273893864791300,1.073791259765625,1.0601085424423218,-0.021065030246973038,-0.8663662672042847
1758273893874748400,1.08374853515625,1.1667760610580444,-0.4650520384311676,-0.8127781748771667
1758273893884706600,1.09370654296875,1.3246386051177979,-0.7913438081741333,-0.7695782780647278
1758273893894664400,1.10366455078125,1.5160094499588013,-0.5500292181968689,-0.7867918610572815
1758273893904621300,1.113621337890625,1.6856498718261719,-0.004993540700525045,-0.7592248916625977
1758273893914579500,1.123579345703125,1.7694950103759766,0.27126628160476685,-0.7335157990455627
1758273893924536600,1.13353662109375,1.8042927980422974,0.7813060283660889,-0.6496989727020264
1758273893934494500,1.143494384765625,1.5671968460083008,1.1627483367919922,-0.7077697515487671
1758273893944452600,1.15345263671875,1.2506444454193115,1.030291199684143,-0.6667378544807434
1758273893954409500,1.163409423828125,1.0975425243377686,0.4902722239494324,-0.5973793268203735
1758273893964367400,1.173367431640625,1.0150524377822876,0.13710691034793854,-0.5345180034637451
1758273893974325500,1.183325439453125,0.7317732572555542,-0.505517840385437,-0.687853217124939
1758273893984282400,1.193282470703125,0.6937060952186584,-0.6106966137886047,-0.6751594543457031
1758273893994240500,1.203240478515625,1.0177088975906372,-0.22002153098583221,-0.5802185535430908
1758273894004197400,1.213197265625,1.1579679250717163,0.2056461125612259,-0.6747369766235352
1758273894014155300,1.2231552734375,0.99576735496521,0.21023234724998474,-0.7773847579956055
1758273894024113400,1.233113525390625,0.7950280904769897,-0.20361806452274323,-0.6331427097320557
1758273894034070500,1.243070556640625,0.5646705031394958,-0.4883049428462982,-0.3131857216358185
1758273894044028400,1.2530283203125,0.36484724283218384,-0.3427330553531647,-0.037363383919000626
1758273894053985300,1.2629853515625,0.23633533716201782,-0.23691555857658386,0.038642436265945435
1758273894063943400,1.272943359375,0.07426787167787552,-0.17955493927001953,0.12198895215988159
1758273894073901300,1.2829013671875,-0.021968910470604897,-0.13711827993392944,0.17903919517993927
1758273894083858400,1.2928583984375,-0.025262776762247086,-0.07801900804042816,0.2051331251859665
1758273894093816600,1.302816650390625,0.01379274670034647,-0.035375673323869705,0.17437468469142914
1758273894103773400,1.3127734375,0.048736635595560074,-0.0075068725273013115,0.12353616207838058
1758273894113731300,1.3227314453125,0.11344186961650848,-0.15290187299251556,0.11231999099254608
1758273894123689500,1.332689453125,0.01532388012856245,-0.19620943069458008,0.02561790682375431
1758273894133646600,1.342646484375,-0.18727396428585052,-0.10532160848379135,-0.16694276034832
1758273894143604500,1.3526044921875,-0.33431223034858704,0.06016029417514801,-0.3229467272758484
1758273894153561300,1.362561279296875,-0.402908593416214,0.12549081444740295,-0.37706536054611206
1758273894163519500,1.37251953125,-0.4371965229511261,0.12829406559467316,-0.454853892326355
1758273894173477400,1.382477294921875,-0.47611913084983826,0.04206334426999092,-0.5149497985839844
1758273894183434500,1.3924345703125,-0.4955879747867584,-0.1769285500049591,-0.5389842987060547
1758273894193392600,1.402392578125,-0.47951820492744446,-0.12243440747261047,-0.6263613104820251
1758273894203349200,1.412349365234375,-0.4796451926231384,0.3075057566165924,-0.8448870778083801
1758273894213307400,1.422307373046875,-0.42400962114334106,0.45571839809417725,-1.0389217138290405
1758273894223265500,1.432265625,0.029138170182704926,0.3329945206642151,-1.5096745491027832
1758273894233222400,1.442222412109375,0.15046405792236328,0.6284024715423584,-1.5713123083114624
1758273894243180500,1.4521806640625,0.29646652936935425,0.3221452236175537,-1.287170648574829
1758273894253138400,1.462138427734375,0.3915027379989624,0.1666344553232193,-1.0904455184936523
1758273894263095300,1.47209521484375,0.39337316155433655,-0.33123940229415894,-0.8610360026359558
1758273894273053400,1.482053466796875,0.2997659742832184,-0.9153287410736084,-0.8050633072853088
1758273894283010600,1.492010498046875,0.24315135180950165,-1.2750957012176514,-0.9412466287612915
1758273894292968400,1.501968505859375,0.19324132800102234,-1.5856088399887085,-1.1099117994308472
1758273894302926600,1.511926513671875,0.12291678041219711,-1.6761592626571655,-1.2034868001937866
1758273894312883500,1.521883544921875,0.07673144340515137,-1.596778154373169,-1.2238637208938599
1758273894322841300,1.53184130859375,0.032692451030015945,-1.4403531551361084,-1.15019953250885
1758273894332798500,1.541798583984375,0.0035657230764627457,-1.327949047088623,-1.0184049606323242
1758273894342756600,1.551756591796875,-0.018983090296387672,-1.4119068384170532,-0.7108904719352722
1758273894352714500,1.561714599609375,-0.0012919774744659662,-1.50547456741333,-0.4538070261478424
1758273894362671400,1.57167138671875,0.06762881577014923,-1.4003386497497559,-0.3177364766597748
1758273894372629500,1.58162939453125,0.21888063848018646,-1.2303820848464966,-0.3297979235649109
1758273894382586400,1.59158642578125,0.39862191677093506,-1.1148030757904053,-0.37868133187294006
1758273894392544500,1.60154443359375,0.5733579993247986,-0.9800757169723511,-0.35357603430747986
1758273894402502700,1.611502685546875,0.7847286462783813,-0.7524117231369019,-0.30844369530677795
1758273894412459300,1.621459228515625,1.0519109964370728,-0.7320294380187988,-0.2592090368270874
1758273894422417400,1.63141748046875,1.3089680671691895,-0.6937006711959839,-0.05282513052225113
1758273894432374500,1.64137451171875,1.424583911895752,-0.3778335452079773,0.2769607603549957
1758273894442332400,1.65133251953125,1.455066442489624,-0.04164088889956474,0.5686243176460266
1758273894452290600,1.66129052734375,1.3502002954483032,-0.14270855486392975,0.5133618712425232
1758273894462247400,1.671247314453125,1.173410415649414,-1.4340150356292725,-0.003658435307443142
1758273894472205300,1.681205322265625,1.4322859048843384,-2.9829323291778564,-0.11902391165494919
1758273894482163500,1.69116357421875,1.8956208229064941,-3.1728427410125732,0.11785129457712173
1758273894492120600,1.70112060546875,1.8372918367385864,-1.8339009284973145,0.18909484148025513
1758273894502078500,1.711078369140625,1.4377464056015015,-0.549561083316803,0.18262843787670135
1758273894512035300,1.721035400390625,0.966398298740387,-0.11983317136764526,0.2077372521162033
1758273894521993500,1.730993408203125,0.5097923278808594,-0.10710061341524124,0.33306920528411865
1758273894531951400,1.740951416015625,0.12862341105937958,-0.25495585799217224,0.529849112033844
1758273894541908500,1.750908447265625,-0.2062562257051468,-0.28270411491394043,0.7393534779548645
1758273894551866600,1.76086669921875,-0.5136433243751526,-0.20384179055690765,0.8686187863349915
1758273894561823500,1.770823486328125,-0.7129431962966919,0.15426068007946014,0.8614585995674133
1758273894571781400,1.780781494140625,-0.9082878828048706,0.3779025673866272,0.7716752290725708
1758273894581739500,1.790739501953125,-1.0502701997756958,0.2662307918071747,0.5822750926017761
1758273894591696400,1.8006962890625,-0.6425924301147461,0.05038582161068916,0.23714062571525574
1758273894601654500,1.810654541015625,-0.2444932609796524,0.11119434237480164,-0.18416966497898102
1758273894611611400,1.820611328125,-0.09042432904243469,0.31766387820243835,-0.34000691771507263
1758273894621569300,1.8305693359375,0.11085265129804611,0.5830049514770508,-0.14127326011657715
1758273894631527400,1.84052734375,0.14977367222309113,1.0261772871017456,0.30314570665359497
1758273894641484500,1.850484619140625,0.06694044172763824,1.5906178951263428,0.7661927938461304
1758273894651442400,1.8604423828125,0.03535321354866028,1.7927601337432861,0.9823684692382812
1758273894661400600,1.870400634765625,0.09780805557966232,1.3701201677322388,0.9449325203895569
1758273894671357400,1.880357421875,0.05470612645149231,0.6498287320137024,0.7554888129234314
1758273894681315300,1.8903154296875,-0.0932745411992073,0.14737559854984283,0.5885912179946899
1758273894691272400,1.9002724609375,-0.15999631583690643,-0.010110700502991676,0.5694939494132996
1758273894701230600,1.910230712890625,-0.10634644329547882,0.010136418044567108,0.5867225527763367
1758273894711188500,1.9201884765625,-0.02842448279261589,0.0457167848944664,0.5208825469017029
1758273894721145300,1.930145263671875,0.021246321499347687,0.025041470304131508,0.479949027299881
1758273894731103500,1.940103515625,0.002453724155202508,-0.019565146416425705,0.5612172484397888
1758273894741060600,1.950060546875,-0.07856132835149765,0.05982113257050514,0.7073389291763306
1758273894751018500,1.9600185546875,-0.15456314384937286,0.44931721687316895,0.7919976115226746
1758273894760976600,1.9699765625,-0.16125988960266113,0.8462576866149902,0.7386974096298218
1758273894770933500,1.97993359375,-0.11281565576791763,0.9512141942977905,0.5752406120300293
1758273894780891400,1.989891357421875,-0.03923593834042549,0.787815511226654,0.41605401039123535
1758273894790848500,1.9998486328125,0.04807526618242264,0.5710091590881348,0.3178315758705139
1758273894800806400,2.009806396484375,0.09210018068552017,0.3830845355987549,0.3126559853553772
1758273894810764500,2.0197646484375,0.1432882696390152,0.1602056473493576,0.3471708297729492
1758273894820721400,2.029721435546875,0.03746352344751358,-0.04784724861383438,0.3526400029659271
1758273894830679300,2.03967919921875,-0.11031608283519745,0.03840827941894531,0.3549005091190338
1758273894840637400,2.049637451171875,-0.24181042611598969,0.38078880310058594,0.38999414443969727
1758273894850594600,2.059594482421875,-0.38334545493125916,0.7517066597938538,0.404766708612442
1758273894860552400,2.069552490234375,-0.4697423577308655,1.0154362916946411,0.4257907271385193
1758273894870509300,2.07950927734375,-0.519683301448822,1.209018588066101,0.4374912977218628
1758273894880467500,2.089467529296875,-0.4894249439239502,1.1487122774124146,0.47223517298698425
1758273894890425300,2.09942529296875,-0.44965460896492004,0.9796523451805115,0.4698449969291687
1758273894900382500,2.109382568359375,-0.40913888812065125,0.764731228351593,0.4411686658859253
1758273894910340600,2.119340576171875,-0.35390788316726685,0.6140836477279663,0.40902966260910034
1758273894920297500,2.12929736328125,-0.298307865858078,0.5239721536636353,0.3968963921070099
1758273894930255400,2.13925537109375,-0.24469152092933655,0.4042649269104004,0.3964090347290039
1758273894940213500,2.149213623046875,-0.19879254698753357,0.2768920660018921,0.36449477076530457
1758273894950170600,2.159170654296875,-0.16929323971271515,0.1937420517206192,0.3557814657688141
1758273894960128500,2.16912841796875,-0.15337207913398743,0.1918068677186966,0.37330934405326843
1758273894970086400,2.17908642578125,-0.1238541305065155,0.3649623990058899,0.30692794919013977
1758273894980043500,2.18904345703125,-0.13530541956424713,0.6222344040870667,0.23904143273830414
1758273894990001400,2.19900146484375,-0.17309966683387756,0.8025373220443726,0.2087799310684204
1758273894999958500,2.20895849609375,-0.17787832021713257,0.8532476425170898,0.21492519974708557
1758273895009916400,2.21891650390625,-0.1549391895532608,0.7387778162956238,0.24205802381038666
1758273895019874300,2.228874267578125,-0.1378999501466751,0.5334944128990173,0.24027475714683533
1758273895029831400,2.23883154296875,-0.10271666198968887,0.45711949467658997,0.20791175961494446
1758273895039789300,2.248789306640625,-0.08754932880401611,0.46593791246414185,0.1785353720188141
1758273895049746400,2.258746337890625,-0.03012438863515854,0.49796512722969055,0.1627335101366043
1758273895059704600,2.26870458984375,0.018422618508338928,0.5978941917419434,0.14911259710788727
1758273895069662500,2.278662353515625,0.09747882187366486,0.6620681285858154,0.11185126006603241
1758273895079619300,2.288619384765625,0.14881367981433868,0.591495156288147,0.05989716574549675
1758273895089577500,2.298577392578125,0.22081489861011505,0.5227341651916504,0.036814216524362564
1758273895099534600,2.30853466796875,0.26633498072624207,0.47031331062316895,0.022178281098604202
1758273895109492500,2.318492431640625,0.2779008150100708,0.3833531141281128,0.03811197727918625
1758273895119450600,2.32845068359375,0.2938593029975891,0.2681514322757721,0.06691765040159225
1758273895129407500,2.338407470703125,0.30911362171173096,0.17080703377723694,0.097066231071949
1758273895139365400,2.348365478515625,0.32429149746894836,0.022311974316835403,0.13481539487838745
1758273895149323500,2.358323486328125,0.3236400783061981,-0.0607280507683754,0.17663714289665222
1758273895159280600,2.36828076171875,0.30266740918159485,-0.09459653496742249,0.24529317021369934
1758273895169238500,2.378238525390625,0.29097455739974976,-0.10935299098491669,0.33110496401786804
1758273895179195400,2.3881953125,0.2774592638015747,-0.05436750128865242,0.4031890034675598
1758273895189153500,2.398153564453125,0.2491236925125122,0.09813645482063293,0.43567797541618347
1758273895199111400,2.408111328125,0.21256481111049652,0.27767443656921387,0.47155100107192993
1758273895209068500,2.418068603515625,0.17021548748016357,0.40006425976753235,0.542608380317688
1758273895219026700,2.428026611328125,0.143656387925148,0.4214640259742737,0.6549139618873596
1758273895228983300,2.4379833984375,0.145058274269104,0.3529976010322571,0.7679629921913147
1758273895238941400,2.44794140625,0.16483572125434875,0.24284818768501282,0.8245264291763306
1758273895248899600,2.457899658203125,0.19238032400608063,0.1599552184343338,0.8496042490005493
1758273895258856400,2.4678564453125,0.23358574509620667,0.07847469300031662,0.855803906917572
1758273895268814600,2.477814697265625,0.27957883477211,0.009495093487203121,0.8334993720054626
1758273895278772500,2.4877724609375,0.34925320744514465,-0.07773923873901367,0.7548741698265076
1758273895288729300,2.497729248046875,0.4615746736526489,-0.1750471442937851,0.5935734510421753
1758273895298687500,2.5076875,0.5669108629226685,-0.20527619123458862,0.2989356517791748
1758273895308644600,2.51764453125,0.575461208820343,-0.26334109902381897,-0.04425766319036484
1758273895318602500,2.5276025390625,0.5143505334854126,-0.35507553815841675,-0.270164430141449
1758273895328561000,2.537560791015625,0.4276001751422882,-0.4776155948638916,-0.3114314377307892
1758273895338518000,2.54751806640625,0.35031941533088684,-0.6817485690116882,-0.2496790736913681
1758273895348476000,2.557475830078125,0.25953730940818787,-0.9596379995346069,-0.19717486202716827
1758273895358432800,2.567432861328125,0.11587878316640854,-1.29860520362854,-0.3371397852897644
1758273895368391000,2.577390869140625,0.03393491730093956,-1.4750255346298218,-0.7477438449859619
1758273895378348800,2.587348876953125,0.18329553306102753,-1.259437918663025,-1.2589144706726074
1758273895388306000,2.597305908203125,0.3449409008026123,-0.8456326723098755,-1.7588399648666382
1758273895398263800,2.607263916015625,0.44373175501823425,-0.5297481417655945,-2.1357064247131348
1758273895408221700,2.6172216796875,0.5090111494064331,-0.38416242599487305,-2.3216397762298584
1758273895418178800,2.6271787109375,0.5169314742088318,-0.3926447331905365,-2.356456995010376
1758273895428136700,2.63713671875,0.4996592104434967,-0.5513755679130554,-2.3551340103149414
1758273895438093800,2.64709375,0.5210748314857483,-0.8317717909812927,-2.436060905456543
1758273895448052000,2.657052001953125,0.5548412799835205,-1.1908282041549683,-2.5729737281799316
1758273895458009600,2.667009521484375,0.6021625399589539,-1.5553559064865112,-2.6699788570404053
1758273895467966700,2.676966796875,0.6945875883102417,-1.7455343008041382,-2.7053709030151367
1758273895477924900,2.6869248046875,0.7415835857391357,-1.7377228736877441,-2.6587979793548584
1758273895487882000,2.696882080078125,0.7089324593544006,-1.506567358970642,-2.5289225578308105
1758273895497839900,2.70683984375,0.6629846096038818,-1.373056411743164,-2.4362635612487793
1758273895507797800,2.7167978515625,0.6083834171295166,-1.2955405712127686,-2.3591771125793457
1758273895517755000,2.7267548828125,0.5832445621490479,-1.4524561166763306,-2.290982723236084
1758273895527712800,2.736712646484375,0.5573977828025818,-1.7250285148620605,-2.1523168087005615
1758273895537670000,2.746669921875,0.6638123989105225,-2.043933391571045,-2.0555977821350098
1758273895547628000,2.7566279296875,0.8418114185333252,-2.2678730487823486,-2.0228381156921387
1758273895557585700,2.766585693359375,0.9946774840354919,-2.5623974800109863,-2.07651424407959
1758273895567542800,2.776542724609375,1.145224928855896,-2.772075891494751,-2.2368931770324707
1758273895577501000,2.7865009765625,1.2677273750305176,-2.8302364349365234,-2.434633731842041
1758273895587458800,2.796458740234375,1.3971503973007202,-2.6800034046173096,-2.6136889457702637
1758273895597416000,2.806416015625,1.4889603853225708,-2.293705701828003,-2.7199277877807617
1758273895607373800,2.816373779296875,1.5548027753829956,-1.8825461864471436,-2.7243502140045166
1758273895617330700,2.82633056640625,1.6306706666946411,-1.490441918373108,-2.6230862140655518
1758273895627288800,2.836288818359375,1.6599390506744385,-1.0487008094787598,-2.4003162384033203
1758273895637246700,2.846246826171875,1.4542338848114014,-0.42207109928131104,-2.1619508266448975
1758273895647203800,2.856203857421875,1.0209729671478271,-0.2730424702167511,-1.8254430294036865
1758273895657161700,2.86616162109375,0.6037201285362244,-0.6086450815200806,-1.7275325059890747
1758273895667118800,2.876118896484375,0.32659533619880676,-0.9830104112625122,-1.8071398735046387
1758273895677076700,2.88607666015625,0.017614293843507767,-1.332349181175232,-1.9143579006195068
1758273895687035000,2.896034912109375,-0.40742382407188416,-2.0121686458587646,-2.0795345306396484
1758273895696992000,2.905991943359375,-0.8228744864463806,-2.58144211769104,-2.4253222942352295
1758273895706949600,2.91594970703125,-0.9028188586235046,-2.858322858810425,-2.872121810913086
1758273895716907800,2.92590771484375,-0.7222412824630737,-3.462778329849243,-3.2276790142059326
1758273895726865000,2.935864990234375,-0.48066356778144836,-3.7050182819366455,-3.243525505065918
1758273895736822800,2.94582275390625,-0.4135253429412842,-3.452507495880127,-2.964541435241699
1758273895746780000,2.95577978515625,-0.37642937898635864,-2.9309725761413574,-2.385335922241211
1758273895756737800,2.96573779296875,-0.26618462800979614,-2.0110533237457275,-1.8114420175552368
1758273895766695700,2.97569580078125,-0.17748193442821503,-1.222301959991455,-1.3658943176269531
1758273895776652800,2.98565283203125,-0.16663675010204315,-0.8345828652381897,-1.0493097305297852
1758273895786611000,2.99561083984375,-0.22448034584522247,-0.7483406662940979,-0.8390054702758789
1758273895796567800,3.00556787109375,-0.19660402834415436,-0.7996408939361572,-0.6976118683815002
1758273895806526000,3.01552587890625,-0.11763598769903183,-0.6883835792541504,-0.5251657962799072
1758273895816483800,3.02548388671875,-0.08831746876239777,-0.47855350375175476,-0.32963961362838745
1758273895826440700,3.035440673828125,-0.028019769117236137,-0.3038749098777771,-0.18868489563465118
1758273895836398800,3.04539892578125,-0.08659356832504272,-0.18928521871566772,-0.026886017993092537
1758273895846357000,3.05535693359375,-0.19554933905601501,-0.09216294437646866,0.14518827199935913
1758273895856313900,3.06531396484375,-0.30432358384132385,0.09850233793258667,0.3105824589729309
1758273895866271700,3.075271728515625,-0.42050185799598694,0.38926011323928833,0.4639778733253479
1758273895876228900,3.085228759765625,-0.5254276990890503,0.6728382110595703,0.6145206689834595
1758273895886186800,3.095186767578125,-0.6158774495124817,0.8082846999168396,0.7448341846466064
1758273895896145000,3.105144775390625,-0.7006600499153137,0.7442566156387329,0.8468379974365234
1758273895906102000,3.11510205078125,-0.7735481262207031,0.4500579535961151,0.8579870462417603
1758273895916059600,3.1250595703125,-0.8195219039916992,0.14284436404705048,0.7884675860404968
1758273895926016800,3.135016845703125,-0.7944032549858093,-0.14594510197639465,0.6287924647331238
1758273895935975000,3.144974853515625,-0.7061745524406433,-0.3546468913555145,0.395075261592865
1758273895945932800,3.154932861328125,-0.6337701678276062,-0.34824836254119873,0.22744232416152954
1758273895955890000,3.164889892578125,-0.6203932166099548,0.007564457133412361,0.2182672619819641
1758273895965847800,3.174847900390625,-0.5230216979980469,0.7046574950218201,0.3710632026195526
1758273895975805700,3.1848056640625,-0.3725859522819519,1.4850507974624634,0.708759605884552
1758273895985762800,3.1947626953125,-0.1687968522310257,1.6589114665985107,0.9226404428482056
1758273895995721000,3.204720947265625,0.11847938597202301,0.9472315311431885,1.2813270092010498
1758273896005677800,3.214677734375,0.210866317152977,0.3824126422405243,1.2542556524276733
1758273896015635700,3.2246357421875,0.17453044652938843,0.2993030846118927,0.9981609582901001
1758273896025593900,3.23459375,0.09172876924276352,0.6074532270431519,1.229039192199707
1758273896035550700,3.24455078125,0.018093131482601166,0.729243814945221,1.476636290550232
1758273896045508900,3.2545087890625,-0.00820132251828909,0.8698472380638123,1.552785873413086
1758273896055466000,3.264466064453125,0.031206518411636353,1.2084251642227173,1.60301673412323
1758273896065423600,3.274423583984375,0.07738173753023148,1.5838688611984253,1.6758211851119995
1758273896075381800,3.2843818359375,0.05662597715854645,1.76552152633667,1.7477898597717285
1758273896085339000,3.2943388671875,0.009546348825097084,1.7053072452545166,1.7791187763214111
1758273896095296800,3.304296875,-0.04303465411067009,1.3545379638671875,1.7046148777008057
1758273896105255000,3.3142548828125,-0.09564806520938873,0.9659510254859924,1.6235522031784058
1758273896115211800,3.324211669921875,-0.18969717621803284,0.7751396894454956,1.6557782888412476
1758273896125169700,3.334169677734375,-0.31120577454566956,0.762342631816864,1.747204065322876
1758273896135126800,3.344126708984375,-0.41738536953926086,0.7824521660804749,1.8761341571807861
1758273896145085000,3.3540849609375,-0.4031941890716553,0.8398952484130859,1.9332566261291504
1758273896155042800,3.364042724609375,-0.3357534408569336,0.9119940400123596,1.9494082927703857
1758273896164999700,3.373999755859375,-0.27291616797447205,1.07572340965271,1.9377521276474
1758273896174957800,3.383957763671875,-0.2660659849643707,1.2716814279556274,1.978893756866455
1758273896184915000,3.3939150390625,-0.2566758990287781,1.3886817693710327,2.050654172897339
1758273896194872800,3.403872802734375,-0.15051084756851196,1.6493215560913086,2.0280849933624268
1758273896204831000,3.4138310546875,0.02015872858464718,1.9703071117401123,1.9507155418395996
1758273896214787800,3.423787841796875,0.1434723138809204,2.1287500858306885,1.9017219543457031
1758273896224745700,3.433745849609375,0.26929229497909546,2.1184842586517334,1.9247891902923584
1758273896234704000,3.443703857421875,0.31032904982566833,2.142789363861084,2.004607915878296
1758273896244660700,3.45366064453125,0.15541402995586395,2.180755138397217,2.091160535812378
1758273896254619000,3.463618896484375,-0.028001293540000916,2.046907901763916,2.0970678329467773
1758273896264575700,3.47357568359375,-0.19249409437179565,1.7426977157592773,1.9957374334335327
1758273896274533600,3.48353369140625,-0.30911871790885925,1.4419487714767456,1.8071491718292236
1758273896284491800,3.49349169921875,-0.3519311547279358,1.1611058712005615,1.5740312337875366
1758273896294449000,3.503448974609375,-0.3409987688064575,1.0412935018539429,1.4003456830978394
1758273896304406800,3.51340673828125,-0.3528690040111542,1.0588698387145996,1.3277479410171509
1758273896314365000,3.523364990234375,-0.36109110713005066,0.9926764965057373,1.2640882730484009
1758273896324321800,3.53332177734375,-0.40405935049057007,0.8501347899436951,1.2333886623382568
1758273896334279700,3.54327978515625,-0.43799889087677,0.699741005897522,1.2599886655807495
1758273896344236800,3.55323681640625,-0.44379737973213196,0.6671620607376099,1.3017698526382446
1758273896354195000,3.56319482421875,-0.42593348026275635,0.6781672835350037,1.2971611022949219
1758273896364152800,3.57315283203125,-0.4101044535636902,0.7277374863624573,1.2892849445343018
1758273896374110000,3.58310986328125,-0.34142443537712097,0.7263141870498657,1.307370662689209
1758273896384067800,3.59306787109375,-0.24195218086242676,0.7190221548080444,1.2875757217407227
1758273896394025000,3.60302490234375,-0.08583228290081024,0.7958373427391052,1.1837843656539917
1758273896403982800,3.61298291015625,0.030422421172261238,0.9617032408714294,1.0338650941848755
1758273896413941000,3.62294091796875,0.030953768640756607,1.1698791980743408,0.8515912294387817
1758273896423897900,3.63289794921875,-0.014293869957327843,1.2474792003631592,0.6807481050491333
1758273896433855700,3.642855712890625,-0.014346698299050331,1.126161813735962,0.6028637886047363
1758273896443814000,3.65281396484375,0.08250634372234344,0.9068769812583923,0.628963053226471
1758273896453770800,3.662770751953125,0.19094318151474,0.629880428314209,0.6751230359077454
1758273896463729000,3.67272900390625,0.2636256515979767,0.29041555523872375,0.7348753213882446
1758273896473686000,3.68268603515625,0.30264753103256226,-0.10367860645055771,0.763177752494812
1758273896483643600,3.6926435546875,0.3553310036659241,-0.4789012372493744,0.7271140217781067
1758273896493601800,3.702601806640625,0.3886941075325012,-0.7510294318199158,0.6272576451301575
1758273896503559000,3.712558837890625,0.4403248131275177,-0.9006479382514954,0.5156456828117371
1758273896513516800,3.722516845703125,0.46838870644569397,-0.9299275279045105,0.4427397549152374
1758273896523475000,3.732474853515625,0.46233853697776794,-0.8621237277984619,0.4500330686569214
1758273896533431800,3.742431884765625,0.3894771635532379,-0.6327076554298401,0.542920708656311
1758273896543389700,3.7523896484375,0.2652566730976105,-0.2514013350009918,0.6876803040504456
1758273896553346800,3.762346923828125,0.11959235370159149,0.3115461468696594,0.8304795622825623
1758273896563305000,3.772304931640625,0.013078433461487293,0.8926523923873901,0.8965075612068176
1758273896573262800,3.782262939453125,-0.03478493168950081,1.281507968902588,0.8646256923675537
1758273896583219700,3.7922197265625,-0.04935295507311821,1.3336883783340454,0.7693883776664734
1758273896593177900,3.802177734375,-0.01551938895136118,1.005745768547058,0.6422499418258667
1758273896603135000,3.812135009765625,0.0869891420006752,0.3001430630683899,0.4598005414009094
1758273896613092900,3.8220927734375,0.2479511946439743,-0.5602641701698303,0.19740359485149384
1758273896623051000,3.832051025390625,0.3599056899547577,-1.170298457145691,-0.16507314145565033
1758273896633007900,3.8420078125,0.34688350558280945,-1.32709801197052,-0.580079972743988
1758273896642965800,3.8519658203125,0.2788573205471039,-1.0775084495544434,-0.8900516629219055
1758273896652924000,3.861923828125,0.19070647656917572,-0.697333037853241,-1.0143266916275024
1758273896662881000,3.871881103515625,0.06091759726405144,-0.4838143587112427,-0.9726948738098145
1758273896672839000,3.8818388671875,0.016467588022351265,-0.5145964026451111,-0.958745539188385
1758273896682795800,3.891795654296875,0.11133711040019989,-0.6959211826324463,-1.1651922464370728
1758273896692753700,3.901753662109375,0.30612632632255554,-0.9036654233932495,-1.584421157836914
1758273896702711800,3.9117119140625,0.50994473695755,-0.9771414995193481,-2.097913980484009
1758273896712669000,3.9216689453125,0.7014822363853455,-0.947597861289978,-2.568044662475586
1758273896722626800,3.931626708984375,0.7817938327789307,-0.9101775288581848,-2.808668613433838
1758273896732583700,3.941583740234375,0.7873356342315674,-1.1987277269363403,-2.946859836578369
1758273896742541800,3.951541748046875,0.7454422116279602,-1.6405231952667236,-3.014514446258545
1758273896752499700,3.961499755859375,0.8103954195976257,-1.7829136848449707,-3.0878841876983643
1758273896762456800,3.971456787109375,0.8670075535774231,-1.642303228378296,-3.1037912368774414
1758273896772415000,3.9814150390625,0.8808954954147339,-1.4301221370697021,-3.1104605197906494
1758273896782372900,3.991372802734375,0.8415414094924927,-1.2107573747634888,-3.048449993133545
1758273896792329700,4.001329833984375,0.6727820634841919,-1.053959846496582,-2.8695409297943115
1758273896802287900,4.011287841796875,0.6048325300216675,-0.8984088897705078,-2.619065284729004
1758273896812245800,4.021245849609375,0.5826123356819153,-0.7695690393447876,-2.3581113815307617
1758273896822203000,4.031202880859375,0.5515779852867126,-0.7186816334724426,-2.123479127883911
1758273896832161000,4.0411611328125,0.585961639881134,-0.6717067360877991,-1.9668402671813965
1758273896842118000,4.051117919921875,0.6491627097129822,-0.4912126362323761,-1.9394994974136353
1758273896852075800,4.06107568359375,0.6905984282493591,-0.3055782914161682,-1.995767593383789
1758273896862034000,4.071033935546875,0.7377739548683167,-0.19253723323345184,-2.1324408054351807
1758273896871991000,4.080990966796875,0.746239423751831,-0.15058781206607819,-2.2627573013305664
1758273896881949000,4.090948974609375,0.7500067353248596,-0.10836206376552582,-2.305388927459717
1758273896891905800,4.10090576171875,0.6989896297454834,-0.18377795815467834,-2.2459912300109863
1758273896901864000,4.110864013671875,0.5746415853500366,-0.32097551226615906,-2.1656923294067383
1758273896911821800,4.12082177734375,0.4451552927494049,-0.5749819874763489,-2.0624823570251465
1758273896921779000,4.130779052734375,0.28786128759384155,-0.8169218897819519,-2.0348305702209473
1758273896931736800,4.14073681640625,0.1281031370162964,-0.9680179357528687,-2.0591325759887695
1758273896941695000,4.150695068359375,-0.025945814326405525,-1.068704605102539,-2.1241183280944824
1758273896951651800,4.16065185546875,-0.1900547593832016,-1.1803836822509766,-2.261735439300537
1758273896961609700,4.170609619140625,-0.4529779851436615,-1.3885579109191895,-2.3674538135528564
1758273896971566800,4.18056689453125,-0.6389176249504089,-1.6140950918197632,-2.458139181137085
1758273896981525000,4.19052490234375,-0.7590323090553284,-1.7455787658691406,-2.5428082942962646
1758273896991483000,4.20048291015625,-0.7398979067802429,-2.187627077102661,-2.656520128250122
1758273897001439700,4.210439697265625,-0.709480345249176,-2.3462576866149902,-2.697765350341797
1758273897011398000,4.22039794921875,-0.7195741534233093,-2.362921953201294,-2.6360726356506348
1758273897021355800,4.230355712890625,-0.7137922048568726,-2.302250623703003,-2.475226640701294
1758273897031313000,4.24031298828125,-0.7248106598854065,-2.0284979343414307,-2.190307140350342
1758273897041271000,4.25027099609375,-0.556735098361969,-1.7671760320663452,-1.9055771827697754
1758273897051228000,4.260227783203125,-0.4440572261810303,-1.35893714427948,-1.5836693048477173
1758273897061185800,4.270185791015625,-0.3770446181297302,-1.03848135471344,-1.3205296993255615
1758273897071144000,4.28014404296875,-0.3601645231246948,-0.8126102089881897,-1.114227294921875
1758273897081101000,4.29010107421875,-0.36356696486473083,-0.5885241031646729,-0.8858835697174072
1758273897091059000,4.300058837890625,-0.2850976884365082,-0.5271948575973511,-0.7069765329360962
1758273897101016800,4.310016845703125,-0.2242114543914795,-0.4592277705669403,-0.5038779973983765
1758273897110974000,4.319973876953125,-0.22769694030284882,-0.2954898476600647,-0.2881868779659271
1758273897120931800,4.329931884765625,-0.28924763202667236,-0.09993579983711243,-0.056663382798433304
1758273897130889000,4.339888916015625,-0.38375139236450195,0.0712926909327507,0.18262720108032227
1758273897140846800,4.349846923828125,-0.5128380060195923,0.25937098264694214,0.4107527732849121
1758273897150804700,4.3598046875,-0.6521845459938049,0.4598091244697571,0.6421046257019043
1758273897160761900,4.369761962890625,-0.7724891304969788,0.6179998517036438,0.8272984027862549
1758273897170719700,4.3797197265625,-0.8356751799583435,0.6708936095237732,0.9535950422286987
1758273897180676900,4.3896767578125,-0.830494225025177,0.49066251516342163,1.024248719215393
1758273897190635000,4.399635009765625,-0.7743644118309021,0.08443352580070496,1.0602413415908813
1758273897200592600,4.409592529296875,-0.6790168285369873,-0.3800675868988037,1.0873608589172363
1758273897210549800,4.4195498046875,-0.522681713104248,-0.6870906949043274,1.0869108438491821
1758273897220508000,4.4295078125,-0.323959082365036,-0.8911173343658447,0.9007481336593628
1758273897230465800,4.4394658203125,-0.24724675714969635,-0.8946157693862915,0.48576483130455017
1758273897240423000,4.4494228515625,-0.24588561058044434,-0.16720633208751678,0.10429205000400543
1758273897250380800,4.459380859375,-0.25269120931625366,0.9803100228309631,0.049252256751060486
1758273897260338000,4.469337890625,-0.29771727323532104,1.0319359302520752,0.523978054523468
1758273897270295800,4.4792958984375,-0.3470817506313324,-0.6659284234046936,0.8593310117721558
1758273897280254000,4.48925390625,-0.4136280417442322,-1.2074960470199585,1.257609486579895
1758273897290211000,4.499211181640625,-0.7508222460746765,0.06273647397756577,1.3677842617034912
1758273897300168700,4.509168701171875,-0.8397771120071411,1.318300485610962,1.4875181913375854
1758273897310126800,4.519126953125,-0.7712112069129944,1.6660770177841187,1.7630233764648438
1758273897320084000,4.529083984375,-0.6513077020645142,1.3141943216323853,1.760532021522522
1758273897330041300,4.539041259765625,-0.47880005836486816,0.8938616514205933,1.5902270078659058
1758273897339998200,4.548998291015625,-0.3535689115524292,0.983234167098999,1.5471473932266235
1758273897349956400,4.558956298828125,-0.27715399861335754,1.530439019203186,1.7879360914230347
1758273897359914200,4.568914306640625,-0.2931244373321533,2.057732343673706,2.0597286224365234
1758273897369871400,4.578871337890625,-0.35870492458343506,2.3418447971343994,2.167022943496704
1758273897379829500,4.58882958984375,-0.37897077202796936,2.0462327003479004,2.063098430633545
1758273897389787400,4.598787353515625,-0.362986296415329,1.185099482536316,1.7748321294784546
1758273897399744300,4.608744140625,-0.3165604770183563,0.4197768568992615,1.5803779363632202
1758273897409702400,4.618702392578125,-0.3211744725704193,0.0690791979432106,1.5860412120819092
1758273897419659300,4.6286591796875,-0.30273422598838806,0.13319560885429382,1.6593457460403442
1758273897429617400,4.638617431640625,-0.24172212183475494,0.3955570459365845,1.7341749668121338
1758273897439575600,4.648575439453125,-0.14495137333869934,0.835025429725647,1.7640875577926636
1758273897449532200,4.6585322265625,-0.049171220511198044,1.3124805688858032,1.789853572845459
1758273897459490300,4.668490234375,-0.00721365213394165,1.6448489427566528,1.874367117881775
1758273897469448400,4.678448486328125,0.007720452267676592,1.773117184638977,2.0159740447998047
1758273897479405300,4.6884052734375,0.01530779991298914,1.763033390045166,2.157492160797119
1758273897489363500,4.698363525390625,0.05409036949276924,1.7876394987106323,2.214712619781494
1758273897499320300,4.7083203125,0.10208718478679657,1.8645890951156616,2.158569574356079
1758273897509278200,4.7182783203125,0.13893350958824158,1.9871400594711304,1.97756826877594
1758273897519236400,4.728236328125,0.08236131817102432,2.0574707984924316,1.7905634641647339
1758273897529193500,4.738193359375,-0.033530838787555695,2.0675103664398193,1.729648470878601
1758273897539151400,4.7481513671875,-0.21296238899230957,2.1094396114349365,1.8324658870697021
1758273897549109200,4.758109130859375,-0.35227373242378235,2.1115472316741943,1.9697232246398926
1758273897559066400,4.76806640625,-0.4316883981227875,1.9754340648651123,2.042605400085449
1758273897569024300,4.778024169921875,-0.4784592390060425,1.7864078283309937,2.036547899246216
1758273897578981400,4.7879814453125,-0.47977590560913086,1.5345255136489868,1.9095511436462402
1758273897588939500,4.797939453125,-0.44369184970855713,1.187658429145813,1.6744779348373413
1758273897598897200,4.807897216796875,-0.44502314925193787,0.8425429463386536,1.3871697187423706
1758273897608854300,4.817854248046875,-0.4406859576702118,0.6197543144226074,1.0845026969909668
1758273897618812400,4.8278125,-0.4051460921764374,0.4680044651031494,0.8359090685844421
1758273897628770300,4.837770263671875,-0.40465301275253296,0.2853659689426422,0.6915298104286194
1758273897638727400,4.8477275390625,-0.37799397110939026,0.0586763471364975,0.663758397102356
1758273897648685300,4.857685302734375,-0.2637556791305542,-0.1546856164932251,0.7111532092094421
1758273897658642200,4.86764208984375,-0.173102468252182,-0.2790911793708801,0.7836593389511108
1758273897668600300,4.877600341796875,-0.16631287336349487,-0.23746223747730255,0.8375885486602783
1758273897678558500,4.887558349609375,-0.1367238312959671,-0.04156488925218582,0.7763582468032837
1758273897688515300,4.897515380859375,-0.11729525029659271,0.19974800944328308,0.6384995579719543
1758273897698473200,4.90747314453125,-0.09783419966697693,0.39973142743110657,0.5037505626678467
1758273897708430300,4.917430419921875,-0.10360150784254074,0.5593593716621399,0.43888625502586365
1758273897718388200,4.92738818359375,-0.049834683537483215,0.67836594581604,0.4713592529296875
1758273897728346400,4.937346435546875,0.04983356222510338,0.7466003894805908,0.5238995552062988
1758273897738303500,4.947303466796875,0.15267178416252136,0.7511131167411804,0.5299912691116333
1758273897748261000,4.95726123046875,0.19696469604969025,0.6909239292144775,0.463565856218338
1758273897758219300,4.96721923828125,0.22947363555431366,0.4961499571800232,0.42172732949256897
1758273897768176400,4.97717626953125,0.36144810914993286,0.23597469925880432,0.486415833234787
1758273897778134300,4.98713427734375,0.42687052488327026,-0.11809203773736954,0.5673277378082275
1758273897788091400,4.99709130859375,0.3612494170665741,-0.4803113639354706,0.6517526507377625
1758273897798049300,5.00704931640625,0.17112207412719727,-0.7218515872955322,0.8118810653686523
1758273897808007200,5.017007080078125,-0.00316393724642694,-0.8490712642669678,1.0380048751831055
1758273897817964300,5.02696435546875,-0.13749246299266815,-0.8619612455368042,1.2499970197677612
1758273897827922400,5.03692236328125,-0.23266096413135529,-0.6957072019577026,1.3462445735931396
1758273897837880300,5.04688037109375,-0.2826482355594635,-0.3199756145477295,1.267836332321167
1758273897847837200,5.056837158203125,-0.26166996359825134,0.1935810148715973,1.090858817100525
1758273897857795300,5.06679541015625,-0.15863893926143646,0.6818854808807373,0.9046000242233276
1758273897867752200,5.076752197265625,-0.02063477411866188,1.0340811014175415,0.7427802681922913
1758273897877710300,5.08671044921875,0.1428031623363495,1.316031813621521,0.5527434945106506
1758273897887668500,5.09666845703125,0.26697778701782227,1.6513404846191406,0.2550921142101288
1758273897897625300,5.106625244140625,0.3028438985347748,1.9469444751739502,-0.1263495236635208
1758273897907583200,5.116583251953125,0.26219484210014343,1.9708982706069946,-0.4959854781627655
1758273897917541400,5.126541259765625,0.16171829402446747,1.5574028491973877,-0.6880491375923157
1758273897927498200,5.136498291015625,0.0742979422211647,0.7102283239364624,-0.6315290927886963
1758273897937456400,5.146456298828125,0.031293224543333054,-0.3156421184539795,-0.4402545392513275
1758273897947413500,5.15641357421875,0.043207522481679916,-1.2427695989608765,-0.38224971294403076
1758273897957371100,5.16637109375,0.15692663192749023,-1.9194191694259644,-0.6122962832450867
1758273897967329300,5.176329345703125,0.36705532670021057,-2.240186929702759,-1.1365270614624023
1758273897977286400,5.186286376953125,0.5796464085578918,-2.0230302810668945,-1.718478798866272
1758273897987244300,5.196244384765625,0.752024233341217,-1.5352444648742676,-2.17643141746521
1758273897997202400,5.206202392578125,0.8647406697273254,-1.0479680299758911,-2.4110219478607178
1758273898007159300,5.2161591796875,0.8889204263687134,-0.7764864563941956,-2.528610944747925
1758273898017117200,5.2261171875,0.8288469314575195,-0.7123655080795288,-2.5963497161865234
1758273898027074300,5.23607421875,0.7710773348808289,-0.7441564798355103,-2.6320137977600098
1758273898037032400,5.246032470703125,0.7427394390106201,-0.8075658082962036,-2.679894208908081
1758273898046990300,5.255990234375,0.7108729481697083,-0.7984384894371033,-2.7298424243927
1758273898056947200,5.265947265625,0.7202158570289612,-0.6000596284866333,-2.725968599319458
1758273898066905300,5.2759052734375,0.654950737953186,-0.25906339287757874,-2.663200616836548
1758273898076863200,5.28586328125,0.56888747215271,-0.0546138621866703,-2.591684103012085
1758273898086820400,5.2958203125,0.5710907578468323,-0.19240394234657288,-2.4776768684387207
1758273898096778500,5.305778564453125,0.5495785474777222,-0.5348824858665466,-2.293492317199707
1758273898106735000,5.315735107421875,0.5176830887794495,-0.9528415203094482,-2.1390490531921387
1758273898116693200,5.325693359375,0.5703747868537903,-1.2437471151351929,-2.0731797218322754
1758273898126651400,5.3356513671875,0.6964871287345886,-1.4264012575149536,-2.090999126434326
1758273898136608300,5.345608154296875,0.8048761487007141,-1.5093762874603271,-2.1422998905181885
1758273898146566400,5.35556640625,0.8552306294441223,-1.4319239854812622,-2.2678215503692627
1758273898156523300,5.365523193359375,0.8775346279144287,-1.262693166732788,-2.507396697998047
1758273898166481200,5.375481201171875,0.9067047238349915,-1.1344166994094849,-2.7542243003845215
1758273898176439300,5.385439208984375,0.9161362648010254,-1.0657715797424316,-2.8867220878601074
1758273898186396400,5.395396484375,0.9526886940002441,-1.0008279085159302,-2.8361499309539795
1758273898196354300,5.405354248046875,0.9870504140853882,-0.9295015931129456,-2.565305233001709
1758273898206312400,5.4153125,0.9048504829406738,-0.7322361469268799,-2.2472972869873047
1758273898216269300,5.425269287109375,0.46676766872406006,-0.6401346921920776,-1.9629058837890625
1758273898226227200,5.435227294921875,-0.052772317081689835,-0.7199752330780029,-1.7423900365829468
1758273898236184300,5.445184326171875,-0.20345637202262878,-0.9331998825073242,-1.7228277921676636
1758273898246142500,5.455142578125,-0.3603077828884125,-1.2434837818145752,-1.8630988597869873
1758273898256100400,5.465100341796875,-0.4986613988876343,-1.5073095560073853,-2.0478246212005615
1758273898266057200,5.47505712890625,-0.5087870359420776,-2.1356780529022217,-2.397447109222412
1758273898276015400,5.485015380859375,-0.43051597476005554,-2.527289390563965,-2.684732437133789
1758273898285973200,5.49497314453125,-0.4433492422103882,-2.7624006271362305,-2.8123180866241455
1758273898295930400,5.504930419921875,-0.41210317611694336,-2.910317897796631,-2.8152503967285156
1758273898305888500,5.514888427734375,-0.309879332780838,-2.860719680786133,-2.672187566757202
1758273898315845400,5.524845458984375,-0.22899504005908966,-2.574086904525757,-2.269432306289673
1758273898325803300,5.53480322265625,-0.23798400163650513,-1.9857124090194702,-1.7387806177139282
1758273898335761700,5.54476171875,-0.21762733161449432,-1.3459100723266602,-1.3223778009414673
1758273898345718500,5.554718505859375,-0.16909240186214447,-0.89481121301651,-1.0722285509109497
1758273898355676700,5.5646767578125,-0.2416667342185974,-0.5886251926422119,-0.9212895631790161
1758273898365634600,5.574634521484375,-0.2944953143596649,-0.408478707075119,-0.7743757963180542
1758273898375591400,5.58459130859375,-0.2665238678455353,-0.2766972482204437,-0.6591256260871887
1758273898385549600,5.594549560546875,-0.22132891416549683,-0.14092330634593964,-0.5665231943130493
1758273898395506700,5.604506591796875,-0.2041667103767395,0.020824044942855835,-0.47224947810173035
1758273898405464600,5.614464599609375,-0.2352101057767868,0.16159766912460327,-0.36695554852485657
1758273898415422700,5.624422607421875,-0.2670617699623108,0.24428829550743103,-0.2615460455417633
1758273898425379600,5.634379638671875,-0.3134611248970032,0.3394821584224701,-0.1200297400355339
1758273898435337500,5.64433740234375,-0.38427191972732544,0.48154211044311523,0.04002197086811066
1758273898445294600,5.654294677734375,-0.47504568099975586,0.636216402053833,0.21189239621162415
1758273898455252700,5.664252685546875,-0.6056278944015503,0.8016312122344971,0.3853483200073242
1758273898465210600,5.674210693359375,-0.7281519174575806,0.9130154848098755,0.5546278953552246
1758273898475167500,5.68416748046875,-0.8354170918464661,0.8802863359451294,0.7082539796829224
1758273898485125600,5.694125732421875,-0.8980664610862732,0.7189524173736572,0.8301476836204529
1758273898495083500,5.70408349609375,-0.8946214318275452,0.44620585441589355,0.9113232493400574
1758273898505040600,5.71404052734375,-0.8111402988433838,0.1688235104084015,0.9581230282783508
1758273898514998800,5.723998779296875,-0.6047993302345276,-0.041046902537345886,0.9242915511131287
1758273898524955400,5.733955322265625,-0.39138638973236084,-0.16039647161960602,0.7519786953926086
1758273898534913500,5.74391357421875,-0.2632651627063751,-0.08867460489273071,0.5637803077697754
1758273898544871700,5.75387158203125,-0.2061736136674881,0.49066996574401855,0.5325900316238403
1758273898554828500,5.76382861328125,-0.21043120324611664,1.5079948902130127,1.0113449096679688
1758273898564786700,5.77378662109375,-0.23763656616210938,1.46943199634552,1.463924765586853
1758273898574744600,5.78374462890625,-0.18389290571212769,0.26318037509918213,1.5569673776626587
1758273898584701400,5.793701416015625,-0.20744581520557404,-0.3645630478858948,1.5108088254928589
1758273898594659600,5.80365966796875,-0.3668575882911682,-0.026358377188444138,1.2063101530075073
1758273898604616700,5.81361669921875,-0.5062881708145142,0.7459723949432373,1.4303532838821411
1758273898614574600,5.82357470703125,-0.5873915553092957,1.2395662069320679,1.721366286277771
1758273898624532700,5.83353271484375,-0.5418468117713928,1.4792367219924927,1.8383373022079468
1758273898634489600,5.843489501953125,-0.39437639713287354,1.69818913936615,1.877788782119751
1758273898644447500,5.853447509765625,-0.2248537838459015,1.7861603498458862,1.8367843627929688
1758273898654405600,5.863405517578125,-0.11125557869672775,1.9102219343185425,1.858804702758789
1758273898664362800,5.87336279296875,-0.072339728474617,2.1224279403686523,1.9850738048553467
1758273898674320600,5.883320556640625,-0.14086446166038513,2.203338861465454,2.1329281330108643
1758273898684277500,5.893277587890625,-0.2549653649330139,1.9614238739013672,2.1746976375579834
1758273898694235600,5.903235595703125,-0.3132329285144806,1.5109443664550781,2.1080784797668457
1758273898704193500,5.913193603515625,-0.28530749678611755,1.1213579177856445,1.9968481063842773
1758273898714150700,5.923150634765625,-0.2541317343711853,0.8206284046173096,1.8967952728271484
1758273898724108800,5.93310888671875,-0.21111415326595306,0.708856999874115,1.8469127416610718
1758273898734066700,5.943066650390625,-0.16467954218387604,0.8262962698936462,1.859980821609497
1758273898744023600,5.9530234375,-0.11170994490385056,1.0794724225997925,1.9280353784561157
1758273898753981700,5.962981689453125,-0.05200213938951492,1.3715746402740479,2.009059190750122
1758273898763938600,5.9729384765625,0.026238827034831047,1.7056692838668823,2.0706629753112793
1758273898773896700,5.982896728515625,0.1119779646396637,1.945590615272522,2.0929338932037354
1758273898783854800,5.992854736328125,0.18451498448848724,2.007338047027588,2.068127393722534
1758273898793811500,6.0028115234375,0.21539540588855743,2.0382416248321533,2.0254855155944824
1758273898803769600,6.01276953125,0.22772806882858276,1.9271886348724365,2.006380796432495
1758273898813727700,6.022727783203125,0.15615934133529663,1.8368574380874634,2.0044004917144775
1758273898823684600,6.0326845703125,0.010878223925828934,1.805337905883789,2.029252052307129
1758273898833642800,6.042642822265625,-0.2671371400356293,1.662346363067627,2.197049140930176
1758273898843599600,6.052599609375,-0.413222074508667,1.4383476972579956,2.306382894515991
1758273898853557500,6.0625576171875,-0.5219440460205078,1.1329563856124878,2.2650837898254395
1758273898863515600,6.072515625,-0.5775777697563171,0.9233680963516235,2.0458667278289795
1758273898873472800,6.08247265625,-0.5999538898468018,0.8129600882530212,1.7574210166931152
1758273898883430700,6.0924306640625,-0.6104092597961426,0.7017688751220703,1.4754520654678345
1758273898893388500,6.102388427734375,-0.550741970539093,0.6284597516059875,1.2074525356292725
1758273898903345700,6.112345703125,-0.3407919406890869,0.7335622310638428,0.9113237261772156
1758273898913303600,6.122303466796875,-0.31676092743873596,0.5785212516784668,0.8689754605293274
1758273898923260700,6.1322607421875,-0.3979441225528717,0.22720196843147278,0.9919869899749756
1758273898933218800,6.14221875,-0.4000091552734375,0.0007491176947951317,1.1299268007278442
1758273898943176400,6.152176513671875,-0.3799658417701721,-0.03153398260474205,1.1814472675323486
1758273898953133600,6.162133544921875,-0.28312185406684875,-0.04801229014992714,1.110461950302124
1758273898963091700,6.172091796875,-0.11084796488285065,-0.02632617950439453,0.9773098230361938
1758273898973049600,6.182049560546875,-0.028174126520752907,0.0788726732134819,0.8185853958129883
1758273898983006700,6.1920068359375,-0.03714170306921005,0.293908953666687,0.7561334371566772
1758273898992964600,6.201964599609375,-0.11825253069400787,0.5779379606246948,0.7730149626731873
1758273899002921500,6.21192138671875,-0.14537282288074493,0.6483404040336609,0.7980291247367859
1758273899012879600,6.221879638671875,-0.08009501546621323,0.633328914642334,0.7561711668968201
1758273899022837800,6.231837646484375,0.004864881280809641,0.6941515207290649,0.620419442653656
1758273899032794600,6.241794677734375,0.05323081463575363,0.7495764493942261,0.4647296965122223
1758273899042752500,6.25175244140625,0.08506883680820465,0.674190104007721,0.39772459864616394
1758273899052710700,6.261710693359375,0.15534967184066772,0.3934226334095001,0.3829682767391205
1758273899062667500,6.27166748046875,0.25199657678604126,0.05882546678185463,0.33498716354370117
1758273899072625700,6.281625732421875,0.3269040882587433,-0.24708066880702972,0.24806587398052216
1758273899082583600,6.29158349609375,0.3205264210700989,-0.6106875538825989,0.16336196660995483
1758273899092540400,6.30154052734375,0.20491380989551544,-0.8805972933769226,0.215457946062088
1758273899102498600,6.31149853515625,0.08537190407514572,-1.002480149269104,0.4204184412956238
1758273899112455700,6.32145556640625,-0.026476595550775528,-0.8663823008537292,0.7008980512619019
1758273899122413600,6.33141357421875,-0.11762195825576782,-0.4856235980987549,0.9196767807006836
1758273899132371700,6.341371826171875,-0.17930103838443756,-0.11006622761487961,0.9387455582618713
1758273899142328600,6.35132861328125,-0.20797757804393768,-0.008933616802096367,0.8332293629646301
1758273899152286500,6.361286376953125,-0.19406123459339142,-0.20613616704940796,0.7328284382820129
1758273899162244600,6.37124462890625,-0.1309037059545517,-0.47337689995765686,0.6788967847824097
1758273899172201700,6.38120166015625,-0.03912238031625748,-0.5824581384658813,0.6030493974685669
1758273899182159600,6.39115966796875,0.08313115686178207,-0.3722124695777893,0.4350723624229431
1758273899192116700,6.40111669921875,0.2575910985469818,-0.0032173944637179375,0.1545480340719223
1758273899202074600,6.41107470703125,0.3789135217666626,0.23253335058689117,-0.20590096712112427
1758273899212032500,6.421032470703125,0.3066207468509674,0.41208699345588684,-0.46910881996154785
1758273899221989600,6.43098974609375,0.11327899992465973,0.539357602596283,-0.49407729506492615
1758273899231947800,6.44094775390625,-0.010388096794486046,0.5388597249984741,-0.35991010069847107
1758273899241905700,6.45090576171875,0.008708037436008453,0.3316197097301483,-0.3131580054759979
1758273899251862500,6.460862548828125,0.08951207250356674,0.033547524362802505,-0.5092769265174866
1758273899261820700,6.470820556640625,0.1868349015712738,-0.18737420439720154,-0.8806203603744507
1758273899271778600,6.480778564453125,0.3311614394187927,-0.3632650673389435,-1.3110606670379639
1758273899281735700,6.490735595703125,0.5343915224075317,-0.49935469031333923,-1.757126808166504
1758273899291693600,6.500693603515625,0.6824781894683838,-0.5720073580741882,-2.137725353240967
1758273899301650400,6.510650390625,0.7623016238212585,-0.5558837652206421,-2.3789665699005127
1758273899311608600,6.520608642578125,0.7892389297485352,-0.4681704640388489,-2.5094077587127686
1758273899321566500,6.53056640625,0.7196980118751526,-0.3874433636665344,-2.6083831787109375
1758273899331523000,6.540523193359375,0.7406336665153503,-0.3440311551094055,-2.725492477416992
1758273899341481200,6.550481201171875,0.6972731947898865,-0.3597128093242645,-2.805959463119507
1758273899351439400,6.560439453125,0.5851905941963196,-0.24805152416229248,-2.7511749267578125
1758273899361396000,6.57039599609375,0.5630891919136047,-0.10127873718738556,-2.6613266468048096
1758273899371354000,6.58035400390625,0.5663185119628906,0.15268003940582275,-2.5406644344329834
1758273899381311200,6.590311279296875,0.5777801871299744,0.2582896947860718,-2.437711238861084
1758273899391269000,6.60026904296875,0.5489746332168579,-0.0850365087389946,-2.3514068126678467
1758273899401227300,6.610227294921875,0.6038774251937866,-0.6257020235061646,-2.2331809997558594
1758273899411184000,6.62018408203125,0.6171833872795105,-1.13082754611969,-2.1100704669952393
1758273899421142000,6.63014208984375,0.580524742603302,-1.492052674293518,-2.056626796722412
1758273899431100200,6.64010009765625,0.6324704885482788,-1.6486783027648926,-2.17749285697937
1758273899441057300,6.650057373046875,0.7771579027175903,-1.5936640501022339,-2.4012680053710938
1758273899451015200,6.66001513671875,0.9457447528839111,-1.4321461915969849,-2.5856940746307373
1758273899460973000,6.66997314453125,1.082848310470581,-1.2489370107650757,-2.665282964706421
1758273899470930200,6.67993017578125,1.1916192770004272,-1.3055270910263062,-2.5849266052246094
1758273899480888000,6.68988818359375,1.0355708599090576,-1.5523183345794678,-2.3597257137298584
1758273899490845200,6.69984521484375,0.6905155181884766,-2.3350813388824463,-1.9206159114837646
1758273899500803300,6.70980322265625,0.44365498423576355,-2.6307263374328613,-1.823498010635376
1758273899510761000,6.719760986328125,0.20723021030426025,-2.4364795684814453,-2.0943238735198975
1758273899520718000,6.729718017578125,-0.000350920541677624,-2.4851741790771484,-2.3501789569854736
1758273899530676200,6.73967626953125,-0.14292165637016296,-2.4827656745910645,-2.670921564102173
1758273899540634000,6.749634033203125,-0.2861974537372589,-2.1848673820495605,-3.0687942504882812
1758273899550591200,6.75959130859375,-0.30261024832725525,-2.1924140453338623,-3.3756256103515625
1758273899560549000,6.769549072265625,-0.31049272418022156,-2.3487915992736816,-3.407771348953247
1758273899570507000,6.779507080078125,-0.2842664420604706,-2.4453628063201904,-3.2093393802642822
1758273899580464000,6.789464111328125,-0.17942924797534943,-2.6041300296783447,-2.9611082077026367
1758273899590422300,6.79942236328125,-0.03072100132703781,-2.5674338340759277,-2.550686836242676
1758273899600379100,6.809379150390625,-0.010046271607279778,-2.305826187133789,-2.0350444316864014
1758273899610337000,6.8193369140625,-0.18524952232837677,-1.7486255168914795,-1.6391386985778809
1758273899620295200,6.829295166015625,-0.2523255944252014,-1.4022504091262817,-1.3593732118606567
1758273899630252000,6.839251953125,-0.1998586654663086,-1.2318507432937622,-1.1828328371047974
1758273899640210200,6.849210205078125,-0.13875068724155426,-1.1303362846374512,-1.0261139869689941
1758273899650168000,6.85916796875,-0.13010980188846588,-0.9616565108299255,-0.8697640895843506
1758273899660125000,6.869125,-0.18551278114318848,-0.6875268816947937,-0.7377520799636841
1758273899670083000,6.8790830078125,-0.27769944071769714,-0.37332555651664734,-0.6051862835884094
1758273899680041000,6.889041015625,-0.381366491317749,-0.038111358880996704,-0.4636848568916321
1758273899689998000,6.898998046875,-0.3622165024280548,0.12841157615184784,-0.31506264209747314
1758273899699956200,6.908956298828125,-0.3879832625389099,0.2976647913455963,-0.15727700293064117
1758273899709913000,6.9189130859375,-0.45092788338661194,0.5345809459686279,0.005169969983398914
1758273899719871000,6.92887109375,-0.4889742136001587,0.7684433460235596,0.13407771289348602
1758273899729829000,6.9388291015625,-0.4913015365600586,0.8096855878829956,0.2118457406759262
1758273899739786200,6.9487861328125,-0.4948960244655609,0.6193647980690002,0.26045888662338257
1758273899749744000,6.958744140625,-0.5048855543136597,0.31019628047943115,0.29810425639152527
1758273899759702300,6.968702392578125,-0.5274909734725952,0.016947241500020027,0.30902910232543945
1758273899769659100,6.9786591796875,-0.5356783270835876,-0.19034603238105774,0.2207445353269577
1758273899779617000,6.988616943359375,-0.5635043382644653,-0.39514949917793274,0.08828876167535782
1758273899789575200,6.9985751953125,-0.6150788068771362,-0.3969573974609375,-0.15413804352283478
1758273899799532300,7.0085322265625,-0.6130237579345703,0.1293504685163498,-0.1435784101486206
1758273899809490200,7.018490234375,-0.7057508230209351,0.9320607781410217,0.6341617703437805
1758273899819448300,7.0284482421875,-0.7329789996147156,1.3907665014266968,1.2975867986679077
1758273899829405200,7.0384052734375,-0.5109256505966187,1.822075366973877,1.8866065740585327
1758273899839363000,7.048363037109375,-0.1616852581501007,1.5525983572006226,1.5882394313812256
1758273899849320200,7.0583203125,0.1409369260072708,0.5126947164535522,0.8573194146156311
1758273899859278000,7.068278076171875,0.09076381474733353,0.49490195512771606,1.1956818103790283
1758273899869236200,7.078236328125,-0.05578647553920746,1.0152878761291504,1.7553493976593018
1758273899879193000,7.088193115234375,-0.09700031578540802,1.4256808757781982,2.005690097808838
1758273899889151000,7.09815087890625,-0.010729608125984669,1.4432176351547241,2.055868625640869
1758273899899109000,7.108109130859375,0.07280249893665314,1.3968727588653564,1.9292576313018799
1758273899909066200,7.118066162109375,0.09924529492855072,1.6918522119522095,1.872979760169983
1758273899919024000,7.128024169921875,0.12112937867641449,2.152130126953125,1.9866989850997925
1758273899928982000,7.13798193359375,0.1653170883655548,2.482078790664673,2.104024648666382
1758273899938939100,7.147939208984375,0.21081945300102234,2.553384780883789,2.1108176708221436
1758273899948897000,7.15789697265625,0.22999927401542664,2.3239080905914307,2.0105390548706055
1758273899958855200,7.167855224609375,0.1643807590007782,1.9118976593017578,1.891926884651184
1758273899968812300,7.177812255859375,0.026533937081694603,1.5063745975494385,1.862776279449463
1758273899978770000,7.18777001953125,-0.1590142697095871,1.226744532585144,1.9230787754058838
1758273899988727000,7.19772705078125,-0.3620089292526245,1.0759550333023071,2.014263391494751
1758273899998685200,7.207685302734375,-0.563273549079895,1.116390347480774,2.068756341934204
1758273900008643000,7.21764306640625,-0.7186644673347473,1.3388389348983765,2.075122356414795
1758273900018600200,7.22760009765625,-0.8226048946380615,1.61661696434021,2.052318811416626
1758273900028558000,7.23755810546875,-0.84245365858078,1.8817481994628906,2.0008745193481445
1758273900038516000,7.247515869140625,-0.8230229020118713,2.0753445625305176,1.9521002769470215
1758273900048473000,7.25747314453125,-0.7519122362136841,2.154261827468872,1.9422191381454468
1758273900058431200,7.26743115234375,-0.5911797881126404,2.1743576526641846,1.9165090322494507
1758273900068389000,7.27738916015625,-0.37831470370292664,2.0892903804779053,1.8725535869598389
1758273900078346000,7.287345947265625,-0.14163224399089813,1.9393411874771118,1.7709221839904785
1758273900088304000,7.29730419921875,0.015773896127939224,1.7428102493286133,1.6869902610778809
1758273900098262000,7.307261962890625,0.07534848153591156,1.539893627166748,1.6903843879699707
1758273900108219100,7.31721923828125,0.14408627152442932,1.3814735412597656,1.7307286262512207
1758273900118177300,7.32717724609375,0.12348340451717377,1.2947700023651123,1.7545968294143677
1758273900128135200,7.33713525390625,0.05509502440690994,1.2993274927139282,1.6945126056671143
1758273900138092000,7.347092041015625,-0.048975538462400436,1.383183240890503,1.5730255842208862
1758273900148050200,7.35705029296875,-0.12101803719997406,1.3712512254714966,1.4466098546981812
1758273900158007000,7.367007080078125,-0.20447510480880737,1.142764925956726,1.4154795408248901
1758273900167965200,7.376965087890625,-0.29609158635139465,0.7179094552993774,1.438854455947876
1758273900177923300,7.38692333984375,-0.3392060101032257,0.5439363718032837,1.3850610256195068
1758273900187880000,7.3968798828125,-0.37423375248908997,0.618045449256897,1.2766282558441162
1758273900197838000,7.406838134765625,-0.3714510202407837,0.7170175909996033,1.1642080545425415
1758273900207796200,7.416796142578125,-0.3419540822505951,0.7854471206665039,1.0846775770187378
1758273900217753000,7.426753173828125,-0.33076855540275574,0.7584823369979858,1.05418062210083
1758273900227711200,7.436711181640625,-0.29236435890197754,0.7530124187469482,1.076910138130188
1758273900237669000,7.446669189453125,-0.2112048715353012,0.7602823376655579,1.0821597576141357
1758273900247626000,7.4566259765625,-0.1124897450208664,0.7182203531265259,1.0185469388961792
1758273900257584000,7.466584228515625,-0.11631211638450623,0.7126795053482056,0.9055535793304443
1758273900267542000,7.4765419921875,-0.16204018890857697,0.7361422181129456,0.8049180507659912
1758273900277499100,7.4864990234375,-0.1694614142179489,0.7001845240592957,0.7429258227348328
1758273900287457300,7.496457275390625,-0.11228734254837036,0.6445364356040955,0.7244208455085754
1758273900297415000,7.506414794921875,-0.03374281898140907,0.5788183212280273,0.7260821461677551
1758273900307372000,7.5163720703125,0.0405748225748539,0.5099945068359375,0.6907989978790283
1758273900317330200,7.526330078125,0.12761014699935913,0.37339869141578674,0.6065863370895386
1758273900327287300,7.536287353515625,0.21253542602062225,0.21309076249599457,0.5126827359199524
1758273900337246000,7.546245849609375,0.2660539448261261,0.005438107997179031,0.45647838711738586
1758273900347204000,7.5562041015625,0.281750351190567,-0.2476562112569809,0.4485328495502472
1758273900357161000,7.566160888671875,0.2918560206890106,-0.4777461290359497,0.4599821865558624
1758273900367119000,7.576119140625,0.2551456689834595,-0.5952107310295105,0.4578056037425995
1758273900377077000,7.586076904296875,0.20213842391967773,-0.5738713145256042,0.43961992859840393
1758273900387033900,7.596033935546875,0.1267419308423996,-0.4260472357273102,0.45039987564086914
1758273900396992000,7.605991943359375,0.06416346877813339,-0.24222029745578766,0.5097354650497437
1758273900406950000,7.615949951171875,0.03531930595636368,-0.10585793107748032,0.5724494457244873
1758273900416907000,7.625906982421875,0.016475491225719452,-0.01361081562936306,0.5629264712333679
1758273900426865200,7.635865234375,-0.028588123619556427,0.09400220215320587,0.47441259026527405
1758273900436822800,7.64582275390625,-0.07558300346136093,0.24028390645980835,0.3678358793258667
1758273900446780000,7.65577978515625,-0.11098413914442062,0.38891544938087463,0.2908729314804077
1758273900456738000,7.665738037109375,-0.10519501566886902,0.6362811326980591,0.3064587414264679
1758273900466696000,7.675696044921875,-0.037364039570093155,0.9643058776855469,0.35572561621665955
1758273900476653000,7.685653076171875,0.04001898691058159,1.211958408355713,0.29862019419670105
1758273900486611000,7.69561083984375,0.13399262726306915,1.2733339071273804,0.09701996296644211
1758273900496568800,7.70556884765625,0.2398661971092224,1.1293549537658691,-0.19996951520442963
1758273900506526000,7.71552587890625,0.290253221988678,0.6562113761901855,-0.474246084690094
1758273900516484000,7.725484130859375,0.3029719889163971,-0.23731714487075806,-0.6002779603004456
1758273900526441200,7.735441162109375,0.3625439703464508,-1.2916775941848755,-0.60987389087677
1758273900536398800,7.74539892578125,0.4503452479839325,-2.2583940029144287,-0.787726879119873
1758273900546357000,7.75535693359375,0.5864378809928894,-2.7472054958343506,-1.1813995838165283
1758273900556314000,7.765314208984375,0.7106780409812927,-2.717125177383423,-1.69157075881958
1758273900566272000,7.77527197265625,0.8373997211456299,-2.3866851329803467,-2.166256904602051
1758273900576230100,7.785230224609375,0.9470949172973633,-1.9000533819198608,-2.5109567642211914
1758273900586187000,7.79518701171875,0.9910586476325989,-1.4475314617156982,-2.7267446517944336
1758273900596145000,7.805144775390625,0.9563895463943481,-1.1506879329681396,-2.79732346534729
1758273900606103000,7.81510302734375,0.9297307729721069,-1.0358915328979492,-2.77254056930542
1758273900616060000,7.825059814453125,0.9102832078933716,-1.0513906478881836,-2.742591619491577
1758273900626018000,7.83501806640625,0.8660180568695068,-1.1018606424331665,-2.7644519805908203
1758273900635976200,7.84497607421875,0.7883844375610352,-1.0348740816116333,-2.8335845470428467
1758273900645932800,7.854932861328125,0.7055937051773071,-0.7434456944465637,-2.851214647293091
1758273900655891000,7.864890869140625,0.6698464155197144,-0.2658257782459259,-2.7158656120300293
1758273900665849000,7.87484912109375,0.6168050169944763,0.13014447689056396,-2.500805377960205
1758273900675806000,7.884805908203125,0.49415600299835205,0.18393035233020782,-2.294961452484131
1758273900685764000,7.89476416015625,0.4060567617416382,0.08371268212795258,-2.1499783992767334
1758273900695722000,7.904721923828125,0.4340406358242035,-0.053552642464637756,-2.018200635910034
1758273900705678800,7.914678955078125,0.4788917303085327,-0.4405003488063812,-1.9268386363983154
1758273900715637000,7.924636962890625,0.5251794457435608,-1.0960097312927246,-1.9122236967086792
1758273900725594000,7.934593994140625,0.6819040775299072,-1.5723611116409302,-2.1500277519226074
1758273900735552000,7.944552001953125,0.8334399461746216,-1.996246099472046,-2.4460575580596924
1758273900745510100,7.95451025390625,0.9744074940681458,-2.572054147720337,-2.5806193351745605
1758273900755467000,7.964467041015625,0.8890124559402466,-3.0359175205230713,-2.5351123809814453
1758273900765425000,7.9744248046875,0.5748417377471924,-3.076890230178833,-2.513662099838257
1758273900775383000,7.984383056640625,0.22525924444198608,-2.7351090908050537,-2.547116994857788
1758273900785340200,7.994340087890625,0.008163148537278175,-2.143465280532837,-2.548830986022949
1758273900795298000,8.004298095703126,-0.10773622989654541,-1.8112449645996094,-2.493499994277954
1758273900805256000,8.014255859375,-0.3050397038459778,-1.614855408668518,-2.4586057662963867
1758273900815213000,8.024213134765626,-0.5528084635734558,-1.7985680103302002,-2.4617912769317627
1758273900825171000,8.0341708984375,-0.7380180358886719,-1.944573163986206,-2.634605646133423
1758273900835129000,8.044129150390624,-0.7143035531044006,-2.3989369869232178,-2.926774740219116
1758273900845086200,8.054086181640624,-0.6488624811172485,-2.567514419555664,-2.980360269546509
1758273900855043800,8.0640439453125,-0.666309118270874,-2.6832005977630615,-2.8475229740142822
1758273900865002000,8.074001953125,-0.5391207933425903,-2.710730791091919,-2.6901695728302
1758273900874959000,8.083958984375,-0.41276395320892334,-2.5521464347839355,-2.3760132789611816
1758273900884917000,8.0939169921875,-0.346625417470932,-2.231605052947998,-2.023334503173828
1758273900894875100,8.103875244140625,-0.29964929819107056,-1.726205825805664,-1.7540273666381836
1758273900904832000,8.11383203125,-0.2692711651325226,-1.3332233428955078,-1.5360231399536133
1758273900914790000,8.123789794921874,-0.29112204909324646,-1.0104869604110718,-1.3388952016830444
1758273900924748000,8.133748046875,-0.32240352034568787,-0.7384544014930725,-1.0926978588104248
1758273900934705000,8.143704833984375,-0.3137345314025879,-0.48109400272369385,-0.8866232633590698
1758273900944663000,8.1536630859375,-0.3986446261405945,-0.27329713106155396,-0.6876819133758545
1758273900954620000,8.163619873046875,-0.40845102071762085,-0.07158809900283813,-0.5190023183822632
1758273900964577800,8.173577880859375,-0.39642736315727234,0.010754179209470749,-0.3474544882774353
1758273900974536000,8.183535888671875,-0.4464414417743683,0.15045122802257538,-0.1594199538230896
1758273900984493000,8.1934931640625,-0.5051449537277222,0.3163357973098755,0.04891860857605934
1758273900994451000,8.203450927734375,-0.5559180974960327,0.49701955914497375,0.2562634348869324
1758273901004409000,8.2134091796875,-0.6338000893592834,0.7132636904716492,0.4686526358127594
1758273901014366000,8.223365966796875,-0.6984229683876038,0.9175578355789185,0.6794893145561218
1758273901024323800,8.23332373046875,-0.7664638161659241,1.1350488662719727,0.8897147178649902
1758273901034282000,8.243281982421875,-0.7962589263916016,1.3220868110656738,1.0702307224273682
1758273901044239000,8.253239013671875,-0.8002174496650696,1.3488609790802002,1.2261779308319092
1758273901054197000,8.263197021484375,-0.7520155310630798,1.1433289051055908,1.3349125385284424
1758273901064155100,8.273155029296875,-0.6130078434944153,0.5999916195869446,1.310066819190979
1758273901074112000,8.283112060546875,-0.42069318890571594,-0.15714602172374725,0.9813228845596313
1758273901084070000,8.29306982421875,-0.22964680194854736,-0.9292573928833008,0.3840762674808502
1758273901094028000,8.303028076171875,-0.055523987859487534,-1.0182796716690063,-0.23288217186927795
1758273901103985200,8.312985107421875,-0.015941422432661057,-0.16640742123126984,0.09613540023565292
1758273901113943000,8.322943115234375,-0.2421400398015976,0.5899370312690735,0.7931647896766663
1758273901123901000,8.33290087890625,-0.42351675033569336,0.6868653893470764,1.316185712814331
1758273901133858000,8.342858154296875,-0.6733291745185852,1.3003530502319336,1.9102333784103394
1758273901143816000,8.35281591796875,-0.8066515326499939,1.3021050691604614,1.6703119277954102
1758273901153774000,8.362774169921876,-0.7875961065292358,0.8459796905517578,1.2785800695419312
1758273901163731200,8.372731201171876,-0.7553369402885437,1.2300575971603394,1.4686024188995361
1758273901173688800,8.382688720703126,-0.6594573259353638,1.6135444641113281,1.734815001487732
1758273901183646000,8.39264599609375,-0.47646620869636536,1.527678370475769,1.8771796226501465
1758273901193604000,8.40260400390625,-0.2939464747905731,1.4046608209609985,1.9213653802871704
1758273901203562000,8.41256201171875,-0.1559906005859375,1.6617132425308228,1.9727979898452759
1758273901213519000,8.42251904296875,-0.08086922764778137,1.9571453332901,1.977951169013977
1758273901223477000,8.43247705078125,-0.08545392006635666,2.0371861457824707,1.8978700637817383
1758273901233435000,8.442434814453126,-0.08251591771841049,1.828914999961853,1.7949689626693726
1758273901243392000,8.45239208984375,-0.15669028460979462,1.471541166305542,1.7543879747390747
1758273901253350100,8.46235009765625,-0.31065070629119873,1.1388523578643799,1.8653392791748047
1758273901263308000,8.47230810546875,-0.4352877140045166,1.018122911453247,2.001667022705078
1758273901273265000,8.482264892578126,-0.4560666084289551,1.1735249757766724,2.0670673847198486
1758273901283223000,8.49222314453125,-0.3751789331436157,1.3973718881607056,2.0307836532592773
1758273901293181000,8.502180908203124,-0.2673669159412384,1.6059801578521729,1.9463852643966675
1758273901303138000,8.512137939453124,-0.22210142016410828,1.6874260902404785,1.870240330696106
1758273901313096000,8.522095947265624,-0.1949484795331955,1.7402122020721436,1.8180608749389648
1758273901323054000,8.53205419921875,-0.16650699079036713,1.7486703395843506,1.8153343200683594
1758273901333010700,8.5420107421875,-0.1328410804271698,1.660487413406372,1.8305431604385376
1758273901342968600,8.551968505859374,-0.09880854934453964,1.6078768968582153,1.8481320142745972
1758273901352926500,8.561926513671875,-0.03601822257041931,1.5645970106124878,1.861845850944519
1758273901362883600,8.571883544921874,0.027383118867874146,1.5379376411437988,1.8452212810516357
1758273901372841500,8.581841552734375,-0.11192396283149719,1.6809552907943726,1.8071650266647339
1758273901382799600,8.591799560546875,-0.36506542563438416,1.916871428489685,1.8097504377365112
1758273901392756500,8.601756591796875,-0.549010157585144,2.094716787338257,1.8318887948989868
1758273901402714400,8.61171435546875,-0.6816645860671997,2.1494948863983154,1.8653969764709473
1758273901412672500,8.621672607421875,-0.7405115365982056,2.121093511581421,1.8597339391708374
1758273901422629600,8.631629638671875,-0.7111530900001526,2.1773126125335693,1.738277554512024
1758273901432587500,8.64158740234375,-0.5906811952590942,1.9213886260986328,1.6044514179229736
1758273901442545700,8.651545654296875,-0.43754780292510986,1.2909786701202393,1.5418347120285034
1758273901452502500,8.66150244140625,-0.3262312412261963,0.6324694156646729,1.5387604236602783
1758273901462460400,8.67146044921875,-0.26865503191947937,0.2706928253173828,1.486454963684082
1758273901472417500,8.68141748046875,-0.24413275718688965,0.18536818027496338,1.2672747373580933
1758273901482375700,8.691375732421875,-0.18349869549274445,0.2809615731239319,0.9273363351821899
1758273901492333600,8.70133349609375,-0.14309996366500854,0.3873080909252167,0.6615247130393982
1758273901502290400,8.71129052734375,-0.11299745738506317,0.2861524522304535,0.5760500431060791
1758273901512248600,8.72124853515625,-0.05830961465835571,0.14393392205238342,0.6530702710151672
1758273901522206500,8.73120654296875,-0.06831617653369904,0.17200204730033875,0.8428210616111755
1758273901532163600,8.74116357421875,-0.07609767466783524,0.5168026089668274,1.0303301811218262
1758273901542121700,8.751121826171875,-0.13196466863155365,0.9763334393501282,1.093552827835083
1758273901552079600,8.76107958984375,-0.15174277126789093,1.364985466003418,1.0120434761047363
1758273901562036500,8.771036376953125,-0.1017584353685379,1.7276324033737183,0.88978111743927
1758273901571994600,8.78099462890625,-0.021679114550352097,1.9545377492904663,0.7917316555976868
1758273901581952500,8.790952392578125,0.043213069438934326,1.8751153945922852,0.7252538204193115
1758273901591909600,8.80090966796875,0.09728313982486725,1.3722907304763794,0.6756879091262817
1758273901601867800,8.81086767578125,0.19038137793540955,0.5853487253189087,0.59677654504776
1758273901611825400,8.820825439453126,0.3139817714691162,-0.2652357220649719,0.4487164616584778
1758273901621782500,8.830782470703125,0.45223790407180786,-1.0176124572753906,0.3350120186805725
1758273901631740700,8.84074072265625,0.5230244398117065,-1.585074782371521,0.29731276631355286
1758273901641698600,8.850698486328126,0.5040669441223145,-1.9396659135818481,0.32104846835136414
1758273901651655700,8.86065576171875,0.4277082681655884,-1.9832570552825928,0.3853969871997833
1758273901661613600,8.870613525390626,0.29373663663864136,-1.7963987588882446,0.440339595079422
1758273901671571500,8.880571533203126,0.1465359330177307,-1.427135944366455,0.4678780436515808
1758273901681528600,8.890528564453126,0.034512460231781006,-0.84256511926651,0.49168750643730164
1758273901691486700,8.90048681640625,0.002411692403256893,-0.05744245648384094,0.499149888753891
1758273901701444600,8.910444580078124,0.02354121394455433,0.8509825468063354,0.43322253227233887
1758273901711401500,8.9204013671875,0.043143998831510544,1.660605788230896,0.3601774275302887
1758273901721359600,8.930359619140624,0.027889415621757507,2.1372547149658203,0.28341102600097656
1758273901731317500,8.9403173828125,-0.010018020868301392,2.1017205715179443,0.16577433049678802
1758273901741274600,8.950274658203124,0.0678488165140152,1.5722630023956299,0.06475210934877396
1758273901751232500,8.960232421875,0.15994669497013092,0.7091852426528931,-0.07727067172527313
1758273901761189400,8.970189453125,0.15728193521499634,-0.2520574927330017,-0.2170666605234146
1758273901771147500,8.9801474609375,0.05947855859994888,-1.0541832447052002,-0.22726431488990784
1758273901781105400,8.99010546875,0.001496748416684568,-1.627427577972412,-0.10069038718938828
1758273901791062500,9.0000625,0.07811838388442993,-2.0698273181915283,-0.17378030717372894
1758273901801020700,9.010020751953125,0.26914772391319275,-2.2730276584625244,-0.5985174775123596
1758273901810978600,9.019978515625,0.49205729365348816,-2.0783088207244873,-1.1757326126098633
1758273901820935400,9.029935302734375,0.6970599889755249,-1.6445403099060059,-1.693169116973877
1758273901830893600,9.0398935546875,0.8473690152168274,-1.2140792608261108,-2.0686774253845215
1758273901840851500,9.0498515625,0.9123647809028625,-0.8551543951034546,-2.272228479385376
1758273901850808600,9.05980859375,0.9421591758728027,-0.5495479702949524,-2.3697807788848877
1758273901860766700,9.0697666015625,0.9951768517494202,-0.44193899631500244,-2.4938416481018066
1758273901870724600,9.079724609375,1.0138410329818726,-0.5263726711273193,-2.6747822761535645
1758273901880681500,9.089681396484375,0.9873671531677246,-0.7631521821022034,-2.8882787227630615
1758273901890639600,9.0996396484375,0.8835121393203735,-1.1050851345062256,-3.070094108581543
1758273901900597500,9.109597412109375,0.7635548114776611,-1.3349010944366455,-3.154987335205078
1758273901910554600,9.1195546875,0.6634279489517212,-1.37986421585083,-3.191127300262451
1758273901920512800,9.1295126953125,0.6206339001655579,-1.040070652961731,-3.086625099182129
1758273901930470400,9.139470458984375,0.6698896884918213,-0.572577178478241,-2.8687644004821777
1758273901940427500,9.149427490234375,0.7594466805458069,-0.1304607391357422,-2.577336072921753
1758273901950385700,9.1593857421875,0.7036802768707275,0.16294623911380768,-2.231625556945801
1758273901960343600,9.169343505859375,0.5655900239944458,0.17758776247501373,-1.968882441520691
1758273901970300700,9.17930078125,0.48869651556015015,0.1364079862833023,-1.8468296527862549
1758273901980258600,9.189258544921875,0.4630071222782135,0.24348996579647064,-1.7969398498535156
1758273901990216400,9.199216552734375,0.48162513971328735,0.3253973126411438,-1.8231264352798462
1758273902000173600,9.209173583984375,0.4637340009212494,0.13753049075603485,-1.8706446886062622
1758273902010131700,9.219131591796875,0.4544272720813751,-0.3104180097579956,-1.9940494298934937
1758273902020089600,9.229089599609376,0.476517915725708,-0.8693196177482605,-2.1681699752807617
1758273902030046500,9.23904638671875,0.5014373660087585,-1.6471996307373047,-2.256051778793335
1758273902040004600,9.249004638671876,0.47428029775619507,-2.478849411010742,-2.37611722946167
1758273902049961500,9.25896142578125,0.345926970243454,-3.1386072635650635,-2.4987802505493164
1758273902059919600,9.268919677734376,0.1480834186077118,-3.2682223320007324,-2.6890461444854736
1758273902069877500,9.27887744140625,0.07700316607952118,-3.213597297668457,-2.957874298095703
1758273902079834400,9.28883447265625,0.14788292348384857,-2.970679521560669,-3.131289005279541
1758273902089792500,9.29879248046875,0.14471064507961273,-2.3692426681518555,-3.1564950942993164
1758273902099750400,9.30875048828125,0.01154352631419897,-2.129178285598755,-3.2233457565307617
1758273902109707500,9.31870751953125,0.07638507336378098,-2.49476957321167,-3.160752296447754
1758273902119665700,9.328665771484374,0.04164201021194458,-2.65751576423645,-2.8350625038146973
1758273902129623600,9.33862353515625,-0.08584833145141602,-2.3471832275390625,-2.4416284561157227
1758273902139580400,9.348580322265626,-0.16257081925868988,-2.210113286972046,-2.2885098457336426
1758273902149538600,9.35853857421875,-0.14908349514007568,-2.3437445163726807,-2.0542120933532715
1758273902159496400,9.368496337890624,-0.19550612568855286,-2.09125018119812,-1.7339304685592651
1758273902169453600,9.37845361328125,-0.20995812118053436,-1.726062536239624,-1.500954270362854
1758273902179411700,9.38841162109375,-0.25026291608810425,-1.4438735246658325,-1.3213456869125366
1758273902189369600,9.39836962890625,-0.36952289938926697,-1.2042452096939087,-1.1339130401611328
1758273902199326500,9.408326416015624,-0.4108833968639374,-1.0856972932815552,-0.9631687998771667
1758273902209284600,9.41828466796875,-0.45493581891059875,-0.9011052250862122,-0.7672935724258423
1758273902219242500,9.428242431640625,-0.45714810490608215,-0.5430978536605835,-0.5654195547103882
1758273902229199600,9.43819970703125,-0.4659368693828583,-0.26786959171295166,-0.40136557817459106
1758273902239157800,9.44815771484375,-0.5191172361373901,0.00813242793083191,-0.2477901428937912
1758273902249115400,9.458115478515625,-0.5835533738136292,0.2631402015686035,-0.09098988771438599
1758273902259072500,9.468072509765625,-0.6709838509559631,0.5562402606010437,0.09368915110826492
1758273902269030700,9.47803076171875,-0.7659185528755188,0.7492315769195557,0.3013233244419098
1758273902278988500,9.487988525390625,-0.8504637479782104,0.8423364758491516,0.474355012178421
1758273902288945700,9.497945556640625,-0.9186734557151794,0.8758361339569092,0.6070311069488525
1758273902298903600,9.507903564453125,-0.9472182989120483,0.9478413462638855,0.7399790287017822
1758273902308860400,9.5178603515625,-0.9579973816871643,1.0646601915359497,0.8883510231971741
1758273902318818600,9.527818603515625,-0.9212713241577148,1.0166112184524536,1.0238056182861328
1758273902328776700,9.537776611328125,-0.8362317085266113,0.6777222156524658,1.1170387268066406
1758273902338734000,9.547734130859375,-0.712212860584259,0.15433518588542938,1.1638996601104736
1758273902348692200,9.557692138671875,-0.5458469986915588,-0.4273276925086975,1.0923525094985962
1758273902358649900,9.56764990234375,-0.361349880695343,-0.8812656402587891,0.7727532386779785
1758273902368607000,9.57760693359375,-0.22251343727111816,-0.9310128092765808,0.28517022728919983
1758273902378565000,9.587565185546875,-0.003433828242123127,-0.38286954164505005,-0.381099134683609
1758273902388523000,9.59752294921875,0.08344331383705139,0.4136514365673065,0.08189759403467178
1758273902398480100,9.607480224609375,-0.053086038678884506,0.14473634958267212,0.6195213794708252
1758273902408438000,9.61743798828125,-0.07953968644142151,-0.10425656288862228,0.9160753488540649
1758273902418396000,9.62739599609375,-0.5924394726753235,1.2742937803268433,1.2438169717788696
1758273902428353000,9.63735302734375,-0.7800336480140686,1.6306406259536743,1.2508231401443481
1758273902438311200,9.647311279296876,-0.7148277163505554,1.5178302526474,1.5232887268066406
1758273902448269000,9.65726904296875,-0.5724978446960449,1.4066566228866577,1.6881811618804932
1758273902458226000,9.667225830078126,-0.4239802956581116,1.1676193475723267,1.5844452381134033
1758273902468184000,9.67718408203125,-0.2891605794429779,1.2580184936523438,1.4860930442810059
1758273902478142000,9.687141845703126,-0.20068345963954926,1.7381494045257568,1.6017796993255615
1758273902488099000,9.69709912109375,-0.15906386077404022,2.0227320194244385,1.7535781860351562
1758273902498057200,9.70705712890625,-0.16264794766902924,2.0372414588928223,1.7239550352096558
1758273902508015000,9.71701513671875,-0.20465657114982605,1.8505966663360596,1.6059455871582031
1758273902517972000,9.726971923828126,-0.31573328375816345,1.5447592735290527,1.4917072057724
1758273902527930000,9.73693017578125,-0.4124365746974945,1.3323278427124023,1.4686228036880493
1758273902537887000,9.746886962890626,-0.43805989623069763,1.3391649723052979,1.5327816009521484
1758273902547845000,9.75684521484375,-0.4012543857097626,1.5114787817001343,1.5906509160995483
1758273902557803300,9.76680322265625,-0.3928779661655426,1.7515238523483276,1.6737397909164429
1758273902567760000,9.776759765625,-0.3894937336444855,1.8917324542999268,1.7821725606918335
1758273902577718000,9.786718017578124,-0.37445753812789917,1.984349250793457,1.8736755847930908
1758273902587676200,9.79667626953125,-0.3423786163330078,2.0416224002838135,1.9417301416397095
1758273902597633000,9.806633056640624,-0.2929796576499939,1.9811464548110962,2.014021873474121
1758273902607591200,9.816591064453124,-0.20955272018909454,1.8039301633834839,2.092782735824585
1758273902617549000,9.826549072265625,-0.08426618576049805,1.5742418766021729,2.145056962966919
1758273902627506000,9.836505859375,-0.046686019748449326,1.4895533323287964,2.1031484603881836
1758273902637464000,9.846464111328125,-0.0013643433339893818,1.5523892641067505,1.9842497110366821
1758273902647422000,9.856421875,-0.0025684190914034843,1.7124074697494507,1.8378210067749023
1758273902657379000,9.866379150390625,-0.07736968994140625,1.9470149278640747,1.7471728324890137
1758273902667337200,9.876337158203125,-0.09261402487754822,2.1770505905151367,1.7232428789138794
1758273902677294800,9.886294921875,-0.19106575846672058,2.4592928886413574,1.7704309225082397
1758273902687252000,9.896251953125,-0.20885232090950012,2.551105499267578,1.701969861984253
1758273902697210000,9.906210205078125,-0.22262218594551086,2.4041101932525635,1.6619913578033447
1758273902707168000,9.91616796875,-0.24866744875907898,2.0004372596740723,1.6461089849472046
1758273902717125000,9.926125,-0.3748762309551239,1.5593770742416382,1.5892143249511719
1758273902727083000,9.9360830078125,-0.50644850730896,1.1857327222824097,1.4871174097061157
1758273902737040100,9.9460400390625,-0.5902562737464905,0.8546173572540283,1.386154294013977
1758273902746998000,9.955998046875,-0.5618783235549927,0.6990491151809692,1.2722598314285278
1758273902756956200,9.9659560546875,-0.5023127198219299,0.6876941919326782,1.1736799478530884
1758273902766913300,9.975913330078125,-0.44364237785339355,0.6960006952285767,1.0952787399291992
1758273902776871000,9.985870849609375,-0.3705226480960846,0.5988086462020874,1.0167967081069946
1758273902786829000,9.9958291015625,-0.33711233735084534,0.5223525166511536,0.9476720094680786
1758273902796786200,10.0057861328125,-0.27709347009658813,0.4749370217323303,0.9267739057540894
1758273902806744000,10.015744140625,-0.19900992512702942,0.4124697744846344,0.9276299476623535
1758273902816702200,10.0257021484375,-0.19126571714878082,0.4327644109725952,0.898384690284729
1758273902826659000,10.0356591796875,-0.2724759876728058,0.6254823207855225,0.8222769498825073
1758273902836617000,10.045616943359375,-0.35791152715682983,0.897120475769043,0.8062468767166138
1758273902846575000,10.0555751953125,-0.31479936838150024,1.0856307744979858,0.8593689203262329
1758273902856532200,10.0655322265625,-0.1919938176870346,1.2165848016738892,0.8555424809455872
1758273902866490000,10.075489990234376,-0.057121641933918,1.202465534210205,0.7555444240570068
1758273902876448300,10.0854482421875,0.029338413849473,1.0497214794158936,0.5966535806655884
1758273902886404900,10.09540478515625,0.09910184144973755,0.8611359000205994,0.4716663062572479
1758273902896363000,10.105363037109376,0.09840889275074005,0.5824086666107178,0.43220385909080505
1758273902906320100,10.115320068359376,0.061931125819683075,0.2489309310913086,0.4918684661388397
1758273902916278000,10.125278076171876,0.08157859742641449,-0.035015299916267395,0.529397189617157
1758273902926236200,10.135236083984376,0.20806726813316345,-0.263775110244751,0.4769103527069092
1758273902936193000,10.145193115234376,0.3418269157409668,-0.4106031656265259,0.3665984869003296
1758273902946151000,10.15515087890625,0.4126235842704773,-0.45647332072257996,0.2786867022514343
1758273902956109000,10.165109130859374,0.44407498836517334,-0.43604421615600586,0.280059278011322
1758273902966066200,10.175066162109376,0.45221763849258423,-0.32782015204429626,0.3554776906967163
1758273902976024000,10.185024169921874,0.38081589341163635,-0.10604407638311386,0.4483543634414673
1758273902985982200,10.194982177734374,0.24260444939136505,0.14178836345672607,0.5383123159408569
1758273902995939000,10.20493896484375,0.10684555023908615,0.3270847499370575,0.596426248550415
1758273903005897000,10.21489697265625,0.03743227198719978,0.42309513688087463,0.6445392966270447
1758273903015855000,10.224855224609374,0.008013664744794369,0.455977201461792,0.6943891048431396
1758273903025812200,10.234812255859374,-0.008301070891320705,0.5046465992927551,0.6875390410423279
1758273903035770000,10.24477001953125,0.02347416989505291,0.5263050198554993,0.6553733348846436
1758273903045727000,10.25472705078125,0.06627248972654343,0.4590635299682617,0.6587122082710266
1758273903055685000,10.26468505859375,0.10349202901124954,0.3930341601371765,0.6644209623336792
1758273903065643000,10.27464306640625,0.10837683081626892,0.37710583209991455,0.6586676239967346
1758273903075600100,10.28460009765625,0.09907974302768707,0.385065495967865,0.6544076204299927
1758273903085558300,10.294558349609375,0.10238739103078842,0.4518797993659973,0.6474831104278564
1758273903095516000,10.304515869140625,0.14861348271369934,0.5893966555595398,0.5602914690971375
1758273903105473000,10.31447314453125,0.15914596617221832,0.7773497700691223,0.4069739282131195
1758273903115431200,10.32443115234375,0.11003915220499039,0.934209942817688,0.25714102387428284
1758273903125389000,10.33438916015625,0.08607271313667297,0.8988121747970581,0.1917124092578888
1758273903135346200,10.34434619140625,0.1356019228696823,0.44689181447029114,0.20869459211826324
1758273903145304000,10.354303955078125,0.2372151017189026,-0.285552978515625,0.2493017613887787
1758273903155262000,10.364261962890625,0.2949473559856415,-0.7835342884063721,0.2839739918708801
1758273903165219000,10.374218994140625,0.22093766927719116,-0.9446761608123779,0.3405511677265167
1758273903175177200,10.38417724609375,0.1256455034017563,-0.7472285628318787,0.361115038394928
1758273903185135000,10.394135009765625,0.19588391482830048,-0.40263631939888,0.15839706361293793
1758273903195092000,10.404092041015625,0.3547310531139374,-0.10645712167024612,-0.2385990172624588
1758273903205050000,10.414050048828125,0.4258078932762146,0.07334646582603455,-0.6331934928894043
1758273903215007000,10.424007080078125,0.4361364543437958,0.0211932510137558,-0.8814908862113953
1758273903224965000,10.433965087890625,0.4089279770851135,-0.17726220190525055,-1.0360819101333618
1758273903234923000,10.443923095703125,0.3506543040275574,-0.41031330823898315,-1.1717888116836548
1758273903244880000,10.4538798828125,0.2987286448478699,-0.6446621417999268,-1.342208743095398
1758273903254838000,10.463838134765625,0.2722528278827667,-0.8709964752197266,-1.5437862873077393
1758273903264796000,10.4737958984375,0.25460803508758545,-1.0617491006851196,-1.7690212726593018
1758273903274753000,10.4837529296875,0.24284982681274414,-1.221564531326294,-1.9927018880844116
1758273903284711200,10.493711181640625,0.25493675470352173,-1.366962194442749,-2.1911282539367676
1758273903294669000,10.5036689453125,0.28204959630966187,-1.4686592817306519,-2.335939407348633
1758273903304626000,10.5136259765625,0.32351911067962646,-1.4509243965148926,-2.4227869510650635
1758273903314584000,10.523583984375,0.3999584913253784,-1.3190468549728394,-2.4651687145233154
1758273903324542000,10.5335419921875,0.4704138934612274,-0.9674704074859619,-2.4326422214508057
1758273903334499000,10.5434990234375,0.5597419142723083,-0.4243338704109192,-2.313260793685913
1758273903344456700,10.553456787109376,0.6385782957077026,0.16198910772800446,-2.1432275772094727
1758273903354413800,10.563413818359376,0.6675729155540466,0.7396718859672546,-1.9483778476715088
1758273903364371700,10.573371826171876,0.626175582408905,1.1418745517730713,-1.7650738954544067
1758273903374329900,10.583329833984376,0.6210691928863525,1.2280256748199463,-1.6520118713378906
1758273903384286700,10.59328662109375,0.687311589717865,1.06675124168396,-1.568162202835083
1758273903394244600,10.60324462890625,0.77703857421875,0.7022286653518677,-1.4797765016555786
1758273903404202800,10.61320263671875,0.8261600732803345,0.11096881330013275,-1.4488624334335327
1758273903414160000,10.623159912109376,0.81632000207901,-0.5807989835739136,-1.4299640655517578
1758273903424117800,10.63311767578125,0.7771844863891602,-1.1544854640960693,-1.3864245414733887
1758273903434076000,10.643075927734374,0.7988051176071167,-1.5350799560546875,-1.3480113744735718
1758273903444032800,10.65303271484375,0.8456623554229736,-1.8248014450073242,-1.328844428062439
1758273903453990700,10.66299072265625,0.8740804195404053,-2.0586585998535156,-1.2775354385375977
1758273903463947800,10.67294775390625,0.8182504773139954,-2.221419334411621,-1.1930938959121704
1758273903473906000,10.682906005859374,0.6718913912773132,-2.274693012237549,-1.060407280921936
1758273903483863800,10.69286376953125,0.5261079668998718,-2.0058352947235107,-0.8880926966667175
1758273903493820700,10.702820556640624,0.46367865800857544,-1.4085205793380737,-0.7303070425987244
1758273903503778800,10.71277880859375,0.4372614324092865,-0.5888721346855164,-0.5877639055252075
1758273903513736700,10.72273681640625,0.32710856199264526,0.22722004354000092,-0.4434514045715332
1758273903523693800,10.73269384765625,0.16970551013946533,0.8136153817176819,-0.2892654836177826
1758273903533651700,10.742651611328125,0.05110163241624832,1.1222879886627197,-0.08863196521997452
1758273903543609900,10.75260986328125,-0.0856538787484169,1.1910181045532227,0.17900338768959045
1758273903553566700,10.762566650390625,-0.20717577636241913,1.0238579511642456,0.4550629258155823
1758273903563524600,10.772524658203125,-0.27205294370651245,0.7798033356666565,0.6956307291984558
1758273903573481700,10.782481689453125,-0.2470746487379074,0.4686571955680847,0.8750561475753784
1758273903583440000,10.79243994140625,-0.3067038953304291,0.3044571876525879,1.0485965013504028
1758273903593397800,10.802397705078125,-0.39931321144104004,0.306837797164917,1.1419720649719238
1758273903603354600,10.812354736328125,-0.5018489956855774,0.22838559746742249,1.2259703874588013
1758273903613312800,10.822312744140625,-0.534085750579834,0.033473894000053406,1.2572518587112427
1758273903623270700,10.832270751953125,-0.5491427779197693,-0.1829299032688141,1.2613600492477417
1758273903633227800,10.842227783203125,-0.5432041883468628,-0.38639914989471436,1.2380547523498535
1758273903643186000,10.85218603515625,-0.4966576397418976,-0.4834533929824829,1.2042784690856934
1758273903653142800,10.862142822265625,-0.38550952076911926,-0.4775291681289673,1.1673758029937744
1758273903663100700,10.8721005859375,-0.32236000895500183,-0.3136586546897888,1.1699249744415283
1758273903673058800,10.882058837890625,-0.3956068158149719,-0.004094400443136692,1.247960090637207
1758273903683016000,10.892015869140625,-0.5274911522865295,0.21917983889579773,1.3542062044143677
1758273903692973800,10.901973876953125,-0.6196735501289368,0.23966620862483978,1.4385242462158203
1758273903702931700,10.911931640625,-0.6584754586219788,0.15482258796691895,1.4908403158187866
1758273903712888800,10.921888916015625,-0.6814401745796204,0.07750781625509262,1.5323981046676636
1758273903722846700,10.9318466796875,-0.6280391216278076,0.07010313868522644,1.5330827236175537
1758273903732804900,10.941804931640625,-0.5164822340011597,0.08120425790548325,1.5138647556304932
1758273903742761700,10.95176171875,-0.29337725043296814,0.05073079466819763,1.4875900745391846
1758273903752719600,10.9617197265625,-0.058735962957143784,-0.35282599925994873,1.3954534530639648
1758273903762676700,10.9716767578125,-0.01853717863559723,-1.3229724168777466,1.1017872095108032
1758273903772634600,10.981634521484375,-0.2722613513469696,-3.1997134685516357,-0.267337828874588
1758273903782592800,10.9915927734375,-0.7576977610588074,-4.497657775878906,-1.9537687301635742
1758273903792550000,11.0015498046875,-1.1766369342803955,-4.258774280548096,-2.7931878566741943
1758273903802507500,11.011507568359375,-1.252509355545044,-2.7936575412750244,-2.7610933780670166
1758273903812465700,11.021465576171876,-0.9314778447151184,-0.17490872740745544,-1.9038684368133545
1758273903822422800,11.0314228515625,-0.3071196377277374,2.8752100467681885,-0.2604711651802063
1758273903832380700,11.041380615234376,0.45318835973739624,4.825122356414795,1.2395533323287964
1758273903842338800,11.0513388671875,0.8212571144104004,5.508701324462891,2.0326178073883057
1758273903852295700,11.061295654296876,0.7810324430465698,5.128575325012207,2.5169384479522705
1758273903862253600,11.071253662109376,0.270783931016922,3.9196887016296387,2.8982913494110107
1758273903872210700,11.081210693359376,-0.42187097668647766,2.336249828338623,3.081960439682007
1758273903882168800,11.0911689453125,-0.7717627882957458,1.197136640548706,2.8615615367889404
1758273903892126700,11.101126708984374,-0.6984968185424805,0.04574590176343918,2.177607536315918
1758273903902083600,11.11108349609375,-0.36742284893989563,-0.9433667659759521,1.3383302688598633
1758273903912041700,11.121041748046874,0.038726806640625,-1.9554057121276855,0.7971764802932739
1758273903921999600,11.13099951171875,0.36465585231781006,-3.547191619873047,0.9815013408660889
1758273903931956700,11.140956787109374,0.4052613377571106,-4.8076910972595215,1.101475477218628
1758273903941915000,11.150914794921874,0.3259612023830414,-5.4792585372924805,1.0971168279647827
1758273903951871700,11.160871826171874,0.41494566202163696,-5.179538249969482,1.034190058708191
1758273903961829600,11.17082958984375,0.6233856678009033,-4.176803112030029,1.2000203132629395
1758273903971787800,11.180787841796874,0.5431914925575256,-2.8494739532470703,0.6946667432785034
1758273903981744600,11.19074462890625,0.2754715085029602,-1.3223669528961182,0.01758624240756035
1758273903991702800,11.200702880859374,-0.14840814471244812,0.8032259941101074,-0.1500546932220459
1758273904001661000,11.210660888671875,-0.42471081018447876,2.4229843616485596,-0.10679049044847488
1758273904011617500,11.220617431640624,-0.5127815008163452,2.6992666721343994,-0.09260516613721848
1758273904021575700,11.23057568359375,-0.5400200486183167,2.1546380519866943,-0.003368632635101676
1758273904031532800,11.24053271484375,-0.5982058048248291,1.5557602643966675,0.06924059242010117
1758273904041490700,11.25049072265625,-0.6261026859283447,1.1550424098968506,0.05114121362566948
1758273904051448800,11.26044873046875,-0.6335790157318115,0.8948018550872803,-0.06501175463199615
1758273904061405700,11.27040576171875,-0.6697109341621399,0.6210147738456726,-0.21761541068553925
1758273904071363600,11.280363525390625,-0.8131000399589539,0.4682634472846985,-0.2750658690929413
1758273904081321700,11.29032177734375,-1.1303136348724365,0.21600258350372314,-0.2856803834438324
1758273904091278800,11.30027880859375,-1.6021517515182495,0.22762034833431244,-0.45802444219589233
1758273904101236700,11.31023681640625,-2.1234209537506104,0.11819291859865189,-0.8242881894111633
1758273904111193600,11.320193603515625,-2.5310680866241455,0.06889194995164871,-1.2167829275131226
1758273904121151700,11.33015185546875,-2.8073885440826416,-0.18750308454036713,-1.3599931001663208
1758273904131109600,11.340109619140625,-2.864600419998169,0.1730135828256607,-1.1777372360229492
1758273904141066800,11.350066650390625,-3.0653605461120605,1.1544876098632812,-0.5195676684379578
1758273904151025000,11.36002490234375,-3.1988441944122314,2.9545681476593018,0.3267093300819397
1758273904160982800,11.369982666015625,-3.052967071533203,3.9613664150238037,0.8186761736869812
1758273904170939600,11.379939697265625,-2.607611656188965,2.7256176471710205,0.6663345694541931
1758273904180897800,11.389897705078125,-1.9949246644973755,1.7197977304458618,0.3391343951225281
1758273904190855000,11.39985498046875,-1.6390352249145508,2.4052090644836426,0.7172811627388
1758273904200812800,11.409812744140625,-1.630387544631958,2.7961976528167725,1.326444149017334
1758273904210771000,11.41977099609375,-1.7378538846969604,3.3446085453033447,1.8216158151626587
1758273904220727800,11.429727783203125,-1.8177696466445923,3.10904598236084,2.096039295196533
1758273904230685700,11.439685791015625,-1.8620822429656982,2.8719804286956787,2.789594888687134
1758273904240643800,11.449643798828125,-2.1136553287506104,2.6772396564483643,2.723897933959961
1758273904250600700,11.4596005859375,-2.39589786529541,2.6852660179138184,2.4346461296081543
1758273904260558800,11.469558837890625,-2.36590576171875,4.221368789672852,3.0803821086883545
1758273904270515700,11.479515625,-2.293816089630127,4.157332897186279,3.5021579265594482
1758273904280473600,11.4894736328125,-1.9028817415237427,3.9831454753875732,3.333617925643921
1758273904290431700,11.499431640625,-1.4040077924728394,3.5042545795440674,2.6270549297332764
1758273904300388900,11.509388916015626,-1.1101624965667725,2.9394965171813965,2.149749517440796
1758273904310346800,11.5193466796875,-0.8299648761749268,4.124600887298584,3.18696928024292
1758273904320304600,11.5293046875,-0.37042945623397827,4.813507080078125,4.031678199768066
1758273904330261800,11.53926171875,-0.27241072058677673,3.4234840869903564,3.527935743331909
1758273904340220000,11.549219970703126,-1.103737711906433,3.379916191101074,2.8570218086242676
1758273904350177000,11.559177001953126,-2.8395822048187256,4.01980447769165,2.2793326377868652
1758273904360135200,11.56913525390625,-4.302674293518066,3.3130414485931396,1.6887015104293823
1758273904370093000,11.579093017578124,-5.011537075042725,3.0246827602386475,1.4227337837219238
1758273904380050000,11.5890498046875,-5.361141204833984,3.2430970668792725,1.7666471004486084
1758273904390008000,11.599008056640624,-5.481773376464844,3.4162142276763916,2.398239850997925
1758273904399966000,11.608966064453124,-5.320584297180176,3.3554797172546387,3.027149200439453
1758273904409923000,11.618923095703124,-4.959753036499023,3.0822184085845947,3.5324461460113525
1758273904419881200,11.628881103515624,-4.58506441116333,2.7821478843688965,3.939178466796875
1758273904429837800,11.638837890625,-4.354483604431152,2.724153757095337,4.300609111785889
1758273904439796000,11.6487958984375,-4.254179000854492,2.919187068939209,4.63974666595459
1758273904449754000,11.658754150390624,-4.165783405303955,3.1673905849456787,4.884443283081055
1758273904459711000,11.6687109375,-4.061870574951172,3.3705101013183594,4.942758560180664
1758273904469669000,11.678669189453124,-3.9522292613983154,3.344433069229126,4.846987247467041
1758273904479627000,11.688626953125,-3.936133861541748,3.190218210220337,4.733577728271484
1758273904489583900,11.698583984375,-3.9277215003967285,3.030236005783081,4.619307994842529
1758273904499542000,11.7085419921875,-3.8357760906219482,2.7022488117218018,4.429199695587158
1758273904509499100,11.7184990234375,-3.8763480186462402,1.9363919496536255,4.222380638122559
1758273904519457000,11.72845703125,-3.932405471801758,1.1851974725723267,3.853891611099243
1758273904529415000,11.738414794921875,-3.866628646850586,0.6384488940238953,3.29349946975708
1758273904539372000,11.7483720703125,-3.8852977752685547,0.030143484473228455,2.655024290084839
1758273904549330000,11.758329833984375,-4.034894943237305,-0.44416600465774536,1.9969687461853027
1758273904559287000,11.768287109375,-4.336144924163818,-0.5527670383453369,1.4111676216125488
1758273904569245200,11.7782451171875,-4.65870475769043,-0.32274240255355835,1.0157477855682373
1758273904579202800,11.788202880859375,-4.897209167480469,0.06010247766971588,0.7382141947746277
1758273904589160000,11.798159912109375,-5.053183555603027,0.24597595632076263,0.5198565721511841
1758273904599118000,11.8081181640625,-5.153868198394775,0.19985054433345795,0.2551528215408325
1758273904609076000,11.818075927734375,-5.1769843101501465,0.1260511577129364,-0.0068241897970438
1758273904619033000,11.828033203125,-5.059797763824463,0.36004525423049927,-0.19273698329925537
1758273904628991000,11.837990966796875,-4.793997764587402,0.8622923493385315,-0.24796882271766663
1758273904638947800,11.84794775390625,-4.40391731262207,1.3110617399215698,-0.2270020991563797
1758273904648906000,11.857906005859375,-3.90948224067688,1.467626929283142,-0.1924142837524414
1758273904658864000,11.867864013671875,-3.379572629928589,1.2627936601638794,-0.14778637886047363
1758273904668821000,11.877821044921875,-2.845311164855957,0.8642062544822693,-0.08811798691749573
1758273904678779000,11.88777880859375,-2.2987654209136963,0.537352979183197,-0.07609856128692627
1758273904688737000,11.897737060546875,-1.731824517250061,0.18403002619743347,-0.16585268080234528
1758273904698694000,11.90769384765625,-1.1221140623092651,-0.17448726296424866,-0.37021875381469727
1758273904708652000,11.917652099609375,-0.4638962745666504,-0.311713308095932,-0.6223897337913513
1758273904718609200,11.927609130859375,0.23691608011722565,0.02493477240204811,-0.8372185826301575
1758273904728566800,11.93756689453125,0.9404118657112122,0.7003161311149597,-0.9829022884368896
1758273904738525000,11.94752490234375,1.4363452196121216,0.829212486743927,-0.7557450532913208
1758273904748482000,11.95748193359375,1.0361891984939575,1.286619782447815,0.05823655053973198
1758273904758440000,11.96743994140625,-1.2557796239852905,1.4002184867858887,0.9015902876853943
1758273904768397000,11.97739697265625,-3.461378335952759,0.07246420532464981,1.0637015104293823
1758273904778355000,11.98735498046875,-3.744269609451294,-0.03001621551811695,0.4871666431427002
1758273904788312800,11.997312744140626,-3.0642242431640625,0.29030588269233704,-0.07428042590618134
1758273904798270000,12.00727001953125,-2.11771821975708,0.22995826601982117,-0.24960243701934814
1758273904808228000,12.01722802734375,-1.4626998901367188,-0.13318824768066406,0.12576161324977875
1758273904818186000,12.02718603515625,-0.8353700637817383,-1.063831090927124,0.4685284197330475
1758273904828142800,12.037142822265626,-0.5360217094421387,-1.275118350982666,0.6389702558517456
1758273904838101000,12.04710107421875,-0.5294639468193054,-0.9323974251747131,0.5581374764442444
1758273904848058000,12.05705810546875,-0.5445083975791931,-0.765485405921936,0.2644805610179901
1758273904858016000,12.06701611328125,-0.582511305809021,-0.6972984075546265,0.10060825943946838
1758273904867974100,12.07697412109375,-0.7004251480102539,-0.6395224332809448,0.10719585418701172
1758273904877930800,12.0869306640625,-0.848262369632721,-0.5257651209831238,0.1642209142446518
1758273904887889000,12.096888916015626,-0.9400814771652222,-0.4063452482223511,0.23246894776821136
1758273904897846000,12.106845947265626,-0.9453264474868774,-0.4149315357208252,0.3026823401451111
1758273904907804000,12.116803955078124,-0.8716402649879456,-0.5304754376411438,0.3725317120552063
1758273904917762000,12.126761962890624,-0.7406675219535828,-0.6231921911239624,0.39247414469718933
1758273904927719000,12.136718994140624,-0.6539751887321472,-0.6283992528915405,0.3309583067893982
1758273904937676800,12.1466767578125,-0.6067973375320435,-0.5355061888694763,0.23921220004558563
1758273904947635000,12.156635009765624,-0.5411621332168579,-0.32127776741981506,0.18983213603496552
1758273904957592000,12.166592041015624,-0.4593820869922638,-0.06263913959264755,0.19435197114944458
1758273904967550000,12.176550048828124,-0.4267922043800354,0.14201705157756805,0.19612376391887665
1758273904977506800,12.1865068359375,-0.44694405794143677,0.22146610915660858,0.1953335404396057
1758273904987465000,12.19646484375,-0.4560329020023346,0.17505280673503876,0.2176138162612915
1758273904997422800,12.2064228515625,-0.4212401509284973,0.03603421896696091,0.24799512326717377
1758273905007380000,12.2163798828125,-0.3731365203857422,-0.10408906638622284,0.26004406809806824
1758273905017338000,12.226338134765625,-0.347773015499115,-0.16025181114673615,0.24093157052993774
1758273905027295200,12.236295166015625,-0.30686262249946594,-0.13585805892944336,0.2017175853252411
1758273905037252900,12.2462529296875,-0.2527253329753876,-0.07850021868944168,0.18056835234165192
1758273905047211000,12.2562109375,-0.2113182693719864,-0.009050309658050537,0.19298508763313293
1758273905057168100,12.266168212890625,-0.18023863434791565,0.05984566733241081,0.23547475039958954
1758273905067126000,12.2761259765625,-0.1433400809764862,0.10622058808803558,0.2901165187358856
1758273905077084200,12.286084228515625,-0.1177801638841629,0.11809271574020386,0.31080135703086853
1758273905087041000,12.296041015625,-0.06665652245283127,0.0770571306347847,0.2882092297077179
1758273905096999000,12.3059990234375,0.034725796431303024,0.04965134337544441,0.28373152017593384
1758273905106956000,12.3159560546875,0.10675444453954697,-0.018856076523661613,0.30256912112236023
1758273905116914000,12.325913818359375,0.12367618083953857,-0.0817403793334961,0.29360994696617126
1758273905126872000,12.3358720703125,0.12462905794382095,-0.04977019876241684,0.30437469482421875
1758273905136829000,12.345828857421875,-0.021913226693868637,0.13391762971878052,0.8726338148117065
1758273905146786800,12.355786865234375,-0.2623194456100464,-0.1624237447977066,0.9970742464065552
1758273905156744000,12.365743896484375,-0.33618250489234924,-0.2768695056438446,0.7433376908302307
1758273905166702000,12.3757021484375,-0.1929561048746109,0.010279703885316849,0.34174874424934387
1758273905176660000,12.385659912109375,-0.10341737419366837,0.2144131064414978,-0.06298830360174179
1758273905186616800,12.395616943359375,-0.012306900694966316,0.20093432068824768,-0.3678928017616272
1758273905196575000,12.405574951171875,0.01657981239259243,0.10768428444862366,-0.5050491690635681
1758273905206532900,12.415532958984375,-0.06739258766174316,0.009353457018733025,-0.3901691436767578
1758273905216490000,12.425489990234375,-0.22817614674568176,-0.04537242650985718,-0.1490403115749359
