time,seconds_elapsed,z,y,x
1758274019563199500,0.052199462890625,2.7810709799766538,-2.469447163015604,0.5693420023418962
1758274019573157600,0.06215771484375,2.5462194370508193,-2.3764999992489813,1.1574521257787942
1758274019583115500,0.072115478515625,1.3914526048332452,-1.9453101839259266,1.7036799406453966
1758274019593073700,0.08207373046875,0.9033768269449471,-1.7105781757265328,1.4728300345763563
1758274019603030800,0.09203076171875,0.44140930378139015,-2.765645447307825,0.28035861786454913
1758274019612988400,0.101988525390625,-0.4629927745580673,-3.6495848755940794,-0.9591551205292344
1758274019622946600,0.111946533203125,-0.9406798449009657,-3.9910242773652076,-1.9792817193716763
1758274019632904400,0.121904541015625,-1.5196709884673356,-3.826934662143886,-2.2524909038729963
1758274019642862600,0.131862548828125,-2.8259885645896197,-2.9763004143491387,-1.6769091303586958
1758274019652819700,0.14181982421875,-3.55580213778615,-2.1239000336647034,-0.8994745588093995
1758274019662777600,0.151777587890625,-2.943678539946675,-1.8428394050106405,-0.2276844277754426
1758274019672735500,0.161735595703125,-1.8798276579290627,-1.6901944361284373,-0.07617927657812833
1758274019682693400,0.171693359375,-1.1599094558030367,-1.8285513519391416,-0.5584402307078242
1758274019692651500,0.181651611328125,-1.097492454856634,-1.9987860457867384,-1.289711309236288
1758274019702608600,0.191608642578125,-0.42897944579720493,-1.7400956543728707,-0.7706047255292534
1758274019712566500,0.20156640625,-0.5017956756830215,-1.5692954355970024,-0.3836977040469646
1758274019722524700,0.211524658203125,-0.5983651216000319,-1.9428630830347537,-1.255797933718562
1758274019732482600,0.221482666015625,0.11612053408324718,-2.9410440997898575,-1.2912135304927825
1758274019742440400,0.2314404296875,1.3889374071419238,-4.075608978717029,-0.017960019582509992
1758274019752397600,0.2413974609375,1.7071493703216314,-4.617290966847539,1.033729884520173
1758274019762355500,0.25135546875,2.099464680588245,-3.6265742946237323,-0.17071721666753292
1758274019772313600,0.261313720703125,3.2076918799489733,-2.8701681903168557,-1.3514187006086111
1758274019782271700,0.271271728515625,3.795537361100316,-2.698795724610984,-0.22366963917613028
1758274019792229600,0.281229736328125,3.863326118212938,-2.495612700885534,1.9102485151559114
1758274019802186500,0.2911865234375,2.4022400051832196,-1.2687740274086594,3.060505760994553
1758274019812144600,0.30114453125,0.22998773628175256,0.09131945296693593,3.1980420080721377
1758274019822102500,0.3111025390625,-1.2339806541860103,0.163390380910784,2.8705379004120823
1758274019832060700,0.321060791015625,-1.3086059793204068,0.21362740698084234,2.515208797237277
1758274019842018600,0.3310185546875,-0.8607610895335673,0.4767074847210198,2.5910879218250513
1758274019851976700,0.340976806640625,-0.5176806425571442,0.3735356448642909,2.663051334273815
1758274019861933600,0.35093359375,-0.47565234964489933,0.4955862265836447,2.7365707439929245
1758274019871891500,0.360891357421875,-0.8224784128904342,1.1173522436458616,3.027252895212173
1758274019881849600,0.370849609375,-0.9722533792942761,1.5204894652433691,3.452412490460276
1758274019891807500,0.380807373046875,-1.2287135274380445,2.1794164614424107,3.919287659409642
1758274019901765600,0.390765625,-1.5732172852158546,3.1163813774734734,4.130014230382442
1758274019911722800,0.40072265625,-1.5570862346261738,3.7556244529068468,5.021130710691214
1758274019921680400,0.410680419921875,-1.4931623362481594,3.9748043794482943,4.969235688281059
1758274019931638500,0.420638427734375,-1.3259715401411056,4.0576188562572,4.2248201737582685
1758274019941596400,0.430596435546875,-1.0260247169703245,3.357971873265505,2.845283047646284
1758274019951554600,0.440554443359375,-1.3635089513748884,2.2452996771946547,1.0361386992275714
1758274019961511700,0.45051171875,-1.572994582375884,1.802796732957661,0.7146843931257725
1758274019971469600,0.460469482421875,-1.523566242340207,1.3732944323301315,1.218796529057622
1758274019981427700,0.470427734375,-1.2287649653643369,1.1665692059531807,1.677891711655259
1758274019991385300,0.48038525390625,-0.7563099504560231,1.4213792488023638,2.106626827302575
1758274020001343500,0.490343505859375,-0.8762190631672739,1.0980156019479035,1.8573568829238414
1758274020011300600,0.500300537109375,-1.4976476649686694,0.8776905970245599,1.331552555143833
1758274020021258500,0.510258544921875,-1.816319939136505,0.9816036837026476,0.8275409569770097
1758274020031216600,0.520216552734375,-4.168309766507148,0.7742813682153821,0.7311673258930445
1758274020041174500,0.530174560546875,-3.1497230905830857,1.0224927434518933,1.2095318571060896
1758274020051132700,0.540132568359375,-1.4929361262768506,1.1768719887807964,1.7183803739100694
1758274020061089500,0.550089599609375,-0.6731682875193655,1.3285153794050215,1.3713123186022043
1758274020071047400,0.56004736328125,-0.6960147639691829,1.5602522974416613,1.2585662293881177
1758274020081005600,0.570005615234375,-1.9601967874124646,1.7524597536444664,0.19734160422086713
1758274020090963700,0.579963623046875,-3.5675896062135695,0.9534168691381811,-0.03220540255606174
1758274020100921600,0.589921630859375,-2.873058358800411,-3.8862756166458126,-1.922201987800002
1758274020110879700,0.599879638671875,0.9987656117100268,0.5862485673487187,0.3087795334458351
1758274020120836600,0.609836669921875,1.8437720096856354,4.496344620043039,5.169582319536805
1758274020130794500,0.61979443359375,2.135120515859127,3.051034168294072,4.655489472338557
1758274020140752600,0.629752685546875,0.08304594747722148,3.0869366718024014,2.281121808943152
1758274020150710500,0.63971044921875,-3.018204496359825,2.032662596425414,0.16295885762572287
1758274020160668700,0.649668701171875,-2.6971768912374974,1.2594991263240576,-1.6296961282849312
1758274020170625500,0.65962548828125,-0.38613753494713454,0.1348030227214098,-2.578120888224244
1758274020180583400,0.66958349609375,1.9401912334769964,-1.193988251015544,-2.56468214545846
1758274020190541600,0.67954150390625,0.6160919169485569,-0.8207073115646839,-1.444917068517208
1758274020200499500,0.68949951171875,-0.2669703631769866,-0.4376823922127485,-1.2036071432322264
1758274020210457600,0.69945751953125,-1.2853349938482046,-0.16498130336403846,-0.7395598911851644
1758274020220414700,0.709414794921875,-1.3185254619188607,0.2154080067873001,0.9455091647535562
1758274020230372600,0.71937255859375,-0.9162609315026551,0.1608925727456808,2.597102652069926
1758274020240330500,0.72933056640625,-0.5565536863088607,0.437864178520441,2.6597505391627547
1758274020250288400,0.739288330078125,1.4117816916346548,2.689552972230315,0.413358098295331
1758274020260246500,0.74924658203125,2.6104554701179263,4.367868462255597,-0.8839420586347579
1758274020270203600,0.75920361328125,0.26416597328074276,3.7970711465388534,-2.0993238108128307
1758274020280161500,0.76916162109375,-1.4647054725706576,3.421952470266819,-3.112497229516506
1758274020290119700,0.77911962890625,-0.5457529638964682,3.544359537273645,-3.3643387779489156
1758274020300077600,0.78907763671875,1.3235545421272517,4.010077937403321,-2.866231143128872
1758274020310035500,0.799035400390625,1.13273729817383,4.998489839816093,-2.6473168817862867
1758274020319993600,0.80899365234375,-6.901444690832495,5.468534870973229,-1.8901912310332059
1758274020329950500,0.818950439453125,-3.591094984963536,4.879281861111521,-0.6097340723544359
1758274020339908600,0.82890869140625,4.213759850561619,2.9403093557745215,-0.5549950586900114
1758274020349866800,0.83886669921875,2.0928543225377796,1.6663988422602414,-0.3060141603857279
1758274020359824600,0.84882470703125,1.6761042437165974,1.5356968251168728,-0.5954246842339634
1758274020369782500,0.858782470703125,0.7337677907150238,0.8612579331398009,-1.2946791607767343
1758274020379739600,0.86873974609375,-1.1620780320137738,0.30350013173818585,-1.6096610559940336
1758274020389697500,0.878697509765625,-0.24569566608853638,-1.7589608061015605,-0.43592283519431946
1758274020399655700,0.88865576171875,-2.2648399517059326,-6.988268987804651,2.986955079354346
1758274020409613600,0.898613525390625,-1.8213526726067064,-16.670328147017955,3.7668613017141817
1758274020419571700,0.90857177734375,-1.2104238375097514,-31.966185803663727,-0.08198772539487108
1758274020429528600,0.918528564453125,-0.15776238496117292,-19.91427032099962,7.057297515845298
1758274020439486500,0.928486572265625,3.6767297798901795,-1.1875123329997062,11.535867994266749
1758274020449444900,0.93844482421875,4.602333636212348,3.073904756271839,4.699708553293347
1758274020459402800,0.94840283203125,3.138612498503923,4.7351925391286604,-2.574767778404057
1758274020469361000,0.95836083984375,1.1492026952844112,3.8297920974016186,-7.968290663012862
1758274020479317800,0.96831787109375,-2.8486925638288256,2.4082757782161233,-9.84937621204853
1758274020489275600,0.978275634765625,-2.2275451170563696,1.6415099001973867,-7.024367306146026
1758274020499233800,0.98823388671875,-0.836216430863738,1.3698907613664866,-2.58569979904592
1758274020509191700,0.998191650390625,0.3715157564092427,1.7991151218354702,0.5831020860165357
1758274020519149800,1.00814990234375,1.519877324694395,0.8237175992965697,-0.16660276708602903
1758274020529106700,1.018106689453125,0.7676531822472811,-0.5548439597815275,-1.210560615631938
1758274020539064600,1.028064697265625,-1.4370102409154175,-0.15207213743031023,0.3927376273319125
1758274020549022700,1.038022705078125,-1.3581488856464623,-0.22041151416301727,0.959357072842121
1758274020558980600,1.047980712890625,-0.05920322653166949,-0.46262803289890286,1.1965367664545774
1758274020568938800,1.057938720703125,0.6908768165588378,-0.37388416604101654,1.4421280223205686
1758274020578896000,1.067895751953125,0.555143234989047,-0.3655067983180284,1.3462886442437767
1758274020588853800,1.077853759765625,-0.029812296874448654,-0.674544690439105,0.9355994728967547
1758274020598811600,1.087811767578125,-0.8646130157213657,-1.2241261996477841,0.5903244384855032
1758274020608769500,1.09776953125,-1.0056886159062386,-1.4151748412042855,0.5022440039724111
1758274020618727700,1.107727783203125,-0.672853084090352,-0.9836439573585987,0.6747510266661644
1758274020628684800,1.117684814453125,-0.4130828615505248,-0.4381313050240278,0.6007885493546724
1758274020638642700,1.127642578125,-0.1584744787532836,-0.026915479454398154,0.2442141222938895
1758274020648600800,1.137600830078125,0.09697035486809909,0.2600274852365255,0.06156447577029466
1758274020658558700,1.147558837890625,0.22716683364212512,0.298759074690938,0.05025573077052831
1758274020668516600,1.1575166015625,0.3103384533256292,0.2916436897277832,0.04236351621598005
1758274020678474800,1.167474853515625,0.3383475001703948,0.33214404242038725,0.014645195946097374
1758274020688431600,1.177431640625,0.23760873267948626,0.37753508976399897,-0.1590335008755326
1758274020698389800,1.1873896484375,0.07797120149619877,0.3197369807898998,-0.3721723936870694
1758274020708348000,1.197347900390625,0.0006266805309802293,0.1616506976366043,-0.5401145926833153
1758274020718305800,1.207305908203125,0.1013619408905506,0.09981588049232959,-0.5480418785512448
1758274020728263700,1.217263671875,0.31501287487745283,0.20126374610066414,-0.5445604661762714
1758274020738220800,1.227220703125,0.3935679406762123,0.4941881232887506,-0.4981023741230368
1758274020748178700,1.2371787109375,0.27834873934686183,0.6027016894996166,-0.2655024095162749
1758274020758136800,1.24713671875,0.43556989357080306,0.49454409711956976,0.45032238581627604
1758274020768094700,1.2570947265625,0.43054709697272625,0.23809330132603643,1.1011235048353671
1758274020778052900,1.267052978515625,0.08355152237918227,-0.00895545987188816,1.0002090154513716
1758274020788009700,1.277009765625,0.5558101013999432,0.19592939933538436,1.0421551830381155
1758274020797967600,1.286967529296875,0.8121942616980522,0.43207799633443356,2.092092982776463
1758274020807925800,1.29692578125,0.14270868127942085,0.6040495969772338,3.492465976168215
1758274020817883600,1.306883544921875,-0.8319973518639803,-0.10609949080646038,3.490181956884265
1758274020827841800,1.316841796875,0.5759574749588966,0.5171043039739132,1.8239140475273132
1758274020837799000,1.326798828125,-0.3340507528245449,0.6546826366275549,-0.6085898707553744
1758274020847756500,1.336756591796875,-1.165015254509449,-2.180121102580428,-3.536099950711429
1758274020857714700,1.346714599609375,-1.7729712112754583,0.16406711112856864,-2.279858364878595
1758274020867672600,1.356672607421875,-2.8981051217734812,9.661071316242218,-2.176016882131994
1758274020877630700,1.366630615234375,-1.0057412228763103,4.6418847253561015,-5.378987871038913
1758274020887587800,1.376587890625,1.3850526746630667,-2.313956157052517,-4.94243360607326
1758274020897545700,1.386545654296875,-0.014403788405656814,-0.8588006031155586,-2.2013512298747897
1758274020907503900,1.39650390625,0.05629121154248714,0.5491869569331407,-0.8019375830344855
1758274020917461800,1.406461669921875,1.8616256462842224,1.0593746133863926,-0.48838688966408367
1758274020927419600,1.416419677734375,2.2833184422045947,0.4728530743151903,-0.8445040744766592
1758274020937376800,1.426376708984375,1.997391376557946,0.46095571577250954,-0.7512877383798361
1758274020947334700,1.436334716796875,1.6289385879158973,0.4751484917759895,-0.6784276693522929
1758274020957292800,1.446292724609375,0.3739741824120283,-0.32982641312777994,-0.6123498078107833
1758274020967251000,1.4562509765625,0.539963055383414,-1.8205676597088574,0.6519502890542149
1758274020977208600,1.46620849609375,-0.08673661868870258,-2.4126830732643603,2.4176471254125236
1758274020987166700,1.476166748046875,-0.7950150902949273,-2.055458365601301,3.8581355638325214
1758274020997123800,1.486123779296875,-1.1175799879871309,-2.0359920331090686,4.9744753425002095
1758274021007081700,1.496081787109375,-1.3443037540368734,-1.8183271873056888,5.0551481311053035
1758274021017040000,1.506039794921875,-0.9892705650687217,-0.5542769735485314,3.594071662686765
1758274021026997800,1.515997802734375,0.772615042438358,0.8295370992302894,1.7334521247051655
1758274021036956000,1.525955810546875,2.1159910141058265,1.5721844350367784,1.0962792796745895
1758274021046912800,1.535912841796875,2.1334540439516303,0.7247896075546741,0.8071654737506061
1758274021056870700,1.54587060546875,1.1238992541365325,0.12811784586906433,-0.0314747638936853
1758274021066828800,1.555828857421875,-0.40351840293481944,-0.2469225044697523,-1.052681837749481
1758274021076786700,1.56578662109375,0.49915173704549665,-0.21281389864087102,-1.678271504753083
1758274021086744800,1.575744873046875,1.2243082782164216,-0.9682762923568486,-1.8175683317624032
1758274021096701700,1.58570166015625,0.5891049796931446,-1.8070804016262292,-1.1020187731746585
1758274021106659600,1.59565966796875,-0.8220243855126201,-1.190457738801837,0.9167959151621907
1758274021116617700,1.60561767578125,-0.6297763050384819,-1.1246733072489499,1.298864629767835
1758274021126575600,1.61557568359375,-0.6233857272185385,-1.389987208455801,0.9061614161621778
1758274021136533800,1.62553369140625,-0.5217050757676363,-1.003686628434062,0.527013776635006
1758274021146491000,1.635490966796875,-0.14750300288386642,-0.1654366459161043,0.1499194346421398
1758274021156448800,1.64544873046875,0.20355039573311803,0.13410685715079307,0.2226503425983712
1758274021166406700,1.65540673828125,0.0920247882246971,0.8258405827999115,0.5458730100795627
1758274021176364500,1.665364501953125,-0.21047880675680933,1.7037439457923174,0.6022698739536106
1758274021186322700,1.67532275390625,-0.4235674306858331,1.2391349682092665,0.1465646534546744
1758274021196279800,1.68527978515625,-0.8381069207854569,0.8686036197274922,0.09480559631595388
1758274021206237700,1.69523779296875,-0.9067202921539544,-0.214367557823658,0.05022982457771431
1758274021216195800,1.70519580078125,-1.0379320123851299,-0.4940168583750725,0.46294667039401827
1758274021226153700,1.71515380859375,-0.5713303996801375,-0.2051204215288162,1.054738331887871
1758274021236111600,1.725111572265625,-0.07797390490993857,-0.6210387257009744,1.331149819561839
1758274021246068700,1.73506884765625,-0.2344664891310036,-0.5117337168514728,1.4555172268562018
1758274021256026600,1.745026611328125,-0.38381051677167416,-0.4237450522750616,1.079847419507429
1758274021265984800,1.75498486328125,-0.5276584312140942,-0.2984036853820085,0.7927415193397551
1758274021275943000,1.76494287109375,-0.7455308553535491,-0.22187691054046152,0.5624768658127636
1758274021285900800,1.77490087890625,-0.48077173848524685,-0.013378537011146545,0.3351890726720914
1758274021295858700,1.784858642578125,-0.5040039993822575,-0.00561667083799839,0.1497239668689668
1758274021305815800,1.79481591796875,-0.4086632184773683,-0.08517243811190128,0.10850242376234381
1758274021315773700,1.804773681640625,-0.2342605912953615,-0.18111819917261598,0.11058502045636996
1758274021325731800,1.81473193359375,0.06443418598771095,-0.27777883050441743,0.03213888579164632
1758274021335689700,1.824689697265625,-0.0018061726391315459,-0.2431879941165447,0.08051815516580826
1758274021345647900,1.83464794921875,-0.2715180165439844,-0.21326748762726783,0.0994969324699603
1758274021355604700,1.844604736328125,-0.0628905367422849,-0.13581483011245726,0.24292198185781017
1758274021365562600,1.854562744140625,0.19107954815141856,0.04591770156621933,0.3676211235908791
1758274021375520800,1.864520751953125,0.038916809828206896,-0.05824234561026096,0.41062779654860493
1758274021385478700,1.874478759765625,0.09573124152719974,-0.011762918508052824,0.47886933893002565
1758274021395436800,1.884436767578125,0.09144370040111244,-0.008260463345050812,0.5910379935823381
1758274021405394000,1.894393798828125,0.06575520545840263,-0.02381225274205208,0.6493878912203014
1758274021415351600,1.9043515625,0.05808335565626621,0.08351882568597793,0.4699539918728172
1758274021425309700,1.914309814453125,-0.16698972057700157,0.0600227992862463,0.2127968379082158
1758274021435267600,1.924267578125,-0.16429390562176704,-0.13774609043598174,0.19373682119455188
1758274021445225700,1.934225830078125,-0.24026713823378085,-0.08919102610349655,0.16525495093995704
1758274021455182600,1.9441826171875,-0.5026069920659065,-0.0413093309879303,-0.0936818164504133
1758274021465140500,1.954140380859375,-0.7319114222586155,0.03278349470496177,-0.15372869073199108
1758274021475098600,1.9640986328125,-1.077794724761322,-0.1499871478497982,-0.1637304082538001
1758274021485056500,1.974056396484375,-1.0953233671892433,-0.36361528548300265,0.4787185322824865
1758274021495014700,1.9840146484375,-0.5328093111712485,-0.19090543369352816,0.8013084913507104
1758274021504971500,1.993971435546875,-0.19289163907468318,-0.1310942313313484,0.70827335703969
1758274021514929400,2.003929443359375,-0.519915269741416,-0.010738251635432242,0.7924464819159358
1758274021524887600,2.013887451171875,-0.6671247695714235,0.1726297722905874,0.9138480251420289
1758274021534845700,2.023845703125,-0.4241927229773253,0.22510580945909023,1.1574172005958854
1758274021544803600,2.033803466796875,-0.46915188170969485,0.030416765573620795,1.3196955286115408
1758274021554760400,2.043760498046875,-0.6806816588241607,-0.38624972661733625,1.4500918408066032
1758274021564718600,2.053718505859375,-0.8528963475078344,-0.7264058105796575,1.467014772426337
1758274021574676500,2.063676513671875,-0.8396627719253301,-0.6387210973858833,1.4531170338466763
1758274021584634600,2.073634521484375,-0.9017764060109853,-0.3534042725920677,1.3316088153757155
1758274021594592500,2.083592529296875,-1.1628969471812247,-0.25739947482049463,1.2327670406125486
1758274021604550700,2.093550537109375,-1.4366178805969654,-0.3180126412153244,1.115260824324563
1758274021614507800,2.1035078125,-1.6072130783200262,-0.5217781410038471,1.0407250041045248
1758274021624465400,2.11346533203125,-1.7186586063295601,-0.8448509882181883,0.904669497103989
1758274021634423600,2.123423583984375,-2.0011324627824125,-1.276536770364642,0.6056923226829618
1758274021644381400,2.13338134765625,-2.391222936606407,-1.8132792562663553,0.18979741765270008
1758274021654339600,2.143339599609375,-2.560468911677599,-2.4654934569537637,-0.2400822649198584
1758274021664296700,2.153296630859375,-2.446239744298905,-3.014664631795883,-0.4081320342101156
1758274021674254600,2.163254638671875,-2.05111054565534,-3.1753619742304084,-0.15445172604322432
1758274021684212500,2.17321240234375,-1.597679526299238,-3.0163480548381805,0.4638969203235581
1758274021694170400,2.18317041015625,-1.3256395317077636,-2.885920178461075,1.3186138708546757
1758274021704128500,2.19312841796875,-1.1396406478215009,-2.7186557325959204,2.12900670915395
1758274021714085600,2.203085693359375,-1.6689257303893565,-2.9665707552343603,2.4924846319928764
1758274021724043500,2.21304345703125,-2.80435307136476,-3.4237007752388715,2.433055122424662
1758274021734001700,2.223001708984375,-3.90836236076951,-3.2215093928992746,2.2321527569822965
1758274021743959600,2.23295947265625,-4.388076553025842,-2.5268033734411,2.202800259639323
1758274021753917400,2.24291748046875,-4.013019251552224,-2.083433583241701,2.6299907761931416
1758274021763874600,2.25287451171875,-2.879440168792009,-1.9153028759360313,2.992655336822569
1758274021773832400,2.26283251953125,-1.9884663118243215,-1.665174268901348,2.755437649287283
1758274021783790600,2.27279052734375,-1.7108938175469637,-1.4823562800735235,2.136729266230017
1758274021793748700,2.282748779296875,-1.5379150856882333,-1.494845174768567,1.6674731934934854
1758274021803706600,2.29270654296875,-1.051835450053215,-1.685599801814556,1.006137236456573
1758274021813664800,2.302664794921875,-0.4626695339530706,-1.921806266480684,0.524369764932245
1758274021823621600,2.31262158203125,-0.1796282528758049,-2.0556828220069407,0.4475408653389662
1758274021833579500,2.32257958984375,-0.24337036494612693,-2.3586218127310277,0.2805580494267866
1758274021843537700,2.33253759765625,-0.6243710849940777,-2.5766087300956246,-0.08845323161454871
1758274021853495600,2.34249560546875,-1.0175929156463592,-2.5942145294129846,-0.3225806432506069
1758274021863453700,2.35245361328125,-1.1483658060688524,-2.5371324597537517,-0.68493040230982
1758274021873410600,2.36241064453125,-0.5342307953417301,-2.072481981116533,-0.683189915318042
1758274021883368400,2.372368408203125,0.6819406459093094,-1.2894248935103416,-0.5967385433115064
1758274021893326600,2.38232666015625,1.5352677860498427,-0.675115183803439,-0.772550233573839
1758274021903284500,2.392284423828125,1.3452176540113985,-0.5605658445596695,-1.011735494855046
1758274021913242600,2.40224267578125,0.9598993630252778,-0.8016518979609012,-1.0751487402971833
1758274021923199700,2.41219970703125,1.0042156207442283,-1.1614806506425142,-1.5862964008890093
1758274021933157600,2.42215771484375,1.0925396547548472,-1.1064356397688389,-1.8353521179951726
1758274021943115500,2.432115478515625,0.8029659031689167,-1.180961011660099,-2.110622034418583
1758274021953073400,2.442073486328125,0.8434244625464081,-1.1276859330683946,-2.226051517497748
1758274021963031600,2.452031494140625,0.43407998380661006,-0.8277969775646924,-2.167578724132478
1758274021972989400,2.461989501953125,0.92690792465806,-0.7089157465964555,-1.6517577379673718
1758274021982946600,2.471946533203125,1.7941946165680884,-0.3685311145752668,-1.113322768934071
1758274021992904700,2.48190478515625,1.6714453119948505,-0.144571552541852,-1.0195767098747193
1758274022002862300,2.4918623046875,1.222429332602024,-0.5341968930721283,-1.5310630278363824
1758274022012820500,2.501820556640625,1.6467384485006331,-0.8857201742231845,-1.680770628092438
1758274022022778600,2.511778564453125,1.874251026840508,-1.4271996255189179,-1.1340662817552685
1758274022032735500,2.521735595703125,2.041842512702942,-1.8979554352939128,-0.9582179858095944
1758274022042693600,2.531693603515625,2.029025116705894,-1.124809500849247,-0.6277868847869337
1758274022052651500,2.541651611328125,2.6775159129559993,-0.42234161521792407,-0.5074402574412524
1758274022062609700,2.551609619140625,2.986340162326395,-0.35367081457376476,-0.06776391493231057
1758274022072567600,2.561567626953125,3.1235312492281198,-0.1786222907036543,0.8977660013258457
1758274022082525400,2.571525390625,3.5551147400438783,-0.5957710134536027,2.0989730976790186
1758274022092482600,2.581482666015625,2.737931510952115,-0.2709212196946144,1.609045262183249
1758274022102440700,2.591440673828125,2.617905201601982,0.5901584342688322,0.6803423438671976
1758274022112398600,2.601398681640625,3.0685370917588473,1.3840502196222544,0.5674498684523627
1758274022122356700,2.611356689453125,3.2472558285743,2.1313076795727013,0.42243714801426974
1758274022132314600,2.621314697265625,3.0654531542688606,2.83251533600986,-0.3165068397622555
1758274022142271500,2.631271484375,4.52215535312593,2.520426824146509,-1.4042124254241586
1758274022152229600,2.641229736328125,5.467201576542854,2.3948586627602575,-1.735794742308557
1758274022162187500,2.6511875,4.055084369343519,3.2159049970209597,-1.0325798377022146
1758274022172145700,2.661145751953125,2.931795209929347,3.6986920208513734,-0.9951925024636089
1758274022182103600,2.671103515625,2.6642034269183874,3.844720786464214,-1.415737151262164
1758274022192060400,2.681060302734375,3.2101012791782617,3.558789629164338,-1.581110961075127
1758274022202018600,2.6910185546875,4.491837371751666,3.0427485705077646,-1.1945172433257103
1758274022211976400,2.7009765625,3.5967286069363356,2.4701065037071706,-1.9088117603510617
1758274022221934600,2.7109345703125,3.328899508038163,2.3767858304530383,-1.4365857318930326
1758274022231892500,2.720892578125,3.5729163541942834,2.851790529844165,-0.5828225384227931
1758274022241850600,2.7308505859375,3.0235411812126634,2.816017205673456,-1.033727108041197
1758274022251807500,2.740807373046875,2.6164655241876837,2.770128730201721,-1.0303024673547596
1758274022261765400,2.750765380859375,2.223427160343528,2.72348622149229,-0.7117248126678168
1758274022271723500,2.7607236328125,1.712217175105214,2.5790169602811335,-0.5975939910970628
1758274022281681700,2.770681640625,0.8327081304818391,2.3188281470030545,-0.42302331387177106
1758274022291639600,2.7806396484375,-0.4360620975345373,2.074659325155616,-0.1796870703909546
1758274022301596700,2.7905966796875,-1.9034411732286214,1.9814105480939148,0.1771479803673923
1758274022311554600,2.800554443359375,-3.2063007178515193,1.87507666400969,0.5504233668603002
1758274022321512400,2.810512451171875,-4.321830349180102,1.747117223572731,0.49525414508506654
1758274022331470600,2.820470703125,-6.421891242095827,1.4163479766368865,0.013106661267206072
1758274022341428500,2.830428466796875,-9.535089897879958,0.788088067510724,-0.46244836548306045
1758274022351386600,2.84038671875,-11.15601644425392,0.038517069920897484,0.1482731104735285
1758274022361343700,2.85034375,-6.2290001875430345,-2.1110294461756944,1.183574189833179
1758274022371301600,2.860301513671875,6.306609496924281,-4.246290831810236,0.1825911943346262
1758274022381259800,2.870259765625,8.592030464366077,-2.979332037129998,-1.6330428083643316
1758274022391217400,2.880217529296875,3.5203578994393347,-1.2484317888647316,-4.8769706615597
1758274022401175600,2.890175537109375,-1.808710633176565,-1.8010165715426205,-10.295938076287507
1758274022411132700,2.900132568359375,-7.292851069560647,-1.4614566999077796,-8.80411487968862
1758274022421090600,2.910090576171875,-3.5099598395437,-1.858713558229804,-2.0322499239712952
1758274022431048700,2.920048583984375,3.596221826457977,-2.896706360891461,0.31781609572991726
1758274022441006600,2.930006591796875,5.336081626248359,-2.0148662429720163,0.2684921659167856
1758274022450964500,2.939964599609375,4.824689854702354,-1.4690344416856764,0.3514064498383552
1758274022460922400,2.94992236328125,2.113848010727763,-2.5792273881614207,0.22191417381092904
1758274022470879500,2.95987939453125,2.5493670874267815,-3.6225212198406456,1.3538808529384434
1758274022480837600,2.969837646484375,4.596398400944471,-3.524299330541491,2.4535543050959703
1758274022490795500,2.97979541015625,3.4935993641123173,-2.5758669718176126,2.4427149311736223
1758274022500753700,2.989753662109375,1.3606550232484935,-1.7774924880921839,1.922315677307546
1758274022510711600,2.999711669921875,0.5920680672824382,-1.2077771223932503,1.433855576276779
1758274022520669400,3.00966943359375,1.0232716188699007,-0.788321291744709,1.6759081366226076
1758274022530626600,3.01962646484375,1.4543588506013154,-0.5417103374421596,2.189088983542472
1758274022540584400,3.02958447265625,1.5544839431732893,-0.5287579168885946,2.328585278646648
1758274022550542600,3.03954248046875,1.874846070124209,-0.7733084315299987,1.9292625738359988
1758274022560500700,3.049500732421875,2.352313360236585,-0.7467506794720887,1.608113388160616
1758274022570458600,3.059458740234375,2.2818784725293515,-0.5752770914793014,1.1981707973971962
1758274022580416800,3.069416748046875,1.7043085939377545,-0.39271687680482864,0.5558366240806877
1758274022590373600,3.07937353515625,0.9947504577845334,-0.26139994263350963,-0.12507728172992355
1758274022600331500,3.08933154296875,0.401850908114016,0.030747020441293713,-0.6726756086315959
1758274022610289700,3.09928955078125,0.22832535602748394,0.42417175325453277,-0.8519412387400865
1758274022620247600,3.10924755859375,0.33932635513991116,0.8237462408691644,-0.5990612871706485
1758274022630205700,3.119205810546875,0.24153642751723525,1.0417629688501358,-0.2720154264057986
1758274022640163600,3.12916357421875,0.0549751605078578,1.2580021657645701,-0.26942645109221336
1758274022650120400,3.139120361328125,-0.05712766236662865,1.7208587467223404,0.11202460653912276
1758274022660078600,3.14907861328125,-0.1096425702407956,1.9165140052914618,0.6559172929890453
1758274022670036500,3.159036376953125,0.27858108679801225,1.7363643588900566,1.026020771447569
1758274022679994600,3.16899462890625,0.8634265093505382,1.2112515205055474,1.7374349107310174
1758274022689952500,3.178952392578125,0.912824308117479,0.7044739647567272,2.694851663160324
1758274022699909400,3.188909423828125,0.6323636911831796,0.05467150138616562,2.7917393812462685
1758274022709867500,3.198867431640625,0.6091711777746677,-0.3061696432083845,2.7786493057876824
1758274022719825400,3.208825439453125,-0.3259855197906494,0.001679331389069557,2.7141613437861203
1758274022729783600,3.218783447265625,-1.2461224890090525,0.22677228136658667,2.1761478150352835
1758274022739741400,3.228741455078125,-0.6504594659745693,0.7046259404480457,1.35731418838799
1758274022749699600,3.238699462890625,-0.6848492268323898,1.1309317831218242,0.03476478644898161
1758274022759656700,3.24865673828125,-1.1584511467535048,1.4052975903123617,-0.9377646881066262
1758274022769614300,3.2586142578125,-1.1591046422261744,1.650159070599079,-1.4033495249845087
1758274022779572500,3.268572509765625,-1.1759470559556036,1.5657149467617273,-1.2216750801686196
1758274022789530600,3.278530517578125,-1.0684230122387408,0.9436778576731681,-0.8625085177227855
1758274022799488500,3.288488525390625,-0.15129183724019676,0.7031365786731243,-0.2624842124725692
1758274022809446700,3.29844677734375,-0.10662963389409705,0.8853975181400775,0.08482669341415167
1758274022819403800,3.30840380859375,-0.23717794004678724,0.960625485342741,-0.11603619853435083
1758274022829361700,3.318361572265625,-0.14679098215699196,0.9405272846877575,0.5671484378203749
1758274022839319600,3.328319580078125,0.02433364626765251,0.8953355593085288,1.2011400955315679
1758274022849277400,3.33827734375,-0.06817220347225665,0.6744055742293595,1.2753586664959788
1758274022859235600,3.348235595703125,-0.8247989647924899,0.3662579089462757,1.298241529433429
1758274022869193500,3.358193359375,-1.7774556632131338,0.0643318946570158,1.201727905356884
1758274022879150600,3.368150634765625,-2.3960300446271896,-0.2049339590460062,1.287022654674202
1758274022889108700,3.378108642578125,-2.698610138911009,-0.5272814145952462,1.5981991662591695
1758274022899066400,3.38806640625,-2.636754863500595,-0.6064250939369201,2.1074168086364864
1758274022909024500,3.3980244140625,-2.4920804351061583,-0.42250294325947757,2.6004317964926362
1758274022918982400,3.407982421875,-1.640082497742772,-0.2592927412211895,3.5493428786441683
1758274022928940500,3.4179404296875,-1.2672364425778389,-0.2663473359078169,3.8226492399096488
1758274022938897700,3.427897705078125,-0.7602134607005864,-0.17278817772269248,3.7790623193785544
1758274022948855600,3.43785546875,-0.5685866539299488,-0.40800563135147094,3.4333483090281485
1758274022958813700,3.447813720703125,-0.7075099714517593,-1.0647457850307225,2.9472435389518736
1758274022968771600,3.457771484375,-1.0010452470798046,-1.6366384947687387,1.6865550567127763
1758274022978729500,3.4677294921875,-1.6918413265526293,-2.034531312906742,0.1839012357535772
1758274022988687600,3.4776875,-2.266106026118994,-2.0231039099633694,-0.44283203006088734
1758274022998644500,3.48764453125,-2.388860299128294,-1.9627046785801647,-0.6980933238089084
1758274023008602600,3.4976025390625,-2.6726743181437254,-2.5702918020337817,-0.8814034070026129
1758274023018560800,3.507560791015625,-2.9735306573748588,-3.949938818261027,-0.8034444804660975
1758274023028518700,3.5175185546875,-3.0051690736979246,-5.023815419730544,-0.2778624171346426
1758274023038476500,3.5274765625,-2.743886035442352,-5.696972455203533,0.5210237059073523
1758274023048434400,3.537434326171875,-2.338189850077033,-6.09237813270092,1.1325043662007896
1758274023058391600,3.5473916015625,-2.120610344469547,-5.9441363672137255,1.4103339770443737
1758274023068349700,3.557349609375,-2.5205320380866527,-5.449555445215106,1.0242096303723751
1758274023078307600,3.5673076171875,-3.338979588025808,-4.477112680828571,-0.13614840944837778
1758274023088265700,3.577265625,-4.164095948204398,-3.4705829379230737,-0.836557791647315
1758274023098223400,3.587223388671875,-4.301272714319825,-2.6979671648323533,-0.8602889419771731
1758274023108181500,3.597181396484375,-3.5799428918302056,-2.1174878285348413,-0.331493798350729
1758274023118138600,3.607138671875,-2.378511339071393,-1.4837684849590063,0.18612123162429778
1758274023128096500,3.617096435546875,-1.5213959125638008,-0.9669956048965453,0.3662718278737738
1758274023138054700,3.6270546875,-1.3079554064571857,-1.017295467069745,0.2861905754210427
1758274023148012500,3.637012451171875,-1.2329600789666175,-1.3139952711433172,0.19614402846675366
1758274023157970700,3.646970703125,-1.0839875149868428,-1.8838357245266437,0.3128602268882096
1758274023167928600,3.656928466796875,-0.9277626417912542,-2.738112128216028,0.14464688280038535
1758274023177885400,3.666885498046875,-0.4792939210176468,-3.0057436587154864,-0.03615720892176032
1758274023187843600,3.676843505859375,0.33074118988513945,-2.6265567100912333,-0.09073847474120557
1758274023197801500,3.686801513671875,1.9210966569066046,-2.079081233251095,0.10400449128858745
1758274023207759600,3.696759521484375,2.928803042376041,-1.8602666328907012,0.15983831445239483
1758274023217717800,3.7067177734375,3.0478172520741817,-1.6603285824358462,-0.29911797113120553
1758274023227675600,3.716675537109375,2.8619807922080156,-1.1195534800171851,-0.017530615189298986
1758274023237633500,3.726633544921875,2.9959038172245025,-1.049815342402458,0.21318258582279084
1758274023247590700,3.736590576171875,2.820620023293793,-0.8491016313999891,-0.4085151883088052
1758274023257548500,3.746548583984375,2.5189471069827674,-0.7735404867202043,-0.7796514438811689
1758274023267506700,3.756506591796875,2.5410005333587526,-0.7068494617164135,-0.7639137765232473
1758274023277464600,3.766464599609375,2.4589772069275377,-0.47464112677574155,-1.0934839498676359
1758274023287422700,3.776422607421875,1.0459095671355725,-0.8039221809804439,-1.6211384355589746
1758274023297380400,3.78638037109375,1.02901688452363,-0.6850012025237083,-1.8792030962899327
1758274023307337500,3.79633740234375,1.1940487490311265,-0.9588421090573072,-2.2496461819663645
1758274023317295600,3.806295654296875,1.8737872087210417,-1.2073504214137791,-2.4043955757819115
1758274023327253500,3.81625341796875,3.398421664814651,-0.7706587938040494,-0.26097294939309357
1758274023337211600,3.826211669921875,4.011563499785959,-1.3047995727747679,0.18808343507535755
1758274023347169500,3.83616943359375,3.7827681881591677,-0.5662012200981378,-0.7372676155295222
1758274023357127700,3.846127685546875,3.1646827593058346,0.6889227598816156,-0.45576370008736844
1758274023367084500,3.85608447265625,3.1009219425350425,0.4944938282370567,-0.11280497979447245
1758274023377042400,3.86604248046875,3.223477478101849,0.019104513442516326,0.5727570714823901
1758274023387000600,3.87600048828125,3.259108763453364,-0.31316520118415353,0.8546061471004038
1758274023396958500,3.88595849609375,3.431822122374177,-0.6175935536831617,1.6706204054780303
1758274023406916600,3.89591650390625,3.972128438237309,-0.37239889591932296,1.2625479925006626
1758274023416874800,3.905874755859375,4.361356303882599,0.10293781190514564,0.6230094412520527
1758274023426832600,3.91583251953125,4.161420006993413,0.8233680552065372,0.592505728047341
1758274023436789500,3.92578955078125,4.726502452194691,1.566019482666254,0.44127194113731383
1758274023446747600,3.93574755859375,4.54151354906857,3.208849233290553,-0.08901070110052824
1758274023456706000,3.9457060546875,4.120519841328263,3.660257368516922,-0.9153132023237646
1758274023466664000,3.955663818359375,3.366930840268731,3.652537587919831,-1.9248028179481624
1758274023476621800,3.965621826171875,3.319037454715371,3.8921751960784197,-1.5357196214705704
1758274023486580000,3.975580078125,3.4598271506309506,4.105034687426686,-1.1680629516422747
1758274023496537000,3.985537109375,2.9328765754252673,3.467869002789259,-2.3129994408495724
1758274023506495000,3.995494873046875,3.477446978473663,3.3164778333604334,-1.7097500543393194
1758274023516453000,4.005453125,3.405112394624948,3.104166039022803,-1.030985700378567
1758274023526411000,4.015410888671875,3.3734465057730674,2.892596002963185,-0.5079918999746441
1758274023536369000,4.025368896484375,3.455503442212939,2.6259002920091152,-0.12962693525776267
1758274023546326800,4.035326904296875,3.0521932752013203,2.5170675768464803,0.011666180135309696
1758274023556284000,4.045283935546875,2.1295576210349796,2.641032979211211,0.30003742406368256
1758274023566242000,4.055241943359375,0.6270078632384538,2.7945839570224282,0.8729362421043216
1758274023576200000,4.065199951171875,-1.359915895318985,2.7505414016783236,0.8295603339754044
1758274023586158000,4.075157958984375,-3.948820043364167,2.7347037810772656,0.14492708798125387
1758274023596115700,4.08511572265625,-6.20494828082621,2.8364678730279205,0.09092413350641727
1758274023606073900,4.095073974609375,-7.036952646952867,2.6777275098800657,0.5315067772053181
1758274023616032000,4.105031982421875,-6.036649815738201,2.4322277316898107,1.1616032541088759
1758274023625988900,4.11498876953125,-3.486138234451413,2.49064075769186,1.482575183521211
1758274023635947000,4.124947021484375,0.5869762971013784,2.7543203356951476,2.0990360799126324
1758274023645905000,4.13490478515625,2.398503741264343,1.1323019024312495,1.0678041496880353
1758274023655863000,4.144863037109375,-1.0259200875520706,-3.6116730780899524,-1.9466564839683471
1758274023665821000,4.154821044921875,-2.313765602916479,-8.466265903624892,-4.798569909539818
1758274023675778800,4.16477880859375,-1.7897072420209645,-10.742058041977883,-6.667105773603915
1758274023685736000,4.17473583984375,3.7781156861782073,-7.007993094450235,-4.633170380763709
1758274023695694000,4.184694091796875,0.5011415956884623,-1.2376783396601676,-1.1601301128163932
1758274023705652000,4.19465185546875,-1.490275967156887,0.46256315096914763,-3.150063866844773
1758274023715610000,4.204610107421875,-2.903454666107893,1.39992934127748,-4.798190554833412
1758274023725568000,4.214568115234375,0.38229426698982716,1.493793619889021,-3.568442715911567
1758274023735526000,4.22452587890625,4.237789545446634,1.0452215848714113,-1.4736919121026992
1758274023745483000,4.23448291015625,6.3256812771409745,0.30251930400729177,0.5455939739424736
1758274023755441000,4.24444091796875,5.706536986884474,-1.2786170837700366,0.8535253661263733
1758274023765399000,4.25439892578125,3.5012124694645403,-3.1204449736505744,-0.1663764109842479
1758274023775357000,4.26435693359375,1.9166227263629436,-4.141698822957277,-0.08715177536085247
1758274023785315000,4.274315185546875,2.4236580562651158,-4.679494032782316,0.8656518572498112
1758274023795272700,4.284272705078125,3.1159967620700595,-4.388755182939768,2.578362880286574
1758274023805230800,4.29423095703125,2.5675267212346196,-3.6938165237694975,2.639244049967825
1758274023815188000,4.30418798828125,1.7349278963461516,-2.478926939022541,1.8562017215393483
1758274023825145900,4.314145751953125,1.3347259244829415,-1.2652221801459789,1.5605553720414638
1758274023835104000,4.32410400390625,1.4882500142872332,-0.6034843643099069,0.9103885323379188
1758274023845062100,4.334062255859375,1.5354112861737608,-0.055439563149213784,0.2182731504274532
1758274023855020000,4.34402001953125,1.6938827692523597,0.681969287481904,-0.2155423372240737
1758274023864978000,4.35397802734375,1.9795754416212439,1.2001555414736271,-0.31017686955574897
1758274023874935800,4.363935791015625,1.8421271650880575,1.1907084986925125,-0.260422402838245
1758274023884893000,4.373892822265625,1.8110671331748365,1.0750544130772353,-0.009305917277373373
1758274023894851000,4.38385107421875,1.9560767848730085,1.042847841477394,0.5871424474485218
1758274023904809000,4.39380908203125,1.9304110132187604,0.8453490008682012,0.9992476230733096
1758274023914767000,4.40376708984375,1.725325516872853,0.5686304930716752,1.3106477142810822
1758274023924725000,4.41372509765625,1.5432146534010767,0.5080348623335361,1.6002653050087392
1758274023934683000,4.423682861328125,1.144164481921494,0.41131577881276604,1.3300854052007198
1758274023944640000,4.433639892578125,0.8195910208858549,0.2520078449100256,0.8976436901204288
1758274023954598000,4.443597900390625,0.15446005548015235,0.34186347240209575,0.25986758196707815
1758274023964556000,4.45355615234375,-0.045552813776582476,0.9045365183740853,-0.025524938411451873
1758274023974514000,4.463513916015625,-0.22568989295735953,1.4119658160299062,0.08917577373543753
1758274023984472000,4.47347216796875,-0.7522785029828548,1.5393243679642676,0.5432931131215766
1758274023994430000,4.483429931640625,-0.3944586059056222,1.6582336559832096,0.5344823954826221
1758274024004387800,4.493387939453125,-0.5800736050408333,1.4301386015802622,0.8292541906356811
1758274024014345000,4.503344970703125,-0.34070136982016264,0.9369184465408325,0.39554910455606873
1758274024024302800,4.513302734375,-0.6960709511358291,0.49566754819154735,0.1266013038262725
1758274024034261000,4.523260986328125,-0.4993220521111041,0.5719172596573829,0.21258703108243643
1758274024044219100,4.53321923828125,0.05504786041788756,0.7082581594705581,0.625792130773142
1758274024054177000,4.543177001953125,-0.6444494119048119,0.3934358387291431,0.9893994521453976
1758274024064135000,4.553135009765625,-1.1250478396497665,0.41075756040811534,0.8756568992398679
1758274024074092800,4.5630927734375,-1.5842390299677849,0.5448872139126062,0.832797854591906
1758274024084050000,4.5730498046875,-2.039857476365566,0.5258282931774855,0.8268393845789134
1758274024094008000,4.583008056640625,-1.8366846817731857,0.5530179133981465,1.1118901788476854
1758274024103966000,4.592966064453125,-1.4667980609357356,0.5883844103336334,1.968237762787938
1758274024113924000,4.602924072265625,-1.1588520557045936,0.8200485553950071,2.411385726930201
1758274024123882000,4.612882080078125,-0.9594903438329696,0.9712760586947202,2.634131821520626
1758274024133840000,4.62283984375,-0.8891104011833667,0.6706985364049672,2.5476848334282636
1758274024143797000,4.632796875,-1.340499247187376,0.5228437244087457,2.173988883435726
1758274024153755000,4.6427548828125,-1.941792238932848,0.51414486964643,2.0015913124658167
1758274024163713000,4.652713134765625,-2.2083342206299306,0.4457897108227014,1.6905261523008346
1758274024173671000,4.6626708984375,-2.8674083702147004,0.4675982225269079,1.2453889140374959
1758274024183629000,4.672629150390625,-3.344028103587031,0.5537812989860773,1.0958830468986183
1758274024193587000,4.6825869140625,-2.9223458290606734,0.7260323010921478,1.6978412976197896
1758274024203544800,4.692544921875,-1.8237398600041865,0.4545744903028011,2.8773882046982644
1758274024213502000,4.702501953125,-1.534961496579647,-0.0541711506485939,2.981429009409249
1758274024223459800,4.7124599609375,-0.9204273304671049,-0.35039866103529926,2.910073207464814
1758274024233418000,4.72241796875,-0.33698852330949153,-0.9069751436978578,2.6391566639453172
1758274024243376000,4.732376220703125,-0.16129764641523361,-1.3169435995548964,1.8335025446057318
1758274024253334000,4.742333984375,-0.7519266208052635,-1.5917653338193893,0.8249120697781444
1758274024263292000,4.7522919921875,-1.2353057653099297,-1.5179747059434652,-0.05717084392122924
1758274024273249800,4.762249755859375,-1.2249860313475132,-1.4361165069460868,-0.49950106193982063
1758274024283207000,4.77220703125,-0.9961971494615077,-1.4552859023183584,-0.5668943899940699
1758274024293165000,4.7821650390625,-0.6114554893195628,-1.7633172477453947,-0.42374687890596685
1758274024303123000,4.792123046875,-0.6099421986797824,-2.862313677424192,-0.3175459004864096
1758274024313081000,4.8020810546875,-0.6282424465347081,-4.6901551275283095,-0.10012209689728915
1758274024323039000,4.8120390625,-1.0531213982105254,-5.995460311737657,-0.08046148394197225
1758274024332996900,4.821996826171875,-2.0338854162186384,-6.461696598261595,-0.6922522696305066
1758274024342954800,4.831954833984375,-3.344638344439864,-6.5013540703892705,-1.1750107980187983
1758274024352912000,4.841911865234375,-4.462752147042751,-6.293434373530745,-1.1650189808364957
1758274024362870000,4.8518701171875,-4.559709715494513,-5.387635287874937,-0.24227606690339742
1758274024372828000,4.861827880859375,-3.9883740551173683,-4.41355527767539,0.8883082910202443
1758274024382786000,4.8717861328125,-3.2926953912347554,-4.069619675174355,1.3860691582292317
1758274024392744000,4.881743896484375,-2.413120295637846,-4.00614410508573,1.0525254050787538
1758274024402701800,4.891701904296875,-1.9172440731316804,-3.670553721603751,0.6749716106142848
1758274024412659000,4.901658935546875,-1.7264987984359264,-2.833374583187699,1.015123164531961
1758274024422616800,4.911616943359375,-1.6357354084491729,-2.2608581885933874,1.0416006178952752
1758274024432575000,4.921574951171875,-1.7186323028445243,-2.312247599568963,1.1520778123293072
1758274024442533000,4.931533203125,-1.568854413831234,-2.6230764667600392,0.7454224996082485
1758274024452490800,4.94149072265625,-1.0277320323448627,-2.9385657269775867,-0.2839909099522978
1758274024462449000,4.951448974609375,-0.23164836297035216,-3.191497116473317,-1.0095663341224193
1758274024472406800,4.96140673828125,0.761412095900625,-2.356612226474285,-0.9165746005617081
1758274024482364000,4.971364013671875,1.5798222364388406,-1.6040478922873735,-1.1260580396056175
1758274024492322000,4.981322021484375,2.397699439144134,-1.4028829303860664,-1.690185960561037
1758274024502279700,4.99127978515625,2.399925006239116,-1.3828209700882435,-2.0039910670839247
1758274024512237800,5.00123779296875,2.8319305218592286,-0.7658002478569745,-2.018360514828563
1758274024522195700,5.01119580078125,3.5024469796955584,0.10903320617079734,-1.7454884533271193
1758274024532153900,5.02115380859375,3.1380931508049366,0.006630231794714927,-1.9276301503285764
1758274024542112000,5.031112060546875,1.8808888574197886,-0.6207610778033733,-2.5805104137092827
1758274024552068900,5.04106884765625,1.5635186057612298,-0.5091244111359119,-2.592911922381818
1758274024562026800,5.05102685546875,2.1668521634235978,-0.0038180969834327697,-2.3680388987652954
1758274024571984600,5.060984619140625,1.800545739160478,-0.06714578303396701,-2.976458819781244
1758274024581942800,5.07094287109375,0.8588982182711362,-0.08376198679208754,-2.7805536781042814
1758274024591901000,5.08090087890625,1.469178818592429,0.10451251387596129,-1.7872393906027078
1758274024601858800,5.09085888671875,1.8941385073542594,-0.10699088668823241,-0.30470095889531074
1758274024611817000,5.10081689453125,3.1313749484658238,-0.3107306675136089,1.8738034292034804
1758274024621774000,5.110774169921875,4.3282057294309135,-0.6022562838196754,3.603161562593281
1758274024631731700,5.120731689453125,4.230079701721668,-0.3085790424376726,2.0611685599416494
1758274024641689900,5.13068994140625,3.3825551103800535,0.46151802583038803,1.5196101981908081
1758274024651647700,5.140647705078125,3.5073949574917553,0.7153495790362357,1.6437202697232365
1758274024661606000,5.15060595703125,3.6860330302864313,0.12505845829844475,1.50969407659322
1758274024671563800,5.160563720703125,2.807137733647227,-0.08977320990562439,0.2574327195029706
1758274024681522000,5.17052197265625,2.973190465635061,-0.20731997739970684,0.29564649562835693
1758274024691479000,5.18047900390625,4.0311119576036925,0.2799310401022434,-0.09491736786104737
1758274024701436700,5.190436767578125,3.9833161872059106,0.7724579521805047,0.3347401963934302
1758274024711394800,5.200394775390625,4.0847307350665325,1.288717037501931,0.4534963396772742
1758274024721352700,5.210352783203125,4.6019016745358705,2.548417239356041,0.16606953699216245
1758274024731310800,5.220310791015625,4.568030969116092,3.152157039731741,-0.37085838847905395
1758274024741269000,5.23026904296875,3.907351722422242,3.4951357798993588,-0.719353261719644
1758274024751227000,5.240226806640625,3.320335093310475,3.7695793285012242,-0.8062190597459673
1758274024761183700,5.250183837890625,3.0790269215911623,3.545268468812108,-1.0798232349142431
1758274024771142000,5.260141845703125,3.0325340504854914,3.236138222232461,-1.0428386352576315
1758274024781099800,5.270099853515625,3.089501553854346,2.8116993424743413,-0.967213485430926
1758274024791058000,5.280057861328125,3.205755358928442,2.5158850890636444,-0.8030331231862307
1758274024801015800,5.290015869140625,3.293216200238466,2.2870669810831545,-0.4360132899567485
1758274024810974000,5.299973876953125,3.201553231063485,2.225209367585182,-0.23008096752315757
1758274024820931800,5.309931884765625,3.0149755974411963,2.5137545067757365,0.002587678405642509
1758274024830888700,5.319888671875,2.7673616035759445,2.8050363774538036,0.3975410820908844
1758274024840846800,5.329846923828125,2.3345915333241223,2.90170753017962,0.6395828287817538
1758274024850804700,5.3398046875,1.5237234787285328,2.9291157615870236,0.6419361139096319
1758274024860763000,5.349762939453125,-0.0656605129122734,2.7699112880587577,0.5969597848467528
1758274024870720800,5.359720703125,-2.218165294292569,2.549451843100786,0.29495208362340924
1758274024880679000,5.369678955078125,-4.334595138207078,2.39871475366652,-0.18236250014528632
1758274024890636800,5.37963671875,-5.316531122604013,2.3488141199439765,-0.6840190596185625
1758274024900593700,5.38959375,-4.602916989058256,2.5533716468930243,-1.0904638713940977
1758274024910551800,5.3995517578125,-4.418347188127041,2.75340146728456,-1.6012936251431702
1758274024920509700,5.409509765625,-4.374597478249669,2.7684324476778506,-1.6037487632103264
1758274024930467800,5.4194677734375,-4.050744294312596,0.9570897124320268,-1.0449876299850642
1758274024940426000,5.429426025390625,-2.0821920587480065,-3.7586312335073946,-0.613733224993199
1758274024950383900,5.4393837890625,1.1498463269501924,-6.624940118047594,-1.8144445006534455
1758274024960342000,5.449342041015625,-0.5533288790434598,-7.500987039518356,-3.0544477761298414
1758274024970299000,5.459298828125,4.136893468502164,-6.374587054607272,-5.284641361868381
1758274024980256800,5.4692568359375,-0.2170540204286575,-3.193253604751825,-3.471925000181794
1758274024990215000,5.47921484375,-1.2629232555538414,-2.4151783972114322,-0.3942484702862799
1758274025000172800,5.4891728515625,2.1529075169622898,-0.8909452153950929,0.27000308193638917
1758274025010131000,5.499130859375,2.0849469104140996,1.4731407079607248,-0.31349004922434687
1758274025020088800,5.5090888671875,2.4379250665485857,1.887279727500677,-0.4716346384361386
1758274025030047000,5.519046875,2.238822297874093,0.9901181218087672,-0.37180356037467716
1758274025040003800,5.52900390625,2.718226109007001,-0.5793769280135631,-0.761464118348807
1758274025049961700,5.538961669921875,3.442579078710079,-1.9336837512791156,-0.8625308756850659
1758274025059920000,5.548919921875,3.293105725601315,-2.5469851607263085,-0.6046279083218425
1758274025069877800,5.558877685546875,2.3646181305363774,-2.7871277957975864,-0.22786372986510395
1758274025079836000,5.5688359375,1.5066291360646484,-3.0971570370435715,-0.23273798483796415
1758274025089794000,5.5787939453125,0.6833113497406244,-2.7963480440855024,0.7561207845594734
1758274025099752000,5.588751953125,0.6713245593488216,-2.353963757792115,0.8548265118528157
1758274025109708800,5.598708740234375,1.1087193667918442,-1.4423954410851,0.6274414323501288
1758274025119666700,5.608666748046875,1.626466060322523,-0.38337855509519575,0.531091182141751
1758274025129624800,5.618624755859375,1.948895933458209,0.4851648588776588,0.4169273350842297
1758274025139583000,5.6285830078125,2.1493848957940935,1.1100941622763871,0.19938187787681816
1758274025149540900,5.638540771484375,2.2784695408686995,1.3334808928579092,-0.11175700511150062
1758274025159499000,5.6484990234375,2.184240520597994,1.1925292843788862,-0.25034634143859147
1758274025169457000,5.658456787109375,1.8963851172372697,0.7257593293696641,0.24140176828689872
1758274025179413800,5.668413818359375,1.2794000508412717,0.27418635897040367,0.32334684185013174
1758274025189372000,5.678371826171875,0.9371601463422179,-0.10412322229743003,0.17340360620729625
1758274025199329800,5.688329833984375,0.7576330157533288,-0.07400923906266689,0.5124941067647188
1758274025209288000,5.698287841796875,0.5486173403516411,0.28569442593455313,0.9306832054130733
1758274025219245800,5.708245849609375,0.570779487799108,0.40074470043778415,1.3216358490243554
1758274025229204000,5.718203857421875,0.722894879849255,0.33253976373970506,1.735169596147537
1758274025239161900,5.728161865234375,0.6664110683441161,0.2618243055254221,1.8742381673589348
1758274025249119700,5.73811962890625,0.4132882479295134,0.07224339843392372,2.0275060904450712
1758274025259076900,5.748076904296875,0.40778088268488644,-0.17840543308258056,2.620005388751626
1758274025269034800,5.75803466796875,0.5603066091015935,-0.4073492132693529,3.675981007349491
1758274025278993000,5.767992919921875,0.7751343317829072,-0.5717740517944098,3.659734805947542
1758274025288951000,5.777950927734375,0.36338688355460763,-0.17313713729083538,3.0482208644390103
1758274025298909000,5.787908935546875,-0.2565944420479238,0.5507581517726182,2.626554956525564
1758274025308866800,5.79786669921875,-0.27644261346459387,0.6833294699192046,1.8292090851955114
1758274025318824700,5.80782470703125,0.1610369496524334,0.5133160176068544,0.9974039679680019
1758274025328781800,5.81778173828125,-0.019175678982585667,0.5498170715302229,0.4130860764209181
1758274025338740000,5.827739990234375,-0.20962920419014988,0.64823886731565,0.1078454576909542
1758274025348697900,5.83769775390625,-0.10429740982055663,0.9251923529118299,-0.07982873899638653
1758274025358656000,5.847656005859375,-0.09174765178374945,1.0713029515892267,-0.6439762414351106
1758274025368614000,5.85761376953125,-0.736277727709338,0.8441589143007994,-1.2927069839209318
1758274025378571800,5.86757177734375,-0.6822363409202545,0.9531927049934863,-1.3123644550710916
1758274025388529700,5.87752978515625,-0.48015075704269106,1.0872393563896416,-1.0746697976738213
1758274025398486800,5.88748681640625,-0.7250164020478725,0.9244213685393333,-1.3280807873800395
1758274025408445000,5.89744482421875,-1.0876701490223406,0.9986322676539421,-1.2116155315123498
1758274025418402800,5.90740283203125,-1.0486007059156894,0.7914426386356354,-1.126711535078287
1758274025428361000,5.91736083984375,-1.0300491501808167,0.5496399613976478,-0.9077266196522861
1758274025438318800,5.92731884765625,-0.9990835185527801,0.5996066460937262,-0.6325161783311516
1758274025448276700,5.93727685546875,-0.9944541051864624,0.7268138068586587,-0.19835553050376473
1758274025458235000,5.94723486328125,-1.2801859405219553,0.7984662536621093,0.04466784763559699
1758274025468191700,5.957191650390625,-1.577438702303171,0.870012317481637,0.5722539442658424
1758274025478149600,5.967149658203125,-1.8770096778988836,0.6085562607467174,1.0206212504915892
1758274025488107800,5.977107666015625,-2.0877613833129405,0.22170155397355557,1.6690001107998191
1758274025498065700,5.987065673828125,-2.074835266244411,-0.16366671363413332,2.3392240154303607
1758274025508023800,5.99702392578125,-2.002070474284887,-0.37291327518224715,2.660621476778388
1758274025517981700,6.006981689453125,-1.987626353868842,-0.31692601502239703,2.877777204015851
1758274025527939800,6.01693994140625,-2.087676043117046,-0.10013152231276035,2.909936721603572
1758274025537896700,6.026896728515625,-2.3443062871307134,-0.03471826215982437,2.762556833642721
1758274025547854600,6.0368544921875,-2.572483174598217,-0.1243979485630989,2.612151460380852
1758274025557812700,6.046812744140625,-2.7084406280517577,-0.4061287315636873,2.291489473700523
1758274025567770600,6.0567705078125,-2.733225525218248,-0.7553951736986637,2.115994667367637
1758274025577728800,6.066728759765625,-2.4011235683739183,-1.0436597423821687,2.0985756227940318
1758274025587686700,6.076686767578125,-1.859302756294608,-1.2431991489082574,1.9622779776006936
1758274025597644800,6.086644775390625,-1.3670160827130078,-1.5810720903694628,1.7187072677768767
1758274025607601700,6.0966015625,-0.783935112549737,-1.9057944583564996,1.456573604041338
1758274025617559600,6.1065595703125,-0.37348555864486843,-2.4070038585841655,0.9376994408506899
1758274025627517700,6.116517578125,-0.5018161339491606,-3.054221566158533,0.12961933647319673
1758274025637475800,6.126475830078125,-1.1406307548373937,-3.736497727632522,-0.5511386024575681
1758274025647433700,6.136433837890625,-1.985425628954172,-4.494507467743754,-0.46176717828586694
1758274025657391900,6.146391845703125,-2.2794623512983323,-5.405407091408968,0.3217444481547922
1758274025667349500,6.156349609375,-1.656639226398617,-5.828427336540818,1.0605318936627357
1758274025677306600,6.166306640625,-1.009823669884354,-5.633797329366207,1.1635500773277132
1758274025687264800,6.1762646484375,-1.2621002487331627,-5.187518373721837,0.829461768971756
1758274025697222700,6.18622265625,-2.020532013648748,-4.920538000607491,0.23140651703849432
1758274025707180800,6.196180908203125,-3.0154321090370413,-4.49056194498837,-0.8259002770978957
1758274025717138700,6.206138671875,-3.690006025570631,-3.51514454870522,-1.0477473770219832
1758274025727096800,6.216096923828125,-3.546874150443077,-2.3611340878129004,-0.07967676330506801
1758274025737054500,6.226054443359375,-2.6268390341639516,-1.3634715419739485,1.3411346224814653
1758274025747011600,6.236011474609375,-1.7632728240817783,-0.7613064435690641,2.1507653903670607
1758274025756969700,6.2459697265625,-1.313870767980814,-0.6766127288848162,2.116302710403502
1758274025766927600,6.255927734375,-1.0510942762970923,-0.8355477378219366,2.0579174491912124
1758274025776885800,6.2658857421875,-1.2083026075720786,-1.2208341723650693,1.964408852149546
1758274025786844000,6.275843994140625,-1.2451754174172878,-1.4232874205112456,2.342047256157547
1758274025796801800,6.2858017578125,-1.1877134085297585,-1.4299346034407614,1.7559886584229767
1758274025806759700,6.295759765625,-1.1844681429982185,-1.7907541207253932,0.2495829558506608
1758274025816717600,6.305717529296875,-0.6265186184167861,-2.0062381153583524,-0.14584493347853422
1758274025826674700,6.3156748046875,-0.6474490321122109,-1.9816233140617607,0.21387451360970736
1758274025836632800,6.3256328125,0.24671353789418934,-2.169520213589072,0.7259082363210618
1758274025846590700,6.3355908203125,2.387787116938829,-2.430740708002448,0.7872519089475274
1758274025856548900,6.345548828125,4.306845546016097,-2.043425397980213,1.0751428220130503
1758274025866506500,6.355506591796875,5.049619138550758,-1.567860142096877,0.6225996914073825
1758274025876464600,6.365464599609375,5.2264989695012565,-1.0379220755130052,-0.07670008558183908
1758274025886422500,6.375422607421875,4.621676342324912,-0.4578150796592235,-0.4264541651032865
1758274025896379600,6.385379638671875,3.5302097236290573,0.010629530563950537,-0.7496667130492627
1758274025906337800,6.395337890625,2.8512814112782476,0.16574702703952787,-1.1047826118648052
1758274025916295700,6.405295654296875,1.6922361710891127,0.025901918497681618,-0.7928003368549048
1758274025926253800,6.41525390625,1.2271315189436078,-0.5157008669167756,-0.20187062595263122
1758274025936211700,6.425211669921875,1.7875053480625152,-0.7137947508096695,0.11845686807632445
1758274025946169600,6.435169677734375,2.251105148603022,-0.8904045326471328,-0.029805794068425893
1758274025956127700,6.445127685546875,2.379736496952176,-0.9863795198023319,-0.0018264847747981546
1758274025966084600,6.455084716796875,2.7704414494127034,-0.7976590289324521,-0.3192709707133472
1758274025976042800,6.465042724609375,3.0846628816515205,-0.6533727230727672,-0.04583616076260805
1758274025986001000,6.4750009765625,2.9753192943572997,-0.7889759562611579,-0.7012753148458898
1758274025995958800,6.484958740234375,2.806820922783017,-0.6260276200294494,-0.5051195594087243
1758274026005916700,6.494916748046875,2.5955525000184774,-0.5754004255980253,-0.14611673615723847
1758274026015874600,6.50487451171875,2.4769734668672085,-0.489836357820034,-0.0832087368234992
1758274026025832700,6.514832763671875,2.8635370817393064,-0.4139367749661207,-0.307089972923696
1758274026035789800,6.524789794921875,3.341159854674339,-0.15013210927844048,-0.22358576028496024
1758274026045747700,6.534747802734375,3.2363568334192037,-0.052198389270901674,0.1705915444612503
1758274026055705900,6.544705810546875,3.5174639315634963,-0.1514905381500721,0.8510778999090194
1758274026065663500,6.55466357421875,3.0524025340378285,-0.8299082706302404,1.0577049266085028
1758274026075621600,6.56462158203125,2.257268639668822,-0.7775736877590418,0.8899149955645204
1758274026085579500,6.57457958984375,2.7105612734675404,0.2926560816407203,0.9623825581431388
1758274026095537700,6.58453759765625,2.9423651192605496,0.6374678824543952,1.5615987436145544
1758274026105494800,6.594494873046875,3.000042232203483,1.209945114082098,1.28813163882941
1758274026115452700,6.60445263671875,3.12401523335278,2.3022721489995717,0.4212421295434236
1758274026125410800,6.614410888671875,3.3269401906639335,2.8796412443220616,-0.25140344927608965
1758274026135368700,6.62436865234375,3.3523844285219906,3.25894860445559,-0.9596151392564177
1758274026145326600,6.63432666015625,3.4417595790207383,3.2312177169650793,-1.3569965007409452
1758274026155284700,6.64428466796875,3.694530224996805,2.987045972508192,-1.5303466962605714
1758274026165242600,6.65424267578125,3.801353938424587,2.8935049345016477,-1.3073191543802618
1758274026175199700,6.66419970703125,3.830641992229223,2.7609967447191477,-0.8922343784227966
1758274026185158000,6.674157958984375,3.741684774881601,2.676511119827628,-0.37560558300614355
1758274026195115800,6.68411572265625,3.4986844122916456,2.4912907460331914,0.08708265564739703
1758274026205073700,6.69407373046875,3.087935619711876,2.305569436979294,0.2918415503874421
1758274026215031600,6.704031494140625,2.49047299990952,2.1201626007020473,0.6128469436779618
1758274026224989700,6.71398974609375,1.7403630731374025,1.7585247527718544,0.9407999641492962
1758274026234947600,6.723947509765625,0.8266875550180673,1.4866712206631898,1.224169454267621
1758274026244904700,6.73390478515625,-0.5969494095832109,1.4230103571355341,1.5732622934013605
1758274026254862800,6.74386279296875,-2.3228584254324436,1.6632950310260057,1.6569634899169206
1758274026264820500,6.753820556640625,-4.552622972103953,2.0465373925209045,1.4089146117657423
1758274026274778600,6.763778564453125,-6.421591966888308,2.5761785219848155,0.8030950825065374
1758274026284736500,6.773736572265625,-7.178405190691351,3.18022694991827,0.23164807070940732
1758274026294694700,6.783694580078125,-6.597799013143778,3.509314527377486,-0.1425222187966108
1758274026304652800,6.79365283203125,-3.3853193143963813,3.561221824747324,0.03306698782145977
1758274026314609700,6.803609619140625,1.027603510594368,3.222427676787972,0.3978495635181665
1758274026324567800,6.81356787109375,0.4211041823774576,1.0606284128397703,-1.3760375935584306
1758274026334525700,6.823525634765625,-4.82395101903379,-3.2352924190580845,-4.9771699884116645
1758274026344483600,6.833483642578125,-3.99407781971693,-7.316265262895822,-6.514879906916618
1758274026354441700,6.843441650390625,0.4182143061548471,-10.090238978087902,-5.068506794372201
1758274026364399600,6.853399658203125,7.7962325531303875,-9.94693525352478,-0.27039719582051036
1758274026374357800,6.863357666015625,7.099826159495115,-5.446255234625935,3.053460518658161
1758274026384315000,6.87331494140625,0.816223444148898,-1.2270166603922843,-0.18016981240659952
1758274026394272800,6.883272705078125,-2.7145225783139466,0.8368500525921583,-4.4008366658777
1758274026404230700,6.893230712890625,-1.896696375143528,1.9207301616817711,-4.299867523697018
1758274026414188500,6.9031884765625,2.813319052630663,2.1930577410429715,-2.0063544352144
1758274026424146700,6.913146728515625,4.567534710031747,2.257206095826626,0.26150004200711846
1758274026434104600,6.9231044921875,4.951784787264466,1.3162100245833397,1.17198377834782
1758274026444062700,6.933062744140625,3.8445284787625074,-0.1967418847620487,0.4953003223143518
1758274026454020400,6.943020263671875,1.3981956493526697,-1.677748503792286,-0.3570921673245728
1758274026463978200,6.952978271484375,0.6212891933307051,-2.708074717348814,-0.0942835269369185
1758274026473936400,6.962936279296875,1.0716519111573695,-3.0143583423256874,0.8731625982061028
1758274026483894300,6.972894287109375,1.4713269365370272,-2.621998608395457,1.5427461591064928
1758274026493852400,6.982852294921875,1.6598989588469266,-2.1737135736256836,1.625924062400311
1758274026503810300,6.992810302734375,1.6604320428103208,-1.4671265622377394,1.6932696057900785
1758274026513767200,7.00276708984375,1.6332728177279232,-0.7031845094680785,1.7273092380359767
1758274026523725300,7.012725341796875,1.634985466864705,-0.2624655260384083,1.2852053761191666
1758274026533683200,7.02268310546875,1.8018883859410881,0.0527811575949192,0.8984374708466232
1758274026543641300,7.032641357421875,1.7817966150268911,0.04265665394365787,0.2536335464157164
1758274026553599200,7.04259912109375,1.4831649661079047,-0.36680443691313264,-0.33817243586443363
1758274026563557400,7.052557373046875,1.300069621643424,-0.7796370500296353,-0.8146764339026064
1758274026573515500,7.062515625,1.9404481308475137,-0.28507950890660283,-0.38902423283196985
1758274026583472000,7.07247216796875,2.553076171077788,-0.0969920552432537,0.8057879017870873
1758274026593430300,7.08243017578125,2.3999233988039195,-0.19803484718203543,0.4985983409464359
1758274026603388400,7.092388427734375,1.4068153013989328,0.3755331022918224,-0.279974915776588
1758274026613346300,7.10234619140625,1.1545347770273684,0.9161082982242107,-0.11762710272129624
1758274026623304400,7.112304443359375,0.877314603319019,1.1629670898079871,-0.6564861058529466
1758274026633262300,7.122262451171875,0.7693393817685544,1.7720505892992018,-1.0617335976026951
1758274026643220500,7.132220458984375,0.6756402305908501,2.423767361858487,-0.6432802219949663
1758274026653177300,7.14217724609375,0.26843451744541524,2.2924434134244915,0.021234620806388556
1758274026663135200,7.15213525390625,-0.07685425323024392,1.3544728274822235,0.4389981875190511
1758274026673093400,7.16209326171875,-0.18726327779889107,0.29848727201223374,0.7540203051488846
1758274026683051300,7.17205126953125,-0.9076748163998126,-0.45977439703345296,0.7938399821009486
1758274026693009400,7.182009521484375,-1.371163265520334,-0.7477969736546277,1.5452088959582149
1758274026702967300,7.19196728515625,-1.0326139591675252,-1.1057084945380686,1.64787271322757
1758274026712925200,7.20192529296875,-0.5466951401174068,-0.5529278970271349,0.9656045889295637
1758274026722882300,7.21188232421875,-0.49550738919377324,0.3625432723373174,0.9919705447424203
1758274026732840200,7.221840087890625,-0.648466246330738,0.8215963693588971,1.5940011300474404
1758274026742798300,7.23179833984375,-0.5317196893036366,0.8392430852085352,1.762909543727338
1758274026752756500,7.241756591796875,-0.8881728280723095,0.7087555875986814,1.6992073252759874
1758274026762714400,7.25171435546875,-1.3397452139496802,0.777974085253477,1.4955797726534306
1758274026772672500,7.261672607421875,-1.1422667585413901,1.189300969982147,1.5114058489471673
1758274026782629400,7.27162939453125,-0.40065347849037497,1.5319570540666578,1.5156819188311694
1758274026792587300,7.281587158203125,0.0009562960778363048,1.4474895493537188,1.4656249255031346
1758274026802545400,7.29154541015625,-0.26564998302711174,1.3451830210894344,1.179085719307512
1758274026812503300,7.30150341796875,-1.4432079265117645,1.138746256265044,-0.13974537449441848
1758274026822461400,7.31146142578125,-3.019517332524061,1.3131594048410653,-0.8849631453108042
1758274026832419300,7.32141943359375,-3.891659063249826,1.276958210647106,-1.0913329093135893
1758274026842377500,7.33137744140625,-4.063458229935169,1.0585428387373685,-0.6037472530297935
1758274026852334300,7.341334228515625,-3.791363290286064,0.6714408792048693,0.26663280178569254
1758274026862292200,7.351292236328125,-3.207890032869577,0.44267070201933384,1.4996300709575414
1758274026872250400,7.36125048828125,-2.7621628658890724,0.3791676594018936,2.6685575304746627
1758274026882208300,7.371208251953125,-2.6422318336069583,0.27568624213933945,3.286575447049737
1758274026892166400,7.38116650390625,-2.569056707280874,-0.09458324053585529,3.4201699707642197
1758274026902124300,7.391124267578125,-2.187526994922757,-0.738687784525752,3.2351240767538547
1758274026912082200,7.401082275390625,-1.30099082814157,-1.5642022041112185,2.7174638924628494
1758274026922039300,7.411039306640625,-0.8358575344234704,-1.9649317069798706,1.9916598471686242
1758274026931997200,7.4209970703125,-1.168079318255186,-2.3321850567042826,1.2895181247517467
1758274026941955300,7.430955322265625,-1.4672130714774132,-3.066286097961664,0.5788950627807528
1758274026951913500,7.44091357421875,-1.564594418299198,-3.767645730090141,-0.08356295708864926
1758274026961871400,7.450871337890625,-1.573723481172323,-3.4748908642500638,-0.205016376632452
1758274026971829500,7.46082958984375,-1.4209353044271469,-2.8488609061330554,-0.037947161078453064
1758274026981787100,7.470787109375,-1.196602817428112,-2.8589205278545617,0.1491439750239253
1758274026991744300,7.480744140625,-0.9240023394096643,-3.46109673217535,-0.6986836909174918
1758274027001702400,7.490702392578125,-0.7479436886489391,-5.910956566667556,-1.7740090298905968
1758274027011660300,7.500660400390625,-1.3470382935672998,-8.136116249892115,-1.3665762299910187
1758274027021618400,7.510618408203125,-2.019432527974248,-8.13808316605091,-0.1956380151733756
1758274027031576300,7.520576416015625,-3.0018226858794685,-6.403570572507381,-0.10130231965780258
1758274027041534500,7.530534423828125,-4.769438507601619,-4.067696598157286,-0.46486952821537847
1758274027051491300,7.5404912109375,-5.354119971764088,-2.4169816472411156,-0.4581478187449276
1758274027061449200,7.55044921875,-4.335961750385165,-2.0466268243700263,-0.49749169487878675
1758274027071407400,7.560407470703125,-3.5627497649669646,-2.0797399894207715,-0.7767160480163992
1758274027081365200,7.570365234375,-3.0065321787446737,-1.4093448198765515,-0.5612244545988738
1758274027091323400,7.580323486328125,-2.6030034005463123,-0.8225111461162566,-0.5090075067579746
1758274027101281300,7.59028125,-2.4276585240781308,-1.0284411304622887,-0.9932647492714226
1758274027111239200,7.6002392578125,-1.6203437780499457,-1.412908065316081,-0.7573311101973056
1758274027121196300,7.6101962890625,-0.9753893392324448,-2.0936264759540557,-0.7697709050536156
1758274027131154200,7.620154296875,-0.6808114226836711,-2.475845924142003,-0.8190789797104895
1758274027141112300,7.6301123046875,-0.4514087197482586,-2.9343080695331096,-0.922965324512124
1758274027151070500,7.640070556640625,0.19116320784687996,-3.1764795800834893,-1.465307968508452
1758274027161028400,7.6500283203125,0.896578398976475,-3.1327392225563524,-1.4807286788716911
1758274027170986500,7.659986572265625,1.7177544970966874,-2.7431711651712654,-0.7018072297655046
1758274027180943400,7.669943359375,2.153024129079282,-3.011677140417695,-0.42771424816697834
1758274027190901200,7.6799013671875,2.2390127058796585,-2.8046301347404716,-0.5057683787062763
1758274027200859400,7.689859375,1.4696284620560705,-2.407292027875781,-0.24023791213929652
1758274027210817300,7.6998173828125,0.9974328287363052,-2.9015041165620086,-0.1128431198477745
1758274027220775400,7.709775390625,2.048529735381901,-2.5149136136829853,0.5015525145769119
1758274027230733300,7.7197333984375,2.8844316934689878,-1.6929577633619308,0.8082898746706545
1758274027240691500,7.72969140625,3.1207094698056577,-1.2301666488558054,0.23967370238527655
1758274027250648300,7.7396484375,2.803415205992758,-0.49453299120366573,-0.5047407892242074
1758274027260606200,7.749606201171875,2.388837795035541,-0.026078444108366964,-1.1333896976679563
1758274027270564400,7.759564453125,2.8153727702900766,0.5983779810816049,-1.124890603261441
1758274027280522200,7.769522216796875,3.5117180813878774,1.1975631868928671,-1.3040911322444677
1758274027290480400,7.77948046875,4.1552752206280825,1.7327549362212418,-1.2957039737798273
1758274027300438500,7.7894384765625,4.099998154564202,1.3464257146269083,-0.8726634165123105
1758274027310396400,7.799396484375,2.8653385782033203,0.8498796300351619,-0.6238580209054052
1758274027320353300,7.809353271484375,2.706740838396549,1.2472159833341836,-1.4977289135113359
1758274027330311400,7.8193115234375,2.9127117392748594,0.4915209499061107,-1.123414247098565
1758274027340269300,7.829269287109375,3.370528572499752,0.1585784505844116,-0.6054525956429541
1758274027350227500,7.8392275390625,4.2338399310380215,-0.20106267057061195,0.11397986879274248
1758274027360185300,7.849185302734375,4.546466203039884,-0.013420622587203978,0.8093015359312296
1758274027370143500,7.8591435546875,4.607065340909362,1.9114029458880424,1.4694320627011357
1758274027380100400,7.869100341796875,4.498527224779129,3.4176784462094303,1.325493108974397
1758274027390058200,7.879058349609375,4.367317842635512,4.6197132255583995,0.6349266735389828
1758274027400016400,7.889016357421875,3.857345290237665,5.983631342256069,0.21463468432724475
1758274027409974300,7.898974365234375,3.4450194575995203,6.898354323601723,-0.3195413120873272
1758274027419932400,7.908932373046875,3.7802971218705177,6.758132198441028,-0.5936803247846663
1758274027429890300,7.918890380859375,3.8278169979363676,5.686222513130307,-0.7607423799455165
1758274027439848400,7.928848388671875,3.656024845513701,4.117491433417797,-0.8347881516262888
1758274027449805300,7.938805419921875,3.5672850703090426,2.524843471544981,-0.5871735732391477
1758274027459763200,7.94876318359375,3.489574054118991,1.5053449414730071,-0.30159283681213855
1758274027469721300,7.958721435546875,3.1559885807186365,1.2473667899817227,0.048774844563007354
1758274027479679200,7.96867919921875,2.605381235593557,1.5768191091001034,0.3976747914731502
1758274027489637000,7.97863720703125,2.0456495037704703,2.088344736158848,0.5999976912379265
1758274027499595300,7.98859521484375,1.1727350351065398,2.4281992068260907,0.3742293262168765
1758274027509552000,7.99855224609375,-0.03490647820830345,2.5336112998902798,-0.06339432154595852
1758274027519510300,8.00851025390625,-1.3852227705329656,2.79739726087749,-0.4097030829191208
1758274027529468400,8.018468505859374,-3.1082144376307723,3.1779122432351112,-0.3690639062777161
1758274027539426300,8.02842626953125,-5.027926362180709,3.328151904541254,-0.43463148020952935
1758274027549384200,8.03838427734375,-6.592510259085893,3.0529964082777497,-0.6895350465610623
1758274027559342000,8.048342041015625,-7.625732778605818,2.259867423990369,-0.8083148629814386
1758274027569300200,8.05830029296875,-7.629846059143543,1.1971072598189114,-0.43137014032602305
1758274027579257300,8.06825732421875,-3.4148645578324794,0.12481646623611449,0.46386429669559
1758274027589215200,8.07821533203125,4.58681341099739,-1.503077581062913,-0.2874320633821189
1758274027599173400,8.08817333984375,8.41425573040247,-2.4856553704947233,-3.7068145370304584
1758274027609131300,8.09813134765625,1.6643202824205159,-2.75798937959671,-5.4385892300426955
1758274027619089200,8.108089111328125,0.18870704686641693,-3.4569963111191986,-7.35961106814742
1758274027629047000,8.118047119140625,-2.9931472119927403,-2.4519150134563445,-5.614153886741399
1758274027639004200,8.128004150390625,-2.1307272493362426,-2.6131080304533243,-0.015921353361755607
1758274027648962300,8.13796240234375,5.4180894628494976,-2.3514228411376474,1.503972776336968
1758274027658920200,8.147920166015625,4.090451450800895,-0.8624667244076728,0.16603636537492275
1758274027668878300,8.15787841796875,2.1575071197122333,-0.6302963833898305,-1.1942790506556629
1758274027678836200,8.167836181640626,1.6076736815690993,-1.8186890063554046,-1.5984785677224396
1758274027688794000,8.177794189453126,3.6751743671417234,-3.191954212591052,-1.4677011472553014
1758274027698752300,8.187752197265626,4.945906835141778,-3.4491859296292064,-1.3509721258848906
1758274027708709000,8.197709228515626,3.896059051774442,-2.7163281664311882,-1.023447413828224
1758274027718667300,8.207667236328126,2.082749400369823,-2.3536820182412863,-0.7226248307362199
1758274027728625400,8.21762548828125,0.605794979339838,-2.4166262579321858,-1.3371785783320664
1758274027738583300,8.227583251953124,0.37569384581148624,-2.1144997526347638,-1.2543002425067127
1758274027748541200,8.237541259765624,0.9982619730368256,-1.3524310925215481,-0.6957043828457593
1758274027758499000,8.2474990234375,1.6226292586386202,-0.6204588799864054,-0.2846720971494913
1758274027768456200,8.257456298828124,2.1574381461292504,-0.15970131713449953,0.05290069232136011
1758274027778414300,8.267414306640624,2.3482708068475127,0.15357026703357696,0.2866771533615887
1758274027788372200,8.277372314453125,2.482945819275081,0.3353536521166563,0.4198588584914803
1758274027798330400,8.287330322265625,2.7117288559421895,0.4478302767395973,0.579855505310744
1758274027808288300,8.297288330078125,2.6333646365404126,0.2990852379053831,0.5475011958032846
1758274027818246100,8.30724609375,2.1113144005969167,0.0013619360029697416,0.7668975415743887
1758274027828203300,8.317203369140625,1.7816060608908533,-0.1084814175069332,1.1752078549608587
1758274027838161200,8.3271611328125,1.4243918746218085,-0.048455695611238477,1.6139590454488992
1758274027848119300,8.337119384765625,1.1009104466065764,-0.016879238608479497,1.9725809065587818
1758274027858077200,8.3470771484375,1.0066644752010703,-0.014565116447210312,2.2113053453952074
1758274027868035300,8.357035400390625,0.8514858961880206,-0.023229484418034553,2.2502309961169957
1758274027877993500,8.366993408203125,0.6343652402639388,-0.3242003899395466,2.0564064601063725
1758274027887951000,8.376951171875,0.7663434148229659,-0.3657961366534233,1.7951304361134766
1758274027897908200,8.386908203125,0.9249651200272142,0.5312994180649518,1.6179462153889237
1758274027907866000,8.3968662109375,0.7471779649734497,1.0534475614249705,1.503037395182997
1758274027917824300,8.40682421875,0.03649652387872338,0.6154699856579303,1.4834458288758992
1758274027927782400,8.416782470703126,-0.17669395298957824,0.3594856383323669,1.043029116328433
1758274027937740300,8.426740234375,-0.12400514985322951,0.490061983269453,0.33432109419852496
1758274027947698200,8.4366982421875,-0.1981412301659584,0.7960545163452625,0.322260434852913
1758274027957655300,8.4466552734375,-0.2543815883040428,1.0576362452864647,0.003824526724219322
1758274027967613200,8.45661328125,-0.7981541920382529,1.080595680591464,-0.8471254359561949
1758274027977571300,8.4665712890625,-0.69385670915246,0.8962216944932937,-1.2772440418511628
1758274027987529200,8.476529296875,-0.49022093669082967,0.9132125767827034,-1.1045374779973178
1758274027997487400,8.4864873046875,-0.21942593719176948,1.1604022077560423,-1.051527041691169
1758274028007445200,8.4964453125,-0.8480652740895748,1.4098562765300273,-0.8221432626519352
1758274028017402000,8.506402099609375,-1.7650491861045359,1.2608341743201017,-0.5252194405641406
1758274028027360300,8.5163603515625,-2.348029107046127,0.8856833493441343,0.14580072901062666
1758274028037318100,8.526318115234375,-2.4292963544130326,0.34496260746121404,1.0526757002696394
1758274028047276300,8.5362763671875,-2.469786185711622,-0.04370645525753498,1.8820748523339628
1758274028057234200,8.546234130859375,-2.0501345402300357,-0.07040624613463878,3.2149522263407704
1758274028067192300,8.5561923828125,-1.003209074050188,-0.16883213357329369,4.257158555044233
1758274028077150500,8.566150390625,-0.01450082360592205,-0.40222821699380873,4.554305226102471
1758274028087107000,8.576107177734375,0.49151276659965515,-0.556963436153531,3.5031051513433455
1758274028097065200,8.586065185546875,0.5899579432606696,-0.03519757010936737,1.993272981453687
1758274028107023400,8.5960234375,0.20350363398194313,0.7102794361650944,0.2440364276394248
1758274028116981200,8.605981201171875,-0.6914262671351432,1.0802321079760788,-0.9550158287674188
1758274028126939400,8.615939453125,-1.71024792085886,0.9917775794535875,-1.0574367771916091
1758274028136897300,8.625897216796876,-1.8949118298143148,0.38778000492453574,-0.5221973893292248
1758274028146854100,8.635854248046876,-1.7742653427392243,-0.49555122833549975,0.11668854322955012
1758274028156812300,8.645812255859376,-2.0916139670878646,-1.0109142416000365,0.7009320543661713
1758274028166770200,8.655770263671876,-1.9102035069704055,-1.1274006863862276,1.051479183961451
1758274028176728300,8.665728271484374,-1.5162211402744055,-1.3541981021940708,1.050821742966026
1758274028186686200,8.675686279296874,-1.2007546764105557,-1.7449989162445068,0.6605059359535574
1758274028196644400,8.685644287109374,-1.1748673709601163,-2.1334113738536833,-0.141011229711771
1758274028206601200,8.695601318359374,-1.5389830071806907,-2.2947861771583558,-1.1426904638461768
1758274028216559000,8.70555908203125,-1.872818655949831,-2.6176854213714598,-2.031982943598181
1758274028226517200,8.715517333984375,-2.299993098151684,-3.205193633392453,-2.630296481141448
1758274028236475100,8.72547509765625,-2.740818464565277,-3.6741988001078365,-2.5949869750902055
1758274028246433300,8.735433349609375,-2.843279891130328,-4.097039012497663,-1.812209581208229
1758274028256391200,8.74539111328125,-2.078215994723886,-4.74858393562138,-0.7818700697787105
1758274028266349300,8.755349365234375,-1.551080856731534,-5.656471517989039,0.37584158371910453
1758274028276306200,8.76530615234375,-1.2067886228125542,-5.75667727458179,1.2734817667081952
1758274028286264000,8.77526416015625,-1.08561328955777,-4.623655825704336,1.0742278991252183
1758274028296222200,8.78522216796875,-2.2798457976579667,-3.4503660793244837,-0.008029723329097032
1758274028306180400,8.795180419921875,-3.5791952883332967,-2.7734435538381335,-0.6686367815695703
1758274028316138200,8.80513818359375,-3.5365526629149913,-2.3762737892776724,-0.7792644173249602
1758274028326096400,8.815096435546875,-3.0892098774313923,-1.9074708671361207,-0.7166558393292128
1758274028336053200,8.82505322265625,-2.778801281479001,-1.2363409535765648,-0.8499671621881425
1758274028346011100,8.83501123046875,-2.6761013699829577,-0.5878314526259899,-1.1681069369144736
1758274028355969300,8.84496923828125,-2.8631431139856574,-0.6083522626072168,-1.4951647621117532
1758274028365927200,8.85492724609375,-2.884539537757635,-0.9487088375777005,-1.4025263720333576
1758274028375885300,8.86488525390625,-2.8041677779257297,-1.256449091103673,-1.1780432245172558
1758274028385843200,8.87484326171875,-2.9612685571730135,-1.8608815499186515,-0.7869828827477992
1758274028395800000,8.884800048828126,-2.387259878194332,-2.0621867970734833,-0.012639409081637859
1758274028405758200,8.89475830078125,-0.7840988517440856,-2.244762793838978,0.48739057210311293
1758274028415716000,8.904716064453124,0.3689069621503353,-2.573891287830472,1.464853941130638
1758274028425674200,8.91467431640625,1.9937093270443378,-2.434595045343041,2.7009400431632993
1758274028435632000,8.924632080078124,2.417552286735922,-2.6534879716366526,2.4569185208320614
1758274028445590300,8.93459033203125,2.2066522588923574,-2.6387679568886755,1.2012256549231708
1758274028455547600,8.944547607421875,2.6135490522190925,-1.955098879751563,0.4812981004469096
1758274028465504800,8.9545048828125,2.6361343935146926,-1.8347142584830523,-0.44880598990395665
1758274028475462700,8.964462646484375,3.386061364935338,-1.7614853561431167,-1.5740299167729914
1758274028485420500,8.974420654296875,4.061505050040782,-1.2554583265006543,-2.236254200951755
1758274028495378400,8.98437841796875,3.6829023310452698,-0.4738151973456144,-2.817505982926488
1758274028505336600,8.994336669921875,2.317342584620416,-0.16061667841374874,-3.884402516250312
1758274028515294500,9.00429443359375,0.783498401632905,-0.05864858832359313,-4.336532828271388
1758274028525251600,9.01425146484375,0.6127583886116743,-0.10043196656405926,-4.293901016508043
1758274028535209700,9.024209716796875,0.9239730402499436,-0.34392157397568224,-3.532117895337939
1758274028545167400,9.03416748046875,1.7379226942479609,-0.21298282546699046,-1.3880878045752643
1758274028555125500,9.04412548828125,3.0993548393487926,-0.7475760243803262,0.5296601264253259
1758274028565083400,9.05408349609375,2.798952089104056,-0.6761684922486543,1.1750158395200967
1758274028575041500,9.06404150390625,3.5064661522090432,-1.1944716506183146,2.071376357962191
1758274028584998700,9.07399853515625,3.895722074905038,-2.1560335400283335,2.7257760859951374
1758274028594956500,9.08395654296875,3.4039275687545536,-2.5640292345076796,2.113177271859348
1758274028604914700,9.093914794921876,2.5015146184056998,-2.20031574934721,1.6789909050688148
1758274028614872600,9.10387255859375,3.5088977632701397,-1.5683973177134989,1.6070537961050868
1758274028624830500,9.11383056640625,4.359185389584303,-0.37845571174025533,2.2713781213030217
1758274028634788600,9.12378857421875,4.456587779194116,0.42356677309870716,1.9026950310364363
1758274028644745500,9.133745361328126,5.113637729474902,1.5106740275412798,1.549109264397621
1758274028654703600,9.14370361328125,4.479942351296544,2.378955575707555,0.4471601223930716
1758274028664661800,9.153661865234374,3.7095536066055295,3.1096950315773486,-0.14360475333631037
1758274028674619600,9.16361962890625,3.519294069600105,3.544389932411909,-0.2448500821098685
1758274028684577500,9.17357763671875,3.4329315449208018,3.6584769148409366,-0.15851590674221513
1758274028694535400,9.183535400390625,3.4518279685705897,3.708465226846933,-0.1894447134912014
1758274028704492500,9.193492431640625,3.493644080036878,3.634100598475337,0.007656944493949413
1758274028714450700,9.20345068359375,3.757215521490574,3.6107489489823577,0.500353075659275
1758274028724408600,9.21340869140625,3.938552916371822,3.5979496731638907,0.4135968754872679
1758274028734366700,9.22336669921875,3.7727158729612826,3.501570781382918,0.0022419337078928947
1758274028744324400,9.233324462890625,3.3885113884359597,3.5594863792568443,0.04740910916775465
1758274028754282500,9.243282470703125,3.013917028298974,3.731322955343127,0.29719138698279857
1758274028764240400,9.253240478515625,2.5180793842375278,3.80412749479115,0.5886065286517143
1758274028774197500,9.263197509765625,2.1175620628148315,3.6909856842577455,0.8241691424563526
1758274028784155600,9.27315576171875,1.3082301317453384,3.4725808337420223,0.8109940190628171
1758274028794113500,9.283113525390625,-0.15192717600166797,3.1309330499172208,0.39901042399108405
1758274028804071700,9.29307177734375,-2.0500334179431197,2.957852611249685,-0.15566782383471728
1758274028814029600,9.303029541015626,-3.912945012384653,2.933276388397813,-0.5313973254814743
1758274028823987500,9.312987548828126,-5.069497558975219,2.9708365959852934,-0.5995145838961005
1758274028833944600,9.322944580078126,-5.3092409655958415,2.9029648367643355,-0.47497138164341446
1758274028843902500,9.33290234375,-5.33796378673315,2.511077981042862,-0.397065427403152
1758274028853860600,9.342860595703126,-6.209047532838583,1.7308698531270026,-0.43326808290183544
1758274028863818800,9.35281884765625,-5.902988364267349,0.7382283503204584,0.2917673161074519
1758274028873776600,9.362776611328124,-1.8883570013433695,-1.6935767720431087,0.929002266588807
1758274028883734500,9.372734619140624,6.821003957417607,-3.6779034998446702,-0.7372454767629504
1758274028893691600,9.382691650390624,3.289171308761835,-3.0079549050241705,-2.8399872793257237
1758274028903649500,9.3926494140625,0.7565180402487516,-2.7276000865519046,-4.747018293739855
1758274028913607700,9.402607666015625,-1.104913544768095,-2.392791793358326,-5.536650960344076
1758274028923565600,9.412565673828125,-6.014871699172258,-3.5521699187636373,-4.581507705804706
1758274028933523700,9.422523681640625,2.9962878481060264,-2.6853853311568496,-1.2114832834348082
1758274028943481300,9.4324814453125,3.7537510602504014,0.3632300855576992,-0.7741898905396462
1758274028953438500,9.4424384765625,0.506651299020648,1.0592670613586903,-1.7426254651114343
1758274028963396600,9.452396728515625,0.12040975570976734,0.09464519985616207,-1.783383884218335
1758274028973354500,9.4623544921875,1.636287197113037,-1.059548800909519,-1.1442276102855802
1758274028983312600,9.472312744140625,3.6632828538179396,-2.0136615433573724,-0.0317345701739192
1758274028993270500,9.4822705078125,4.313798433893918,-2.33826992957592,0.29686317794173955
1758274029003228700,9.492228759765625,2.9576451059788464,-2.3292431580334902,0.15438742863535881
1758274029013185500,9.502185546875,1.3960007696568966,-2.455092474448681,-0.17428601506501434
1758274029023143400,9.512143310546875,1.0606336735367774,-2.754366512924433,-0.4060667722433805
1758274029033101600,9.5221015625,1.5424480529427527,-2.7498440670639277,-0.5257353541970252
1758274029043059700,9.532059814453126,1.9965902893081307,-2.3492010734349487,-0.4471329421252012
1758274029053017600,9.542017578125,2.1906351900711654,-1.5420394721418618,-0.16150106003284453
1758274029062975700,9.551975830078124,2.3855782087177038,-0.7769552635997533,0.37100364216864107
1758274029072932600,9.5619326171875,2.5847961282044647,-0.39024493373334407,0.897779299198836
1758274029082890500,9.571890380859376,3.037778965401649,-0.28322248286306856,1.2238926831528543
1758274029092848600,9.5818486328125,3.2512773391753433,-0.485884405323863,0.9126634184673428
1758274029102806500,9.591806640625,2.6996348057836292,-0.6332137321412563,0.5453038318894803
1758274029112764700,9.6017646484375,2.3404642247498035,-0.7372954533845186,0.35306364246085287
1758274029122722600,9.61172265625,2.2569269866243005,-0.8272901970863342,0.8069403597578406
1758274029132680700,9.6216806640625,1.884590634547174,-1.0987111829966305,0.8304566982932389
1758274029142637600,9.631637451171875,1.3324828217312692,-0.981852982288599,0.8132711702145635
1758274029152595500,9.641595458984375,0.9148881087794899,-0.48943829841315745,0.7945986184485256
1758274029162553600,9.6515537109375,0.47654637587517495,0.3104915980607271,0.6046057695552707
1758274029172511500,9.661511474609375,0.15194997235536575,0.8981640607327223,0.6555019901864231
1758274029182469600,9.6714697265625,0.15838906549215315,0.7492167773246765,0.26003055397644637
1758274029192427500,9.681427490234375,0.4456663767039776,0.7416705997288227,0.4395177909463644
1758274029202384400,9.69138427734375,0.531300148717314,0.855485779479146,1.0915236095800995
1758274029212342500,9.701342529296875,0.7108662961423396,-0.2731815658420324,2.033320475812256
1758274029222300400,9.711300537109375,0.38777211387902494,-0.9316104032605886,2.3585129455290734
1758274029232258600,9.721258544921875,-0.18499328704029322,-0.7565595413029194,2.3410241967201233
1758274029242216700,9.731216796875,-0.7392914495073258,-0.18900164589881896,1.7516890615329146
1758274029252174600,9.741174560546876,-0.7313235393680632,0.6219383048892021,1.3025766360282898
1758274029262131500,9.75113134765625,-0.7540402519583702,1.2674462859362363,1.1756436160296202
1758274029272089600,9.761089599609376,-0.7831519262827933,1.610520303171873,1.0728041499324141
1758274029282047500,9.771047607421876,-0.6755658501803875,1.7496195617824792,1.3914340462632477
1758274029292005600,9.781005615234376,-0.3466683884657919,1.4698679699003696,1.6143440992437301
1758274029301963500,9.790963623046874,-0.2271301548935473,1.3675842379897831,1.5799046540252863
1758274029311921700,9.800921630859374,-0.14131401205062866,1.34882809959352,1.2821043413639068
1758274029321878800,9.810878662109374,-0.39453707796931264,0.9871259542554617,0.11556699185371398
1758274029331836400,9.82083642578125,-1.0136053803801537,0.9934627560615539,-0.7514483357690275
1758274029341794600,9.830794677734374,-1.260437430087477,1.3133686636775732,-0.7036188092321157
1758274029351752400,9.84075244140625,-0.791107050005719,0.43877895527780053,-1.2239027661554516
1758274029361710600,9.850710693359375,-1.128419434974715,-0.8246732925862074,-1.8202176772274077
1758274029371668500,9.86066845703125,-2.3194939174354077,-0.06585165157020091,-0.11366831862553954
1758274029381625600,9.87062548828125,-1.4993103374838828,-0.3072796502768993,0.5486543113611638
1758274029391583700,9.880583740234375,-1.0065595535218714,0.26812135984301566,2.0537762577332557
1758274029401541400,9.890541259765625,0.1393499454360455,0.307153393548727,2.0967570290647446
1758274029411499500,9.90049951171875,-0.16127433860488236,0.4686714047163725,1.9313333887606858
1758274029421457400,9.91045751953125,0.15154782129526137,0.7943634945183992,1.3951856538817287
1758274029431415600,9.92041552734375,0.09259301656670868,0.939487420246005,0.749082483420521
1758274029441372700,9.93037255859375,-0.7738252219457179,1.2981301780134438,0.4184221036866307
1758274029451330600,9.94033056640625,-1.5359154363036154,1.4668722952157258,0.08617796189263463
1758274029461289500,9.95028955078125,-2.072062294399738,0.8834288484156131,-0.1335851713642478
1758274029471247000,9.9602470703125,-2.2515268811464306,0.26710604532063004,0.2223486197054386
1758274029481205200,9.970205322265626,-1.7566905230820178,0.23910978489220142,0.6819331932552158
1758274029491163100,9.9801630859375,-1.3029261801183223,0.1331593471676111,0.9214211638100445
1758274029501121300,9.990121337890624,-1.0859364570975303,-0.1317488958477974,1.3245371234238148
1758274029511078400,10.000078369140626,-1.452162801861763,-0.14711714537143705,1.3047931430339812
1758274029521036300,10.010036376953124,-1.7354723784863948,0.224375157096982,1.3257453301697968
1758274029530994400,10.019994384765624,-1.631052219069004,0.029587329012155533,1.1719561596885322
1758274029540952300,10.029952392578124,-1.2712883483171462,-0.010784428864717482,0.7711635284557938
1758274029550910200,10.03991015625,-0.8232441365659237,1.4268360529035329,0.01660305201560259
1758274029560868400,10.049868408203125,-0.17868249645829198,1.1327081451445817,-0.6357308295287192
1758274029570825200,10.0598251953125,0.003033065819274634,1.195511515060067,-1.739465978167206
1758274029580783400,10.069783447265625,-0.4924234882364049,-0.5704781667649745,-3.141413527399301
1758274029590741500,10.079741455078125,-1.3627315372616051,-9.566850479277967,-2.9430285516053436
1758274029600699400,10.089699462890625,-0.22900990422554313,-14.278601352542639,0.6648761138617992
1758274029610657300,10.0996572265625,0.006435586005449295,-4.587996483302116,0.8904260138265788
1758274029620615200,10.109615234375,0.11529986535012722,-2.418362872466445,0.24665625474900005
1758274029630572300,10.119572265625,1.0110486816346644,-2.418256489482522,-0.4403073338888585
1758274029640530400,10.129530517578125,0.004439882143586873,-3.830733177644014,-0.6121110306188464
1758274029650488300,10.13948828125,-1.0787374855041503,-5.2504392325371505,-0.5164011241406202
1758274029660446500,10.149446533203125,-0.968325976717472,-5.853268932330608,-0.8784637733541428
1758274029670404000,10.159404052734375,-0.4830460400927812,-5.887442420089244,-0.57566682144925
1758274029680362200,10.1693623046875,-0.8171178357053548,-4.7786289452731605,0.28312238348945973
1758274029690319400,10.1793193359375,-3.0647108114689585,-3.3293530970245597,0.4504692469410598
1758274029700277200,10.18927734375,-3.124890262621641,-1.9407278245717285,0.3618077976696193
1758274029710235400,10.1992353515625,-2.0476076521009205,-1.2655506814479827,0.33793431625962256
1758274029720193300,10.209193359375,-1.840579935646057,-1.1147317589491605,0.4766748245604336
1758274029730151400,10.2191513671875,-1.6051374410897492,-0.3155938896358013,0.7331140760466456
1758274029740109300,10.229109375,-1.6966601250112057,-0.0854202753931284,0.6401321332275867
1758274029750066200,10.239066162109374,-1.746389493820071,0.444945661213994,1.1079974822580814
1758274029760024300,10.2490244140625,-1.1313701745390892,1.0843360361635683,1.5435808563649653
1758274029769982500,10.258982421875,-0.6199672970771789,1.1720505599737168,1.229319822768122
1758274029779940400,10.2689404296875,-0.8443582362651825,0.9417799150973558,0.2759364175081253
1758274029789898500,10.2788984375,-0.8770340328119695,0.6810474964618682,-0.12422215360477566
1758274029799856400,10.2888564453125,-0.04640636186599731,0.8981792583018541,-0.07625614120662212
1758274029809814300,10.298814208984375,1.3439070098042487,0.9601730654001236,-0.9040409899421036
1758274029819771400,10.308771484375,1.8984395655490456,0.8154530442982911,-1.4123480933457613
1758274029829729300,10.318729248046875,1.7307096941292286,1.2895318610161541,-1.0342096308611333
1758274029839687400,10.3286875,2.2597230470836163,1.9466899478465318,-0.3135259973205626
1758274029849645300,10.338645263671875,3.7626772940278053,2.1173867062479257,0.777505152567476
1758274029859603500,10.348603515625,4.490712167114019,1.6637468664467334,2.171521324278414
1758274029869561000,10.35856103515625,1.6517046926058827,-0.07775076367855072,1.518130627157539
1758274029879518200,10.368518310546875,0.8352632217921316,-1.0602654247462748,0.809259742616117
1758274029889476400,10.378476318359375,2.8843302789211274,0.30243863998651505,1.3429931098297239
1758274029899434200,10.388434326171875,1.1105145796455442,2.8694372456938027,1.3017287870272993
1758274029909392400,10.398392333984376,0.8499190852627158,4.288288145062327,0.9162263716459274
1758274029919350300,10.408350341796876,2.0730854999676347,2.0739099680930373,-0.6576958469688892
1758274029929308400,10.418308349609376,2.88674903050065,-0.6250748493492603,-2.1145634655207393
1758274029939265300,10.428265380859376,2.478089611415565,-1.0776765782743691,-2.7111504715323447
1758274029949223200,10.43822314453125,2.3630957432746884,-0.4877776717245578,-2.612432907670736
1758274029959181300,10.448181396484374,1.4187909858748315,-0.07178571779429913,-2.055717601059377
1758274029969139500,10.458139404296874,1.4025450767338274,0.6468956360131501,-0.6527747571796179
1758274029979097300,10.468097412109374,1.5755165020689368,0.6422545322090387,0.40449119348973034
1758274029989055500,10.478055419921875,2.629417944741249,0.31439795784950253,0.5844526238426566
1758274029999012400,10.488012451171874,2.7348645245969294,0.10774258183836936,0.18018004153966902
1758274030008970200,10.49797021484375,2.7225048092395068,0.27263620691895485,-0.08659457986950873
1758274030018928400,10.507928466796875,2.5481530354619024,-0.16427987709641456,-0.4973208683565259
1758274030028886300,10.51788623046875,2.2710525426104664,-0.17235387795865534,-0.9569277998685837
1758274030038844400,10.527844482421875,2.220057245519012,-0.834025058299303,-1.9960905230924486
1758274030048802300,10.53780224609375,2.2442602511443197,-1.6412234844714402,-1.850018502859771
1758274030058759200,10.54775927734375,1.540556540107727,-2.0470371587365865,-1.8073612643942236
1758274030068717300,10.55771728515625,1.9895069069184361,-2.202840883910656,-1.610575102099031
1758274030078675200,10.56767529296875,1.6354174285411833,-1.1452151600182057,-0.7855304919824003
1758274030088633300,10.57763330078125,2.1035399672031403,-1.1068705240547656,-0.6475684207081794
1758274030098591200,10.58759130859375,3.0420845536410805,-0.6493775159567594,-0.7180921557426452
1758274030108549400,10.59754931640625,3.896062851166725,-0.8692436711966991,-1.3587966820307076
1758274030118506500,10.607506591796875,3.8892531711518763,-1.5094558839231729,-2.909339047971368
1758274030128464100,10.617464111328125,3.039539545333385,-1.46444009963274,-4.51008848323524
1758274030138422300,10.62742236328125,1.671225385633856,-1.2525292873114346,-4.025826126155257
1758274030148380200,10.637380126953126,1.9066754789747296,-1.1977204232811927,-2.4377409421533343
1758274030158338300,10.64733837890625,4.434635475105047,-1.8735329416990278,-1.3211688160344957
1758274030168296400,10.65729638671875,4.333331986403465,-3.89558763487041,-1.430601542916894
1758274030178253300,10.66725341796875,-0.028978111072629688,-4.279790950351953,-1.925822662515193
1758274030188211200,10.677211181640626,-4.184948766618967,-3.1598247978806495,-1.7093366512328385
1758274030198169300,10.68716943359375,-1.8691281308688221,-2.6657231838315725,-0.3248817963324487
1758274030208127200,10.697127197265624,0.6953027432423085,-5.331216066038608,1.459882728589326
1758274030218085400,10.70708544921875,-0.1820505846519023,-7.4241568978160615,1.8429124702468513
1758274030228043300,10.717043212890625,1.7686194458067417,-6.782175921851396,2.3300308012798427
1758274030238000400,10.72700048828125,-3.461665471974015,-4.098114532774686,3.882876621857285
1758274030247958500,10.73695849609375,-6.4953638900637625,-3.2940643415004014,3.5841657702222465
1758274030257916200,10.746916259765625,-4.6097231619417665,-3.152287388113141,3.898712781153619
1758274030267874300,10.756874267578125,-2.43413093496263,-2.934527265241742,4.82087234224081
1758274030277832200,10.766832275390625,0.3169604287486523,-0.3776759595394134,3.769001236352324
1758274030287790300,10.776790283203125,-3.039629561704397,1.6250912648379803,2.1262606253162026
1758274030297748200,10.786748291015625,-6.733983845612406,0.3284580473840236,0.8072723681911825
1758274030307705300,10.796705322265625,-0.36225042687058445,-1.0959925716876984,1.222945319300145
1758274030317663500,10.80666357421875,-5.798356607925892,-0.11483692401349543,0.6955437854565679
1758274030327621000,10.81662109375,-6.795235309910773,-0.37855917211472984,3.934608562660217
1758274030337579300,10.826579345703125,-1.9638167314752935,-0.10065057775080204,10.075200398910045
1758274030347537200,10.836537109375,-3.2880157089859243,-0.13875555973947049,12.058189740628004
1758274030357495300,10.846495361328126,-2.7167636352390048,-0.3734586341053247,12.621027037250995
1758274030367452400,10.856452392578126,-1.4766495928645134,-0.5353437250196933,12.002924365001917
1758274030377410300,10.866410400390626,-1.2716770553737877,-1.3532850790023803,10.031971498036384
1758274030387368200,10.8763681640625,-1.0824509530693291,-2.0272551844239235,7.650712321561574
1758274030397326300,10.886326416015624,-0.8146563409626484,-2.0939006167203185,5.285233482542634
1758274030407284200,10.8962841796875,-1.3273673784136772,-1.4042296688199043,3.184768100479245
1758274030417242400,10.906242431640624,-2.17375741276741,-0.5731441711038351,1.466030875955522
1758274030427199500,10.916199462890624,-3.2590058876007792,0.1903521837249398,-0.004948562318086624
1758274030437157400,10.926157470703124,-3.222676683112979,2.069854555222392,-0.41605566681623457
1758274030447115500,10.936115478515624,-2.6206121224731205,3.522522676257789,-0.9333195452660321
1758274030457073400,10.946073486328125,-0.9348281962633133,4.425996533836424,-1.4167679556146264
1758274030467031600,10.956031494140625,0.810516756939888,4.438598825778067,-1.9248066173404454
1758274030476989400,10.965989501953125,1.5201426976323127,4.07171869328022,-2.8253488053813576
1758274030486946300,10.9759462890625,0.9895113880872726,3.7740579352200028,-3.308126476861536
1758274030496904400,10.985904541015625,-0.7294003162205219,2.6077082172363997,-3.7339603181093928
1758274030506862300,10.9958623046875,-1.9195085109323262,1.4316557281449436,-3.7147564359456298
1758274030516820500,11.005820556640625,-2.4001444942086936,-0.15435524339880793,-3.7323102128148076
1758274030526778400,11.0157783203125,-2.006017166084051,-1.7627027691088615,-3.9381656706199046
1758274030536736500,11.025736572265625,-1.011903837159276,-3.2817031648382544,-3.9754479380488394
1758274030546693400,11.035693359375,0.0557353312253952,-5.028907189911604,-4.215891309632361
1758274030556651300,11.0456513671875,0.6182949799507856,-6.6601055394530295,-4.692440608116984
1758274030566609400,11.055609375,0.6749918496847153,-7.62925452299118,-5.332519549852609
1758274030576567300,11.0655673828125,0.4957131408989429,-7.973714441627264,-5.823081883859634
1758274030586525400,11.075525390625,0.04214402824640274,-7.567689170438051,-6.025228842535615
1758274030596483600,11.085483642578126,-0.7341881350189446,-6.651003364586829,-5.988566460570692
1758274030606440400,11.0954404296875,-1.0811556525617838,-5.577296274465322,-5.721989407560229
1758274030616398300,11.1053984375,-1.042568440014124,-4.713892561468482,-5.390066898936033
1758274030626356500,11.1153564453125,-0.9464292022079229,-4.5500917000606655,-5.135839039888977
1758274030636314400,11.125314453125,-0.9960837522149085,-4.9257285549879075,-4.975900406867265
1758274030646272500,11.1352724609375,-2.4928847372263667,-4.647826098103821,-4.873752284035087
1758274030656230400,11.14523046875,-5.756816390791535,-3.897528247544169,-4.927834002834558
1758274030666187500,11.1551875,-7.349749014824629,-2.6061522199660536,-4.6905677999824285
1758274030676145700,11.165145751953125,-6.6345899899244305,-2.18080733127892,-4.059671112611889
1758274030686103300,11.175103271484375,-4.841791796150804,-2.310671436293423,-3.320439430467784
1758274030696061400,11.1850615234375,-3.5591280673384666,-2.250105031649768,-2.723384514683485
1758274030706019300,11.195019287109375,-3.1333085468769073,-2.176365257178247,-2.1545736966088413
1758274030715977500,11.2049775390625,-2.825221671870351,-2.0440718791902066,-1.359910050100088
1758274030725934600,11.2149345703125,5.185780005621909,-0.6190057585686445,6.581609510365128
1758274030735892500,11.224892578125,6.878349646449089,0.4377288617029786,14.61978444146514
1758274030745850400,11.234850341796875,-0.6297708982110023,2.3063459743097425,20.660566826963425
1758274030755808300,11.244808349609375,0.5606067610919475,-4.064872480647265,18.17237404694557
1758274030765766400,11.254766357421875,2.4643191524773833,-8.956689705944061,6.0068333541452885
1758274030775724300,11.264724365234375,2.1446528988361355,-7.240610010191798,1.9509385452017187
1758274030785681400,11.274681396484375,0.6700561468482017,-5.227343603631854,-0.8550671887408942
1758274030795639600,11.2846396484375,0.7059937216699123,-1.7746940895453094,-5.768963340181112
1758274030805597400,11.294597412109376,1.041432129460573,1.316446171426773,-6.388199984896183
1758274030815555300,11.304555419921876,-0.47871465982496736,3.3470258240982886,-5.150295435264706
1758274030825513500,11.314513427734376,-2.1415333055108783,0.4464253783777356,-3.6934818849876523
1758274030835471400,11.324471435546876,-0.9669166944414377,-3.0642648212671277,-0.7453063258826732
1758274030845428500,11.334428466796876,-0.20319851355552673,-2.7831328809425235,1.0506504780523478
1758274030855386400,11.344386474609376,-1.239005788871646,-1.4072118995010852,1.745180994813144
1758274030865344500,11.354344482421874,-0.5319096589177846,-0.8262672837793826,1.7488111680090426
1758274030875302700,11.364302734375,0.03834463596343994,-1.2412266797915101,1.2064961426720022
1758274030885260300,11.37426025390625,-0.8275643378525972,-1.2028572016477583,1.1070482187092303
1758274030895218400,11.384218505859375,-1.1795324401617049,-0.7537205184847116,1.0500259164132177
1758274030905175600,11.394175537109374,-1.084752800270915,-0.38903672698736186,1.0421814865231513
1758274030915133400,11.404133544921875,-0.7861883713692426,0.038569092369079586,0.8064161897532641
1758274030925091600,11.414091552734375,-0.6304331615120172,0.12069967856705188,0.42554391839057204
1758274030935049500,11.424049560546875,-0.6883411606013774,-0.31423166137188674,-0.23239245933592317
1758274030945007400,11.43400732421875,-0.7336696641027927,-0.4442819366082549,-0.7466616129491478
1758274030954965200,11.44396533203125,-0.7332359488606452,-0.5919318736821413,-0.8519329093031585
1758274030964922400,11.45392236328125,-0.42405835600793357,-0.8284247540742158,-0.5143666957035661
1758274030974880500,11.463880615234375,-0.46264615307748314,-0.7046396767124533,0.2239911992806941
1758274030984838400,11.47383837890625,-0.49480479388237,-0.5358709637641906,0.6174198776166886
1758274030994796500,11.483796630859375,0.023117840737104413,-0.6302510829433798,0.5609284673269838
1758274031004754400,11.49375439453125,-0.035549452286958695,-0.616554273763299,0.4818864947941154
1758274031014712300,11.50371240234375,-0.07152735911905765,-0.3722027888253331,0.49287419114597136
1758274031024669400,11.51366943359375,0.24142098444402216,-0.35272885754853484,0.345407940075919
1758274031034627300,11.52362744140625,0.16039748270511625,-0.4271709350705147,-0.1642903254251927
1758274031044585500,11.53358544921875,0.14248305583000181,-0.3342167570412159,-0.4237627340622246
1758274031054543600,11.543543701171876,0.1818628800600767,-0.3200473619133234,-0.4107232928123325
1758274031064501500,11.55350146484375,-0.16282792472243307,-0.3527145367622375,-0.4467645472042262
1758274031074459600,11.563459716796874,-0.5306956069529056,-0.30845453927516936,-0.29654212929382917
1758274031084416500,11.57341650390625,-0.5300000259041786,-0.17656389686912297,-0.07155307808220386
1758274031094374400,11.58337451171875,-0.48724400323927397,-0.12768822228014468,-0.035642902724072334
1758274031104332500,11.59333251953125,-0.3483808914721012,-0.209872876752913,0.07823226358518004
1758274031114290400,11.60329052734375,-0.24754443576037882,-0.3417205568000674,0.1262834700487554
1758274031124248600,11.61324853515625,-0.24254034386277198,-0.22044307834506033,-0.008244827384501696
1758274031134206500,11.62320654296875,-0.4218973785817623,-0.13159107493758201,-0.10696494852937757
1758274031144163300,11.633163330078125,-0.8447738313287496,-0.0341068522632122,-0.24641090168580412
1758274031154121500,11.64312158203125,-1.023226026162505,0.1832116643205285,-0.21667430039606986
1758274031164079400,11.653079345703125,-1.110262504580617,0.20286475155651568,-0.006381152404472231
1758274031174037500,11.66303759765625,-1.1430126815378665,0.1297258655875921,0.029124899132177234
1758274031183995400,11.672995361328125,-1.2455389900326728,0.14816606990247963,-0.022983254572004078
1758274031193953500,11.68295361328125,-1.2440379378199578,-0.008581950384378433,0.038893721213564277
1758274031203910400,11.692910400390625,-0.9956628964543341,-0.0728211983218789,0.08050123143047094
1758274031213868300,11.702868408203125,-0.5182371073961257,-0.06721095722466706,0.06070296357013285
1758274031223826400,11.712826416015625,0.1615986751884222,-0.19612404512464998,-0.04246522302478552
1758274031233784300,11.722784423828125,0.5594575910568237,-0.3293286927387118,-0.12090418816320597
1758274031243742500,11.732742431640625,0.5883312188416719,-0.502344833998382,-0.09441701712347567
1758274031253700600,11.74270068359375,0.5606827489376067,-0.2573500827208161,-0.0074056000813841815
1758274031263657200,11.7526572265625,0.028209026396274563,0.16167378625124693,-0.06572824438624084
1758274031273615400,11.762615478515626,0.008242343166470528,0.44709407141953705,-0.11608312468230723
1758274031283573500,11.772573486328126,-0.13711363775134086,0.16991963654905556,-0.028218963268399237
1758274031293531400,11.782531494140626,-0.2784749960750341,0.06504618040621281,-0.06487455016635357
1758274031303489500,11.792489501953124,-0.08928279604017735,0.12948387352526186,-0.12835611160434782
1758274031313447400,11.802447509765624,-0.021322774013876913,0.23739538218975065,0.08334171555340289
1758274031323404500,11.812404541015624,-0.22803660221397876,0.46342122910320754,0.08713884281404316
