time,seconds_elapsed,z,y,x
1758274019563199500,0.052199462890625,9.48726665495336,2.3465946903288364,0.8097180808428674
1758274019573157600,0.06215771484375,9.436310959219933,2.4894763900876042,0.9638105451196431
1758274019583115500,0.072115478515625,9.373476025122404,2.6566870599389074,1.1181859910562635
1758274019593073700,0.08207373046875,9.303404125508665,2.8294185390383,1.2694286919251083
1758274019603030800,0.09203076171875,9.23131504085362,2.99518982373625,1.4078528277531266
1758274019612988400,0.101988525390625,9.159331754660606,3.144109050093591,1.5464827152863143
1758274019622946600,0.111946533203125,9.088896282431483,3.2675264631867407,1.6987112123221157
1758274019632904400,0.121904541015625,9.020555152133106,3.361412076847255,1.8710645057588815
1758274019642862600,0.131862548828125,8.952301700118184,3.422819023968279,2.0762918947935103
1758274019652819700,0.14181982421875,8.883798657256364,3.446846088504791,2.3168419416218993
1758274019662777600,0.151777587890625,8.818899776366353,3.4285490920528767,2.5772940820112824
1758274019672735500,0.161735595703125,8.75747120193541,3.370026468196511,2.8495626246616244
1758274019682693400,0.171693359375,8.695210268333554,3.2733021239787337,3.138342157129943
1758274019692651500,0.181651611328125,8.622168997520207,3.1373785727947947,3.4620004030168054
1758274019702608600,0.191608642578125,8.52661895777881,2.970116757278144,3.8269527823224663
1758274019712566500,0.20156640625,8.402660569676756,2.7734289407908914,4.227737814770639
1758274019722524700,0.211524658203125,8.256967319628595,2.5436583543911575,4.6392537923306225
1758274019732482600,0.221482666015625,8.110954920628666,2.2856315414525565,5.015843125677108
1758274019742440400,0.2314404296875,7.98705556923747,2.0101609878905116,5.3232116232812405
1758274019752397600,0.2413974609375,7.884471393075585,1.7276390545122324,5.569627931794524
1758274019762355500,0.25135546875,7.766441810500622,1.4493474521800875,5.8096600922286505
1758274019772313600,0.261313720703125,7.610807012152671,1.180909062277153,6.070539225858449
1758274019782271700,0.271271728515625,7.427581611567735,0.9321742476884275,6.335018429806828
1758274019792229600,0.281229736328125,7.243374798730016,0.7164215921819209,6.571958469444513
1758274019802186500,0.2911865234375,7.075806401482224,0.538093644782342,6.768589879569411
1758274019812144600,0.30114453125,6.918200595322251,0.38826917668096717,6.939605786922574
1758274019822102500,0.3111025390625,6.745732151073217,0.24556911709941923,7.113732519772649
1758274019832060700,0.321060791015625,6.550261601421236,0.08744349744957872,7.297725982120633
1758274019842018600,0.3310185546875,6.3360010111033915,-0.09124103570217267,7.484460852131247
1758274019851976700,0.340976806640625,6.112181149801612,-0.284650853432063,7.66358933879137
1758274019861933600,0.35093359375,5.890288457170128,-0.4918453960875049,7.825150020056962
1758274019871891500,0.360891357421875,5.6662470620721574,-0.7098890486080199,7.972457719564438
1758274019881849600,0.370849609375,5.427114480826258,-0.9369028836455195,8.114125367358326
1758274019891807500,0.380807373046875,5.172262352401018,-1.1707093014325947,8.249092056208848
1758274019901765600,0.390765625,4.906843821775913,-1.4033300896316765,8.374003214991092
1758274019911722800,0.40072265625,4.633485438062251,-1.6223904814466834,8.489349257570504
1758274019921680400,0.410680419921875,4.363660196910798,-1.817778321251273,8.59212106525898
1758274019931638500,0.420638427734375,4.117610675883293,-1.9887293466746805,8.675288008767366
1758274019941596400,0.430596435546875,3.9119349585592746,-2.1527903203234073,8.731129722976684
1758274019951554600,0.440554443359375,3.7475349622145293,-2.3364288317538797,8.755995868685842
1758274019961511700,0.45051171875,3.6007340431854127,-2.546495623643696,8.759021938508749
1758274019971469600,0.460469482421875,3.4392268456727266,-2.767318348956108,8.756943963190913
1758274019981427700,0.470427734375,3.2517154383316633,-2.9792791378989816,8.759031875380874
1758274019991385300,0.48038525390625,3.0418747102826833,-3.172288850395381,8.766640012297033
1758274020001343500,0.490343505859375,2.8180665394186972,-3.346171253095567,8.776790234911442
1758274020011300600,0.500300537109375,2.5867101451322436,-3.5030829395115375,8.786793742531538
1758274020021258500,0.510258544921875,2.3545665459908545,-3.6490436083242295,8.792660588738322
1758274020031216600,0.520216552734375,2.107500541397184,-3.7995048034265637,8.791620139774679
1758274020041174500,0.530174560546875,1.8519161531746386,-3.9616748487621543,8.777581093028187
1758274020051132700,0.540132568359375,1.612347080207616,-4.131466475017368,8.746525445029139
1758274020061089500,0.550089599609375,1.4138741338692604,-4.305555213944614,8.696753990644217
1758274020071047400,0.56004736328125,1.2664333095014095,-4.4834228868886825,8.629336989453435
1758274020081005600,0.570005615234375,1.151255682291463,-4.670242512573301,8.545981829896569
1758274020090963700,0.579963623046875,1.0394620714966207,-4.8616518041357395,8.453061554136871
1758274020100921600,0.589921630859375,0.913254370097816,-5.0557683088302605,8.353177284583449
1758274020110879700,0.599879638671875,0.762319420003891,-5.257336590835452,8.243160328072308
1758274020120836600,0.609836669921875,0.6191138220530003,-5.447889557829499,8.130656230920552
1758274020130794500,0.61979443359375,0.5384547331796958,-5.621658563283085,8.017319190075993
1758274020140752600,0.629752685546875,0.512661206959933,-5.7959758502691985,7.89393597151339
1758274020150710500,0.63971044921875,0.49531486229635774,-5.997011632832884,7.743443212229013
1758274020160668700,0.649668701171875,0.4668284071981907,-6.232704302757978,7.556841028687358
1758274020170625500,0.65962548828125,0.43446996950488537,-6.495298423612117,7.334351539206504
1758274020180583400,0.66958349609375,0.43605387769546355,-6.767479872500896,7.083886832085251
1758274020190541600,0.67954150390625,0.4780580956123769,-7.0331719593703745,6.817355956304073
1758274020200499500,0.68949951171875,0.5503842404263094,-7.295290279406308,6.530407146394253
1758274020210457600,0.69945751953125,0.6273783770512789,-7.560208459293841,6.214499953025579
1758274020220414700,0.709414794921875,0.6915437560349702,-7.820887686437368,5.875869471195339
1758274020230372600,0.71937255859375,0.7371447198022156,-8.05966195576489,5.537945091807842
1758274020240330500,0.72933056640625,0.7516812677420676,-8.268100708061457,5.219567124411464
1758274020250288400,0.739288330078125,0.7353682116489857,-8.45808201264739,4.908203419691324
1758274020260246500,0.74924658203125,0.7183829553827643,-8.63687965991795,4.588969127726554
1758274020270203600,0.75920361328125,0.7012959192425012,-8.808884578308463,4.252310238230228
1758274020280161500,0.76916162109375,0.6789585613586008,-8.971412643301486,3.90168595174551
1758274020290119700,0.77911962890625,0.6817735457140952,-9.118808605614303,3.5430057845771312
1758274020300077600,0.78907763671875,0.746232646947354,-9.24574805535376,3.182714675080776
1758274020310035500,0.799035400390625,0.8731549263563007,-9.33618411308229,2.871174444749951
1758274020319993600,0.80899365234375,0.9529008093748241,-9.37572175822258,2.712599209035933
1758274020329950500,0.818950439453125,0.9359250515893102,-9.395343573537469,2.6498928697541353
1758274020339908600,0.82890869140625,0.878108603240922,-9.427547222527862,2.553554602244496
1758274020349866800,0.83886669921875,0.7788409312158823,-9.479877129223942,2.3865755491919813
1758274020359824600,0.84882470703125,0.6585416501432657,-9.547592821100354,2.1401335217155513
1758274020369782500,0.858782470703125,0.560597591404803,-9.618647886532544,1.826939971219748
1758274020379739600,0.86873974609375,0.49454490083716807,-9.683084410607814,1.470946997308731
1758274020389697500,0.878697509765625,0.4764366684230044,-9.734852007246017,1.0844520637586712
1758274020399655700,0.88865576171875,0.48804308119509365,-9.77069255143404,0.682458313107863
1758274020409613600,0.898613525390625,0.5456920640220865,-9.788294259098171,0.24881328665241598
1758274020419571700,0.90857177734375,0.6432973192602396,-9.78105904714763,-0.29569758649477734
1758274020429528600,0.918528564453125,0.7248891954716294,-9.737768186953664,-0.9059953388802706
1758274020439486500,0.928486572265625,0.7782809592455625,-9.676028062355519,-1.3925336780682205
1758274020449444900,0.93844482421875,0.798985309100151,-9.621896659195423,-1.7178800231724976
1758274020459402800,0.94840283203125,0.7579511417917907,-9.584348726567626,-1.932915543385595
1758274020469361000,0.95836083984375,0.6492918104346841,-9.556721299451588,-2.101871157208085
1758274020479317800,0.96831787109375,0.5261671332104131,-9.522944117534161,-2.2818939623594283
1758274020489275600,0.978275634765625,0.4489528875613585,-9.476234973329305,-2.483905019696057
1758274020499233800,0.98823388671875,0.438479680070281,-9.423983977088332,-2.6770544329240917
1758274020509191700,0.998191650390625,0.4637611285820603,-9.386490989518165,-2.8016291993588207
1758274020519149800,1.00814990234375,0.47808417990170415,-9.381340767148137,-2.816422279343009
1758274020529106700,1.018106689453125,0.4825689241003245,-9.392464803230762,-2.778328695531189
1758274020539064600,1.028064697265625,0.5186844858374446,-9.401240230360626,-2.741898076495528
1758274020549022700,1.038022705078125,0.5863176139969378,-9.404279159665107,-2.717748554623127
1758274020558980600,1.047980712890625,0.6550601647030562,-9.403279627233744,-2.7054826550289985
1758274020568938800,1.057938720703125,0.7009026090759783,-9.40194048758447,-2.6986349810913204
1758274020578896000,1.067895751953125,0.7182723346151411,-9.401938149496912,-2.694074249047041
1758274020588853800,1.077853759765625,0.7173969400200992,-9.40280090380609,-2.6912977700710297
1758274020598811600,1.087811767578125,0.7137781650010496,-9.404035414037107,-2.6879446602508423
1758274020608769500,1.09776953125,0.7164389086429029,-9.404671373853088,-2.685007730016112
1758274020618727700,1.107727783203125,0.7249270432639867,-9.40449777085185,-2.6833365819334984
1758274020628684800,1.117684814453125,0.7306132722068578,-9.404580772960186,-2.6814988451123236
1758274020638642700,1.127642578125,0.7251523764524609,-9.405639342102408,-2.6792665560156106
1758274020648600800,1.137600830078125,0.7071825661282986,-9.407672309234737,-2.676930514283478
1758274020658558700,1.147558837890625,0.6817319715946912,-9.410342405226826,-2.674151112698018
1758274020668516600,1.1575166015625,0.6561710485544056,-9.413252739715576,-2.6702991134449836
1758274020678474800,1.167474853515625,0.6344465618718416,-9.41619346934259,-2.6651760713428256
1758274020688431600,1.177431640625,0.6174204621385783,-9.419088021740317,-2.6589418531283733
1758274020698389800,1.1873896484375,0.6046757660515606,-9.421744673728943,-2.652452783370018
1758274020708348000,1.197347900390625,0.5961281197955831,-9.424069901806115,-2.6461191964343187
1758274020718305800,1.207305908203125,0.5910111055754125,-9.426278810027242,-2.6393887191355225
1758274020728263700,1.217263671875,0.5895465859808028,-9.42836730673909,-2.6322461539044975
1758274020738220800,1.227220703125,0.5911968008732423,-9.430246544614434,-2.6251336915507912
1758274020748178700,1.2371787109375,0.5934402324184775,-9.431918861740828,-2.6186130576103923
1758274020758136800,1.24713671875,0.5954333059318363,-9.434043598809838,-2.6104908336922525
1758274020768094700,1.2570947265625,0.6004554449427872,-9.43586730710566,-2.6027365663036703
1758274020778052900,1.267052978515625,0.6098691699761897,-9.437216968148947,-2.595644562216103
1758274020788009700,1.277009765625,0.6225859551429748,-9.439043599054218,-2.5859660487666725
1758274020797967600,1.286967529296875,0.6300127441428601,-9.44310427262187,-2.5692873011663555
1758274020807925800,1.29692578125,0.6062277447339147,-9.450924006462097,-2.5461577699914573
1758274020817883600,1.306883544921875,0.5400540946677327,-9.45723976548016,-2.5375889713495967
1758274020827841800,1.316841796875,0.44561829977855083,-9.452713812488318,-2.5725512713983654
1758274020837799000,1.326798828125,0.3578427664961666,-9.440205628570913,-2.6315131634548306
1758274020847756500,1.336756591796875,0.3236031181661412,-9.418587671002745,-2.7121675396203995
1758274020857714700,1.346714599609375,0.37610443590637294,-9.396707263106107,-2.780436481465399
1758274020867672600,1.356672607421875,0.5535831095328554,-9.41057913659215,-2.702768135373294
1758274020877630700,1.366630615234375,0.7609341031253337,-9.440463402724266,-2.543425714679062
1758274020887587800,1.376587890625,0.9009608518444001,-9.45997941957712,-2.422280484301597
1758274020897545700,1.386545654296875,1.0073986346945165,-9.482953467929363,-2.2867294196918606
1758274020907503900,1.39650390625,1.0873886286672203,-9.511132683709263,-2.127517785770446
1758274020917461800,1.406461669921875,1.1318743246689438,-9.54547276020646,-1.9424761295437811
1758274020927419600,1.416419677734375,1.1499666653942315,-9.581144377568364,-1.7463213970199227
1758274020937376800,1.426376708984375,1.1479912006027997,-9.61533540098369,-1.5484925938040017
1758274020947334700,1.436334716796875,1.1399555589895696,-9.646735916897654,-1.345869688179344
1758274020957292800,1.446292724609375,1.139759524960816,-9.672250297382474,-1.1484358756303787
1758274020967251000,1.4562509765625,1.1516901281859726,-9.691201666089892,-0.9615502720374614
1758274020977208600,1.46620849609375,1.1864235148496924,-9.702725515145064,-0.7873454324498772
1758274020987166700,1.476166748046875,1.2416836297787726,-9.707554834997653,-0.6261131063558161
1758274020997123800,1.486123779296875,1.3064229361928998,-9.707568279001116,-0.4762195185409859
1758274021007081700,1.496081787109375,1.3830601856715976,-9.703021283221243,-0.33004184597674757
1758274021017040000,1.506039794921875,1.4622744460314512,-9.695001058372855,-0.19774715281445532
1758274021026997800,1.515997802734375,1.5166903652213513,-9.688082072764635,-0.10524534906200132
1758274021036956000,1.525955810546875,1.5231956554621457,-9.687481768783927,-0.054652061466756274
1758274021046912800,1.535912841796875,1.4972034283325075,-9.691673375254869,-0.015582535020069916
1758274021056870700,1.54587060546875,1.4569003517776726,-9.697740712469816,0.04045305208531208
1758274021066828800,1.555828857421875,1.4315284485034643,-9.700834586831927,0.12208556170118971
1758274021076786700,1.56578662109375,1.3984027162320911,-9.704117846286296,0.21197257071221245
1758274021086744800,1.575744873046875,1.3575384986631571,-9.708215344732999,0.2792937285793945
1758274021096701700,1.58570166015625,1.3219164195314048,-9.712619717171787,0.2965195704021491
1758274021106659600,1.59565966796875,1.3008645714133977,-9.7158778421849,0.2825495520375669
1758274021116617700,1.60561767578125,1.2829444454498589,-9.718665427076816,0.26828999440819024
1758274021126575600,1.61557568359375,1.2633856123685836,-9.721352474203705,0.2637054065642878
1758274021136533800,1.62553369140625,1.245052813950926,-9.723533909896016,0.2704049772681668
1758274021146491000,1.635490966796875,1.2230980256438255,-9.726356566101312,0.26906583761889485
1758274021156448800,1.64544873046875,1.1931672900214791,-9.730815299075841,0.24077729797931385
1758274021166406700,1.65540673828125,1.1462265290178357,-9.737807349920272,0.17792407930642365
1758274021176364500,1.665364501953125,1.0842124097838997,-9.74601637533903,0.10012906549419276
1758274021186322700,1.67532275390625,1.034687112179771,-9.751868023976684,0.02940915943365544
1758274021196279800,1.68527978515625,1.009442196286097,-9.754532274749874,-0.02208167065635789
1758274021206237700,1.69523779296875,1.0015906790681184,-9.755237792670727,-0.05052917741704732
1758274021216195800,1.70519580078125,0.9964829076003283,-9.755710086357594,-0.059374094153125764
1758274021226153700,1.71515380859375,0.9883704744238406,-9.7565541359663,-0.056206638531573115
1758274021236111600,1.725111572265625,0.983430972195044,-9.75707845210135,-0.05189806831718888
1758274021246068700,1.73506884765625,0.981606898573041,-9.757294725200532,-0.04473388490939978
1758274021256026600,1.745026611328125,0.980565134435147,-9.757447869935632,-0.032982793836458586
1758274021265984800,1.75498486328125,0.9785163852117955,-9.75769220008552,-0.018666260164213598
1758274021275943000,1.76494287109375,0.9735789288096129,-9.758202487695216,-0.0029818719194547156
1758274021285900800,1.77490087890625,0.9669440208397805,-9.758853645080327,0.012718385752115863
1758274021295858700,1.784858642578125,0.9577051409166306,-9.759733350524305,0.028195121168508194
1758274021305815800,1.79481591796875,0.9443656207416206,-9.760981889280677,0.04248184536602348
1758274021315773700,1.804773681640625,0.9282798705983907,-9.76245020826757,0.05700907292168121
1758274021325731800,1.81473193359375,0.9113523358687758,-9.763951845002174,0.07126069840635173
1758274021335689700,1.824689697265625,0.8952922316234558,-9.765323133355379,0.08542993827061728
1758274021345647900,1.83464794921875,0.8774003819063305,-9.7668124951303,0.09967069073482417
1758274021355604700,1.844604736328125,0.8559693982776254,-9.76854794062078,0.11471187286172062
1758274021365562600,1.854562744140625,0.8355838320486247,-9.770116212850809,0.13037282172162085
1758274021375520800,1.864520751953125,0.8191047717388719,-9.771301038721203,0.14527591968523337
1758274021385478700,1.874478759765625,0.8062843070019036,-9.772142165720462,0.15978395391665398
1758274021395436800,1.884436767578125,0.7968050424516201,-9.77265069976449,0.17540583114149047
1758274021405394000,1.894393798828125,0.7906209469892084,-9.772812027806044,0.19352073075845835
1758274021415351600,1.9043515625,0.7869205581013112,-9.772703306734561,0.2131416692905128
1758274021425309700,1.914309814453125,0.7837957040790468,-9.772550746521354,0.23087862070687115
1758274021435267600,1.924267578125,0.782446919818595,-9.772303493762015,0.2454495093077421
1758274021445225700,1.934225830078125,0.7852478025835007,-9.771777424061298,0.2571719679412432
1758274021455182600,1.9441826171875,0.7923054660100489,-9.77102689795494,0.2639693912627175
1758274021465140500,1.954140380859375,0.8008944306571036,-9.77030092176795,0.2649094120591879
1758274021475098600,1.9640986328125,0.8073995017021894,-9.769937349152565,0.2584509931674227
1758274021485056500,1.974056396484375,0.8093659064043313,-9.770141931813955,0.2441807497472502
1758274021495014700,1.9840146484375,0.8108359789568931,-9.77046926407218,0.22550472738249225
1758274021504971500,1.993971435546875,0.8155333429928868,-9.770575647056102,0.20286997572090476
1758274021514929400,2.003929443359375,0.8229317096158861,-9.770473355725407,0.17615763588948175
1758274021524887600,2.013887451171875,0.8317262798376381,-9.770236039838194,0.14528689773697406
1758274021534845700,2.023845703125,0.8445244596775621,-9.76959189671576,0.1107613725371193
1758274021544803600,2.033803466796875,0.8623993582598865,-9.768383105447889,0.07313133741670753
1758274021554760400,2.043760498046875,0.8840392353989184,-9.766661103960871,0.03446282837731996
1758274021564718600,2.053718505859375,0.9094597270552068,-9.76438731380999,-0.0023618635859726056
1758274021574676500,2.063676513671875,0.9420148928970098,-9.761242001521587,-0.03395395868986379
1758274021584634600,2.073634521484375,0.9836279560718685,-9.757010063040257,-0.060138114495296026
1758274021594592500,2.083592529296875,1.0318141870919615,-9.751859840670228,-0.08355023460439406
1758274021604550700,2.093550537109375,1.0836229194581508,-9.746015206295251,-0.10655381044521928
1758274021614507800,2.1035078125,1.136004483276233,-9.73976958990395,-0.12943195154177956
1758274021624465400,2.11346533203125,1.1860980092223734,-9.733480134370922,-0.15139380891048348
1758274021634423600,2.123423583984375,1.2324443845294415,-9.727363112795352,-0.17279066194072365
1758274021644381400,2.13338134765625,1.2732802527867257,-9.721685067158937,-0.19488507791422308
1758274021654339600,2.143339599609375,1.3050098545245825,-9.716952193418145,-0.2194547796937637
1758274021664296700,2.153296630859375,1.322012427251786,-9.71396002586484,-0.2483282065492123
1758274021674254600,2.163254638671875,1.3178864333629607,-9.713674194660783,-0.2794973796590231
1758274021684212500,2.17321240234375,1.290922584722191,-9.716465286684036,-0.3069271105121821
1758274021694170400,2.18317041015625,1.2500726879395543,-9.721197575902938,-0.32561865923963484
1758274021704128500,2.19312841796875,1.207276917786151,-9.726403912374376,-0.3315597762590274
1758274021714085600,2.203085693359375,1.168986350097507,-9.731377024611831,-0.32273934094365686
1758274021724043500,2.21304345703125,1.1342482141934334,-9.736179456457496,-0.3011682181918993
1758274021734001700,2.223001708984375,1.0966719322539866,-9.741296945601702,-0.2735461796370335
1758274021743959600,2.23295947265625,1.0474174874804913,-9.747370128035545,-0.2491316866855137
1758274021753917400,2.24291748046875,0.979266180665791,-9.754847332048415,-0.23324533157190305
1758274021763874600,2.25287451171875,0.8883622862298041,-9.763763628953695,-0.22391090058609842
1758274021773832400,2.26283251953125,0.7750546176102012,-9.773573075306414,-0.21668621002957222
1758274021783790600,2.27279052734375,0.6414338634759187,-9.78341116323173,-0.2093970759347081
1758274021793748700,2.282748779296875,0.49105044631753114,-9.792319276830554,-0.19937875433797014
1758274021803706600,2.29270654296875,0.3292354249646887,-9.799386730998753,-0.18447717247800902
1758274021813664800,2.302664794921875,0.15995278941122815,-9.803947170782088,-0.16568852005163207
1758274021823621600,2.31262158203125,-0.013553838779125362,-9.8056411152184,-0.14003563527842053
1758274021833579500,2.32257958984375,-0.1907288350176066,-9.804221896070242,-0.10608064910867251
1758274021843537700,2.33253759765625,-0.3734117627562955,-9.79931892645955,-0.06567353679062798
1758274021853495600,2.34249560546875,-0.5640760081050917,-9.790390939116477,-0.02068797867510002
1758274021863453700,2.35245361328125,-0.7635537110392003,-9.77684639788866,0.025776725782011633
1758274021873410600,2.36241064453125,-0.9682808954667299,-9.758465522545576,0.07192033135886304
1758274021883368400,2.372368408203125,-1.1711061917956918,-9.735724113905428,0.12074128921907394
1758274021893326600,2.38232666015625,-1.368272074123472,-9.709135966709255,0.17579543324727565
1758274021903284500,2.392284423828125,-1.5620423957288265,-9.678536245784162,0.23736089539825914
1758274021913242600,2.40224267578125,-1.7552236653998494,-9.643652563929557,0.2992777465364896
1758274021923199700,2.41219970703125,-1.9458843305520712,-9.605094577476383,0.35507812408842143
1758274021933157600,2.42215771484375,-2.131922012078762,-9.5637712179631,0.39942967231646176
1758274021943115500,2.432115478515625,-2.3196928010083733,-9.518726207578181,0.42809678121116007
1758274021953073400,2.442073486328125,-2.5132304829016325,-9.468900392657519,0.4404259552998468
1758274021963031600,2.452031494140625,-2.719195538561046,-9.411904247716068,0.43866577722690997
1758274021972989400,2.461989501953125,-2.9335484833374617,-9.347778689286113,0.4286200013676658
1758274021982946600,2.471946533203125,-3.1425784795254468,-9.279802300646901,0.4240920025492087
1758274021992904700,2.48190478515625,-3.3382588725358247,-9.210621212393045,0.4368878077689558
1758274022002862300,2.4918623046875,-3.5214605999842283,-9.140772015619277,0.4647454999769106
1758274022012820500,2.501820556640625,-3.695576226918399,-9.069819241517783,0.5014767093943432
1758274022022778600,2.511778564453125,-3.860241888462007,-8.998350919109582,0.5464394117906689
1758274022032735500,2.521735595703125,-4.018854241316021,-8.925631719857455,0.5935511089144274
1758274022042693600,2.531693603515625,-4.181112257196009,-8.84868642734289,0.6240459446929395
1758274022052651500,2.541651611328125,-4.353605251364409,-8.765105642336607,0.6240078777048736
1758274022062609700,2.551609619140625,-4.533443347598612,-8.674713423749804,0.606309650863707
1758274022072567600,2.561567626953125,-4.720015720523894,-8.576525436720251,0.5788578725755215
1758274022082525400,2.571525390625,-4.898710784202814,-8.478402916142343,0.5382401040483266
1758274022092482600,2.581482666015625,-5.080806888496875,-8.374839665815234,0.46672754063960165
1758274022102440700,2.591440673828125,-5.293275334700942,-8.248012444278597,0.34916436999998984
1758274022112398600,2.601398681640625,-5.5320215469777585,-8.095148279687761,0.1889681820206344
1758274022122356700,2.611356689453125,-5.771942063730955,-7.9281199806660405,0.0028328422412931104
1758274022132314600,2.621314697265625,-5.989371931734681,-7.762774520164728,-0.1927098710332997
1758274022142271500,2.631271484375,-6.174452604797482,-7.609450921368598,-0.377821724685654
1758274022152229600,2.641229736328125,-6.316693668565153,-7.482537190592288,-0.5304669492961839
1758274022162187500,2.6511875,-6.417562272980809,-7.386903564220667,-0.6472517559744417
1758274022172145700,2.661145751953125,-6.490626924669742,-7.3139371122092,-0.7406037011496722
1758274022182103600,2.671103515625,-6.553133357465267,-7.248076692810654,-0.8319689294870942
1758274022192060400,2.681060302734375,-6.610315380367636,-7.185555646967887,-0.9175377465054392
1758274022202018600,2.6910185546875,-6.6566457543879745,-7.133242691406608,-0.9880969181794672
1758274022211976400,2.7009765625,-6.691233668166398,-7.093309324946999,-1.0405454828191547
1758274022221934600,2.7109345703125,-6.719089643341302,-7.060593050259351,-1.0827131111368535
1758274022231892500,2.720892578125,-6.736704210487008,-7.040146474558115,-1.1061370952136813
1758274022241850600,2.7308505859375,-6.741885412517189,-7.03370270524621,-1.1155178678255528
1758274022251807500,2.740807373046875,-6.734344495618343,-7.0407871105492115,-1.116398961509019
1758274022261765400,2.750765380859375,-6.7144999774634835,-7.0610308571547264,-1.1080178674589842
1758274022271723500,2.7607236328125,-6.684077366670966,-7.0925365870088335,-1.090617819846794
1758274022281681700,2.770681640625,-6.644034110096096,-7.133866376262903,-1.0654218576613812
1758274022291639600,2.7806396484375,-6.59466129963994,-7.183736614847183,-1.0367172297678888
1758274022301596700,2.7905966796875,-6.5377651079416275,-7.239824997293948,-1.006439507338777
1758274022311554600,2.800554443359375,-6.4731590725183485,-7.302284668338299,-0.972251917989552
1758274022321512400,2.810512451171875,-6.399854766854643,-7.37184686486423,-0.9317472544480114
1758274022331470600,2.820470703125,-6.3233431895822285,-7.442854584023356,-0.8886366461917757
1758274022341428500,2.830428466796875,-6.259159178963303,-7.501131416425109,-0.8522676942154764
1758274022351386600,2.84038671875,-6.227085878354311,-7.530873643738031,-0.824485661059618
1758274022361343700,2.85034375,-6.227581552916765,-7.534010772719979,-0.7913738111831248
1758274022371301600,2.860301513671875,-6.204558404725789,-7.558471260237694,-0.7371484461292624
1758274022381259800,2.870259765625,-6.114629127475619,-7.637006452292203,-0.6766134595371782
1758274022391217400,2.880217529296875,-5.99356879890263,-7.735061752852797,-0.6452557598516344
1758274022401175600,2.890175537109375,-5.865602344202995,-7.828910249373316,-0.6879107332948595
1758274022411132700,2.900132568359375,-5.75928833386302,-7.8962804888129225,-0.8060609465748071
1758274022421090600,2.910090576171875,-5.6993368462473155,-7.929978760275244,-0.896307400015369
1758274022431048700,2.920048583984375,-5.642365835747122,-7.970126061746478,-0.9006544893089682
1758274022441006600,2.930006591796875,-5.546171652883291,-8.041827023866773,-0.8598596837144344
1758274022450964500,2.939964599609375,-5.410071576088667,-8.139494201892614,-0.8063046191375702
1758274022460922400,2.94992236328125,-5.258481669217348,-8.243011859512329,-0.7559707085642963
1758274022470879500,2.95987939453125,-5.110864173108339,-8.339958906570077,-0.7032566248562186
1758274022480837600,2.969837646484375,-4.959718502873182,-8.436234337976574,-0.6336618412349373
1758274022490795500,2.97979541015625,-4.798737375061214,-8.534424078571796,-0.5532407989012077
1758274022500753700,2.989753662109375,-4.634576740430295,-8.629203718462586,-0.47741497540324923
1758274022510711600,2.999711669921875,-4.473068081612885,-8.717236222180723,-0.4145242194652557
1758274022520669400,3.00966943359375,-4.309013537704945,-8.80195156417489,-0.35834888938739895
1758274022530626600,3.01962646484375,-4.133021887765825,-8.888001369643211,-0.30320622682552784
1758274022540584400,3.02958447265625,-3.9444957504242657,-8.97502440405786,-0.24548023323956875
1758274022550542600,3.03954248046875,-3.7499557596206663,-9.059530487215518,-0.18209409500006585
1758274022560500700,3.049500732421875,-3.553903610688448,-9.139358057168126,-0.11098913514469749
1758274022570458600,3.059458740234375,-3.359719009193778,-9.213118289905786,-0.03399021046346752
1758274022580416800,3.069416748046875,-3.1710560937300323,-9.279706439056993,0.042564221853273916
1758274022590373600,3.07937353515625,-2.9895696457669136,-9.339197323423624,0.11056248896415345
1758274022600331500,3.08933154296875,-2.8183476944476364,-9.391475792193413,0.16570349842505527
1758274022610289700,3.09928955078125,-2.659487504312396,-9.436842874139547,0.20849950604047626
1758274022620247600,3.10924755859375,-2.5125141513258216,-9.476242572113872,0.24187634526239707
1758274022630205700,3.119205810546875,-2.371179242617637,-9.51184872302413,0.26947149581033736
1758274022640163600,3.12916357421875,-2.2295091106057168,-9.545532381439209,0.2872332528743893
1758274022650120400,3.139120361328125,-2.0876286968439817,-9.577431494525074,0.2915480108009651
1758274022660078600,3.14907861328125,-1.9501202145561576,-9.606690906757116,0.2809637076182291
1758274022670036500,3.159036376953125,-1.8208954303584992,-9.63273895572722,0.2550268274050206
1758274022679994600,3.16899462890625,-1.6969078161619602,-9.65619874176979,0.22072279033558442
1758274022689952500,3.178952392578125,-1.5724273038819432,-9.677942956066131,0.18791666367370635
1758274022699909400,3.188909423828125,-1.4475899409882724,-9.69791840712428,0.1589646368904039
1758274022709867500,3.198867431640625,-1.322642541848868,-9.716108143809437,0.1350941054893192
1758274022719825400,3.208825439453125,-1.1962772387355565,-9.732612703886627,0.12476339347516185
1758274022729783600,3.218783447265625,-1.0750566050343215,-9.746717801606655,0.1270740998366382
1758274022739741400,3.228741455078125,-0.9594918051376938,-9.758598793536423,0.13966039049155077
1758274022749699600,3.238699462890625,-0.8465419369798153,-9.768762460154294,0.15826770413480698
1758274022759656700,3.24865673828125,-0.7344649791989475,-9.777522689715028,0.17610924843680112
1758274022769614300,3.2586142578125,-0.6223316881209612,-9.785058930438757,0.18904027914246543
1758274022779572500,3.268572509765625,-0.5097206599960104,-9.791444832083583,0.19546028398629275
1758274022789530600,3.278530517578125,-0.4004196697345003,-9.796538940352201,0.19467589214295147
1758274022799488500,3.288488525390625,-0.29747097110915927,-9.800355868291854,0.18691713124234227
1758274022809446700,3.29844677734375,-0.20087556876698506,-9.80304992968142,0.1738967965517193
1758274022819403800,3.30840380859375,-0.11312325196340679,-9.804805833438039,0.1528470855918713
1758274022829361700,3.318361572265625,-0.0350182314870879,-9.80580828847885,0.12372836960530839
1758274022839319600,3.328319580078125,0.037915679094800724,-9.806105225598811,0.09621787426667287
1758274022849277400,3.33827734375,0.11126797948554158,-9.805741068461536,0.07392359290609601
1758274022859235600,3.348235595703125,0.1830034101310186,-9.804798234653472,0.05298616494799498
1758274022869193500,3.358193359375,0.24696234328979624,-9.803495335361362,0.029789534770080353
1758274022879150600,3.368150634765625,0.29930803207689893,-9.802080792388319,0.004050561453125556
1758274022889108700,3.378108642578125,0.34047125085871666,-9.800705412381888,-0.025059017383155878
1758274022899066400,3.38806640625,0.372887592751719,-9.79937328699529,-0.060075082029332406
1758274022909024500,3.3980244140625,0.3970043083330616,-9.798045837783812,-0.1053746105980128
1758274022918982400,3.407982421875,0.4172441094158217,-9.79665350664258,-0.14793058064617215
1758274022928940500,3.4179404296875,0.4416856730373576,-9.794985865691304,-0.18316344126462936
1758274022938897700,3.427897705078125,0.4736572303049266,-9.792925426030159,-0.21125284160291774
1758274022948855600,3.43785546875,0.5145670771138742,-9.790396199813484,-0.2318518131205812
1758274022958813700,3.447813720703125,0.5628105547465384,-9.78742156791687,-0.24493812571950255
1758274022968771600,3.457771484375,0.6146811003025621,-9.784002114862203,-0.256618078651838
1758274022978729500,3.4677294921875,0.6633818567160517,-9.780404967153071,-0.2720378574333154
1758274022988687600,3.4776875,0.7049371983543038,-9.777018247324227,-0.28874630605215207
1758274022998644500,3.48764453125,0.7414994809456169,-9.773820912587642,-0.3049275341928005
1758274023008602600,3.4976025390625,0.7739226179055869,-9.770771461889147,-0.3216829637585208
1758274023018560800,3.507560791015625,0.7988473619341849,-9.768087921893596,-0.34158250003624707
1758274023028518700,3.5175185546875,0.809087527854368,-9.76636533588469,-0.3658785542398691
1758274023038476500,3.5274765625,0.7963523302480578,-9.766428464248776,-0.39128801304548977
1758274023048434400,3.537434326171875,0.755323204440996,-9.768758953022957,-0.4137949918752536
1758274023058391600,3.5473916015625,0.6894765213068574,-9.773048759171367,-0.42721481074485923
1758274023068349700,3.557349609375,0.6104076242344454,-9.778314716875553,-0.4270059537671506
1758274023078307600,3.5673076171875,0.5296828497137874,-9.783500010558962,-0.4158646377561614
1758274023088265700,3.577265625,0.44425457367729393,-9.78835563389659,-0.401394104257226
1758274023098223400,3.587223388671875,0.3363253101604059,-9.793030639970302,-0.39217769189421087
1758274023108181500,3.597181396484375,0.19035181839875875,-9.796956873503326,-0.3921536534314975
1758274023118138600,3.607138671875,0.00690495479957899,-9.798457925716042,-0.4007015919484198
1758274023128096500,3.617096435546875,-0.20272855795621872,-9.795689045524597,-0.4168493744771927
1758274023138054700,3.6270546875,-0.4296356081509962,-9.78728712788224,-0.4413647705199197
1758274023148012500,3.637012451171875,-0.668934376276657,-9.772354347166418,-0.47327268796674904
1758274023157970700,3.646970703125,-0.9180137665193527,-9.750486214229465,-0.5055933509329333
1758274023167928600,3.656928466796875,-1.1758431571897119,-9.721164842677116,-0.5355005230166018
1758274023177885400,3.666885498046875,-1.4401074762783943,-9.683974052923917,-0.5631414306687191
1758274023187843600,3.676843505859375,-1.705462147887051,-9.639387307700515,-0.5865213564081118
1758274023197801500,3.686801513671875,-1.9626959107518196,-9.589359832727908,-0.6019984000684693
1758274023207759600,3.696759521484375,-2.1993194317862392,-9.537480007886886,-0.6081526118492707
1758274023217717800,3.7067177734375,-2.4120073659598824,-9.485579140257835,-0.6135219203300774
1758274023227675600,3.716675537109375,-2.607297006087005,-9.433338665410876,-0.6200750683005899
1758274023237633500,3.726633544921875,-2.7934438470765945,-9.379776002049445,-0.6219925192944705
1758274023247590700,3.736590576171875,-2.9784879875212904,-9.322812590333818,-0.619794351663068
1758274023257548500,3.746548583984375,-3.1667285859197376,-9.260707139554619,-0.6176644269622862
1758274023267506700,3.756506591796875,-3.3569740943998094,-9.193624484884738,-0.6151465989224613
1758274023277464600,3.766464599609375,-3.5463933811888095,-9.122815503168106,-0.6063993019085377
1758274023287422700,3.776422607421875,-3.740733173245191,-9.045524173694849,-0.596490961758606
1758274023297380400,3.78638037109375,-3.9430595801413055,-8.959441635000704,-0.5925109156791121
1758274023307337500,3.79633740234375,-4.148642066223919,-8.865763818871974,-0.5978077069129795
1758274023317295600,3.806295654296875,-4.352833682470023,-8.76569776301086,-0.6211272077020258
1758274023327253500,3.81625341796875,-4.543147872272134,-8.66593565853238,-0.657053603542596
1758274023337211600,3.826211669921875,-4.7046842958793045,-8.576219731771946,-0.6962527374435216
1758274023347169500,3.83616943359375,-4.859559508031606,-8.487320966613293,-0.7213995267249643
1758274023357127700,3.846127685546875,-5.020787011820078,-8.393014204931259,-0.7206869945414364
1758274023367084500,3.85608447265625,-5.177742829638719,-8.297497482937574,-0.7161874911651015
1758274023377042400,3.86604248046875,-5.32319350310266,-8.202636594504117,-0.742146912003681
1758274023387000600,3.87600048828125,-5.471799425727129,-8.098412834441662,-0.8034300135493277
1758274023396958500,3.88595849609375,-5.635085615611076,-7.976841049215197,-0.8866689993806183
1758274023406916600,3.89591650390625,-5.817459952324628,-7.831334261649847,-0.9988867538716644
1758274023416874800,3.905874755859375,-6.010663141566515,-7.666372247508168,-1.1265404162950814
1758274023426832600,3.91583251953125,-6.1931999753654,-7.4973559895396225,-1.2666232791155576
1758274023436789500,3.92578955078125,-6.3503691436737775,-7.339485979485511,-1.405386729900539
1758274023446747600,3.93574755859375,-6.478273054531217,-7.204920857173204,-1.5137575266398489
1758274023456706000,3.9457060546875,-6.579516337478161,-7.0960869729667895,-1.5893211555376647
1758274023466664000,3.955663818359375,-6.656414868241548,-7.01160193259716,-1.643156206099689
1758274023476621800,3.965621826171875,-6.7165604171246285,-6.944333984488249,-1.683583785817027
1758274023486580000,3.975580078125,-6.763226891231536,-6.89263360786736,-1.7090191097162664
1758274023496537000,3.985537109375,-6.801010386180877,-6.848033418640494,-1.7381396979995072
1758274023506495000,3.995494873046875,-6.830226543793082,-6.811563344377279,-1.766630610077083
1758274023516453000,4.005453125,-6.849768864130973,-6.786147748091817,-1.7886353750057518
1758274023526411000,4.015410888671875,-6.858654765897989,-6.773595725032687,-1.802113280738145
1758274023536369000,4.025368896484375,-6.854073283326626,-6.777894299009442,-1.803391483980417
1758274023546326800,4.035326904296875,-6.834283710229396,-6.80104253488481,-1.7913062016502022
1758274023556284000,4.045283935546875,-6.797052588465809,-6.843155583471059,-1.7724714450597763
1758274023566242000,4.055241943359375,-6.7426961443781845,-6.902883783724904,-1.748316077968478
1758274023576200000,4.065199951171875,-6.67472501643598,-6.977354795080423,-1.713170238046348
1758274023586158000,4.075157958984375,-6.598537848812342,-7.0598308337152,-1.669884492418915
1758274023596115700,4.08511572265625,-6.521731672507524,-7.140795298743248,-1.6268049368880688
1758274023606073900,4.095073974609375,-6.449734357789159,-7.213691023606062,-1.5918385451860726
1758274023616032000,4.105031982421875,-6.385216585171222,-7.2767451534122225,-1.564726812507212
1758274023625988900,4.11498876953125,-6.327844592654705,-7.332016374257207,-1.5395874028146266
1758274023635947000,4.124947021484375,-6.26826603000462,-7.390541628462076,-1.5030295041374861
1758274023645905000,4.13490478515625,-6.206929810032248,-7.456435950130224,-1.4303759174674748
1758274023655863000,4.144863037109375,-6.164465463790298,-7.509393633335828,-1.333699211783707
1758274023665821000,4.154821044921875,-6.119058049833774,-7.559921459046006,-1.2550190583005547
1758274023675778800,4.16477880859375,-6.067165950033068,-7.606057187277078,-1.2279239844955503
1758274023685736000,4.17473583984375,-5.98571808540225,-7.6719029936283825,-1.217958909189701
1758274023695694000,4.184694091796875,-5.883455980801582,-7.758234538647532,-1.1683806392893195
1758274023705652000,4.19465185546875,-5.775528690046071,-7.847779200494289,-1.1072758899852633
1758274023715610000,4.204610107421875,-5.666439954295754,-7.929515818938612,-1.0884031394720077
1758274023725568000,4.214568115234375,-5.554367818820476,-8.005123140847683,-1.1123708750367165
1758274023735526000,4.22452587890625,-5.431001551392674,-8.08672005856037,-1.1311997864082455
1758274023745483000,4.23448291015625,-5.291386159953475,-8.18183813662529,-1.1086805691514163
1758274023755441000,4.24444091796875,-5.13492075600028,-8.288611581170558,-1.049700264655426
1758274023765399000,4.25439892578125,-4.96960627515912,-8.396113924512267,-0.9892747297871858
1758274023775357000,4.26435693359375,-4.805376666945219,-8.495795364969968,-0.9487893554680049
1758274023785315000,4.274315185546875,-4.642183708302676,-8.588720316904782,-0.9243093595322222
1758274023795272700,4.284272705078125,-4.469619402463734,-8.683287775349617,-0.8907500581491739
1758274023805230800,4.29423095703125,-4.285666564387083,-8.780425376543402,-0.8411989685166626
1758274023815188000,4.30418798828125,-4.095910592989624,-8.875723487350344,-0.7844972034119069
1758274023825145900,4.314145751953125,-3.9037051826134324,-8.966848696386814,-0.7260265289384872
1758274023835104000,4.32410400390625,-3.710218792515993,-9.053378394326566,-0.6640849634841084
1758274023845062100,4.334062255859375,-3.520204170182347,-9.133357939970493,-0.6002980989566072
1758274023855020000,4.34402001953125,-3.335855318525433,-9.206223854216933,-0.5365361862072721
1758274023864978000,4.35397802734375,-3.1554286087483168,-9.273105433356761,-0.4724279077056795
1758274023874935800,4.363935791015625,-2.9759324578195807,-9.335186334216594,-0.4105528316162526
1758274023884893000,4.373892822265625,-2.7938877914518114,-9.393559612730146,-0.35446320706047113
1758274023894851000,4.38385107421875,-2.6064015185520053,-9.449039507889747,-0.3044770322126336
1758274023904809000,4.39380908203125,-2.4153870715260504,-9.500988890835643,-0.25988838729308916
1758274023914767000,4.40376708984375,-2.224067065682262,-9.5485309787333,-0.22233342213630675
1758274023924725000,4.41372509765625,-2.031931944063306,-9.591936405217647,-0.19082873346181586
1758274023934683000,4.423682861328125,-1.8414748386591673,-9.630786652615665,-0.16515664166463537
1758274023944640000,4.433639892578125,-1.6614523257687688,-9.663763624066114,-0.14706152446037157
1758274023954598000,4.443597900390625,-1.5022456602834164,-9.689873632356523,-0.14135463632196188
1758274023964556000,4.45355615234375,-1.366577399034798,-9.709811089491843,-0.14970069559123367
1758274023974514000,4.463513916015625,-1.25422586209625,-9.724635149136185,-0.1696809324223548
1758274023984472000,4.47347216796875,-1.1557505094926803,-9.736322664320468,-0.1965828034765087
1758274023994430000,4.483429931640625,-1.0640592640712856,-9.745995332551002,-0.23176539521245285
1758274024004387800,4.493387939453125,-0.9800477594975382,-9.753729726195335,-0.27320090986331924
1758274024014345000,4.503344970703125,-0.9017401656538248,-9.760149530109762,-0.311003785366565
1758274024024302800,4.513302734375,-0.8279885546140372,-9.765718270152806,-0.33998463638555254
1758274024034261000,4.523260986328125,-0.7574841088019311,-9.770740482228994,-0.3595312675723806
1758274024044219100,4.53321923828125,-0.6857708717219532,-9.775699565941094,-0.3685651995079592
1758274024054177000,4.543177001953125,-0.6107105161711573,-9.78065163539052,-0.36915158456116914
1758274024064135000,4.553135009765625,-0.5326373521378264,-9.785252407184243,-0.3680859646236524
1758274024074092800,4.5630927734375,-0.4568183967720717,-9.789048876857757,-0.36907084747515617
1758274024084050000,4.5730498046875,-0.3908557225754484,-9.791689162233471,-0.3747843297511339
1758274024094008000,4.583008056640625,-0.33739958832841366,-9.793139945563674,-0.3885420753382146
1758274024103966000,4.592966064453125,-0.29488572212262076,-9.793640296301245,-0.40991153803803027
1758274024113924000,4.602924072265625,-0.2589633631363511,-9.793516377660632,-0.43631895837243645
1758274024123882000,4.612882080078125,-0.22264630574407054,-9.793160988351701,-0.46348863178361205
1758274024133840000,4.62283984375,-0.18019951342511922,-9.7929061368078,-0.4867263360407203
1758274024143797000,4.632796875,-0.1340291340057738,-9.792593417596816,-0.5074748903632164
1758274024153755000,4.6427548828125,-0.08893980042194016,-9.791975577959418,-0.5288580527948216
1758274024163713000,4.652713134765625,-0.045656908905296584,-9.790956756305693,-0.5526816671811043
1758274024173671000,4.6626708984375,-0.007129851309102378,-9.789422386345267,-0.5809979533441364
1758274024183629000,4.672629150390625,0.0243183505171095,-9.787170808026193,-0.6173421362053603
1758274024193587000,4.6825869140625,0.05289523982810788,-9.784196176129578,-0.661152124902606
1758274024203544800,4.692544921875,0.08899083648943341,-9.781486332648992,-0.6964201298996806
1758274024213502000,4.702501953125,0.13435333359199575,-9.779263395902515,-0.7199557576574385
1758274024223459800,4.7124599609375,0.1818156068522483,-9.777223999029397,-0.7370361448612064
1758274024233418000,4.72241796875,0.22984777982179075,-9.77535528254807,-0.7483360489673913
1758274024243376000,4.732376220703125,0.28205511958412827,-9.773746678307653,-0.7514729587536305
1758274024253334000,4.742333984375,0.33847828694321214,-9.77231401515603,-0.7468012406155466
1758274024263292000,4.7522919921875,0.3922474326621741,-9.770835759297013,-0.7397991067685187
1758274024273249800,4.762249755859375,0.4389394796017557,-9.769345813000202,-0.7332135908983647
1758274024283207000,4.77220703125,0.47545806918181477,-9.768132930079101,-0.7265731299705803
1758274024293165000,4.7821650390625,0.5002750785196199,-9.767307585170865,-0.7209807898562401
1758274024303123000,4.792123046875,0.5126776101054623,-9.766500944963097,-0.7231834144670516
1758274024313081000,4.8020810546875,0.5172114176101982,-9.765883689847588,-0.7282715313863009
1758274024323039000,4.8120390625,0.5202619277546182,-9.765718854674697,-0.7283297643795609
1758274024332996900,4.821996826171875,0.5250895671067759,-9.766053785717487,-0.7203269290573895
1758274024342954800,4.831954833984375,0.5262140045594423,-9.766946935164928,-0.7072806196752935
1758274024352912000,4.841911865234375,0.5090270882412791,-9.768516376438736,-0.698118823576346
1758274024362870000,4.8518701171875,0.46338049523402003,-9.77080361059308,-0.6978970705844462
1758274024372828000,4.861827880859375,0.39048743725232776,-9.773585350266098,-0.7035057773116976
1758274024382786000,4.8717861328125,0.2951545656592585,-9.776196994069219,-0.713597766932845
1758274024392744000,4.881743896484375,0.17678667277432977,-9.77787281832695,-0.7296073830999433
1758274024402701800,4.891701904296875,0.0309126410654746,-9.777527365890144,-0.7545788158144802
1758274024412659000,4.901658935546875,-0.1424755209775176,-9.774193253031372,-0.7843820525996387
1758274024422616800,4.911616943359375,-0.33798432941380885,-9.766713126409053,-0.8169945746518671
1758274024432575000,4.921574951171875,-0.5518189859371632,-9.754229492411017,-0.849061737781018
1758274024442533000,4.931533203125,-0.7806060411922633,-9.735943309614061,-0.8788993882924317
1758274024452490800,4.94149072265625,-1.0212559681985527,-9.71089888472855,-0.9087702104210853
1758274024462449000,4.951448974609375,-1.2704133190482854,-9.678234632489085,-0.9424561338584869
1758274024472406800,4.96140673828125,-1.5253120630942285,-9.638339259952307,-0.9727500037048011
1758274024482364000,4.971364013671875,-1.7779415470339357,-9.593035890892148,-0.9914638373292982
1758274024492322000,4.981322021484375,-2.0182187682703137,-9.544155247867106,-1.0031411964457482
1758274024502279700,4.99127978515625,-2.2443014599375424,-9.492392327404021,-1.0139001986082643
1758274024512237800,5.00123779296875,-2.458883098903298,-9.437837145873903,-1.0254177640531212
1758274024522195700,5.01119580078125,-2.6602865457355973,-9.382524423974752,-1.030289096416533
1758274024532153900,5.02115380859375,-2.8495921430170537,-9.327108826223014,-1.0272636111155151
1758274024542112000,5.031112060546875,-3.0378865174293517,-9.26729060959816,-1.0290477911185472
1758274024552068900,5.04106884765625,-3.2340736909180876,-9.1992148522377,-1.0419354758728294
1758274024562026800,5.05102685546875,-3.437275711604953,-9.123775288110972,-1.0546217197708785
1758274024571984600,5.060984619140625,-3.6412387797921895,-9.043241615715623,-1.0637569201238453
1758274024581942800,5.07094287109375,-3.850002818520367,-8.954198473650216,-1.0817423664085566
1758274024591901000,5.08090087890625,-4.060751016803086,-8.857412754634023,-1.1076493264075369
1758274024601858800,5.09085888671875,-4.2648464791983365,-8.756343659210204,-1.1436412617649883
1758274024611817000,5.10081689453125,-4.453123610214889,-8.657649476224183,-1.1769409623637794
1758274024621774000,5.110774169921875,-4.6138636227473615,-8.571725927484035,-1.1866636802811175
1758274024631731700,5.120731689453125,-4.759198853138089,-8.49355372352302,-1.1747153952687979
1758274024641689900,5.13068994140625,-4.918885557225346,-8.406827041706443,-1.1402790187902747
1758274024651647700,5.140647705078125,-5.079637844717502,-8.31544464303851,-1.1050248961880802
1758274024661606000,5.15060595703125,-5.228647087445855,-8.224791727688908,-1.088314511340484
1758274024671563800,5.160563720703125,-5.375067482724785,-8.129669557970761,-1.0897169254843144
1758274024681522000,5.17052197265625,-5.541121383756399,-8.012123959520459,-1.1279309938706457
1758274024691479000,5.18047900390625,-5.728903716993331,-7.86640849764049,-1.2123165924537926
1758274024701436700,5.190436767578125,-5.918878591838479,-7.705166965326667,-1.3295306939274072
1758274024711394800,5.200394775390625,-6.0915212236106395,-7.542672218081354,-1.4737256682418285
1758274024721352700,5.210352783203125,-6.238936475145817,-7.390688927978276,-1.619798711387813
1758274024731310800,5.220310791015625,-6.359641414409875,-7.258511577585339,-1.7433713150426744
1758274024741269000,5.23026904296875,-6.450293745237588,-7.153326863536238,-1.8422933154352008
1758274024751227000,5.240226806640625,-6.519136395317315,-7.069985732504725,-1.9200281508922576
1758274024761183700,5.250183837890625,-6.572316781362891,-7.00429190184474,-1.9786200405925511
1758274024771142000,5.260141845703125,-6.611266397482156,-6.954931366348267,-2.0224873855002223
1758274024781099800,5.270099853515625,-6.638606824350357,-6.918952874994278,-2.0560649531923234
1758274024791058000,5.280057861328125,-6.6575944334149355,-6.89263419238925,-2.0828771184027195
1758274024801015800,5.290015869140625,-6.669488284826278,-6.875403656125068,-2.1016903938136995
1758274024810974000,5.299973876953125,-6.672845778560638,-6.869062178143858,-2.111747092925757
1758274024820931800,5.309931884765625,-6.665832684928178,-6.875091521435976,-2.11427325040251
1758274024830888700,5.319888671875,-6.645968293029069,-6.895380276226997,-2.1107421536669135
1758274024840846800,5.329846923828125,-6.611832799193262,-6.932046165323257,-2.097800985159725
1758274024850804700,5.3398046875,-6.563218698149919,-6.98579119951427,-2.072022693041712
1758274024860763000,5.349762939453125,-6.500286733418703,-7.057028051254153,-2.0285423016250133
1758274024870720800,5.359720703125,-6.4262500218272205,-7.141381574198603,-1.9683495525993406
1758274024880679000,5.369678955078125,-6.347133230492473,-7.230211950296163,-1.8995450425729155
1758274024890636800,5.37963671875,-6.2688622423321005,-7.315735686063766,-1.8307908014290033
1758274024900593700,5.38959375,-6.1920887992531055,-7.397139711552858,-1.7637236365891993
1758274024910551800,5.3995517578125,-6.118383511573076,-7.472521408012509,-1.7021056770659981
1758274024920509700,5.409509765625,-6.053796765372157,-7.5361851941496125,-1.6516171604529022
1758274024930467800,5.4194677734375,-6.012833471342921,-7.580051223883032,-1.5997075249955057
1758274024940426000,5.429426025390625,-6.006019115152955,-7.599609910833835,-1.5310221113041043
1758274024950383900,5.4393837890625,-5.975359188473225,-7.633726699969172,-1.4804258965328334
1758274024960342000,5.449342041015625,-5.919693999874592,-7.675257564753293,-1.4892980620354412
1758274024970299000,5.459298828125,-5.837374613106251,-7.730252891266345,-1.5292564168058336
1758274024980256800,5.4692568359375,-5.735679494738578,-7.800471505874395,-1.5572450784496963
1758274024990215000,5.47921484375,-5.64988629437983,-7.867320351788401,-1.534430896834284
1758274025000172800,5.4891728515625,-5.554021197339892,-7.946651662656665,-1.4744363007292152
1758274025010131000,5.499130859375,-5.434135757765174,-8.03953686710298,-1.416470141711831
1758274025020088800,5.5090888671875,-5.300342204347253,-8.137492798942327,-1.3630720212623477
1758274025030047000,5.519046875,-5.161993471843004,-8.236020977711677,-1.3008458667129277
1758274025040003800,5.52900390625,-5.021747965806722,-8.333339196169376,-1.2279681158982216
1758274025049961700,5.538961669921875,-4.877004856090247,-8.429469081625342,-1.1529380824204534
1758274025059920000,5.548919921875,-4.724987371456622,-8.52410142199993,-1.0883717214204371
1758274025069877800,5.558877685546875,-4.571771616949141,-8.612862824514508,-1.043008292736113
1758274025079836000,5.5688359375,-4.4244136485591525,-8.692192381817103,-1.0201779637034982
1758274025089794000,5.5787939453125,-4.28299500709027,-8.76375656581521,-1.0114026096388697
1758274025099752000,5.588751953125,-4.14531175275743,-8.830250022420287,-1.0067086066037416
1758274025109708800,5.598708740234375,-4.0088454729989165,-8.89382028505504,-0.9997394982434809
1758274025119666700,5.608666748046875,-3.872078164467215,-8.955803570759295,-0.9853909471563994
1758274025129624800,5.618624755859375,-3.7340728385731574,-9.016751083675027,-0.9619074149120599
1758274025139583000,5.6285830078125,-3.594884732635319,-9.076202805075049,-0.9326062093649059
1758274025149540900,5.638540771484375,-3.4546211064204573,-9.1336408485651,-0.9014393560763448
1758274025159499000,5.6484990234375,-3.3122084854781626,-9.188862385049461,-0.8743297422893345
1758274025169457000,5.658456787109375,-3.1660613541826605,-9.242235078796744,-0.8529706548530608
1758274025179413800,5.668413818359375,-3.0199852422967552,-9.292696269011497,-0.8342096210859715
1758274025189372000,5.678371826171875,-2.878558125260472,-9.338758932006359,-0.8196884168457239
1758274025199329800,5.688329833984375,-2.7428751048341393,-9.380542894768714,-0.8077290259175002
1758274025209288000,5.698287841796875,-2.614812788544595,-9.41792657674551,-0.7973560273978859
1758274025219245800,5.708245849609375,-2.4922768344610926,-9.451426695287227,-0.7934154000133276
1758274025229204000,5.718203857421875,-2.3722002562284468,-9.482279514190553,-0.7933505180835724
1758274025239161900,5.728161865234375,-2.253916552761942,-9.511074231520295,-0.7935555391363799
1758274025249119700,5.73811962890625,-2.139059462743252,-9.537122280490397,-0.7988319451693445
1758274025259076900,5.748076904296875,-2.026111713477224,-9.560459901458024,-0.8141788596440106
1758274025269034800,5.75803466796875,-1.9118322772160172,-9.58230640708506,-0.8334649401985108
1758274025278993000,5.767992919921875,-1.7965614918299018,-9.603733810517191,-0.8432560471769421
1758274025288951000,5.777950927734375,-1.686033663187176,-9.62378583394289,-0.8428617140971124
1758274025298909000,5.787908935546875,-1.5824515620291233,-9.64184054607153,-0.8373381283700466
1758274025308866800,5.79786669921875,-1.4819484299249945,-9.658592943429946,-0.8281335891079157
1758274025318824700,5.80782470703125,-1.378339002368599,-9.675327220609784,-0.811554064098373
1758274025328781800,5.81778173828125,-1.2714479227930306,-9.691925888711214,-0.787628852501139
1758274025338740000,5.827739990234375,-1.1634444980613887,-9.70774655817747,-0.7592178737919777
1758274025348697900,5.83769775390625,-1.0543464099608362,-9.72268635315597,-0.7267180913992226
1758274025358656000,5.847656005859375,-0.9459892764206975,-9.736367087984085,-0.6918384281326085
1758274025368614000,5.85761376953125,-0.8434460167910903,-9.747745391088724,-0.6636551206994802
1758274025378571800,5.86757177734375,-0.7500950945291668,-9.756521987262367,-0.6465411234870553
1758274025388529700,5.87752978515625,-0.662481912201643,-9.763526313066482,-0.636436055188626
1758274025398486800,5.88748681640625,-0.5819181369289755,-9.76875193876028,-0.6350148632790893
1758274025408445000,5.89744482421875,-0.5110583748731762,-9.772184251296519,-0.643142567089945
1758274025418402800,5.90740283203125,-0.4501694968095049,-9.774187992334365,-0.6580160918992012
1758274025428361000,5.91736083984375,-0.3974935896873474,-9.775097508394717,-0.6781327780589461
1758274025438318800,5.92731884765625,-0.3496000945361331,-9.775234871038794,-0.7021016096021979
1758274025448276700,5.93727685546875,-0.3011083594971336,-9.774950793400405,-0.7280508743729442
1758274025458235000,5.94723486328125,-0.25075643834313377,-9.77432827758789,-0.7549974796179681
1758274025468191700,5.957191650390625,-0.20055554303238168,-9.773300103583932,-0.7827941258210689
1758274025478149600,5.967149658203125,-0.1513278949342668,-9.771614926975966,-0.8142709949068725
1758274025488107800,5.977107666015625,-0.10532759311851113,-9.769327692821621,-0.848237634981796
1758274025498065700,5.987065673828125,-0.06154135062303394,-9.766883222278953,-0.8801078142341225
1758274025508023800,5.99702392578125,-0.01534435148317716,-9.764435829126834,-0.9088141226280481
1758274025517981700,6.006981689453125,0.03575327461323468,-9.762063839298486,-0.9333859615657478
1758274025527939800,6.01693994140625,0.09195961403399705,-9.759789464625715,-0.9531259233675896
1758274025537896700,6.026896728515625,0.15196571791376917,-9.757416890275477,-0.9695992115236818
1758274025547854600,6.0368544921875,0.2128476730463095,-9.754825704738497,-0.9840942584093659
1758274025557812700,6.046812744140625,0.27234038404384625,-9.751870362064242,-0.9986204310856759
1758274025567770600,6.0567705078125,0.3292977496111765,-9.748566059821844,-1.0136143674042075
1758274025577728800,6.066728759765625,0.3843080179650336,-9.744911044445633,-1.029265014065802
1758274025587686700,6.076686767578125,0.4378953408436849,-9.740799517473578,-1.0466456993903963
1758274025597644800,6.086644775390625,0.48939128093365575,-9.73601988198161,-1.0680828935641795
1758274025607601700,6.0966015625,0.5386790799874812,-9.730772628977894,-1.0919064714178441
1758274025617559600,6.1065595703125,0.5892626179402694,-9.725612469735742,-1.1115781902890651
1758274025627517700,6.116517578125,0.6435228716444223,-9.720490304416417,-1.1262057044479996
1758274025637475800,6.126475830078125,0.6980028690464795,-9.715324299955368,-1.138270017055422
1758274025647433700,6.136433837890625,0.7435833014823496,-9.710739894774555,-1.148483148838207
1758274025657391900,6.146391845703125,0.7693199464157223,-9.70754197551608,-1.1585179283794016
1758274025667349500,6.156349609375,0.7674926579233259,-9.7064980194211,-1.1684203867778182
1758274025677306600,6.166306640625,0.7394284468252211,-9.707347329726815,-1.1794114441305399
1758274025687264800,6.1762646484375,0.6946744552761316,-9.70920435577035,-1.1912855679281056
1758274025697222700,6.18622265625,0.6459607663158327,-9.71132733927369,-1.2013577568702398
1758274025707180800,6.196180908203125,0.5945946266179905,-9.713487147656082,-1.2103680156692862
1758274025717138700,6.206138671875,0.5262179866148159,-9.715811791211365,-1.2233024621747433
1758274025727096800,6.216096923828125,0.42887540090084075,-9.71806220048666,-1.2432692915350199
1758274025737054500,6.226054443359375,0.30147109186230225,-9.719287358367442,-1.2708049487143753
1758274025747011600,6.236011474609375,0.14853318618182093,-9.718113638412952,-1.306360246220231
1758274025756969700,6.2459697265625,-0.0250861108860583,-9.71287456871569,-1.3527018722869455
1758274025766927600,6.255927734375,-0.21693439437067136,-9.702679922437667,-1.4075922771207987
1758274025776885800,6.2658857421875,-0.4267871964499354,-9.686700263017416,-1.4683603418163955
1758274025786844000,6.275843994140625,-0.6507332414146513,-9.664709380483627,-1.5298141968190668
1758274025796801800,6.2858017578125,-0.8813259578522294,-9.637262570631503,-1.5864491072326898
1758274025806759700,6.295759765625,-1.1220461005505173,-9.602653029543161,-1.6433075972691178
1758274025816717600,6.305717529296875,-1.3774272943511605,-9.559700607523322,-1.6985880243338642
1758274025826674700,6.3156748046875,-1.6435026814498006,-9.508898056524991,-1.7464627051867543
1758274025836632800,6.3256328125,-1.9118806464023888,-9.452235673582553,-1.7805543598808347
1758274025846590700,6.3355908203125,-2.168717811165005,-9.392724915471673,-1.8010466744199394
1758274025856548900,6.345548828125,-2.3956737785354254,-9.335914063969254,-1.8088158471167086
1758274025866506500,6.355506591796875,-2.5864339585393665,-9.284009689208865,-1.8132662506543098
1758274025876464600,6.365464599609375,-2.7556828562200066,-9.232154998809099,-1.8286353769607842
1758274025886422500,6.375422607421875,-2.922691281497478,-9.175256469023227,-1.855519584494084
1758274025896379600,6.385379638671875,-3.0961104506000874,-9.110690181088447,-1.8920353975951671
1758274025906337800,6.395337890625,-3.2717636623650788,-9.03850874197483,-1.9419886382877825
1758274025916295700,6.405295654296875,-3.4435943932324644,-8.959716944810747,-2.008864956730604
1758274025926253800,6.41525390625,-3.6108591313585636,-8.874806372505425,-2.0904276799127457
1758274025936211700,6.425211669921875,-3.772448161935806,-8.78714562470913,-2.1737293557167052
1758274025946169600,6.435169677734375,-3.928991307300329,-8.699270357379318,-2.2485760685168206
1758274025956127700,6.445127685546875,-4.0818642397195095,-8.611973766720295,-2.3114207933560014
1758274025966084600,6.455084716796875,-4.233898090966045,-8.523717391118407,-2.364480037239939
1758274025976042800,6.465042724609375,-4.387259099163114,-8.433820847094058,-2.4068743869855997
1758274025986001000,6.4750009765625,-4.540228769955038,-8.341162437140941,-2.4457532759562133
1758274025995958800,6.484958740234375,-4.691507418920099,-8.244640337496996,-2.4871838952362535
1758274026005916700,6.494916748046875,-4.845503510150313,-8.142784475609659,-2.5271587627500294
1758274026015874600,6.50487451171875,-5.007943896859884,-8.034419377958773,-2.55714707377851
1758274026025832700,6.514832763671875,-5.174391765645146,-7.922973849949241,-2.573434191712737
1758274026035789800,6.524789794921875,-5.335080924773216,-7.815227176457643,-2.574786775365472
1758274026045747700,6.534747802734375,-5.487206253695487,-7.715341153338551,-2.5562641534641384
1758274026055705900,6.544705810546875,-5.62241493460834,-7.627419124257564,-2.5261212363958356
1758274026065663500,6.55466357421875,-5.734058615538477,-7.549649655878543,-2.5087413547888398
1758274026075621600,6.56462158203125,-5.837947444558143,-7.460875393882393,-2.5345824830099937
1758274026085579500,6.57457958984375,-5.9544052477717395,-7.344477796423435,-2.6027099705576897
1758274026095537700,6.58453759765625,-6.071735157644748,-7.217780338746309,-2.6847777206525203
1758274026105494800,6.594494873046875,-6.174453773841262,-7.099830835670232,-2.7638576871082186
1758274026115452700,6.60445263671875,-6.260420577201247,-6.9956555909246205,-2.8351965379178523
1758274026125410800,6.614410888671875,-6.330764279493689,-6.907286402598023,-2.895026152719557
1758274026135368700,6.62436865234375,-6.386285675707459,-6.837232038640976,-2.9390426968395706
1758274026145326600,6.63432666015625,-6.4288236717075105,-6.781518919247389,-2.9751611811861394
1758274026155284700,6.64428466796875,-6.4629755321562286,-6.734270261338353,-3.0083111711159347
1758274026165242600,6.65424267578125,-6.490341677987575,-6.693551881980896,-3.0401024399131535
1758274026175199700,6.66419970703125,-6.512445957767963,-6.659504066428542,-3.0674753077462316
1758274026185158000,6.674157958984375,-6.529582386007904,-6.634274932625889,-3.08566095277816
1758274026195115800,6.68411572265625,-6.540518790563941,-6.620841450557112,-3.0913577031150457
1758274026205073700,6.69407373046875,-6.543965716147422,-6.619920828580856,-3.0860245253935457
1758274026215031600,6.704031494140625,-6.537723606887459,-6.6312891948133705,-3.07483531512022
1758274026224989700,6.71398974609375,-6.519936605784297,-6.653768737646937,-3.0640076316356657
1758274026234947600,6.723947509765625,-6.490468519237637,-6.686576197749376,-3.0551345893502235
1758274026244904700,6.73390478515625,-6.45053339921236,-6.730207834205031,-3.0439012476742264
1758274026254862800,6.74386279296875,-6.402808940485119,-6.785240570119023,-3.022406331963837
1758274026264820500,6.753820556640625,-6.35057021920383,-6.849902719643712,-2.9865435759440064
1758274026274778600,6.763778564453125,-6.298202903106808,-6.918213454803824,-2.9396213735103607
1758274026284736500,6.773736572265625,-6.249474235773087,-6.985061716195941,-2.8850214760556816
1758274026294694700,6.783694580078125,-6.207287537428736,-7.045698847988247,-2.8280829065203665
1758274026304652800,6.79365283203125,-6.165748489338159,-7.104788750338554,-2.770536726480722
1758274026314609700,6.803609619140625,-6.1155813136339185,-7.176302080932259,-2.696432794871926
1758274026324567800,6.81356787109375,-6.073067283031344,-7.252034490525722,-2.5877134769558907
1758274026334525700,6.823525634765625,-6.063681030526757,-7.298745388296246,-2.475979779654741
1758274026344483600,6.833483642578125,-6.046753861123323,-7.329812726733088,-2.425068799845874
1758274026354441700,6.843441650390625,-5.985930851370096,-7.368131059211492,-2.4596117054387925
1758274026364399600,6.853399658203125,-5.906010342437028,-7.4352674898952245,-2.4507627746812997
1758274026374357800,6.863357666015625,-5.805910384306311,-7.553960504814982,-2.3236780712522567
1758274026384315000,6.87331494140625,-5.691416574642062,-7.6901868383377785,-2.1538772387772798
1758274026394272800,6.883272705078125,-5.577195736700296,-7.808166152030229,-2.024302618228644
1758274026404230700,6.893230712890625,-5.469514529660344,-7.901447077795862,-1.9549847518526016
1758274026414188500,6.9031884765625,-5.357608982923627,-7.99046917707324,-1.9023298509858548
1758274026424146700,6.913146728515625,-5.23027907256186,-8.090677271753549,-1.8317969097316265
1758274026434104600,6.9231044921875,-5.084215235635638,-8.203581181877851,-1.738511892312765
1758274026444062700,6.933062744140625,-4.924762924826145,-8.32033241508007,-1.6398786457337438
1758274026454020400,6.943020263671875,-4.768185292670131,-8.425933308714628,-1.5615614803440867
1758274026463978200,6.952978271484375,-4.623196391499042,-8.515043086275458,-1.5134225955970584
1758274026473936400,6.962936279296875,-4.483239054754376,-8.594227682149409,-1.4866769197516143
1758274026483894300,6.972894287109375,-4.34242363987565,-8.669804608920217,-1.4656827931702137
1758274026493852400,6.982852294921875,-4.197752426351607,-8.745490841284393,-1.4372308979287742
1758274026503810300,6.992810302734375,-4.0487984209418295,-8.821956241327523,-1.396688167399168
1758274026513767200,7.00276708984375,-3.8948961454749105,-8.899959518462419,-1.338251760521531
1758274026523725300,7.012725341796875,-3.734700615082681,-8.979154051208496,-1.2638074910424648
1758274026533683200,7.02268310546875,-3.563871170212328,-9.059616996455192,-1.1800551488615572
1758274026543641300,7.032641357421875,-3.3821704949766396,-9.140025581166148,-1.0914548551928251
1758274026553599200,7.04259912109375,-3.193522484821081,-9.217782774585485,-1.0021313618160783
1758274026563557400,7.052557373046875,-3.0050398943603036,-9.289625191003084,-0.9181269445702434
1758274026573515500,7.062515625,-2.819868035882711,-9.355022669064999,-0.8380040449328721
1758274026583472000,7.07247216796875,-2.6246029456749556,-9.418761274003982,-0.7541629284899681
1758274026593430300,7.08243017578125,-2.4089007782466707,-9.482917812094092,-0.6646959349893033
1758274026603388400,7.092388427734375,-2.1952556894786657,-9.540388588809966,-0.5764012732036411
1758274026613346300,7.10234619140625,-1.9984913006238638,-9.588056348913907,-0.4955878340188414
1758274026623304400,7.112304443359375,-1.8201818752616643,-9.62632148990035,-0.43736492376141245
1758274026633262300,7.122262451171875,-1.664322035986185,-9.655409637218714,-0.4165363264726475
1758274026643220500,7.132220458984375,-1.532765301709622,-9.676554132056236,-0.43051951484605666
1758274026653177300,7.14217724609375,-1.4191479826189577,-9.69187445078492,-0.4732900774929672
1758274026663135200,7.15213525390625,-1.316272130034119,-9.702755910283326,-0.5425474823860451
1758274026673093400,7.16209326171875,-1.2220242589324712,-9.709944360482693,-0.6277263137061149
1758274026683051300,7.17205126953125,-1.144754337573424,-9.713338094574212,-0.7148313273157924
1758274026693009400,7.182009521484375,-1.0897774965651332,-9.713816818001865,-0.7902873311206698
1758274026702967300,7.19196728515625,-1.0380714208558202,-9.715334236827491,-0.8396797961253673
1758274026712925200,7.20192529296875,-0.9700314654611051,-9.720591426703333,-0.8599605137404054
1758274026722882300,7.21188232421875,-0.8825058152865618,-9.729557992491126,-0.8528075732458382
1758274026732840200,7.221840087890625,-0.7799743922252208,-9.740745741459726,-0.8245646445799618
1758274026742798300,7.23179833984375,-0.6649317895717919,-9.752706228366494,-0.7829328767046332
1758274026752756500,7.241756591796875,-0.5478999858625233,-9.7633269911021,-0.7400304313063621
1758274026762714400,7.25171435546875,-0.44872302432823924,-9.770595520800352,-0.7102815550569445
1758274026772672500,7.261672607421875,-0.3802956405185163,-9.774458041447401,-0.6969282255522906
1758274026782629400,7.27162939453125,-0.33586302641090005,-9.776240248689055,-0.6947698784746229
1758274026792587300,7.281587158203125,-0.2976880113933235,-9.777215815722942,-0.6984329310268164
1758274026802545400,7.29154541015625,-0.2510485714238137,-9.778308871656655,-0.7014423419758677
1758274026812503300,7.30150341796875,-0.19382740382114425,-9.77912018803954,-0.7082509260121732
1758274026822461400,7.31146142578125,-0.13843472115411423,-9.778757199946046,-0.7260352237015962
1758274026832419300,7.32141943359375,-0.09753008937640115,-9.776972654616833,-0.756092946704477
1758274026842377500,7.33137744140625,-0.07237547298152931,-9.774185069724917,-0.7940177498206495
1758274026852334300,7.341334228515625,-0.0534257619416574,-9.770752757188678,-0.8366022883761673
1758274026862292200,7.351292236328125,-0.03131467339457013,-9.767038705101609,-0.8799806807231157
1758274026872250400,7.36125048828125,-0.0011942177500641263,-9.763241066384316,-0.9216881441831588
1758274026882208300,7.371208251953125,0.03748993024668889,-9.759269824665784,-0.9621051294412464
1758274026892166400,7.38116650390625,0.08103198643946088,-9.754864283183217,-1.0032235409669576
1758274026902124300,7.391124267578125,0.127765790161537,-9.74986019128561,-1.0460753521565347
1758274026912082200,7.401082275390625,0.1806538695964962,-9.74420961817801,-1.0900050947759299
1758274026922039300,7.411039306640625,0.24164701175224035,-9.7379248388201,-1.1334879704106597
1758274026931997200,7.4209970703125,0.3078128438381478,-9.731149645596743,-1.1748958664022386
1758274026941955300,7.430955322265625,0.3794972566824406,-9.723989252448082,-1.212610606964305
1758274026951913500,7.44091357421875,0.4572760043464601,-9.716499188953637,-1.2453687480323017
1758274026961871400,7.450871337890625,0.5361360809737816,-9.709379127815366,-1.269213295608759
1758274026971829500,7.46082958984375,0.605859459410794,-9.703339847651124,-1.2839514305353164
1758274026981787100,7.470787109375,0.6577574409630149,-9.69761971643865,-1.3015033077083527
1758274026991744300,7.480744140625,0.6961039035573602,-9.69144950337112,-1.3272596802555023
1758274027001702400,7.490702392578125,0.7287905868243426,-9.684274497175217,-1.3616471030257642
1758274027011660300,7.500660400390625,0.7573165702152996,-9.675995913651585,-1.4042632788285612
1758274027021618400,7.510618408203125,0.7867182404622435,-9.668342768549918,-1.4403497606016695
1758274027031576300,7.520576416015625,0.8181609880827366,-9.662420392763615,-1.4624106396317482
1758274027041534500,7.530534423828125,0.8297794566188007,-9.657812606707214,-1.4861056957349181
1758274027051491300,7.5404912109375,0.7960092158988118,-9.655181673681735,-1.5212585499197244
1758274027061449200,7.55044921875,0.713385293225944,-9.655333064851165,-1.5607733987063168
1758274027071407400,7.560407470703125,0.5966330736430362,-9.656935823872685,-1.599379462084919
1758274027081365200,7.570365234375,0.46149596012905236,-9.658600542214513,-1.6336599173493682
1758274027091323400,7.580323486328125,0.3126502008667216,-9.659303722047806,-1.664478687852621
1758274027101281300,7.59028125,0.14044768667803145,-9.657329791626333,-1.699014871443808
1758274027111239200,7.6002392578125,-0.059787241531279865,-9.651896076139806,-1.7342849222674965
1758274027121196300,7.6101962890625,-0.2833625489208847,-9.642003043156862,-1.7668859000124035
1758274027131154200,7.620154296875,-0.5240707089204341,-9.626395724180341,-1.796736263874918
1758274027141112300,7.6301123046875,-0.7822042701691388,-9.60487421272397,-1.8179465174250304
1758274027151070500,7.640070556640625,-1.0583131216347217,-9.576085925135017,-1.8300113414891064
1758274027161028400,7.6500283203125,-1.3460900529317557,-9.539919217732548,-1.8298533744484184
1758274027170986500,7.659986572265625,-1.6270738169573247,-9.499578439515828,-1.8113561792492865
1758274027180943400,7.669943359375,-1.879188337112218,-9.460319026795029,-1.772407586043328
1758274027190901200,7.6799013671875,-2.0938637918412684,-9.424800554168224,-1.720240322563052
1758274027200859400,7.689859375,-2.2793173898696897,-9.392679907286167,-1.659112046252936
1758274027210817300,7.6998173828125,-2.4526585253000257,-9.359202585098148,-1.6000585303902626
1758274027220775400,7.709775390625,-2.6282249355643987,-9.320671486651896,-1.5452745085403323
1758274027230733300,7.7197333984375,-2.811707525780797,-9.276377586895228,-1.4877943794742226
1758274027240691500,7.72969140625,-3.005789251422882,-9.225013894882798,-1.42644968393445
1758274027250648300,7.7396484375,-3.208933112181723,-9.165471572589874,-1.3664772996611891
1758274027260606200,7.749606201171875,-3.417895888352394,-9.096429600545763,-1.3203680210456252
1758274027270564400,7.759564453125,-3.6279055432274934,-9.018487113687396,-1.294450320456922
1758274027280522200,7.769522216796875,-3.835832838870585,-8.93293064469397,-1.2882310075506567
1758274027290480400,7.77948046875,-4.035715067484975,-8.842937654557824,-1.2984139633908867
1758274027300438500,7.7894384765625,-4.221352789908647,-8.752588690590859,-1.32012573672235
1758274027310396400,7.799396484375,-4.405557556919753,-8.657818987572192,-1.3429784967824816
1758274027320353300,7.809353271484375,-4.604593690098822,-8.549830322018265,-1.3669332267351448
1758274027330311400,7.8193115234375,-4.816551848693192,-8.425158232688903,-1.4099505306847393
1758274027340269300,7.829269287109375,-5.053202842256426,-8.269834399986266,-1.498451967088878
1758274027350227500,7.8392275390625,-5.319311693233251,-8.079584215331078,-1.6111043866701422
1758274027360185300,7.849185302734375,-5.590190242829919,-7.868891546627879,-1.7322667143128812
1758274027370143500,7.8591435546875,-5.830950717538595,-7.660480851382017,-1.8674683809630572
1758274027380100400,7.869100341796875,-6.027223231223226,-7.470911050206422,-2.007092247969657
1758274027390058200,7.879058349609375,-6.1842164584428065,-7.306306178939342,-2.131601840213686
1758274027400016400,7.889016357421875,-6.3060132845968,-7.170854921442269,-2.232347695032507
1758274027409974300,7.898974365234375,-6.398119321364164,-7.061760340473056,-2.3164753002665934
1758274027419932400,7.908932373046875,-6.464196013861894,-6.9773501189053055,-2.3876987080030143
1758274027429890300,7.918890380859375,-6.508724891418218,-6.913849998897314,-2.4506306727342304
1758274027439848400,7.928848388671875,-6.53594958295226,-6.867829421478509,-2.506918523275852
1758274027449805300,7.938805419921875,-6.547618393436074,-6.838746534857154,-2.55551538092345
1758274027459763200,7.94876318359375,-6.545023700767755,-6.827505009874701,-2.5919492148295045
1758274027469721300,7.958721435546875,-6.529718579608201,-6.834835498893261,-2.6111694636061786
1758274027479679200,7.96867919921875,-6.501046027353405,-6.860821004021167,-2.6145553066521883
1758274027489637000,7.97863720703125,-6.459060404539108,-6.904430428645014,-2.6037942586630582
1758274027499595300,7.98859521484375,-6.404964072692394,-6.9637155613064765,-2.579438985085487
1758274027509552000,7.99855224609375,-6.338757031813263,-7.034710420984029,-2.5501760657221078
1758274027519510300,8.00851025390625,-6.262306829339265,-7.111898874604702,-2.5248402566745876
1758274027529468400,8.018468505859374,-6.180988144046068,-7.1890978496193885,-2.5065219251736996
1758274027539426300,8.02842626953125,-6.1024167116343975,-7.259579499077796,-2.495870767299831
1758274027549384200,8.03838427734375,-6.03390957711935,-7.31781716851294,-2.492358375264704
1758274027559342000,8.048342041015625,-5.983508592659235,-7.358620303544401,-2.493738139185309
1758274027569300200,8.05830029296875,-5.963234450915455,-7.374298934191465,-2.4959908865481615
1758274027579257300,8.06825732421875,-5.969209433671832,-7.372665195509791,-2.4865163712382317
1758274027589215200,8.07821533203125,-5.976498421636223,-7.380309572783112,-2.4459987751498815
1758274027599173400,8.08817333984375,-5.944935993158817,-7.428284791401028,-2.376702243822813
1758274027609131300,8.09813134765625,-5.889785183823109,-7.496076471123099,-2.2999191561326384
1758274027619089200,8.108089111328125,-5.826003908786177,-7.565459219428896,-2.2342545515671373
1758274027629047000,8.118047119140625,-5.743293476873636,-7.637849332857131,-2.2018672165729103
1758274027639004200,8.128004150390625,-5.666140679088235,-7.707548892027139,-2.158463105262816
1758274027648962300,8.13796240234375,-5.556204971119761,-7.809269144836068,-2.077084652606398
1758274027658920200,8.147920166015625,-5.402772651252151,-7.94011378532052,-1.9836838998533783
1758274027668878300,8.15787841796875,-5.233308064994215,-8.073974558755754,-1.8957379053749144
1758274027678836200,8.167836181640626,-5.074328632393479,-8.193714452379941,-1.8123615568995475
1758274027688794000,8.177794189453126,-4.926593647384643,-8.300961944177747,-1.73005444509089
1758274027698752300,8.187752197265626,-4.776067570352554,-8.403906770345568,-1.6534515362732112
1758274027708709000,8.197709228515626,-4.61940664382726,-8.50274942189157,-1.592067823897302
1758274027718667300,8.207667236328126,-4.464081642080843,-8.594102594465017,-1.5439356611520052
1758274027728625400,8.21762548828125,-4.316957774707674,-8.673615107119083,-1.5174579885929822
1758274027738583300,8.227583251953124,-4.173496521495283,-8.744253408443928,-1.513397168894857
1758274027748541200,8.237541259765624,-4.024382649348676,-8.81304929677248,-1.5181838186495005
1758274027758499000,8.2474990234375,-3.8655470091328024,-8.884072798022627,-1.5169646521180866
1758274027768456200,8.257456298828124,-3.698406189647317,-8.957866348508,-1.4995966070793567
1758274027778414300,8.267414306640624,-3.5263670767262574,-9.032767567974329,-1.464325094950944
1758274027788372200,8.277372314453125,-3.3523402971193192,-9.106063690331577,-1.4183907345108686
1758274027798330400,8.287330322265625,-3.176203685751557,-9.176192873090505,-1.3709898086495698
1758274027808288300,8.297288330078125,-2.998031184642017,-9.242475901815295,-1.326215285769105
1758274027818246100,8.30724609375,-2.8201474373459816,-9.30388226441443,-1.286439301828295
1758274027828203300,8.317203369140625,-2.6441172089621423,-9.360288042247294,-1.2506252072557806
1758274027838161200,8.3271611328125,-2.472902856427431,-9.411634783124923,-1.215025193825364
1758274027848119300,8.337119384765625,-2.3080371422670782,-9.458324638107419,-1.1762097985450177
1758274027858077200,8.3470771484375,-2.147501420135051,-9.501489826095103,-1.131520542795211
1758274027868035300,8.357035400390625,-1.989629218123853,-9.541456510302424,-1.0827584115833044
1758274027877993500,8.366993408203125,-1.8341594010792672,-9.577469488447903,-1.0384218417286872
1758274027887951000,8.376951171875,-1.6779355507969855,-9.609494858261943,-1.0062406968310476
1758274027897908200,8.386908203125,-1.5236654649309813,-9.63689665992856,-0.989468206532672
1758274027907866000,8.3968662109375,-1.374459092195332,-9.659106153649091,-0.9914265009935944
1758274027917824300,8.40682421875,-1.2288082199841737,-9.677073772016167,-1.007298900647089
1758274027927782400,8.416782470703126,-1.0901380735058337,-9.69133552160263,-1.0295618781205267
1758274027937740300,8.426740234375,-0.9698466834787279,-9.701154320305585,-1.0570707203581928
1758274027947698200,8.4366982421875,-0.8705708281472325,-9.707422733050585,-1.0855618516314773
1758274027957655300,8.4466552734375,-0.786797443178296,-9.711627783524989,-1.1115917804230004
1758274027967613200,8.45661328125,-0.713335024343431,-9.7143873113662,-1.1367701338864862
1758274027977571300,8.4665712890625,-0.6422573817532509,-9.716610248112678,-1.1599038297798483
1758274027987529200,8.476529296875,-0.5696633432507514,-9.71953461112678,-1.1732461264338343
1758274027997487400,8.4864873046875,-0.4940456460781395,-9.72341291386485,-1.175379558265954
1758274028007445200,8.4964453125,-0.41337906801812346,-9.72761153459847,-1.1717778074469416
1758274028017402000,8.506402099609375,-0.33047603614293036,-9.730921097537875,-1.170623522845283
1758274028027360300,8.5163603515625,-0.2505770997208543,-9.733156309244036,-1.1718657779913395
1758274028037318100,8.526318115234375,-0.17529557570004833,-9.734721074342728,-1.172535201685503
1758274028047276300,8.5362763671875,-0.10757170965033583,-9.735260588046907,-1.1762342753991484
1758274028057234200,8.546234130859375,-0.04928169810660183,-9.734597740224004,-1.185567263346538
1758274028067192300,8.5561923828125,-0.0002610085208893906,-9.732688107210397,-1.2021573828153311
1758274028077150500,8.566150390625,0.041286228673555886,-9.73048153707683,-1.219182240439579
1758274028087107000,8.576107177734375,0.0799527672348544,-9.728676533481478,-1.2316063262701034
1758274028097065200,8.586065185546875,0.11693006036784499,-9.727159699177742,-1.2405959806725382
1758274028107023400,8.5960234375,0.15188547401810065,-9.725196874672173,-1.2521449641689657
1758274028116981200,8.605981201171875,0.18684846818661316,-9.722101831266283,-1.2712922938399016
1758274028126939400,8.615939453125,0.22494497460788115,-9.71744494537115,-1.300402652990073
1758274028136897300,8.625897216796876,0.2692490486986935,-9.711548873069882,-1.3355534613482654
1758274028146854100,8.635854248046876,0.31918899151831864,-9.705693132779002,-1.3667612311691044
1758274028156812300,8.645812255859376,0.37362452872414137,-9.700145435523986,-1.392108292263001
1758274028166770200,8.655770263671876,0.4317836530303582,-9.694839730331301,-1.412105809022486
1758274028176728300,8.665728271484374,0.4950945706091821,-9.68980524329543,-1.4258135779879986
1758274028186686200,8.675686279296874,0.5655429023198784,-9.68491980934143,-1.4327856089577078
1758274028196644400,8.685644287109374,0.6429056895941495,-9.679878892564773,-1.4342238250672816
1758274028206601200,8.695601318359374,0.7225604602631182,-9.674128366214036,-1.4351168283842504
1758274028216559000,8.70555908203125,0.8002161660693585,-9.667412209701537,-1.4391605508171021
1758274028226517200,8.715517333984375,0.8727497065562755,-9.659598905602097,-1.4494230016343295
1758274028236475100,8.72547509765625,0.9339445452965796,-9.650730539491772,-1.470217806251347
1758274028246433300,8.735433349609375,0.9714634710256009,-9.642088383352755,-1.5022633420705795
1758274028256391200,8.74539111328125,0.9782298964206129,-9.635032619622349,-1.5426007592864335
1758274028266349300,8.755349365234375,0.9571689882133155,-9.630056584775447,-1.586260014401376
1758274028276306200,8.76530615234375,0.9179881206214427,-9.627416299399734,-1.6249807902008293
1758274028286264000,8.77526416015625,0.875970933625102,-9.626631871023774,-1.6525769453957675
1758274028296222200,8.78522216796875,0.8349449496231973,-9.627062663656472,-1.6712033199325202
1758274028306180400,8.795180419921875,0.7785781155612319,-9.628670683375,-1.6890533032692967
1758274028316138200,8.80513818359375,0.6902956556700169,-9.631396893468498,-1.711753064724803
1758274028326096400,8.815096435546875,0.5688634981099516,-9.63422831750214,-1.7402441229328511
1758274028336053200,8.82505322265625,0.4214100699888542,-9.635579147589207,-1.7743771325506268
1758274028346011100,8.83501123046875,0.2522714277496561,-9.633913260203599,-1.8150683316402136
1758274028355969300,8.84496923828125,0.05983224515020847,-9.62790729778707,-1.862852703861147
1758274028365927200,8.85492724609375,-0.15774241988537832,-9.61675286656618,-1.9140413315676152
1758274028375885300,8.86488525390625,-0.3967300579689443,-9.599459201937913,-1.9655434091374278
1758274028385843200,8.87484326171875,-0.6518815346669405,-9.574423544880748,-2.0188715330906213
1758274028395800000,8.884800048828126,-0.9206291366495192,-9.541310964351892,-2.0703160352542995
1758274028405758200,8.89475830078125,-1.201592442408949,-9.500742807120083,-2.1124553873255847
1758274028415716000,8.904716064453124,-1.4932837706707418,-9.453829664775729,-2.136726635881513
1758274028425674200,8.91467431640625,-1.7842163895197212,-9.404434057965874,-2.131568960857391
1758274028435632000,8.924632080078124,-2.0566253635540606,-9.355976608788966,-2.09913486411199
1758274028445590300,8.93459033203125,-2.300774019396305,-9.307100057417154,-2.062688901376724
1758274028455547600,8.944547607421875,-2.5153867841526862,-9.256948663803934,-2.0376791094131765
1758274028465504800,8.9545048828125,-2.7088573921591044,-9.203900964227318,-2.029940331854671
1758274028475462700,8.964462646484375,-2.893155390411615,-9.14500220053494,-2.04181343273893
1758274028485420500,8.974420654296875,-3.076589757572114,-9.07926160812378,-2.066873931976408
1758274028495378400,8.98437841796875,-3.2673587054044004,-9.00497705925107,-2.098837196339667
1758274028505336600,8.994336669921875,-3.470450251454115,-8.91774827313125,-2.144796252829581
1758274028515294500,9.00429443359375,-3.687215518069267,-8.811118620970845,-2.2223821813352407
1758274028525251600,9.01425146484375,-3.90972371225059,-8.683146905574201,-2.342527002498507
1758274028535209700,9.024209716796875,-4.127266100718081,-8.536173552587627,-2.503964349645376
1758274028545167400,9.03416748046875,-4.334732793112099,-8.378011281588673,-2.6813068296715614
1758274028555125500,9.04412548828125,-4.524054757006466,-8.225742160281538,-2.835575600363314
1758274028565083400,9.05408349609375,-4.719700370964408,-8.081523074439167,-2.929816311071813
1758274028575041500,9.06404150390625,-4.934008892077207,-7.945842099839449,-2.947803803183138
1758274028584998700,9.07399853515625,-5.142950917720794,-7.825392012119293,-2.912672868569195
1758274028594956500,9.08395654296875,-5.336049477544426,-7.712633647945522,-2.865704781167209
1758274028604914700,9.093914794921876,-5.529730221170187,-7.582839977818727,-2.844817183700204
1758274028614872600,9.10387255859375,-5.735805751466751,-7.418090729644894,-2.8710432195857165
1758274028624830500,9.11383056640625,-5.933522034218907,-7.237648237776756,-2.9291844429090617
1758274028634788600,9.12378857421875,-6.103199386444688,-7.058049210995435,-3.01749517904669
1758274028644745500,9.133745361328126,-6.241755039697885,-6.887601458919048,-3.1259900405570864
1758274028654703600,9.14370361328125,-6.353405734890699,-6.733859342449903,-3.2341604924187064
1758274028664661800,9.153661865234374,-6.440888203510641,-6.5993924198150635,-3.3366657581254837
1758274028674619600,9.16361962890625,-6.508602726343273,-6.482223837983608,-3.433541201251745
1758274028684577500,9.17357763671875,-6.561854424059391,-6.379637323734164,-3.523168280684948
1758274028694535400,9.183535400390625,-6.603495763480663,-6.290462664243578,-3.604766951963305
1758274028704492500,9.193492431640625,-6.634537382954359,-6.2135536120861765,-3.680362291173637
1758274028714450700,9.20345068359375,-6.657042644751072,-6.150847272804379,-3.7444966174319383
1758274028724408600,9.21340869140625,-6.673628453370928,-6.1060255497813225,-3.788074770134687
1758274028734366700,9.22336669921875,-6.684063338145613,-6.0808729883462185,-3.8100697443217038
1758274028744324400,9.233324462890625,-6.687571638527512,-6.075342826747894,-3.812739548052847
1758274028754282500,9.243282470703125,-6.682135000431537,-6.089163846829533,-3.800208567781746
1758274028764240400,9.253240478515625,-6.66663172635138,-6.120367963388562,-3.77723422716856
1758274028774197500,9.263197509765625,-6.641106824472546,-6.1686857118338345,-3.74344973872751
1758274028784155600,9.27315576171875,-6.607645284375548,-6.235639187166094,-3.6913679615736004
1758274028794113500,9.283113525390625,-6.567247807535529,-6.316865518000721,-3.624747079196572
1758274028804071700,9.29307177734375,-6.521656853705644,-6.404454954126477,-3.5526509802788495
1758274028814029600,9.303029541015626,-6.473102373895049,-6.488366578522324,-3.488616607263684
1758274028823987500,9.312987548828126,-6.423268375667929,-6.561241260597109,-3.4441423825040456
1758274028833944600,9.322944580078126,-6.374761826652288,-6.621009792861342,-3.41979587675482
1758274028843902500,9.33290234375,-6.333319809195399,-6.666364599847793,-3.4086677490189667
1758274028853860600,9.342860595703126,-6.313225700193644,-6.6882140280842775,-3.40314109455198
1758274028863818800,9.35281884765625,-6.321954365572333,-6.685724549356102,-3.391809553198516
1758274028873776600,9.362776611328124,-6.3578720666497945,-6.6728107072472564,-3.3498391279533504
1758274028883734500,9.372734619140624,-6.359522756466269,-6.701859107077121,-3.288155994239449
1758274028893691600,9.382691650390624,-6.288955766811966,-6.782233789518475,-3.2589415901929137
1758274028903649500,9.3926494140625,-6.196893569186329,-6.871652779158949,-3.2479698220625517
1758274028913607700,9.402607666015625,-6.108516782075166,-6.9691352482676505,-3.2074227076187727
1758274028923565600,9.412565673828125,-6.042775020620226,-7.043367774692177,-3.1695693623036143
1758274028933523700,9.422523681640625,-5.967043780070543,-7.12096597815752,-3.1395296133488415
1758274028943481300,9.4324814453125,-5.86768148856461,-7.217230303648114,-3.10681070831269
1758274028953438500,9.4424384765625,-5.7701545957922935,-7.309929630133509,-3.0725629862740633
1758274028963396600,9.452396728515625,-5.68647853371799,-7.391872000283002,-3.032253187717497
1758274028973354500,9.4623544921875,-5.606322462463378,-7.473385915887356,-2.9812814176321027
1758274028983312600,9.472312744140625,-5.5135518243074415,-7.56763422538042,-2.915826948685944
1758274028993270500,9.4822705078125,-5.400166852667928,-7.67921828507781,-2.835165265996754
1758274029003228700,9.492228759765625,-5.271490788394212,-7.798827245798707,-2.749552098380029
1758274029013185500,9.502185546875,-5.1361915065884585,-7.914193162122368,-2.674963013602793
1758274029023143400,9.512143310546875,-4.999394679701328,-8.02043878340125,-2.617061736515164
1758274029033101600,9.5221015625,-4.861559449677169,-8.119831470045447,-2.569817754781246
1758274029043059700,9.532059814453126,-4.720592643629014,-8.216410268312693,-2.525268126697838
1758274029053017600,9.542017578125,-4.577054818049073,-8.311745788520573,-2.4770585148021578
1758274029062975700,9.551975830078124,-4.431274181978404,-8.406752222904563,-2.4208888838127254
1758274029072932600,9.5619326171875,-4.280789898261427,-8.502120476338266,-2.357793691343814
1758274029082890500,9.571890380859376,-4.121304854226112,-8.598966401109099,-2.2897611886031926
1758274029092848600,9.5818486328125,-3.9515813247710465,-8.696329043230413,-2.2201969462506472
1758274029102806500,9.591806640625,-3.7768750384673475,-8.789315369963646,-2.1571996611982582
1758274029112764700,9.6017646484375,-3.605051321862638,-8.87258109767139,-2.109809110600501
1758274029122722600,9.61172265625,-3.4410099296972154,-8.945839810627698,-2.0740711500041185
1758274029132680700,9.6216806640625,-3.2837033987447617,-9.011405046471953,-2.045065420272201
1758274029142637600,9.631637451171875,-3.133221160854399,-9.070054219317436,-2.021744896569848
1758274029152595500,9.641595458984375,-2.992456891641021,-9.12148454682529,-2.0035206730932
1758274029162553600,9.6515537109375,-2.8685031797140836,-9.164699419173598,-1.9875567957639693
1758274029172511500,9.661511474609375,-2.759833838419616,-9.201255418154597,-1.9724626870065927
1758274029182469600,9.6714697265625,-2.653296832978725,-9.234417098522187,-1.963654672781378
1758274029192427500,9.681427490234375,-2.5359534791022535,-9.267123436337709,-1.964624394596368
1758274029202384400,9.69138427734375,-2.4097002580612896,-9.29998408793211,-1.968250183878094
1758274029212342500,9.701342529296875,-2.276824550140649,-9.33385187074244,-1.9661333378545938
1758274029222300400,9.711300537109375,-2.1358377242177724,-9.370488533744215,-1.950001848873496
1758274029232258600,9.721258544921875,-1.9892405110672116,-9.409221876764297,-1.9182981122292577
1758274029242216700,9.731216796875,-1.8446505460858345,-9.447360176500677,-1.8748406632967292
1758274029252174600,9.741174560546876,-1.7098638899773357,-9.482131630152463,-1.8264578867912291
1758274029262131500,9.75113134765625,-1.592575919549912,-9.512178977891802,-1.7755409156329929
1758274029272089600,9.761089599609376,-1.4941834959894418,-9.537423893785476,-1.7249248271174729
1758274029282047500,9.771047607421876,-1.4117290846645831,-9.558308276382087,-1.6781396950669585
1758274029292005600,9.781005615234376,-1.3400460965923964,-9.576037409818172,-1.6352936560310423
1758274029301963500,9.790963623046874,-1.2729874073199927,-9.59166810967028,-1.5968139955110847
1758274029311921700,9.800921630859374,-1.2030301470618694,-9.606429625472426,-1.5619266603946684
1758274029321878800,9.810878662109374,-1.1265294565096498,-9.62031786557138,-1.533233796004206
1758274029331836400,9.82083642578125,-1.0492988442476838,-9.631891983509064,-1.5152619398534297
1758274029341794600,9.830794677734374,-0.9803859054107218,-9.64040320674479,-1.5072769324488937
1758274029351752400,9.84075244140625,-0.9274803177185356,-9.64568085488677,-1.5069832101993261
1758274029361710600,9.850710693359375,-0.8880966210309416,-9.64786345962286,-1.5167007404848933
1758274029371668500,9.86066845703125,-0.8269365613430738,-9.65056570431888,-1.5339911902427672
1758274029381625600,9.87062548828125,-0.7684474744301288,-9.654394907218217,-1.5403027114771306
1758274029391583700,9.880583740234375,-0.7307333914551883,-9.655636431711912,-1.5508442714966832
1758274029401541400,9.890541259765625,-0.7178490677017718,-9.654716394257544,-1.5625509297728537
1758274029411499500,9.90049951171875,-0.7190433920528739,-9.653279054930806,-1.570856547433883
1758274029421457400,9.91045751953125,-0.7141852844972163,-9.652759999492764,-1.576247154431045
1758274029431415600,9.92041552734375,-0.692489147126302,-9.653183193340897,-1.5833118321202695
1758274029441372700,9.93037255859375,-0.6606007746301591,-9.652997315379977,-1.5980154802553355
1758274029451330600,9.94033056640625,-0.6220087397769093,-9.651599723541736,-1.6217587594144045
1758274029461289500,9.95028955078125,-0.5808635863747448,-9.648899232411384,-1.6527882500588893
1758274029471247000,9.9602470703125,-0.5520834820922463,-9.643696987593174,-1.6925379305146633
1758274029481205200,9.970205322265626,-0.5335132947221398,-9.637099489024282,-1.7355315613277256
1758274029491163100,9.9801630859375,-0.5060417522875592,-9.632004796233772,-1.7716620283730327
1758274029501121300,9.990121337890624,-0.4506923151072114,-9.63090706412494,-1.7924536181196569
1758274029511078400,10.000078369140626,-0.3656348451444879,-9.633644380134344,-1.7971007132731378
1758274029521036300,10.010036376953124,-0.2686239756029099,-9.635830492001771,-1.8024904434874653
1758274029530994400,10.019994384765624,-0.1792641505374573,-9.636472297036647,-1.810160685854405
1758274029540952300,10.029952392578124,-0.10014060066835954,-9.636051441276074,-1.818476971039921
1758274029550910200,10.03991015625,-0.01861669225131045,-9.631765142259,-1.8436781939223408
1758274029560868400,10.049868408203125,0.08770245891301892,-9.622546063014864,-1.889253804052621
1758274029570825200,10.0598251953125,0.22755826237881555,-9.613673605251313,-1.9224651687808334
1758274029580783400,10.069783447265625,0.3819908270638436,-9.601885552302003,-1.9565899950921535
1758274029590741500,10.079741455078125,0.4831614831659943,-9.58750982094705,-2.0041398279048503
1758274029600699400,10.089699462890625,0.4947660327745601,-9.580963760304451,-2.03241373623088
1758274029610657300,10.0996572265625,0.507120925826393,-9.58103857910633,-2.0290185408346355
1758274029620615200,10.109615234375,0.5345765035068616,-9.583620412293076,-2.0096865022465584
1758274029630572300,10.119572265625,0.5752597384857013,-9.585971359333396,-1.9871138743020593
1758274029640530400,10.129530517578125,0.6250853707432746,-9.586221534702181,-1.9707832094870505
1758274029650488300,10.13948828125,0.6778580527707934,-9.584183891394733,-1.9632436077624558
1758274029660446500,10.149446533203125,0.733844070821628,-9.57915641862154,-1.9676433040261267
1758274029670404000,10.159404052734375,0.792945590544492,-9.570719429665804,-1.9856797498457133
1758274029680362200,10.1693623046875,0.8479428898189216,-9.56024362835884,-2.0132319197684527
1758274029690319400,10.1793193359375,0.874315713763982,-9.551152559408544,-2.0448579150013626
1758274029700277200,10.18927734375,0.849201730773598,-9.54515536482036,-2.0830891537182032
1758274029710235400,10.1992353515625,0.7740419334363192,-9.54112742447853,-2.130293534094095
1758274029720193300,10.209193359375,0.6558993920061736,-9.538717440727353,-2.1801493057616055
1758274029730151400,10.2191513671875,0.506199025208503,-9.538489477190375,-2.2206610566310583
1758274029740109300,10.229109375,0.33765118846930564,-9.538522210416197,-2.2523276761353013
1758274029750066200,10.239066162109374,0.15708897921163587,-9.536926465657352,-2.2787620940744877
1758274029760024300,10.2490244140625,-0.030715191397769376,-9.533323472729325,-2.2989514801442623
1758274029769982500,10.258982421875,-0.2199479883044958,-9.528562541937827,-2.308356729610264
1758274029779940400,10.2689404296875,-0.404965533003211,-9.521850477078557,-2.3110079747714103
1758274029789898500,10.2788984375,-0.5817831854376941,-9.512507479193806,-2.3117279596090317
1758274029799856400,10.2888564453125,-0.7451767812188714,-9.502940024903417,-2.3041787132732567
1758274029809814300,10.298814208984375,-0.8899071775842458,-9.493556695008277,-2.291470038347691
1758274029819771400,10.308771484375,-1.0100412581577896,-9.483509348246455,-2.2832515144482253
1758274029829729300,10.318729248046875,-1.1017835761792958,-9.472314585015177,-2.2872962597943842
1758274029839687400,10.3286875,-1.1633277398139237,-9.460442945435643,-2.3058802564941345
1758274029849645300,10.338645263671875,-1.2017794163484126,-9.448132329916954,-2.3364294162757693
1758274029859603500,10.348603515625,-1.236842181096971,-9.434876542502641,-2.3714373090319336
1758274029869561000,10.35856103515625,-1.3037972638644277,-9.414659099382162,-2.4155068985134363
1758274029879518200,10.368518310546875,-1.4444383450895546,-9.376507940164208,-2.4829560484081505
1758274029889476400,10.378476318359375,-1.6731636602200566,-9.318404710763692,-2.557002989132702
1758274029899434200,10.388434326171875,-1.8976085215523837,-9.252378287148476,-2.63874048435986
1758274029909392400,10.398392333984376,-1.9835741558685898,-9.200592570331692,-2.7540757132843137
1758274029919350300,10.408350341796876,-2.0186169738076627,-9.161642954212427,-2.8565426928073165
1758274029929308400,10.418308349609376,-2.049826789455116,-9.12920198933482,-2.9370521075442433
1758274029939265300,10.428265380859376,-2.068232945369929,-9.100524760904907,-3.0121888893321156
1758274029949223200,10.43822314453125,-2.058283359894156,-9.081247813504934,-3.076489512068033
1758274029959181300,10.448181396484374,-2.0134508232161403,-9.071521953782439,-3.1343133400052783
1758274029969139500,10.458139404296874,-1.9409413211919366,-9.072091278102993,-3.1780975366741417
1758274029979097300,10.468097412109374,-1.8566862901858985,-9.083911479756235,-3.1946345377162095
1758274029989055500,10.478055419921875,-1.7820207791715859,-9.106354197710752,-3.1731828766256567
1758274029999012400,10.488012451171874,-1.7337885170526801,-9.137025230306387,-3.1111317863821983
1758274030008970200,10.49797021484375,-1.7253192332625389,-9.172479990047217,-3.0098554779484865
1758274030018928400,10.507928466796875,-1.743701423779875,-9.210666805100441,-2.8798502108976245
1758274030028886300,10.51788623046875,-1.7619854146197438,-9.253916164240241,-2.7259520270839332
1758274030038844400,10.527844482421875,-1.769199729912728,-9.30108065099716,-2.555436762729287
1758274030048802300,10.53780224609375,-1.764821807089448,-9.348160966601966,-2.380685175979137
1758274030058759200,10.54775927734375,-1.7629187499471008,-9.390662722244858,-2.2086125991798937
1758274030068717300,10.55771728515625,-1.7613091227933764,-9.426693820568918,-2.0507574944339693
1758274030078675200,10.56767529296875,-1.7667990985117852,-9.457506891983748,-1.8985192066565155
1758274030088633300,10.57763330078125,-1.7812211532264948,-9.484778345268964,-1.7425931702770292
1758274030098591200,10.58759130859375,-1.798146715194732,-9.510865557205676,-1.5749543381415307
1758274030108549400,10.59754931640625,-1.8069724112071095,-9.537453119879961,-1.3936374015264212
1758274030118506500,10.607506591796875,-1.7949252689301967,-9.565223170337081,-1.2062937519676982
1758274030128464100,10.617464111328125,-1.772109918271005,-9.590635259491204,-1.0245574208967387
1758274030138422300,10.62742236328125,-1.7527787564657626,-9.609663785088062,-0.867473008262366
1758274030148380200,10.637380126953126,-1.7245669535905122,-9.627063248178363,-0.7182656126134097
1758274030158338300,10.64733837890625,-1.6512265537001192,-9.65140566227436,-0.5424179011896252
1758274030168296400,10.65729638671875,-1.5032364248864352,-9.685222007158398,-0.32734098952021445
1758274030178253300,10.66725341796875,-1.2993548975028097,-9.719703537952899,-0.09697830071253702
1758274030188211200,10.677211181640626,-1.1071342895574867,-9.74327613672018,0.11494800143884494
1758274030198169300,10.68716943359375,-0.94735077403225,-9.75584511091411,0.3105165498388931
1758274030208127200,10.697127197265624,-0.7708695139452815,-9.762730194252729,0.5150344023646787
1758274030218085400,10.70708544921875,-0.5378560731668025,-9.764566177508234,0.7310040250901132
1758274030228043300,10.717043212890625,-0.23049446196118367,-9.758165078294276,0.946284386909753
1758274030238000400,10.72700048828125,0.10679044134584255,-9.738573658117652,1.148537874700129
1758274030247958500,10.73695849609375,0.40795653151273725,-9.706000006771086,1.3407068985886872
1758274030257916200,10.746916259765625,0.6690167938631028,-9.664473818162083,1.5234059372119604
1758274030267874300,10.756874267578125,0.9184517926104366,-9.613633273240923,1.7043744987808167
1758274030277832200,10.766832275390625,1.206798998076096,-9.546887887701391,1.8896943874269723
1758274030287790300,10.776790283203125,1.5520825811199843,-9.460864385718107,2.0623951791271566
1758274030297748200,10.786748291015625,1.8897652607060968,-9.365521851247548,2.2104691868320105
1758274030307705300,10.796705322265625,2.2684838611662386,-9.256685044431686,2.3104474182792005
1758274030317663500,10.80666357421875,2.676167713217437,-9.136058431100844,2.3539207954332233
1758274030327621000,10.81662109375,3.075243895921111,-9.005214375138282,2.3705212171003223
1758274030337579300,10.826579345703125,3.5113691218197345,-8.843936017945408,2.371804534909129
1758274030347537200,10.836537109375,3.9923596176221965,-8.630905846205353,2.3956058278657495
1758274030357495300,10.846495361328126,4.4871267098426815,-8.359692365565895,2.4802502965807913
1758274030367452400,10.856452392578126,4.993731831634045,-8.024825035661458,2.614424958270788
1758274030377410300,10.866410400390626,5.5167456519126885,-7.62317491081655,2.7609961601972577
1758274030387368200,10.8763681640625,6.04907207493782,-7.155405423375964,2.8946979436784983
1758274030397326300,10.886326416015624,6.582886690694093,-6.625183279153704,2.990474193391204
1758274030407284200,10.8962841796875,7.104725621974468,-6.045777709567546,3.0235464419096707
1758274030417242400,10.906242431640624,7.5919854073047635,-5.441240036812425,2.9874834871426224
1758274030427199500,10.916199462890624,8.021671540066599,-4.837198038619756,2.902531121522188
1758274030437157400,10.926157470703124,8.382480535957217,-4.249775166794658,2.800680520331859
1758274030447115500,10.936115478515624,8.671058992895484,-3.69400737016648,2.7087697138756512
1758274030457073400,10.946073486328125,8.896445957383513,-3.1673946486130355,2.644095581652224
1758274030467031600,10.956031494140625,9.07349588420391,-2.6561156897917386,2.6052088016360995
1758274030476989400,10.965989501953125,9.212913707244395,-2.1612955522097645,2.5732094430461525
1758274030486946300,10.9759462890625,9.321417336583137,-1.696788865957409,2.5303102125182746
1758274030496904400,10.985904541015625,9.402694520822166,-1.2741377463988959,2.4771537918701765
1758274030506862300,10.9958623046875,9.45675461231172,-0.8955041938737034,2.436851445967704
1758274030516820500,11.005820556640625,9.487131045874953,-0.5559744251161813,2.4198389363683757
1758274030526778400,11.0157783203125,9.501065463203192,-0.24483530466584488,2.416650515590608
1758274030536736500,11.025736572265625,9.508775891450046,0.043395836672093714,2.398267740551382
1758274030546693400,11.035693359375,9.521669859814644,0.30978589747678487,2.3264172869578004
1758274030556651300,11.0456513671875,9.545839255431295,0.5530954356137663,2.177481547857076
1758274030566609400,11.055609375,9.576830021500587,0.7800419775687157,1.9611846294060349
1758274030576567300,11.0655673828125,9.603777065137027,1.0032952179636805,1.7120877035066484
1758274030586525400,11.075525390625,9.617262569653988,1.2368215767003594,1.4659205474488437
1758274030596483600,11.085483642578126,9.610840427652,1.4892540767632423,1.2586714433282613
1758274030606440400,11.0954404296875,9.582516834965348,1.7622857127405702,1.1135999784402548
1758274030616398300,11.1053984375,9.534352815777062,2.054682705053687,1.022145391318947
1758274030626356500,11.1153564453125,9.468889286741614,2.3638863091304896,0.9605007629845291
1758274030636314400,11.125314453125,9.389855497515201,2.6799676900222895,0.9048596859138458
1758274030646272500,11.1352724609375,9.30259280912578,2.9831077562764285,0.8562819713581353
1758274030656230400,11.14523046875,9.218831991377472,3.2322394612282515,0.8579901635155082
1758274030666187500,11.1551875,9.150038441136479,3.4016257215529677,0.9360106840461492
1758274030676145700,11.165145751953125,9.104508277583122,3.4853479608565565,1.0633278810568154
1758274030686103300,11.175103271484375,9.087309890022873,3.4920603179767724,1.1818188705984503
1758274030696061400,11.1850615234375,9.100208534562586,3.4367312294647094,1.243169192161411
1758274030706019300,11.195019287109375,9.142904351472854,3.3278266181096434,1.2260723652794956
1758274030715977500,11.2049775390625,9.211455325129627,3.1663539073884484,1.1373990063745527
1758274030725934600,11.2149345703125,9.293304171776771,2.9841777235955,0.9484538399033248
1758274030735892500,11.224892578125,9.359425287938118,2.8581889987096187,0.634273105001077
1758274030745850400,11.234850341796875,9.396140276873112,2.769062270013988,0.4639224931562319
1758274030755808300,11.244808349609375,9.409597139817476,2.7176851339980956,0.494018794603832
1758274030765766400,11.254766357421875,9.406132678577304,2.7079727182790636,0.6016119215015322
1758274030775724300,11.264724365234375,9.39375308947563,2.73172973370254,0.6822342950936406
1758274030785681400,11.274681396484375,9.375415468752383,2.781217694970965,0.7326636288654059
1758274030795639600,11.2846396484375,9.349802888590096,2.8528330246344207,0.7828886722367256
1758274030805597400,11.294597412109376,9.321570481318235,2.9343092385768887,0.817640909731388
1758274030815555300,11.304555419921876,9.301048502293229,2.9985064009383318,0.8184366632189601
1758274030825513500,11.314513427734376,9.293911490020156,3.018134061472118,0.8273232225731014
1758274030835471400,11.324471435546876,9.293950068464875,3.0069536190271378,0.8666624225318431
1758274030845428500,11.334428466796876,9.289642726659775,2.9999574765294788,0.934442046489939
1758274030855386400,11.344386474609376,9.278135828739405,3.0071368666395544,1.021618225639686
1758274030865344500,11.354344482421874,9.258624488061667,3.0337209221825003,1.1157014076989142
1758274030875302700,11.364302734375,9.233799258884787,3.0777286984741687,1.1978808014746756
1758274030885260300,11.37426025390625,9.210861450889706,3.122707657885551,1.2566273702800272
1758274030895218400,11.384218505859375,9.195768511176109,3.1549554382786154,1.2862659910880028
1758274030905175600,11.394175537109374,9.190472158333659,3.1724460867837068,1.2810919494509696
1758274030915133400,11.404133544921875,9.194175689026713,3.177442287635803,1.2415239091724157
1758274030925091600,11.414091552734375,9.204069306531547,3.1728239801853895,1.1784216293755918
1758274030935049500,11.424049560546875,9.214542185229062,3.1648280129954216,1.1164514223486184
1758274030945007400,11.43400732421875,9.22066563654542,3.1612519080743193,1.0752657908055931
1758274030954965200,11.44396533203125,9.22038155890703,3.16569865835011,1.0645679442457854
1758274030964922400,11.45392236328125,9.215566852101682,3.17519129383862,1.0779019845280795
1758274030974880500,11.463880615234375,9.209262783521414,3.185780492392182,1.1003015209279954
1758274030984838400,11.47383837890625,9.20251623187065,3.195380095386505,1.1285516830522566
1758274030994796500,11.483796630859375,9.196952168002724,3.203568662539124,1.1504767338082194
1758274031004754400,11.49375439453125,9.193071527177095,3.211719235768914,1.1587401928279548
1758274031014712300,11.50371240234375,9.190442932239174,3.2186092875435945,1.1604716927956789
1758274031024669400,11.51366943359375,9.188740804496407,3.226070124943554,1.1532126615781337
1758274031034627300,11.52362744140625,9.186415576419234,3.2378140464901923,1.1387304011087864
1758274031044585500,11.53358544921875,9.180987121629714,3.2572377088844773,1.127059471733123
1758274031054543600,11.543543701171876,9.170786630132794,3.2882588700920343,1.1200056076988578
1758274031064501500,11.55350146484375,9.155898273080586,3.330652489185333,1.1165424616329371
1758274031074459600,11.563459716796874,9.137551300007104,3.3797666487053033,1.1192496747650205
1758274031084416500,11.57341650390625,9.117851158758997,3.4302836607605216,1.1261988363157958
1758274031094374400,11.58337451171875,9.098737877488135,3.478672428615391,1.1323369006793946
1758274031104332500,11.59333251953125,9.080034346061945,3.5262913811415433,1.1351790653027594
1758274031114290400,11.60329052734375,9.060151833984255,3.5777833757087585,1.1329169655896723
1758274031124248600,11.61324853515625,9.038837243276834,3.6335271825015543,1.125738379197195
1758274031134206500,11.62320654296875,9.017230391624569,3.6904219128951428,1.1138763842288404
1758274031144163300,11.633163330078125,8.995683745726943,3.7463165263354776,1.1014400965038686
1758274031154121500,11.64312158203125,8.9755662558496,3.797746853843331,1.0893606593925504
1758274031164079400,11.653079345703125,8.959203734591602,3.840044026824832,1.0756914688717574
1758274031174037500,11.66303759765625,8.947212268024682,3.872780759778619,1.05799229218252
1758274031183995400,11.672995361328125,8.938707474529743,3.8980347357615828,1.0369276576481758
1758274031193953500,11.68295361328125,8.933764757430552,3.9150212341368196,1.0153032703392206
1758274031203910400,11.692910400390625,8.932591037476062,3.923146380664408,0.9940464011684059
1758274031213868300,11.702868408203125,8.933855358323454,3.9257659155130384,0.9720957045145332
1758274031223826400,11.712826416015625,8.935769082990289,3.926888782063126,0.9497180146202444
1758274031233784300,11.722784423828125,8.935796555519104,3.932602483534813,0.9255055835794657
1758274031243742500,11.732742431640625,8.930565669128299,3.9501448622271416,0.9009637013886124
1758274031253700600,11.74270068359375,8.91631502545774,3.9873663393795487,0.8778473950214684
1758274031263657200,11.7526572265625,8.899020776307582,4.029825424924493,0.8592565301895141
1758274031273615400,11.762615478515626,8.886066602188349,4.06208548027724,0.8412268794368952
1758274031283573500,11.772573486328126,8.8780440392524,4.083678595665097,0.8211484794609248
1758274031293531400,11.782531494140626,8.872761130413412,4.098470506605506,0.8043835879471153
1758274031303489500,11.792489501953124,8.868521008625626,4.1098993708536025,0.7927469992324709
1758274031313447400,11.802447509765624,8.865653344234824,4.118106058184802,0.7821622576583176
1758274031323404500,11.812404541015624,8.866465829661488,4.1189311108320945,0.7684890485495328
