time,seconds_elapsed,z,y,x
1758974329699618300,0.059618408203125,9.17368468966186,2.9229169069468974,1.8629152477033435
1758974329709575200,0.0695751953125,9.094864835447073,3.021266806539893,2.0798484182313084
1758974329719532300,0.0795322265625,8.986877338936925,3.1440649186909195,2.349740441008657
1758974329729489400,0.089489501953125,8.84866947620809,3.2795115000128745,2.667628140670061
1758974329739446300,0.0994462890625,8.692018778815864,3.410686979886889,2.997734539783001
1758974329749404200,0.109404052734375,8.525554543417691,3.5290082388848063,3.3213559607908127
1758974329759361300,0.119361328125,8.35287742485404,3.633160979537666,3.6331761771067974
1758974329769318400,0.129318359375,8.197516182750462,3.723462012709677,3.88676603051126
1758974329779275300,0.139275146484375,8.084998057073355,3.7871933111250398,4.057136917959153
1758974329789232000,0.149232177734375,8.00568661994934,3.819623462347686,4.182085778403282
1758974329799189200,0.159189208984375,7.946690241101384,3.83027432796061,4.283631259167194
1758974329809147400,0.1691474609375,7.904793465614318,3.8202094455420967,4.369281543923914
1758974329819104300,0.179104248046875,7.87476365353167,3.792024969065189,4.447361685687303
1758974329829061400,0.189061279296875,7.845185676869749,3.7518484414994715,4.532888344064355
1758974329839018200,0.199018310546875,7.799830869883299,3.700863811932504,4.651518522880971
1758974329848975000,0.20897509765625,7.725425909501314,3.635093701165914,4.82434206417799
1758974329858932200,0.21893212890625,7.622079516795277,3.552282146966457,5.045352128756046
1758974329868890400,0.228890380859375,7.4988839297592635,3.450305581308901,5.294573557817936
1758974329878847500,0.238847412109375,7.36207307434678,3.3277772260099647,5.558430830475688
1758974329888804000,0.24880419921875,7.216506081026792,3.1867627814278006,5.825543305537105
1758974329898761200,0.25876123046875,7.071874907252192,3.0274928414478897,6.082208620864153
1758974329908718300,0.26871826171875,6.930613502171635,2.8518703170821067,6.324857101276517
1758974329918675200,0.27867529296875,6.792088244056702,2.6682185077786444,6.551223139929771
1758974329928633000,0.288633056640625,6.64909957679212,2.479704645396769,6.768376529079675
1758974329938590200,0.298590087890625,6.484213550496101,2.2840205991245806,6.993469479057192
1758974329948547300,0.30854736328125,6.2737470917642115,2.076582256042212,7.245570262947678
1758974329958504200,0.318504150390625,6.01080167325437,1.8457598225019871,7.525544557669758
1758974329968461300,0.32846142578125,5.702505539411306,1.574461586188525,7.821310295763611
1758974329978418400,0.33841845703125,5.358326775804161,1.2475639199890196,8.118022959318756
1758974329988376000,0.3483759765625,4.994762928247451,0.863361992746964,8.395076982679962
1758974329998333200,0.358333251953125,4.622041668505966,0.4367524544188752,8.638076760748028
1758974330008290300,0.368290283203125,4.251728931210935,-0.011231399739015614,8.837028722774981
1758974330018247400,0.378247314453125,3.901225056235492,-0.46447413568962365,8.985271072784066
1758974330028204300,0.388204345703125,3.5955332596719263,-0.9085909813966602,9.078381318157911
1758974330038161200,0.3981611328125,3.344653542008996,-1.3318340024337172,9.121946903640032
1758974330048119300,0.408119384765625,3.138737878449261,-1.7311365412391722,9.128082629916072
1758974330058076200,0.418076171875,2.9713819549083706,-2.1059353379070758,9.105290367871522
1758974330068033300,0.428033203125,2.8329730166494844,-2.4553072862431407,9.061794340494275
1758974330077990400,0.437990478515625,2.7143998287171125,-2.782712025181949,9.003273762464524
1758974330087947300,0.447947265625,2.627139186154306,-3.085598408935964,8.93015241215229
1758974330097904000,0.457904052734375,2.5797929130896926,-3.355047217990458,8.84639510153532
1758974330107862300,0.4678623046875,2.5753461628139016,-3.5860984918504952,8.756589158403873
1758974330117819400,0.4778193359375,2.610466283772886,-3.7781753074109554,8.664943140363693
1758974330127776300,0.4877763671875,2.6627064663589,-3.9399849950015544,8.576531866461037
1758974330137733000,0.497733154296875,2.717964827722311,-4.079881249208748,8.49338713478446
1758974330147690200,0.507690185546875,2.770380366875231,-4.196801993758976,8.419158115491271
1758974330157647400,0.5176474609375,2.811923798879981,-4.288854839034379,8.358778173330426
1758974330167605200,0.527605224609375,2.8401772489398716,-4.356030724945664,8.314371460849046
1758974330177562000,0.53756201171875,2.857810520786047,-4.393118054324388,8.28877641634345
1758974330187519200,0.547519287109375,2.79625072119087,-4.438160726621747,8.285777234527469
1758974330197476000,0.55747607421875,2.5413869023278353,-4.510412016101181,8.328741346985101
1758974330207433200,0.56743310546875,2.1462619414679707,-4.560262965463101,8.412368893742562
1758974330217390300,0.577390380859375,1.7032162686564027,-4.593418216089904,8.49528975353539
1758974330227348200,0.58734814453125,1.278328183826059,-4.620907988300919,8.554733876150847
1758974330237305000,0.59730517578125,0.9436186748318374,-4.6381268341273065,8.588813840407132
1758974330247262200,0.60726220703125,0.7546002969939262,-4.643358597300947,8.604661397880315
1758974330257219300,0.61721923828125,0.6918793446648865,-4.6680938101068135,8.596544142398237
1758974330267176200,0.62717626953125,0.7206994156315922,-4.712060377605259,8.57014947194755
1758974330277133300,0.63713330078125,0.8032366098690777,-4.7829853869169945,8.5233947350353
1758974330287091200,0.64709130859375,0.9079417237076908,-4.879250296929478,8.458068568643927
1758974330297048300,0.65704833984375,1.0019893960621207,-4.991036601200699,8.381882570064068
1758974330307005200,0.667005126953125,1.0713006865669041,-5.112954423385858,8.299421728998421
1758974330316962300,0.67696240234375,1.1095900852117686,-5.238918890613317,8.2154066442281
1758974330326919400,0.68691943359375,1.0990258019037544,-5.375427548208832,8.12818019619584
1758974330336876000,0.6968759765625,1.0493496245868503,-5.518872142547369,8.038115894389152
1758974330346833200,0.706833251953125,0.9827492004759609,-5.65738278761506,7.949757227456569
1758974330356791300,0.716791259765625,0.931549174592644,-5.782387469899654,7.86553229932785
1758974330366748400,0.72674853515625,0.9192721690826118,-5.892512562960386,7.78483379175961
1758974330376705300,0.736705322265625,0.9500788107566535,-5.975123041629791,7.717877978339791
1758974330386662100,0.746662109375,1.0189313977085053,-6.026114977720379,7.66929602600038
1758974330396619300,0.756619384765625,1.118555993412435,-6.049586454200744,7.636864997994899
1758974330406576000,0.766576171875,1.2531957883961498,-6.049629708820581,7.615897028768062
1758974330416534300,0.7765341796875,1.4070346432380378,-6.029058629956841,7.605334133699536
1758974330426491100,0.7864912109375,1.5691564655177295,-5.994067396074533,7.601269368478655
1758974330436448300,0.7964482421875,1.7173307187266647,-5.961311958420277,7.59499335694909
1758974330446405000,0.806405029296875,1.800726940946281,-5.937254206484556,7.594522232306003
1758974330456362200,0.8163623046875,1.783428161751479,-5.926341767325997,7.60711692546308
1758974330466319400,0.8263193359375,1.6840430738918482,-5.929912611550092,7.62696027457416
1758974330476277200,0.83627734375,1.550750309602916,-5.937825868892669,7.649039419913292
1758974330486233600,0.846233642578125,1.4165721407815812,-5.945799916511774,7.668843606057763
1758974330496190700,0.856190673828125,1.291245533066243,-5.949875203126669,7.687786791458725
1758974330506147800,0.86614794921875,1.1579724963910878,-5.9522086145102975,7.707184150367975
1758974330516104700,0.876104736328125,1.0297873574394731,-5.949865850776433,7.727162524035572
1758974330526061800,0.886061767578125,0.9303735549420118,-5.93821574499309,7.748701571148634
1758974330536019700,0.896019775390625,0.8537040106289088,-5.931854977789521,7.762388151195645
1758974330545976600,0.9059765625,0.7841952247906476,-5.926657993668317,7.773683452191948
1758974330555933700,0.91593359375,0.7146716067094355,-5.903495144745707,7.7979732593178746
1758974330565890800,0.925890869140625,0.6636029521208257,-5.83618101940751,7.85296215609014
1758974330575848000,0.935847900390625,0.5964125627601519,-5.751302011284232,7.920682524141669
1758974330585804800,0.9458046875,0.5471213296402245,-5.6767450752109285,7.977820123380422
1758974330595762700,0.9557626953125,0.5080903188478202,-5.60557427444458,8.030553350180387
1758974330605719800,0.9657197265625,0.45083541337233035,-5.536653298431634,8.081621274116635
1758974330615676700,0.9756767578125,0.36524423839170483,-5.475107235100865,8.127741804778575
1758974330625633800,0.9856337890625,0.25324725051186975,-5.420793461111187,8.168307039400934
1758974330635591000,0.9955908203125,0.11661417195224202,-5.370214781996608,8.204729767391084
1758974330645547800,1.0055478515625,-0.06178957606332842,-5.350840803962946,8.217972110801934
1758974330655505700,1.015505615234375,-0.27843959596809,-5.3863417409330605,8.190249406617879
1758974330665462800,1.025462890625,-0.5113285701166838,-5.48557952927649,8.112789734840392
1758974330675420000,1.035419921875,-0.7198132073815912,-5.645729759222268,7.986111566385627
1758974330685376800,1.045376708984375,-0.8577508018016815,-5.861568558642268,7.815155280265212
1758974330695333600,1.055333740234375,-0.9010130204230546,-6.110330553498864,7.617246105289459
1758974330705290800,1.065290771484375,-0.8656414819862693,-6.331650999200344,7.438497557857632
1758974330715247900,1.075247802734375,-0.818600548543781,-6.521371607023477,7.27818658439219
1758974330725205800,1.085205810546875,-0.766707718090713,-6.770463856747746,7.052897819581627
1758974330735162600,1.09516259765625,-0.6831528712432832,-7.120757303842902,6.708094202074408
1758974330745119700,1.10511962890625,-0.6034987216288223,-7.427531927207112,6.374791052746772
1758974330755076600,1.11507666015625,-0.5451205842770636,-7.521299175184964,6.269235167297721
1758974330765033700,1.12503369140625,-0.5714005423069,-7.557278835582733,6.2234583355069155
1758974330774990800,1.134990966796875,-0.5956977655543014,-7.600671987107396,6.168087745940685
1758974330784948700,1.14494873046875,-0.5954882875220849,-7.620173390913009,6.144002521476149
1758974330794905600,1.154905517578125,-0.5877066572025418,-7.629115406781435,6.133643040025234
1758974330804862700,1.16486279296875,-0.5864592874899506,-7.634601729238033,6.126933313253522
1758974330814819800,1.17481982421875,-0.594024754308164,-7.637557656434178,6.122518419420719
1758974330824776700,1.184776611328125,-0.6086256361884996,-7.635679587602615,6.123428520002961
1758974330834733800,1.19473388671875,-0.627456702984497,-7.625604183790087,6.134073248136043
1758974330844691700,1.204691650390625,-0.6674988635808229,-7.6060162707448,6.154135208433866
1758974330854648800,1.21464892578125,-0.7515862829349934,-7.604305959695577,6.146548698827624
1758974330864605700,1.224605712890625,-0.7873022508952766,-7.6384245023965835,6.099589379253983
1758974330874562800,1.234562744140625,-0.7792089608106761,-7.696341853836178,6.027400341355801
1758974330884520000,1.24452001953125,-0.7719233338471502,-7.748971035739779,5.960533375263214
1758974330894476500,1.2544765625,-0.7678489240150899,-7.782294628670811,5.917488014262914
1758974330904433700,1.26443359375,-0.7646241898149252,-7.809305969715118,5.8822185479611155
1758974330914391800,1.274391845703125,-0.757154511521384,-7.846711863523721,5.8331982042044395
1758974330924349000,1.284348876953125,-0.7295130558799952,-7.893925450119376,5.7727066183626645
1758974330934305800,1.294305908203125,-0.6851504017360508,-7.942281777009367,5.711490225377679
1758974330944262700,1.3042626953125,-0.6461947212021798,-7.9850331234991545,5.656150615471601
1758974330954219800,1.3142197265625,-0.6158326084252447,-8.022794406616688,5.605880563914775
1758974330964176600,1.3241767578125,-0.5864222068825736,-8.058753608748317,5.557246589127183
1758974330974134800,1.334134765625,-0.5462626304516568,-8.10451407392621,5.49443678947091
1758974330984091600,1.344091552734375,-0.4891965620791539,-8.187516182261705,5.375467295697331
1758974330994048800,1.354048828125,-0.40755354020241646,-8.328899752417206,5.16078877222836
1758974331004005600,1.364005615234375,-0.31943741332143544,-8.51338070602119,4.857025313378871
1758974331013962800,1.373962646484375,-0.26356318508200344,-8.709477863138913,4.499547215476632
1758974331023919900,1.383919921875,-0.25785889075947926,-8.90200943672955,4.10586646207571
1758974331033877800,1.393877685546875,-0.2722379465826787,-9.085195674347878,3.6817803412780163
1758974331043834600,1.403834716796875,-0.2776955544014461,-9.248872324854135,3.248327257198095
1758974331053791700,1.413791748046875,-0.25126997735584156,-9.392865785247087,2.807371542403102
1758974331063748900,1.423748779296875,-0.17369243308603763,-9.517931257808208,2.3556756762765345
1758974331073705700,1.433705810546875,-0.05122679059265647,-9.622041036102175,1.8931714158877728
1758974331083662800,1.443662841796875,0.07799987046825699,-9.703296008509398,1.4178705100290476
1758974331093619700,1.45361962890625,0.1549656851810403,-9.762314014667272,0.9184656019400804
1758974331103577900,1.463577880859375,0.1347347523913253,-9.800921685481072,0.30682218883298334
1758974331113534700,1.47353466796875,0.02343232036362169,-9.801659936627745,-0.3119310197466984
1758974331123491800,1.483491943359375,-0.06767790344955865,-9.778827927094698,-0.735058488112688
1758974331133449000,1.493448974609375,0.0005514101017442954,-9.74808733639419,-1.0701272588733584
1758974331143405600,1.503405517578125,0.14683541495376265,-9.718276720020175,-1.3053395248703659
1758974331153362700,1.51336279296875,0.28524984223851935,-9.710510177671908,-1.3397802852630614
1758974331163320800,1.52332080078125,0.43342948400862513,-9.709957219964265,-1.303558194411546
1758974331173278000,1.53327783203125,0.564662868082337,-9.708848966461419,-1.2608794747665524
1758974331183234800,1.54323486328125,0.6750793087724596,-9.700684949228167,-1.2694058955714105
1758974331193191700,1.553191650390625,0.7646492511909455,-9.687442605817317,-1.3187808979846536
1758974331203148800,1.563148681640625,0.8236441687341779,-9.674192079100012,-1.3791301527462898
1758974331213105700,1.573105712890625,0.8414175797034055,-9.6655043302536,-1.4284290211834012
1758974331223062800,1.583062744140625,0.8286913691211492,-9.662892101928591,-1.4533277539879084
1758974331233020700,1.593020751953125,0.7977038909874856,-9.665500823122262,-1.4533239545956254
1758974331242977800,1.602977783203125,0.7569445220325142,-9.671282913655043,-1.4365546061024068
1758974331252934700,1.6129345703125,0.7040990670297295,-9.678813893681763,-1.4125053297340868
1758974331262891800,1.622891845703125,0.6362406787469983,-9.687111766427755,-1.3876117114961146
1758974331272849000,1.632848876953125,0.5579503282990306,-9.696064303690195,-1.3584716878600418
1758974331282805800,1.6428056640625,0.4713916234605014,-9.705810621678829,-1.3211362289391457
1758974331292763600,1.652763671875,0.3759583419665694,-9.7161782864362,-1.2747159846782683
1758974331302720800,1.662720703125,0.28239264444280415,-9.725786072736978,-1.2246261119939386
1758974331312678000,1.672677978515625,0.21326659257812425,-9.732841836467385,-1.1818231083821504
1758974331322634800,1.682634765625,0.17135485698394476,-9.739874219322203,-1.1295462470475583
1758974331332591900,1.692591796875,0.1465801798173692,-9.745590843403338,-1.082751031994447
1758974331342548700,1.702548828125,0.12612199587672948,-9.74790145843327,-1.0643620464101433
1758974331352505600,1.712505615234375,0.09745435725906863,-9.74754782269001,-1.0706180380649863
1758974331362463700,1.722463623046875,0.05304261697612237,-9.746702019515633,-1.0813855888601391
1758974331372420900,1.7324208984375,0.008677035085330135,-9.747156193023919,-1.0785420359972864
1758974331382378000,1.7423779296875,-0.01307164589439635,-9.748054018646478,-1.070356902910769
1758974331392334600,1.75233447265625,-0.017898761231813113,-9.748002580720186,-1.0707491901639847
1758974331402291700,1.762291748046875,-0.01841521828739205,-9.747892106083034,-1.071758074945584
1758974331412248800,1.772248779296875,-0.01733901644871221,-9.747533209642768,-1.0750368043553082
1758974331422206700,1.782206787109375,-0.01193868264197954,-9.746955117493867,-1.080324608565122
1758974331432163800,1.792163818359375,0.00003508690396138263,-9.746591544878482,-1.0836598174024372
1758974331442120700,1.80212060546875,0.019465576723695265,-9.746679223161935,-1.0826974751763045
1758974331452077800,1.812077880859375,0.04575892624135595,-9.747332134112716,-1.0760162438467145
1758974331462034700,1.82203466796875,0.07738219522763974,-9.748542678946256,-1.0631613653834908
1758974331471991800,1.83199169921875,0.11118374440134503,-9.750150114142894,-1.045274557167664
1758974331481949700,1.84194970703125,0.14333220173893496,-9.751920630946755,-1.024642761092633
1758974331491907800,1.851907958984375,0.16973112823963163,-9.753583595722914,-1.0045903723407537
1758974331501864700,1.86186474609375,0.18620255323220045,-9.754943193638324,-0.9883363529585302
1758974331511821800,1.87182177734375,0.18995967727601526,-9.755828159779309,-0.9788383106425403
1758974331521779000,1.881779052734375,0.17875996387498452,-9.75623615605831,-0.9768694947876035
1758974331531735600,1.891735595703125,0.15305175958480685,-9.75618354908824,-0.9817552210025489
1758974331541692700,1.901692626953125,0.11697732444251886,-9.755665662693977,-0.9918061479609459
1758974331551650800,1.91165087890625,0.07464480158642399,-9.754753808546067,-1.004787283152342
1758974331561608000,1.92160791015625,0.029144855074817313,-9.753488318654894,-1.0193209815479813
1758974331571564800,1.931564697265625,-0.017250166838191215,-9.751810156309604,-1.035511288044229
1758974331581521700,1.941521728515625,-0.06204001629359554,-9.74972692029476,-1.0532603682897985
1758974331591478800,1.951478759765625,-0.10318455320782959,-9.747371297079324,-1.0716880053840576
1758974331601435600,1.961435546875,-0.13919748568753712,-9.744907537314296,-1.0898544342588632
1758974331611392800,1.971392822265625,-0.16759612550493327,-9.742611535331607,-1.1062615983761845
1758974331621350700,1.9813505859375,-0.1860855757890269,-9.740738727197051,-1.1197228452347219
1758974331631307800,1.991307861328125,-0.1933596219126135,-9.739479667046666,-1.1294042082283646
1758974331641264600,2.0012646484375,-0.19201047232598065,-9.738847798883913,-1.1350551466621457
1758974331651221800,2.0112216796875,-0.1869143912959844,-9.738710436239838,-1.1370819032493977
1758974331661179000,2.021178955078125,-0.18040411435281856,-9.738897483244537,-1.1365390285443513
1758974331671135700,2.0311357421875,-0.17233007695795968,-9.739465638521313,-1.1329187191553414
1758974331681093600,2.04109375,-0.16168470950406044,-9.740416071113943,-1.1263003239288925
1758974331691050800,2.05105078125,-0.14756495307101866,-9.741732414409517,-1.1168218630962072
1758974331701008000,2.0610078125,-0.1300293785788119,-9.74333283534348,-1.1049709009785205
1758974331710964700,2.07096484375,-0.10977882777317427,-9.745116796150803,-1.0913416771419346
1758974331720921900,2.080921875,-0.08829878997150808,-9.74704338029921,-1.0759889174483717
1758974331730878700,2.090878662109375,-0.06601749139009043,-9.749009127414226,-1.0596538687191903
1758974331740835600,2.100835693359375,-0.04097366929277777,-9.750985980445146,-1.0425897019978612
1758974331750793700,2.110793701171875,-0.008860777600557776,-9.753035314190386,-1.0240146192569286
1758974331760750800,2.120750732421875,0.03492478333326289,-9.755141346558927,-1.003188323523104
1758974331770708000,2.1307080078125,0.09291396474991924,-9.75688906700909,-0.9822820213556289
1758974331780664600,2.14066455078125,0.16262566188229247,-9.757956988501547,-0.9624083501715213
1758974331790621700,2.15062158203125,0.2365879565306939,-9.75849357959628,-0.9413826594080775
1758974331800578800,2.160578857421875,0.3053388184074312,-9.758769473928213,-0.9184628985263407
1758974331810537000,2.170536865234375,0.36019462685193865,-9.759112003755568,-0.8946562718074769
1758974331820493800,2.180493896484375,0.3961867083398625,-9.759877142909168,-0.8707700039811432
1758974331830450700,2.19045068359375,0.4149246900249272,-9.76110756148696,-0.8479415746446698
1758974331840407800,2.20040771484375,0.42561680096369237,-9.762499892628192,-0.8263587614551187
1758974331850364700,2.21036474609375,0.4354422120705247,-9.763722712421417,-0.8065338978487998
1758974331860321800,2.22032177734375,0.4427129702584818,-9.76468541997373,-0.7907516606967896
1758974331870279000,2.23027880859375,0.44493649152684955,-9.765288062041998,-0.7820232145138084
1758974331880236800,2.24023681640625,0.44131614560522137,-9.765649881091713,-0.7795518559642136
1758974331890193700,2.250193603515625,0.4320751102576032,-9.765893042197822,-0.7816750586632639
1758974331900150800,2.26015087890625,0.41950113109499215,-9.766189394795894,-0.7848329381722956
1758974331910108000,2.27010791015625,0.4069675935406238,-9.766583947071432,-0.7865071549948305
1758974331920064800,2.280064697265625,0.39746334067955613,-9.767048641973734,-0.785595520042628
1758974331930022000,2.29002197265625,0.3925109424365684,-9.767584648546576,-0.7814014293536543
1758974331939979800,2.299979736328125,0.3923537425808608,-9.768146958604454,-0.7744425501264631
1758974331949937000,2.30993701171875,0.39613278619553893,-9.768690563961863,-0.7655996837835759
1758974331959893800,2.319893798828125,0.40276433316450566,-9.769202020615339,-0.7555603011325002
1758974331969851000,2.329850830078125,0.4115734433682635,-9.769625214463472,-0.7452612446319311
1758974331979807700,2.339807861328125,0.42249457728993145,-9.769878312441707,-0.7357637868378311
1758974331989764600,2.3497646484375,0.4349078494654968,-9.769940856283903,-0.7276680856004357
1758974331999721700,2.3597216796875,0.44761995845716446,-9.76988941835761,-0.7206004122365266
1758974332009680000,2.369679931640625,0.45941575632151216,-9.769799401986598,-0.7143684590443968
1758974332019637000,2.379636962890625,0.46988925607353443,-9.769695941612124,-0.7089610470429062
1758974332029593600,2.389593505859375,0.4793995002839714,-9.769594819325208,-0.7039866926964372
1758974332039550700,2.39955078125,0.4881794939910993,-9.769505387476086,-0.6991581034962088
1758974332049507800,2.4095078125,0.4962152817348018,-9.769451611462236,-0.6942354793369769
1758974332059464700,2.419464599609375,0.5028887681493536,-9.769510063651204,-0.6885997384723276
1758974332069422800,2.4294228515625,0.5081411357196047,-9.769679574999213,-0.6823062643513083
1758974332079379700,2.439379638671875,0.511974284141697,-9.7699467015028,-0.6755729375082999
1758974332089336800,2.4493369140625,0.5146384618496522,-9.770295661070943,-0.668462374850735
1758974332099293700,2.459293701171875,0.5168226740209385,-9.77067267768979,-0.6612310353577137
1758974332109250800,2.469250732421875,0.517693757767044,-9.771168352252245,-0.6531841416981071
1758974332119208000,2.4792080078125,0.5156043477397412,-9.77181307989657,-0.6451312566891312
1758974332129164800,2.489164794921875,0.5116776758152991,-9.772460145628452,-0.6384217491131275
1758974332139122700,2.499122802734375,0.5077806318441406,-9.773037068733572,-0.6326901466585695
1758974332149079800,2.509079833984375,0.5048942627528682,-9.77352514451146,-0.6274573605716228
1758974332159036700,2.51903662109375,0.5029396215537563,-9.773943077662587,-0.6224927239015698
1758974332168993800,2.528993896484375,0.5008581391045823,-9.774338214460014,-0.6179296537697315
1758974332178951000,2.538950927734375,0.49787090345472096,-9.774746795260906,-0.6138691993977874
1758974332188907800,2.54890771484375,0.4939117905654013,-9.775203306856751,-0.609802351817675
1758974332198865700,2.55886572265625,0.4897669093130156,-9.775677354109286,-0.6055346113706007
1758974332208822800,2.56882275390625,0.4865971932357177,-9.776132112139463,-0.6007321795249357
1758974332218780000,2.57877978515625,0.4847707815261557,-9.776545369115471,-0.5954274972455575
1758974332228736500,2.588736572265625,0.4841341641230508,-9.776913033384083,-0.5898911251021549
1758974332238693600,2.598693603515625,0.4842935194032266,-9.777223999029397,-0.5845928725635633
1758974332248650800,2.608650634765625,0.4850324646696448,-9.777473589876294,-0.579784449368529
1758974332258607900,2.61860791015625,0.4861167527750134,-9.777681679669023,-0.5753523486725985
1758974332268565800,2.628565673828125,0.48738052563313394,-9.777822549444437,-0.5718694749929011
1758974332278522600,2.638522705078125,0.4880487802835181,-9.777955235913396,-0.5690163140514866
1758974332288479700,2.648479736328125,0.4876619363903999,-9.778111887779831,-0.5666302591651677
1758974332298436600,2.6584365234375,0.4861099942406639,-9.778304780003428,-0.5646331670638174
1758974332308393700,2.668393798828125,0.48388176026456053,-9.778514623361826,-0.5629527396962046
1758974332318350800,2.678350830078125,0.4813079642537981,-9.778704008454083,-0.561858039794676
1758974332328308000,2.688307861328125,0.4781032499283552,-9.778903330418467,-0.5611241360295564
1758974332338265600,2.698265625,0.47423130386583506,-9.779114927342533,-0.5607093812162056
1758974332348222700,2.70822265625,0.4698613086206838,-9.779328277832269,-0.5606731408590451
1758974332358179800,2.718179931640625,0.4654383776118979,-9.779529937884211,-0.560832203878276
1758974332368136700,2.72813671875,0.4611450643321499,-9.779707048016785,-0.5613273669840768
1758974332378093800,2.73809375,0.4566866601511836,-9.779880651018022,-0.5619440375776961
1758974332388050700,2.74805078125,0.451552000676468,-9.7800916634202,-0.5623920736061409
1758974332398008800,2.7580087890625,0.44596959743425246,-9.780317873391509,-0.56293103932105
1758974332407965700,2.767965576171875,0.4407018130991608,-9.78051894892156,-0.5635886264469474
1758974332417922800,2.7779228515625,0.43664577917400743,-9.780657480609417,-0.564313506655395
1758974332427880000,2.7878798828125,0.4341543642170727,-9.780718855407834,-0.5651891935113817
1758974332437836500,2.79783642578125,0.43267713127136226,-9.780717101842164,-0.5663285362722352
1758974332447793700,2.807793701171875,0.43136118983458727,-9.780684953138232,-0.5678884060001
1758974332457750800,2.817750732421875,0.4301040659129619,-9.780626500949262,-0.5698457506129517
1758974332467709000,2.827708984375,0.429527033209987,-9.780545836928486,-0.5716682898649945
1758974332477665500,2.83766552734375,0.42976555467359717,-9.780459327688813,-0.5729698739828541
1758974332487622100,2.8476220703125,0.43084326690770686,-9.780354698270559,-0.5739313394261524
1758974332497579300,2.857579345703125,0.4320744161378592,-9.78026059024632,-0.5746318523783236
1758974332507536400,2.867536376953125,0.432610495775938,-9.780207398754358,-0.5751396557699888
1758974332517493500,2.877493408203125,0.432454538029246,-9.780198630926012,-0.5754153674388304
1758974332527451400,2.887451416015625,0.431768674656935,-9.780216166582703,-0.5756388374637812
1758974332537408300,2.897408203125,0.4308133466934785,-9.780238962936401,-0.5759548811430111
1758974332547365400,2.907365478515625,0.42968215070646254,-9.78027695685923,-0.5761494173344225
1758974332557322200,2.917322265625,0.4284300317535177,-9.780309105563163,-0.5765272376708686
1758974332567279400,2.927279296875,0.42704321703761816,-9.780341838788985,-0.5769871833328157
1758974332577236500,2.937236572265625,0.4255240811789408,-9.780386262452602,-0.577379945510067
1758974332587193600,2.947193603515625,0.4239499271973967,-9.780440038466454,-0.5776454280458391
1758974332597151200,2.957151123046875,0.4224188086399808,-9.78050258230865,-0.5776833854360506
1758974332607108400,2.9671083984375,0.421041930796206,-9.780583830851317,-0.5773105335356667
1758974332617065500,2.9770654296875,0.42035614048913117,-9.78063409973383,-0.5769482760945335
1758974332627022300,2.987022216796875,0.42054505065735426,-9.780653388956189,-0.5764998016746714
1758974332636979500,2.9969794921875,0.42139410523474213,-9.780651050868629,-0.5759198098296299
1758974332646936300,3.006936279296875,0.4227164764123037,-9.780635268777608,-0.5752118807559833
1758974332656893400,3.0168935546875,0.4246255614366382,-9.78059552128911,-0.5744804246762767
1758974332666851300,3.026851318359375,0.42689675777163355,-9.78053999170959,-0.5737622664695605
1758974332676808400,3.036808349609375,0.4292766021128744,-9.780466926473379,-0.5732263329619541
1758974332686765300,3.046765380859375,0.4316497244523838,-9.780398537412285,-0.5725992505721748
1758974332696722200,3.05672216796875,0.43382078488115217,-9.780354698270559,-0.571712457800284
1758974332706679300,3.06667919921875,0.4356670703349635,-9.780325472176074,-0.5708109058506786
1758974332716636400,3.076636474609375,0.43738158263526855,-9.780298584169149,-0.5699557503260672
1758974332726593500,3.086593505859375,0.4392055831920355,-9.78025708311498,-0.5692583426464348
1758974332736551200,3.09655126953125,0.4409338317567482,-9.78018518692255,-0.5691674494925886
1758974332746508300,3.10650830078125,0.442192161254771,-9.780106276467443,-0.569520062322542
1758974332756465400,3.11646533203125,0.4430579843038693,-9.780010414877534,-0.5705103885341435
1758974332766422300,3.12642236328125,0.44389501964990047,-9.77992215207219,-0.5713892171952873
1758974332776379400,3.13637939453125,0.4452479320961982,-9.77980992386937,-0.5722209187790751
1758974332786336500,3.14633642578125,0.447451725750789,-9.779666716006398,-0.572966695645079
1758974332796294400,3.15629443359375,0.4502391279796138,-9.779494866570829,-0.5737079059338197
1758974332806251300,3.166251220703125,0.4531497547293082,-9.77930606600046,-0.5746447483925149
1758974332816208400,3.17620849609375,0.4558045800870284,-9.779119018995761,-0.5757060574810952
1758974332826165500,3.18616552734375,0.45783970264382656,-9.778958859997987,-0.576817818115279
1758974332836122400,3.196122314453125,0.459804901769571,-9.778815067613124,-0.5776959526566788
1758974332846079200,3.206079345703125,0.46183184101991354,-9.778671859750151,-0.5785259737400338
1758974332856036400,3.216036376953125,0.4639628982318565,-9.77852514475584,-0.5792865828489885
1758974332865994500,3.225994384765625,0.4660543175531551,-9.778377260717749,-0.5800996162649243
1758974332875951400,3.235951416015625,0.4676614604888484,-9.77824340520501,-0.5810790557563305
1758974332885908500,3.245908447265625,0.4686095915265381,-9.778158649531006,-0.5817348527839407
1758974332895865300,3.255865234375,0.46959958894457665,-9.778082661685348,-0.582211859178543
1758974332905822200,3.265822265625,0.47086851290185,-9.77800258218646,-0.5825365245556459
1758974332915779300,3.275779296875,0.4722014420060441,-9.777913150337337,-0.5829474434440955
1758974332925736400,3.285736328125,0.4729550003197044,-9.777828979185223,-0.5837474712479859
1758974332935694300,3.2956943359375,0.4726083423065021,-9.777787478131055,-0.5846949081659316
1758974332945651200,3.305651123046875,0.47153395454064007,-9.777764681777358,-0.5859864092811942
1758974332955608300,3.3156083984375,0.47053003819510336,-9.777732533073424,-0.5873193018527701
1758974332965565400,3.3255654296875,0.4699672897458076,-9.777692201063036,-0.5884156091894954
1758974332975522300,3.335522216796875,0.46956729411017145,-9.777644854789973,-0.5895306577593088
1758974332985479400,3.3454794921875,0.46878450970202684,-9.777603353735804,-0.5908445168368518
1758974332995436500,3.3554365234375,0.4673827896779403,-9.77757412764132,-0.5924384349647909
1758974333005394400,3.36539453125,0.4655831198448315,-9.777563021725415,-0.5940390385618433
1758974333015351300,3.375351318359375,0.46362957462426274,-9.777568866944312,-0.5954648701138794
1758974333025308400,3.385308349609375,0.461818835407868,-9.777575881206989,-0.5967533755544573
1758974333035265500,3.395265625,0.46024132042545823,-9.777584649035335,-0.5978248041782528
1758974333045222400,3.405222412109375,0.4587491091063246,-9.777599262082576,-0.5987568973965942
1758974333055179300,3.41517919921875,0.4571965093694627,-9.777588740688563,-0.600117445160076
1758974333065136400,3.425136474609375,0.4555708078637719,-9.777564775291085,-0.6017364977292716
1758974333075094500,3.435094482421875,0.4540627413883805,-9.777502815970777,-0.6038461468270048
1758974333085051400,3.445051513671875,0.4525959567714482,-9.777422736471891,-0.6062607336880639
1758974333095008300,3.45500830078125,0.4509374855073169,-9.777359608107805,-0.6085296650007367
1758974333104965400,3.46496533203125,0.4490538637178018,-9.77733213557899,-0.6103332803566008
1758974333114922200,3.474922119140625,0.4471006107581779,-9.777336227232217,-0.611707856645435
1758974333124879400,3.48487939453125,0.44539011704586445,-9.777345579582452,-0.6128208959212527
1758974333134836500,3.49483642578125,0.44423729374893006,-9.777323952272534,-0.613990341559425
1758974333144794400,3.50479443359375,0.44373212070576845,-9.777259654864668,-0.6153823073744773
1758974333154751200,3.514751220703125,0.4435158110739663,-9.777177237278222,-0.6168493111871183
1758974333164708400,3.524708251953125,0.44285533787123854,-9.777113524392247,-0.6183386729620397
1758974333174665500,3.53466552734375,0.44119244616031644,-9.777087805429101,-0.6199084795620292
1758974333184622300,3.544622314453125,0.43841461547743527,-9.777134567180275,-0.6211613291673362
1758974333194579500,3.554579345703125,0.4349327647110447,-9.777222829985618,-0.6221942524116486
1758974333204536300,3.564536376953125,0.4312771648129448,-9.777319276097415,-0.6232416425727307
1758974333214494500,3.574494384765625,0.42803127822689707,-9.777387665158509,-0.6243841636713594
1758974333224451300,3.584451416015625,0.4254574456835165,-9.777396432986855,-0.6259939369555563
1758974333234408400,3.594408447265625,0.4235266602840274,-9.777333304622768,-0.628309666552022
1758974333244365600,3.604365478515625,0.42202264892924574,-9.777196526500582,-0.6314455534249543
1758974333254322200,3.614322265625,0.42076110456082966,-9.776993112882971,-0.6354270242765545
1758974333264279300,3.624279296875,0.4199455138616264,-9.776721310204266,-0.6401485729057341
1758974333274236400,3.634236328125,0.4197209478581324,-9.776415605255961,-0.6449455979239195
1758974333284194600,3.644194580078125,0.4205427491024136,-9.776075413516164,-0.6495156092531978
1758974333294151400,3.6541513671875,0.42234804495871064,-9.775724115860461,-0.6536242866810411
1758974333304108300,3.6641083984375,0.42438861087560653,-9.775438284656405,-0.6565799216162413
1758974333314065400,3.6740654296875,0.4259925754735246,-9.77527929470241,-0.6579003565650433
1758974333324022300,3.684022216796875,0.4275091905815527,-9.775257667392491,-0.6572361935678869
1758974333333979400,3.6939794921875,0.4300869686476886,-9.775282801833749,-0.655175169384852
1758974333343936500,3.7039365234375,0.4336545249361545,-9.775320795756578,-0.6522557017415762
1758974333353894400,3.713894287109375,0.4372947080694139,-9.775350606372951,-0.6493760546520352
1758974333363851300,3.723851318359375,0.4403388615382835,-9.775350606372951,-0.6473006366174667
1758974333373808400,3.733808349609375,0.44265484686307605,-9.775347099241614,-0.6457819756828248
1758974333383765500,3.743765625,0.4449025161920115,-9.775285724443197,-0.6451797720059752
1758974333393722400,3.753722412109375,0.4471190962629393,-9.775176418849826,-0.6453145773667842
1758974333403679500,3.763679443359375,0.4494403057521209,-9.77502035150528,-0.6460347814001143
1758974333413636400,3.77363623046875,0.45192233182620256,-9.774853178244829,-0.6468392296507954
1758974333423594500,3.783594482421875,0.4547498834023252,-9.774693019247055,-0.6472730910234152
1758974333433551400,3.79355126953125,0.45800358796864743,-9.774565008953212,-0.6469187246277928
1758974333443508500,3.803508544921875,0.46168494336251165,-9.774492528238891,-0.6454034977592528
1758974333453465300,3.81346533203125,0.4656143552333116,-9.77449720441401,-0.642472266612947
1758974333463422200,3.823422119140625,0.4695364605804905,-9.774564424431324,-0.6386018549203872
1758974333473379300,3.83337939453125,0.473038733080402,-9.774649180105328,-0.6347193874638527
1758974333483336400,3.84333642578125,0.47515627322364595,-9.774752055957913,-0.6315247561410069
1758974333493294600,3.853294677734375,0.4745753680631518,-9.774911630433797,-0.6294811945494264
1758974333503251500,3.86325146484375,0.4711248622830957,-9.775088156044482,-0.6293299495104699
1758974333513208600,3.87320849609375,0.4654384506771341,-9.775244223389029,-0.6311510274577885
1758974333523165700,3.883165771484375,0.45884811250139024,-9.775338331413268,-0.6345125397801399
1758974333533122600,3.89312255859375,0.4527198023468256,-9.775377494379878,-0.6383213574785739
1758974333543079700,3.90307958984375,0.44831689121276136,-9.775373987248539,-0.6414603861566632
1758974333553036800,3.913036865234375,0.44636294413339345,-9.775330732628703,-0.6434677804563194
1758974333562994700,3.92299462890625,0.4469333644324913,-9.77527871018052,-0.6438664243850857
1758974333572951600,3.93295166015625,0.4494511559396982,-9.775265266177058,-0.6423354154255241
1758974333582908700,3.94290869140625,0.45346422750595955,-9.77529799940288,-0.6390009372405707
1758974333592865800,3.95286572265625,0.4581355072526261,-9.77537457177043,-0.6344729384221136
1758974333602822700,3.96282275390625,0.4626726026929915,-9.775487384495138,-0.6294156550325453
1758974333612779500,3.972779541015625,0.4665119981927797,-9.775602535307407,-0.6247910639718175
1758974333622736600,3.982736572265625,0.4697662507483735,-9.77568904454708,-0.6209866301875561
1758974333632694800,3.99269482421875,0.4719610573789105,-9.77576386334896,-0.6181477534998208
1758974333642651600,4.002651611328125,0.47280346301980314,-9.775832836931944,-0.6163713914770632
1758974333652608500,4.0126083984375,0.47272710984796285,-9.775883690336347,-0.6156266375243663
1758974333662565600,4.022565673828125,0.4721535477437079,-9.775901225993037,-0.6157974640466273
1758974333672522500,4.0325224609375,0.47095012677069753,-9.775888951033354,-0.6169219380319119
1758974333682479600,4.042479736328125,0.46865047152619804,-9.775870246332882,-0.6189579739041626
1758974333692436700,4.052436767578125,0.46526324024070054,-9.775853295198083,-0.6217638981703668
1758974333702394600,4.06239453125,0.4610768579341471,-9.77585563328564,-0.6248604028809815
1758974333712351500,4.0723515625,0.4565380454607308,-9.775887781989574,-0.627682693760097
1758974333722308600,4.08230859375,0.4521665523782372,-9.775964938879012,-0.6296368965677916
1758974333732265700,4.092265625,0.4481848257983103,-9.776088857519627,-0.630551600259915
1758974333742222600,4.10222265625,0.44477516348529605,-9.776247262951731,-0.6305003815293312
1758974333752179700,4.1121796875,0.44211763471383597,-9.776389886292815,-0.6301827669475227
1758974333762136600,4.122136474609375,0.43963385507408526,-9.776508544236421,-0.6300727307017893
1758974333772094700,4.1320947265625,0.4370436193851754,-9.77658511660397,-0.6306956849057227
1758974333782051600,4.142051513671875,0.4341551314020529,-9.77662194148302,-0.6320992680933326
1758974333792008700,4.1520087890625,0.43099392742477355,-9.776649414011835,-0.6338372708670794
1758974333801965800,4.1619658203125,0.4278261475762352,-9.776669287756086,-0.6356692355345934
1758974333811922400,4.17192236328125,0.42440245673786847,-9.776709619766473,-0.6373487861193716
1758974333821879600,4.181879638671875,0.42079058638364075,-9.776763395780325,-0.6389313060704618
1758974333831836700,4.191836669921875,0.41715383731648326,-9.776800220659375,-0.6407342638392001
1758974333841793500,4.20179345703125,0.41360706808771935,-9.776794959962368,-0.6431145100392401
1758974333851751700,4.211751708984375,0.4095054049225524,-9.77677274813056,-0.646075917128101
1758974333861708500,4.22170849609375,0.40424715560078617,-9.776785607612133,-0.6491853543855249
1758974333871665700,4.231665771484375,0.3977806264678016,-9.776880300158261,-0.6517450488056987
1758974333881622500,4.24162255859375,0.3910123013766482,-9.777043966287374,-0.6533738921165466
1758974333891579600,4.25157958984375,0.38508163268603385,-9.777232182335853,-0.6540880317352712
1758974333901536800,4.261536865234375,0.38057573610153045,-9.777412215077877,-0.6540373975265771
1758974333911493600,4.27149365234375,0.3771465288378298,-9.777570620509982,-0.6536747747592627
1758974333921451500,4.281451416015625,0.37404260800573974,-9.777709736719727,-0.6533679007671773
1758974333931408600,4.29140869140625,0.3704864133615047,-9.777843592232465,-0.6533884320985526
1758974333941365800,4.30136572265625,0.36601449211183934,-9.778009596449136,-0.6534207269329577
1758974333951322600,4.311322509765625,0.36104119721129535,-9.778211841022967,-0.6531704784989356
1758974333961279700,4.32127978515625,0.35587263546697795,-9.778435712906719,-0.6526327914256602
1758974333971236600,4.331236572265625,0.35071784651968624,-9.778677704969049,-0.651807154256478
1758974333981193500,4.341193359375,0.34572617571223524,-9.778910929203033,-0.650951852601394
1758974333991151600,4.351151611328125,0.3411990902092308,-9.77910265238285,-0.6504632653668523
1758974334001108700,4.361108642578125,0.33702403301429,-9.779242353114485,-0.6505635108709334
1758974334011065600,4.371065673828125,0.33250461936108766,-9.779360426536202,-0.6511146419476718
1758974334021022500,4.3810224609375,0.3275743598846719,-9.779479084479808,-0.651829366088286
1758974334030979600,4.3909794921875,0.32218641976863144,-9.779636320868134,-0.6521616667825728
1758974334040936700,4.400936767578125,0.31610779397469013,-9.779846164226532,-0.6519895250860601
1758974334050893600,4.4108935546875,0.3097857878789306,-9.780078803938627,-0.651533744142577
1758974334060851500,4.4208515625,0.30393092437088487,-9.780303260344267,-0.6509096939601003
1758974334070808600,4.43080859375,0.2989056070221588,-9.7804996596992,-0.6502732226874679
1758974334080765700,4.440765625,0.2946844091305509,-9.780644036605954,-0.6500270659066736
1758974334090722600,4.45072265625,0.29067047904776405,-9.780745743414759,-0.6502963843673467
1758974334100679700,4.4606796875,0.2864122736140154,-9.780829330044984,-0.6509557981241494
1758974334110636800,4.47063671875,0.2821657951506786,-9.780919346415995,-0.6514664510600269
1758974334120593700,4.48059375,0.27855027153464035,-9.781019299659132,-0.6515004263948648
1758974334130551600,4.490551513671875,0.27551733357952907,-9.781157831346988,-0.6507132946051657
1758974334140508700,4.5005087890625,0.27311978918481616,-9.781309222516416,-0.6494461972787976
1758974334150465800,4.5104658203125,0.27094162316182624,-9.781465289860963,-0.64800323192887
1758974334160422700,4.520422607421875,0.2684027523339726,-9.78161843459606,-0.6467438795175403
1758974334170379500,4.530379638671875,0.2650862847297452,-9.781740599671005,-0.6462704898521304
1758974334180336600,4.540336669921875,0.2604429159033112,-9.781851074308156,-0.6464785065796226
1758974334190293500,4.55029345703125,0.25454386619366703,-9.781963887032866,-0.6471371896840632
1758974334200250600,4.560250732421875,0.24791460251333192,-9.782076115235686,-0.6480155799537897
1758974334210208800,4.570208740234375,0.24136300717908887,-9.782186005350948,-0.6488265310104936
1758974334220165600,4.58016552734375,0.23576020046966148,-9.782278359809517,-0.6495023113802075
1758974334230122500,4.59012255859375,0.23152594216708092,-9.782324537038802,-0.6503193999167531
1758974334240079600,4.60007958984375,0.22819681601068004,-9.782333304867148,-0.6513543689876794
1758974334250036700,4.61003662109375,0.22523237671451643,-9.782316938254237,-0.6526371753398329
1758974334259993600,4.61999365234375,0.22258547893492503,-9.782276021721959,-0.6541540096435695
1758974334269950700,4.62995068359375,0.22045064059700817,-9.782240950408577,-0.6554012332256883
1758974334279908600,4.63990869140625,0.2191327811977826,-9.782219323098658,-0.6561654955964535
1758974334289865700,4.64986572265625,0.21855788565296677,-9.78221756953299,-0.6563900981325655
1758974334299822600,4.659822509765625,0.21860895825307816,-9.782228090927005,-0.6562272357210517
1758974334309779700,4.66977978515625,0.21882537748273462,-9.78223744327724,-0.656003802228719
1758974334319736800,4.67973681640625,0.21890622416660188,-9.782235105189681,-0.6560175384931266
1758974334329693400,4.689693359375,0.21842961963079868,-9.782222830229998,-0.6563716856930405
1758974334339650600,4.699650634765625,0.21747427340103312,-9.782204125529526,-0.6569702361080795
1758974334349608700,4.709608642578125,0.21640216892380265,-9.782177237522601,-0.6577126519732177
1758974334359565800,4.71956591796875,0.21525772986272348,-9.782136905512212,-0.6586731675684452
1758974334369522700,4.729522705078125,0.2137841136462055,-9.78208839019537,-0.6598626696139573
1758974334379479600,4.7394794921875,0.2119347046535462,-9.782022923743725,-0.6614374446500092
1758974334389436700,4.749436767578125,0.20995783335631713,-9.781958041813969,-0.6630422494981437
1758974334399393500,4.7593935546875,0.20814623562339693,-9.78190251223445,-0.6644212827663868
1758974334409350700,4.7693505859375,0.20666140389312057,-9.781877377793192,-0.6652529843501747
1758974334419307800,4.779307861328125,0.20522024690778926,-9.781885561099648,-0.6655803896736353
1758974334429265700,4.789265625,0.20337264627972618,-9.781949273985624,-0.665193509247899
1758974334439222500,4.799222412109375,0.20047807561568914,-9.782058579578996,-0.6644787120420486
1758974334449179600,4.8091796875,0.19606763876229524,-9.782214646923542,-0.6635059945523738
1758974334459136800,4.81913671875,0.19028943895334377,-9.782397602275013,-0.6624731443732976
1758974334469093600,4.82909375,0.1838483182562515,-9.782579388582706,-0.6616092940855771
1758974334479050800,4.83905078125,0.17715669339681042,-9.7827383785367,-0.6610846856895833
1758974334489007400,4.84900732421875,0.1701591626596637,-9.782847684130072,-0.6613197365544736
1758974334498965000,4.858965087890625,0.16230401044618337,-9.78290788988471,-0.6623933571353554
1758974334508922000,4.868922119140625,0.15309985477654262,-9.782938285022974,-0.6641279989082366
1758974334518879200,4.878879150390625,0.14264189965352414,-9.782967511117457,-0.6660050448264926
1758974334528836000,4.888836181640625,0.13122095385040156,-9.783024794262648,-0.6675313045457005
1758974334538793000,4.89879296875,0.11900072002890519,-9.783121824896336,-0.6683925244849175
1758974334548750000,4.90875,0.10579493663562461,-9.783247497102618,-0.6687742903441191
1758974334558707200,4.918707275390625,0.09121594692668877,-9.783386613312363,-0.6688936789400876
1758974334568664000,4.9286640625,0.07489953896589577,-9.783528652131556,-0.6688362496644258
1758974334578622200,4.938622314453125,0.0569753807146335,-9.783664845731854,-0.6686255295231938
1758974334588579000,4.9485791015625,0.037598002864199224,-9.783761876365542,-0.6685871702741831
1758974334598536000,4.958535888671875,0.016769398725568315,-9.783822666642068,-0.6685206809092312
1758974334608493000,4.9684931640625,-0.00556657377295487,-9.78383961777687,-0.6684378979966044
1758974334618450200,4.9784501953125,-0.029140231415338346,-9.783755446624756,-0.669066770484671
1758974334628407300,4.9884072265625,-0.05398682075736578,-9.783563723444939,-0.6703311643972992
1758974334638364200,4.9983642578125,-0.08036638040388934,-9.78328198389411,-0.6718097125172615
1758974334648322000,5.008322021484375,-0.10862740184888243,-9.782892107793689,-0.6735022687140851
1758974334658279200,5.018279052734375,-0.13898932282957246,-9.782361361917852,-0.6756150961495936
1758974334668236000,5.028236083984375,-0.17144260833263397,-9.78165935112834,-0.6783121532138436
1758974334678193200,5.038193115234375,-0.2063615989626385,-9.780758018374442,-0.68161302139014
1758974334688150300,5.048150390625,-0.24438211753824723,-9.77964450417459,-0.6849860049545764
1758974334698107100,5.058107177734375,-0.2856881605905481,-9.778308287134767,-0.6880944192986935
1758974334708064000,5.06806396484375,-0.32995807668343186,-9.776710788810252,-0.6909805691942572
1758974334718021000,5.078021240234375,-0.3766456666436046,-9.774801155796647,-0.6941067383907735
1758974334727979300,5.087979248046875,-0.4251714318163693,-9.77253905608356,-0.6979141678497195
1758974334737936100,5.09793603515625,-0.474767091242969,-9.769901693317294,-0.7028442446630447
1758974334747893000,5.10789306640625,-0.5253138043167069,-9.766884391322732,-0.708797380913794
1758974334757850000,5.11785009765625,-0.5773474680125713,-9.76343571217358,-0.7158048485230654
1758974334767807200,5.12780712890625,-0.6323954745609313,-9.75944576575458,-0.7236519087616354
1758974334777764000,5.13776416015625,-0.6917454160869121,-9.754768421593308,-0.7323467449359595
1758974334787721200,5.14772119140625,-0.7562452877219766,-9.74926164087057,-0.7418680219970643
1758974334797679000,5.15767919921875,-0.8252524076484143,-9.742880999922752,-0.752072385951504
1758974334807636000,5.167635986328125,-0.8978066986624151,-9.735635851100087,-0.7627233976949006
1758974334817593000,5.177593017578125,-0.9729984985731541,-9.727494630220532,-0.774279249323532
1758974334827550200,5.18755029296875,-1.0507244931366293,-9.718405314835906,-0.7867567458417266
1758974334837507300,5.19750732421875,-1.1321110560342669,-9.70808441182971,-0.8011278740867972
1758974334847464200,5.207464111328125,-1.219389599579945,-9.696069564387201,-0.8183578988943249
1758974334857421000,5.217421142578125,-1.3151225216075777,-9.6817476090461,-0.8394066052071749
1758974334867378200,5.227378173828125,-1.419709562024474,-9.664749127972126,-0.8645497412268072
1758974334877336000,5.237336181640625,-1.531017873520404,-9.645018591585755,-0.8944125992447137
1758974334887293200,5.247293212890625,-1.6472968130357561,-9.622619128251076,-0.9284401757266372
1758974334897250000,5.25725,-1.770061607439071,-9.597356676700711,-0.9633264148645102
1758974334907207000,5.26720703125,-1.9032405360899864,-9.568209492671489,-0.9987040177159011
1758974334917164000,5.2771640625,-2.049607155355066,-9.533810963985323,-1.0372752289768308
1758974334927121200,5.28712109375,-2.206602574531734,-9.493445051327347,-1.0843467036880552
1758974334937078300,5.297078369140625,-2.3674622679211197,-9.447489355838298,-1.1447508304420857
1758974334947036000,5.307035888671875,-2.5220561789140103,-9.397672893267869,-1.2220316385213286
1758974334956993000,5.316992919921875,-2.6662580213606355,-9.345945044118166,-1.309494306462258
1758974334966950100,5.3269501953125,-2.8063860384970902,-9.292568258717656,-1.3938297092281282
1758974334976907000,5.336906982421875,-2.9480305976763366,-9.237661779531836,-1.4646265621155499
1758974334986864000,5.346864013671875,-3.089965956495702,-9.18259923300147,-1.517366072525829
1758974334996821200,5.3568212890625,-3.2285148877471683,-9.128787563315033,-1.5531709608785806
1758974335006778400,5.3667783203125,-3.3622318687975405,-9.076728874775768,-1.5744076640442013
1758974335016735000,5.37673486328125,-3.4952553146257994,-9.024899903339147,-1.58263904742524
1758974335026693000,5.386693115234375,-3.635439445863664,-8.969534574469924,-1.581578432456404
1758974335036650200,5.396650146484375,-3.784706462745368,-8.908206537804007,-1.5780455821551382
1758974335046607000,5.406607177734375,-3.938487742181122,-8.841424327385425,-1.5773061619646846
1758974335056564000,5.41656396484375,-4.090465771587192,-8.77118057833612,-1.5826738264776765
1758974335066521000,5.42652099609375,-4.237748336653411,-8.700007439482212,-1.5879881533682345
1758974335076478200,5.436478271484375,-4.378726540878415,-8.630916367599367,-1.5825380712687969
1758974335086435000,5.44643505859375,-4.512799203498661,-8.565516551449894,-1.5610751581318676
1758974335096393200,5.456393310546875,-4.640209193359315,-8.504148182773589,-1.5225895062625407
1758974335106350000,5.46635009765625,-4.7647784068360926,-8.44457897247374,-1.4684487507522106
1758974335116307000,5.476306884765625,-4.888324999266863,-8.384296645468472,-1.4065085735373197
1758974335126264000,5.48626416015625,-5.0073143667846916,-8.323139873716235,-1.3500326530776918
1758974335136221200,5.49622119140625,-5.121010304069519,-8.259913894474506,-1.311284697010368
1758974335146178300,5.50617822265625,-5.231274513339996,-8.19392371121645,-1.2898640155799685
1758974335156135200,5.51613525390625,-5.3395051709562535,-8.125417161223291,-1.2797034177020192
1758974335166092000,5.526092041015625,-5.4469262657552955,-8.054614609247446,-1.2745870976015925
1758974335176050200,5.53605029296875,-5.553932934534549,-7.9818229292809955,-1.2707193162575363
1758974335186007000,5.546007080078125,-5.662015123590827,-7.905739806553721,-1.269352996340394
1758974335195964200,5.555964111328125,-5.773879169273376,-7.82336313664019,-1.2758251149639486
1758974335205921300,5.56592138671875,-5.890728602153063,-7.7321181006163355,-1.2977179439507425
1758974335215878100,5.575878173828125,-6.012288696941733,-7.631257679507136,-1.3366453482382
1758974335225836000,5.5858359375,-6.135885850515962,-7.523101256170868,-1.3871778501234948
1758974335235793200,5.595793212890625,-6.254439749225973,-7.414228208997845,-1.442753753003478
1758974335245750300,5.605750244140625,-6.363049761548638,-7.312069564771652,-1.488506034874916
1758974335255707100,5.61570703125,-6.461603659281134,-7.2208356346637,-1.5091750211551784
1758974335265664000,5.6256640625,-6.552952740201354,-7.139021859329938,-1.5045130206935107
1758974335275621000,5.63562109375,-6.6416141894727945,-7.059169739457965,-1.492465293894708
1758974335285578000,5.645577880859375,-6.731592566561699,-6.974016590568423,-1.4896911530062555
1758974335295535000,5.65553515625,-6.823090700563788,-6.882664587038755,-1.49823847046867
1758974335305493000,5.665492919921875,-6.9155153017610305,-6.786329534399509,-1.5138484197936952
1758974335315450000,5.6754501953125,-7.008161436754465,-6.686414285185933,-1.5322933002837
1758974335325407000,5.685406982421875,-7.09888449473083,-6.58550417971611,-1.5515595801591873
1758974335335364000,5.695364013671875,-7.18467418795824,-6.488208757612109,-1.5665205640561877
1758974335345321200,5.7053212890625,-7.264121234160661,-6.397022758299112,-1.575124287880957
1758974335355278000,5.715278076171875,-7.338770524692535,-6.30978052817583,-1.5809828046508132
1758974335365235200,5.725235107421875,-7.413048643824458,-6.219617442169785,-1.591687592408061
1758974335375193000,5.735193115234375,-7.490208455872535,-6.121319565024971,-1.6113921175703405
1758974335385150200,5.745150146484375,-7.568342665910721,-6.016086335659026,-1.6423602334164082
1758974335395107000,5.755107177734375,-7.6429516244322055,-5.909000756424665,-1.6850481592811644
1758974335405064200,5.765064208984375,-7.712944613590836,-5.802822355163097,-1.7343948123827575
1758974335415021000,5.77502099609375,-7.77903299652636,-5.699630276235938,-1.7807941599860786
1758974335424978000,5.78497802734375,-7.843317544910311,-5.599667680749297,-1.8156161747813224
1758974335434935000,5.79493505859375,-7.907890262585878,-5.500162181380391,-1.8395375869862733
1758974335444892200,5.80489208984375,-7.973501091137528,-5.3976154146194455,-1.8599445613294838
1758974335454850300,5.814850341796875,-8.040074627241491,-5.290628035062551,-1.8806475960098206
1758974335464807000,5.824806884765625,-8.107077786934376,-5.180252766633034,-1.9001796872146426
1758974335474764000,5.834763916015625,-8.174327614864707,-5.068916544216871,-1.9122852816805243
1758974335484721200,5.84472119140625,-8.241526589390634,-4.957170571956039,-1.9167821547083554
1758974335494678300,5.85467822265625,-8.309778287839888,-4.841386430220306,-1.9180473523385821
1758974335504635400,5.864635498046875,-8.38029033243656,-4.717955280862748,-1.9188671442888676
1758974335514592300,5.87459228515625,-8.450772566416859,-4.588215679010749,-1.9243425069600342
1758974335524549000,5.884549072265625,-8.518595225799084,-4.454447260034084,-1.9395304314807056
1758974335534507300,5.89450732421875,-8.583003692823649,-4.319308429487049,-1.9611159480839966
1758974335544464400,5.90446435546875,-8.646423733332753,-4.183131780324876,-1.9776720922179518
1758974335554421200,5.914421142578125,-8.712334421613813,-4.044105294689536,-1.9775961043722927
1758974335564378400,5.92437841796875,-8.779637441036105,-3.902382994098961,-1.9646277555972336
1758974335574957300,5.934957275390625,-8.849534568604826,-3.748730309478938,-1.9501649304807185
1758974335584914200,5.9449140625,-8.91286225465536,-3.5996561848208306,-1.9426130537964403
1758974335594871300,5.954871337890625,-8.973802753308416,-3.446790266664326,-1.9392925310716032
1758974335604828400,5.964828369140625,-9.033164458337426,-3.2888553746804594,-1.9379713654704391
1758974335614785300,5.974785400390625,-9.091739396902918,-3.1242423201069234,-1.9364437175117433
1758974335624742100,5.9847421875,-9.147722565409541,-2.9573975609585643,-1.9347734462119637
1758974335634700300,5.9947001953125,-9.199519388142228,-2.7909929467931387,-1.9363922795854507
1758974335644657400,6.004657470703125,-9.246860985031724,-2.624858381740749,-1.9432247559539972
1758974335654614300,6.0146142578125,-9.288086144867538,-2.456322893026471,-1.9668106525942681
1758974335664571400,6.0245712890625,-9.325817032846809,-2.277324608617276,-2.003316674953699
1758974335674528300,6.0345283203125,-9.362799732807279,-2.0818311164811254,-2.043114578465372
1758974335684485000,6.044485107421875,-9.394579018905759,-1.879055212251842,-2.093181508665532
1758974335694442200,6.054442138671875,-9.418796929839253,-1.6846840021438896,-2.149070715278387
1758974335704400400,6.064400390625,-9.439900508144497,-1.5047301705755292,-2.1896305430732665
1758974335714357200,6.074357177734375,-9.46259398598969,-1.3350883280545471,-2.2016446598634123
1758974335724314000,6.084314208984375,-9.485536470159888,-1.1747186832044272,-2.194315924410522
1758974335734271200,6.094271240234375,-9.506779164674878,-1.0265086280297486,-2.1766566413402555
1758974335744228400,6.104228271484375,-9.528021859189867,-0.889462283360958,-2.143833253016323
1758974335754185200,6.114185302734375,-9.54944517096877,-0.762040091605857,-2.0970973669350146
1758974335764142300,6.124142333984375,-9.569056464889645,-0.6413545876946299,-2.047495862289518
1758974335774099500,6.134099365234375,-9.587022914212941,-0.5266305494710802,-1.9954960643306374
1758974335784057000,6.14405712890625,-9.603506431502103,-0.41566564458534117,-1.9417086523026226
1758974335794014200,6.15401416015625,-9.617680502805113,-0.30689971104860303,-1.8911450246267019
1758974335803971300,6.163971435546875,-9.62990344004035,-0.1979628231254406,-1.8428681927137076
1758974335813928400,6.173928466796875,-9.639503043034672,-0.085261239773361,-1.800865618764609
1758974335823885300,6.18388525390625,-9.647372461235523,0.02821388980105985,-1.7600389567270873
1758974335833842200,6.19384228515625,-9.655295655450225,0.13682167820059693,-1.71082601300776
1758974335843799300,6.20379931640625,-9.662419223719835,0.23643044614773243,-1.6589572940826416
1758974335853757200,6.213757080078125,-9.668095515790581,0.32867223812397567,-1.6094273933686316
1758974335863714300,6.22371435546875,-9.671534258067608,0.41467013074196873,-1.568420844719559
1758974335873671200,6.233671142578125,-9.671011695498228,0.4981947285816073,-1.5471714282028377
1758974335883628300,6.243628173828125,-9.66630863237381,0.5886079168912023,-1.544813466899842
1758974335893585200,6.253585205078125,-9.658288992047309,0.691371102881804,-1.5523564296253025
1758974335903542300,6.263542236328125,-9.646432550036907,0.8007257960919291,-1.5733995099149642
1758974335913499400,6.27349951171875,-9.629683075287938,0.9003118133511394,-1.6214429714635012
1758974335923457000,6.28345703125,-9.608023032143711,0.9706723937131464,-1.7070589155592024
1758974335933414100,6.2934140625,-9.58665232733488,1.006449151949957,-1.8037461426369845
1758974335943371300,6.303371337890625,-9.577454290878773,1.0072592992890625,-1.8515411823824046
1758974335953328400,6.313328369140625,-9.588376082387565,0.9788740395430475,-1.8097602883599697
1758974335963285200,6.32328515625,-9.610348260220885,0.9352684873767196,-1.7137245109282433
1758974335973242400,6.333242431640625,-9.633786418953537,0.8857728542584925,-1.6049978864885865
1758974335983199200,6.34319921875,-9.651047934877871,0.8436131900515407,-1.5218462866798041
1758974335993157000,6.3531572265625,-9.658421678516268,0.8212213985666632,-1.486892754459381
1758974336003114200,6.3631142578125,-9.656661098584532,0.8216842668380587,-1.4980359336338935
1758974336013071400,6.3730712890625,-9.649347560700773,0.8401253479357809,-1.5345089305065571
1758974336023028500,6.383028564453125,-9.640020344907045,0.8692808614019304,-1.5763137899264692
1758974336032985000,6.392985107421875,-9.630762687218189,0.9028128363866359,-1.6136122778378426
1758974336042942200,6.402942138671875,-9.622835985872149,0.9347402257189155,-1.6424444045685231
1758974336052899300,6.4128994140625,-9.616654666888714,0.9616622079793363,-1.6629926870785652
1758974336062857200,6.422857177734375,-9.611910102710127,0.982756872325763,-1.678018552905321
1758974336072814300,6.432814453125,-9.607786300778388,0.9996649717025459,-1.691601380316913
1758974336082771200,6.442771240234375,-9.60364028701484,1.0138604511197655,-1.7066133637487888
1758974336092728000,6.45272802734375,-9.598874680048226,1.025803475435078,-1.7261824259631335
1758974336102685200,6.462685302734375,-9.593245734250544,1.0345634858001023,-1.7520466427989303
1758974336112642300,6.472642333984375,-9.58656114192009,1.0403115279328077,-1.7849280449204146
1758974336122599400,6.482599365234375,-9.579000351276994,1.0442259248975663,-1.8228338510751723
1758974336132557000,6.49255712890625,-9.57134019191265,1.0468356690045446,-1.8611679656445979
1758974336142514200,6.50251416015625,-9.56473977073431,1.0485212840039282,-1.893868019849807
1758974336152471300,6.51247119140625,-9.559957797154784,1.0490326675921677,-1.9175892333075404
1758974336162428200,6.52242822265625,-9.55666343178451,1.0475954013306648,-1.9347113407611847
1758974336172385300,6.53238525390625,-9.554454523563384,1.045405855397135,-1.9467723654329776
1758974336182342400,6.54234228515625,-9.551996609017252,1.045134856436029,-1.958923990997672
1758974336192299300,6.55229931640625,-9.54797276032865,1.0487549466293304,-1.9765498101897536
1758974336202257200,6.562257080078125,-9.54306920619607,1.0530606809992342,-1.9978185159288346
1758974336212214300,6.57221435546875,-9.537404020041226,1.0552818641800432,-2.0235240350715813
1758974336222171400,6.58217138671875,-9.53084860704839,1.05416199330464,-2.054770821728557
1758974336232128300,6.592128173828125,-9.523587091612816,1.050488346293196,-2.090003170890361
1758974336242085000,6.602085205078125,-9.515961419039964,1.0459528948206454,-2.1267007702991365
1758974336252042200,6.612042236328125,-9.508327563160657,1.0410784937173128,-2.162921399845928
1758974336261999400,6.621999267578125,-9.501153726008534,1.0367385648168623,-2.1962790411770343
1758974336271957200,6.631957275390625,-9.494994618856907,1.033829326306656,-2.2241215723484755
1758974336281914000,6.6419140625,-9.490357022184133,1.0322727445144206,-2.2445305925183
1758974336291871200,6.651871337890625,-9.48691126564443,1.0323307583119719,-2.259036087732762
1758974336301828000,6.661828125,-9.483918513569236,1.0341698833726345,-2.2707092821307477
1758974336311785200,6.67178515625,-9.48077612389028,1.0372221105501056,-2.282424123713374
1758974336321742300,6.681742431640625,-9.477043951624632,1.039788673102483,-2.2967165606990454
1758974336331699500,6.691699462890625,-9.47292716395557,1.039450746385008,-2.3137739323534072
1758974336341656300,6.70165625,-9.469371517300605,1.0355988932624458,-2.3300166266240177
1758974336351614200,6.7116142578125,-9.467351994171738,1.0299842682510614,-2.3406802055880425
1758974336361571300,6.7215712890625,-9.466928215801715,1.024896078266576,-2.3446137456446885
1758974336371528200,6.731528076171875,-9.467145657944679,1.021246396652609,-2.3453397218316794
1758974336381485300,6.7414853515625,-9.467086036711931,1.018910793311894,-2.346590160284191
1758974336391442200,6.751442138671875,-9.466223282402753,1.0168536415863783,-2.3509489400155843
1758974336401399300,6.7613994140625,-9.464172195091843,1.0142409018047154,-2.3603335850849745
1758974336411356200,6.771356201171875,-9.461263614168763,1.010519323998317,-2.373539103616774
1758974336421314300,6.781314208984375,-9.458235790780186,1.0051877537120133,-2.3878271566882727
1758974336431271400,6.791271484375,-9.45576677031815,0.9968813323333859,-2.4010639471411706
1758974336441228000,6.80122802734375,-9.453929618018865,0.9849837545949965,-2.4131642809100446
1758974336451185200,6.81118505859375,-9.453505255126952,0.9700383335933088,-2.420870032981783
1758974336461142300,6.821142333984375,-9.45334217351973,0.9518906094189733,-2.428703941477835
1758974336471099100,6.83109912109375,-9.451479886779188,0.9317997152876109,-2.443691521120816
1758974336481056300,6.84105615234375,-9.448802192002534,0.9141034612078219,-2.460671735885739
1758974336491014100,6.85101416015625,-9.448042313545942,0.9007985008895396,-2.4684943923354146
1758974336500971000,6.860970947265625,-9.451374088317156,0.8893596267040819,-2.4598688950702545
1758974336510928100,6.87092822265625,-9.459703525245189,0.8739747183065861,-2.433219519206136
1758974336520885200,6.88088525390625,-9.473287229439615,0.8484155488319695,-2.389017973908037
1758974336530842000,6.890842041015625,-9.491789100813865,0.8111031054604798,-2.327758764694631
1758974336540799200,6.90079931640625,-9.512141568490863,0.7645951829161495,-2.2594221644409
1758974336550756000,6.910756103515625,-9.528116551735996,0.7215859161425382,-2.2055988043166694
1758974336560713000,6.920712890625,-9.533041733178496,0.708815428027138,-2.188409330715239
1758974336570671000,6.930671142578125,-9.52732744718492,0.7372679808557033,-2.2038402702115474
1758974336580628200,6.940628173828125,-9.51482920013964,0.7860661332290619,-2.2406503900840877
1758974336590585300,6.95058544921875,-9.498061020690201,0.8256671989943831,-2.2968441326014695
1758974336600542000,6.9605419921875,-9.479365088048576,0.8454373367387801,-2.365862869900465
1758974336610499000,6.9704990234375,-9.46488531179726,0.8531639854680746,-2.420413959777355
1758974336620456200,6.980456298828125,-9.459432307088374,0.8588084210958331,-2.4396727869987487
1758974336630413000,6.9904130859375,-9.463968196952342,0.8648399563450365,-2.4198640708096324
1758974336640371200,7.00037109375,-9.47561070395112,0.8684596081469208,-2.3725493619270623
1758974336650328000,7.010328125,-9.490762095853686,0.8669242152731865,-2.311769022271782
1758974336660285200,7.02028515625,-9.506400394490361,0.8606251881942153,-2.249009783758968
1758974336670242000,7.030241943359375,-9.519749705407023,0.8553785927776246,-2.1938794326893984
1758974336680199200,7.04019921875,-9.529539278015493,0.8584648683551699,-2.149730494361371
1758974336690156300,7.05015625,-9.533362051174045,0.8751034300755709,-2.1259362156674264
1758974336700113200,7.060113037109375,-9.528814470872282,0.90533453688398,-2.1336355379983782
1758974336710070000,7.070070068359375,-9.516644140607118,0.9446221527859568,-2.1706065475210545
1758974336720028200,7.080028076171875,-9.500318444228173,0.9826051158301532,-2.2245953273400665
1758974336729985300,7.0899853515625,-9.483421085441112,1.0089474715717137,-2.284104624146223
1758974336739942100,7.099942138671875,-9.469220126131177,1.021864309355244,-2.3366724312514067
1758974336749899300,7.109899169921875,-9.460250053212047,1.0269178664177656,-2.3705514661081133
1758974336759856000,7.119856201171875,-9.456712526735663,1.0298761317014693,-2.3833532261446115
1758974336769813000,7.12981298828125,-9.45658685452938,1.032889122847095,-2.382532703541964
1758974336779770000,7.13977001953125,-9.458420499697327,1.0365114780627191,-2.3736779275655744
1758974336789727200,7.149727294921875,-9.460658049491048,1.0432855022422969,-2.361757772669196
1758974336799685000,7.15968505859375,-9.46255540754497,1.0544920289766042,-2.3491353147223593
1758974336809642000,7.16964208984375,-9.46421544971168,1.0677611873291433,-2.336424886231124
1758974336819599000,7.17959912109375,-9.464785943076015,1.079371910950169,-2.3287637039534745
1758974336829556200,7.18955615234375,-9.46447439290881,1.0862454499814658,-2.326847641199082
1758974336839513000,7.19951318359375,-9.463630927821994,1.0889229255624115,-2.3290208935849366
1758974336849470200,7.20947021484375,-9.463048744019865,1.090150275400281,-2.330808653784543
1758974336859427300,7.21942724609375,-9.463636188519,1.092030828449875,-2.3275417609430846
1758974336869385200,7.22938525390625,-9.46516529778242,1.093720023645833,-2.3205086474359033
1758974336879342000,7.239342041015625,-9.466945166936517,1.0930214469224213,-2.313587177609652
1758974336889299200,7.24929931640625,-9.468099013146757,1.089073513014242,-2.310710599260032
1758974336899256300,7.25925634765625,-9.469498358550668,1.08070798185952,-2.3088996043153105
1758974336909213200,7.269213134765625,-9.472286527964473,1.0674375813979655,-2.303645629309863
1758974336919170000,7.279170166015625,-9.4769153568089,1.0494781463373453,-2.292815753868222
1758974336929127200,7.289127197265625,-9.483153958937525,1.0273050391044467,-2.2770209494955838
1758974336939084000,7.299083984375,-9.489868361884355,1.0025498064238578,-2.2600180845074354
1758974336949042200,7.309042236328125,-9.496189381599425,0.9781362267877906,-2.244097754058987
1758974336958999000,7.3189990234375,-9.501205163934827,0.9577763795219362,-2.231636039631814
1758974336968956200,7.3289560546875,-9.503815638694167,0.9439369470007717,-2.226407491328567
1758974336978913000,7.3389130859375,-9.504121928164363,0.9359823347344994,-2.2284558021605014
1758974336988870100,7.3488701171875,-9.50338016988635,0.9316998351097107,-2.2333998344339427
1758974336998827300,7.3588271484375,-9.502519169142841,0.9303726781591772,-2.2376130682148037
1758974337008784100,7.3687841796875,-9.501994268485904,0.9303054581418633,-2.239866107838601
1758974337018741200,7.3787412109375,-9.502246197420359,0.9289734058205038,-2.2393466140091416
1758974337028699100,7.38869921875,-9.50322936323881,0.926201237693429,-2.2363300426669417
1758974337038656300,7.39865625,-9.50444166163802,0.9244453339368104,-2.231895421220362
1758974337048613000,7.408613037109375,-9.505075867888332,0.9258764627184718,-2.2286025171548127
1758974337058570200,7.4185703125,-9.504459197294711,0.9300540406640618,-2.229496835646033
1758974337068527000,7.428527099609375,-9.502749470767379,0.9343692004494368,-2.2349688373163343
1758974337078484000,7.43848388671875,-9.50058147907853,0.9364924762137233,-2.2432721168898047
1758974337088441000,7.448441162109375,-9.49851227158904,0.9357408541288226,-2.252344919531047
1758974337098398200,7.458398193359375,-9.496894899520278,0.9331358592621981,-2.2602378647379577
1758974337108356400,7.4683564453125,-9.495693707036972,0.9308483328469097,-2.2662071484059094
1758974337118313000,7.47831298828125,-9.494668455642461,0.9308525706306099,-2.270495054858178
1758974337128270000,7.48827001953125,-9.493694642174244,0.9328518546890466,-2.2737582944378256
1758974337138227200,7.498227294921875,-9.492882156747578,0.9357602164164185,-2.2759406069129704
1758974337148184000,7.50818408203125,-9.491987253734468,0.9394807713095098,-2.2781410395666954
1758974337158141200,7.51814111328125,-9.49038215662539,0.9453807160682975,-2.282387006573379
1758974337168098300,7.528098388671875,-9.48829073730409,0.9541478868264704,-2.287432745655626
1758974337178056200,7.53805615234375,-9.487039275938272,0.9627286681670695,-2.289023083586991
1758974337188013000,7.548012939453125,-9.486976732096075,0.966903615764156,-2.2875286072455343
1758974337197970200,7.55797021484375,-9.487444934129714,0.9670344025369733,-2.2855279349476096
1758974337207927300,7.56792724609375,-9.48786578989029,0.9661693101402371,-2.2841408645033834
1758974337217884200,7.57788427734375,-9.488576568508147,0.9666258217360824,-2.280983423385769
1758974337227841000,7.587841064453125,-9.489981759130954,0.9680405839048325,-2.2745541209906337
1758974337237798100,7.597798095703125,-9.49191068136692,0.9694443862881511,-2.265876747407764
1758974337247755000,7.607755126953125,-9.493938387802242,0.9707517425596713,-2.256813881638646
1758974337257713200,7.617713134765625,-9.495357022428513,0.9723210377030074,-2.250159976707399
1758974337267670300,7.627670166015625,-9.495557513436674,0.9741494221739471,-2.248506218151003
1758974337277627100,7.637627197265625,-9.494395483919977,0.9754644502952694,-2.252855645532161
1758974337287584000,7.647583984375,-9.492446103417873,0.9758731041613966,-2.260866371899843
1758974337297541000,7.657541015625,-9.490280449816584,0.9758133367981762,-2.269966939330846
1758974337307498200,7.667498291015625,-9.488415240466594,0.9759534759212285,-2.2777046939760446
1758974337317455000,7.677455078125,-9.487199434936047,0.9764823221009225,-2.2825321141324935
1758974337327412200,7.687412109375,-9.486602638086676,0.9772825325679033,-2.2846638654641804
1758974337337370000,7.6973701171875,-9.48665056888163,0.9785285140410065,-2.2839359895810483
1758974337347327200,7.7073271484375,-9.487297050091623,0.9800367266468704,-2.2805936934158204
1758974337357284000,7.7172841796875,-9.488263264775275,0.9812588888529687,-2.276040267895162
1758974337367241200,7.7272412109375,-9.489148815438151,0.9816592132821679,-2.272180231466144
1758974337377198300,7.7371982421875,-9.489735675415396,0.9810179197039455,-2.2700065406888723
1758974337387155000,7.747155029296875,-9.489999879309535,0.9797796831458806,-2.269423187842965
1758974337397112000,7.757112060546875,-9.490107431337236,0.9783543995831161,-2.269598836670816
1758974337407069200,7.767069091796875,-9.490277527207136,0.9766730954326689,-2.2696118422828615
1758974337417027300,7.77702734375,-9.490640515300631,0.9748745946433395,-2.2688732988752425
1758974337426984200,7.786984130859375,-9.491187627789378,0.9731826229684054,-2.267309702820331
1758974337436941000,7.796941162109375,-9.491886715969443,0.9717029058046638,-2.2650014258779585
1758974337446898200,7.806898193359375,-9.492678158608078,0.9706743664745241,-2.2621214865274726
1758974337456855000,7.81685498046875,-9.493604625803231,0.9699242056943476,-2.258572415743768
1758974337466812200,7.826812255859375,-9.494622278413177,0.9692422878447919,-2.2545810080200432
1758974337476769300,7.836769287109375,-9.495631163194775,0.9687011667054146,-2.2505675345949827
1758974337486726000,7.846725830078125,-9.496481058022379,0.9680306470327079,-2.247254026132822
1758974337496683800,7.856683837890625,-9.497275423270464,0.9672412502206862,-2.244234970572591
1758974337506641000,7.866640869140625,-9.498017766070365,0.9668096538703889,-2.241274951723218
1758974337516598000,7.876597900390625,-9.498643789014219,0.9666760906185954,-2.2386814280986784
1758974337526555000,7.886554931640625,-9.49920142289698,0.9669869831986725,-2.2361792360194026
1758974337536512000,7.896511962890625,-9.499654427361488,0.9679425303578376,-2.2338319422408937
1758974337546468900,7.90646875,-9.499971822747588,0.9697316057316958,-2.231708520346135
1758974337556425700,7.91642578125,-9.500057747465371,0.9723010908935219,-2.2302260267034173
1758974337566382800,7.9263828125,-9.499797050702572,0.9754608700986951,-2.229958023416996
1758974337576341000,7.936341064453125,-9.499124850529432,0.9790100870128721,-2.2312623840138315
1758974337586298000,7.946298095703125,-9.498035886248946,0.982256083196774,-2.2344779850594696
1758974337596254700,7.956254638671875,-9.496566398218274,0.9849963218156248,-2.239502973614633
1758974337606211800,7.9662119140625,-9.494920384576917,0.9874627849943935,-2.245395977175981
1758974337616169000,7.9761689453125,-9.49332580886185,0.9897608328036963,-2.251108509603888
1758974337626125800,7.986125732421875,-9.491737662887573,0.9925636883299798,-2.2565770041428506
1758974337636083000,7.9960830078125,-9.490130227690935,0.9964129841692745,-2.2616252274431288
1758974337646040000,8.0060400390625,-9.48849882709682,1.0005534449748694,-2.2666585454352197
1758974337655996700,8.01599658203125,-9.486749937602877,1.0040629874657838,-2.272415063135326
1758974337665954800,8.025954833984375,-9.484826276063918,1.0066777000088245,-2.279263759986311
1758974337675912000,8.035911865234375,-9.482933009663224,1.0083807045344262,-2.2863731536000964
1758974337685869000,8.045869140625,-9.480796582156419,1.0092638440445065,-2.294841122215986
1758974337695826000,8.055825927734375,-9.478521038439869,1.0091539539292453,-2.304256454684585
1758974337705782800,8.06578271484375,-9.476275305339694,1.0082204724714159,-2.3138920057751236
1758974337715740000,8.075739990234375,-9.47423240133524,1.00699151519835,-2.322772939106077
1758974337725696800,8.08569677734375,-9.472615613788365,1.005907154027745,-2.329827826053649
1758974337735655000,8.095655029296875,-9.47169323824644,1.0052211445249617,-2.3338583967439828
1758974337745612000,8.105612060546875,-9.47137759642601,1.0051216296732426,-2.335191252782941
1758974337755569000,8.11556884765625,-9.471355384594201,1.0057322358522565,-2.3350158962160346
1758974337765525800,8.12552587890625,-9.471416759392618,1.006652200241387,-2.334374529572576
1758974337775483000,8.13548291015625,-9.471690315636993,1.0074418162491172,-2.3329130787178873
1758974337785440000,8.14543994140625,-9.472052719208598,1.007835491741821,-2.331275686774403
1758974337795396900,8.15539697265625,-9.472015309807658,1.0083703292708843,-2.3312143119759856
1758974337805354000,8.16535400390625,-9.471483979409932,1.009459805008024,-2.332884583275765
1758974337815310800,8.175310791015624,-9.470682015377282,1.0107326014228164,-2.3355897505812346
1758974337825269000,8.18526904296875,-9.46969768051505,1.0120569088291376,-2.339003942938894
1758974337835225900,8.195225830078124,-9.468491227334738,1.0127812045156954,-2.343587617467344
1758974337845183000,8.205182861328124,-9.467121692547202,1.012993824353069,-2.3490055508628487
1758974337855140000,8.21514013671875,-9.465841589608788,1.013139735629782,-2.354105212089419
1758974337865096700,8.2250966796875,-9.465043717229365,1.0132347204368561,-2.3572638222508133
1758974337875053800,8.2350537109375,-9.464746780109405,1.0127790125586091,-2.3586571763053534
1758974337885011000,8.245010986328126,-9.464842641699313,1.011412108119577,-2.3588608821839094
1758974337894967800,8.2549677734375,-9.46533539365232,1.0094411003075539,-2.3577184341505166
1758974337904925700,8.26492578125,-9.4662092538774,1.0075917461138217,-2.355001138015836
1758974337914882800,8.2748828125,-9.467592817190289,1.0063741139523685,-2.349947069496661
1758974337924840000,8.28483984375,-9.470279279795289,1.0053495932102203,-2.3395361501194536
1758974337934796800,8.294796875,-9.473813883662224,1.0046132417596876,-2.3255066018536685
1758974337944754000,8.30475390625,-9.477797984862327,1.0038504406936466,-2.309550907830894
1758974337954711000,8.3147109375,-9.481777994409203,1.0027907025076448,-2.2936206405103206
1758974337964668000,8.32466796875,-9.485452299007774,1.0012871660768985,-2.2790359425798057
1758974337974624800,8.334624755859375,-9.488618069562316,0.9996057888612151,-2.2665705748908223
1758974337984583000,8.3445830078125,-9.49198491564691,0.9974388931509107,-2.253392528887838
1758974337994540000,8.3545400390625,-9.496116900885104,0.9944880805213003,-2.2372098942413925
1758974338004497000,8.364496826171875,-9.500801843830942,0.9908391295596957,-2.2188830871731042
1758974338014453800,8.374453857421875,-9.505716503879427,0.9860998260781169,-2.1998577764466405
1758974338024411000,8.384410888671875,-9.51052185833454,0.9802372176550328,-2.181638813666999
1758974338034367700,8.39436767578125,-9.515088143336772,0.9732696436647326,-2.164777256845683
1758974338044324900,8.404324951171875,-9.51934521625936,0.964968044591695,-2.149718073271215
1758974338054282000,8.414281982421874,-9.523157468023896,0.9545901507012545,-2.1374287928014994
1758974338064238800,8.42423876953125,-9.525895953077077,0.9421662840664387,-2.13072286542207
1758974338074196700,8.43419677734375,-9.526811314356326,0.9268390972055495,-2.133361397232115
1758974338084153900,8.44415380859375,-9.527063827812672,0.90632990459688,-2.1410253559887407
1758974338094111000,8.454111083984374,-9.527373039892316,0.8792164183523505,-2.1509278874523936
1758974338104067800,8.46406787109375,-9.52749228235781,0.8505502227731049,-2.161912222803384
1758974338114025000,8.47402490234375,-9.525912904211879,0.8290528959099203,-2.1771708744727074
1758974338123982000,8.483982177734376,-9.521682134774327,0.8218440605096519,-2.1983099624827505
1758974338133938700,8.493938720703126,-9.515119122996925,0.8277065958674996,-2.2243625414974986
1758974338143895800,8.503895751953126,-9.507442597019672,0.8395228519979864,-2.2525785821564495
1758974338153854000,8.51385400390625,-9.503488890957831,0.8543304719641804,-2.263670761796087
1758974338163811000,8.52381103515625,-9.507413955447078,0.865852129062265,-2.2427038154825567
1758974338173767700,8.533767578125,-9.516910682588815,0.8635732974100857,-2.2029599802456796
1758974338183724800,8.543724853515625,-9.521167170989512,0.8447299921870232,-2.191841789381951
1758974338193682000,8.553681884765625,-9.513584168514608,0.8221368329111486,-2.2329785402819513
1758974338203638800,8.563638671875,-9.501618420910834,0.8087505509849637,-2.2881433781430123
1758974338213596000,8.573595947265625,-9.48806978802979,0.799052894443646,-2.347018760959804
1758974338223553000,8.583552978515625,-9.467037521395087,0.7777282207336277,-2.437358226446062
1758974338233511000,8.593510986328125,-9.4423940785259,0.7437110195152461,-2.5413605988427994
1758974338243467800,8.6034677734375,-9.421939904040098,0.7047581885255872,-2.626930219578743
1758974338253425000,8.6134248046875,-9.406786758571863,0.6541899577397853,-2.6934721915006636
1758974338263382000,8.623382080078125,-9.390328960245848,0.585895187333785,-2.7656542151361703
1758974338273339000,8.6333388671875,-9.372875136619806,0.5040289146278053,-2.8400018923729657
1758974338283295700,8.643295654296875,-9.361185867869853,0.40979061507210135,-2.893205659294128
1758974338293252900,8.6532529296875,-9.35886297788024,0.29947005423819645,-2.9141622303441164
1758974338303209700,8.663209716796874,-9.365098657399415,0.17273484010025858,-2.9043878553047775
1758974338313166800,8.673166748046874,-9.37284883313477,0.03532924964803969,-2.8842464000299572
1758974338323125000,8.683125,-9.376433705884217,-0.10729750495199114,-2.8707784311696884
1758974338333081900,8.693081787109374,-9.37637525369525,-0.2534478876505047,-2.8617686107620597
1758974338343038700,8.703038818359374,-9.376787341627479,-0.4063697372453287,-2.8427321941196917
1758974338352995800,8.712995849609374,-9.380299149140715,-0.5695081892216578,-2.8028566953271628
1758974338362953000,8.722952880859374,-9.388624494415522,-0.7415970230359583,-2.7338930492162703
1758974338372909800,8.732909912109376,-9.40279856571853,-0.9194828892238438,-2.6291277296230193
1758974338382867000,8.742866943359376,-9.420117949309944,-1.1050495922379195,-2.4921149218976497
1758974338392823800,8.75282373046875,-9.432204108422994,-1.3030962759882212,-2.3464544050753116
1758974338402782000,8.762781982421876,-9.432686923503875,-1.5126346600897609,-2.215107075765729
1758974338412738800,8.77273876953125,-9.419133029925822,-1.724566515199095,-2.115711174251139
1758974338422696000,8.782696044921876,-9.393539154464007,-1.930578624870628,-2.05052704667896
1758974338432653000,8.792653076171876,-9.358967607298492,-2.1314010569445787,-2.009280113402754
1758974338442609700,8.802609619140625,-9.314459188008309,-2.3328639788791534,-1.992232970881462
1758974338452566800,8.81256689453125,-9.256960354241729,-2.5370380594685673,-2.0106150152683258
1758974338462524000,8.82252392578125,-9.182702108854055,-2.7439143847540017,-2.0783010426588353
1758974338472480800,8.832480712890625,-9.089564390951395,-2.9516046567708254,-2.199602924902737
1758974338482439000,8.84243896484375,-8.979309534031152,-3.15682093988955,-2.361531562697887
1758974338492395800,8.852395751953125,-8.86185629003942,-3.3509032500535247,-2.531674778869748
1758974338502353000,8.862352783203125,-8.755936831974983,-3.520424534934759,-2.6665739554420114
1758974338512310000,8.87231005859375,-8.67669787556529,-3.6574510789245367,-2.7401386656075712
1758974338522267000,8.882266845703125,-8.619761351856589,-3.772837453514337,-2.7633018067911266
1758974338532224000,8.89222412109375,-8.569592422586679,-3.8923593204736706,-2.7535443828865884
1758974338542181000,8.90218115234375,-8.517077806973457,-4.030392118896544,-2.717662629905343
1758974338552137700,8.9121376953125,-8.461766254118084,-4.1834734333693975,-2.658461668395996
1758974338562094800,8.9220947265625,-8.405790099874139,-4.34197648063004,-2.580760296817124
1758974338572053000,8.932052978515625,-8.347137419897317,-4.497139862073958,-2.504278530161083
1758974338582010000,8.942010009765625,-8.283650159370898,-4.6440629461780185,-2.4462720391333104
1758974338591967000,8.951967041015624,-8.213781088852881,-4.782807984523475,-2.4143185655117034
1758974338601923800,8.961923828125,-8.137379401695728,-4.916642162212729,-2.404189531815797
1758974338611881000,8.971880859375,-8.055939720371365,-5.048184721833467,-2.4058419751979407
1758974338621837800,8.981837890625,-7.9716978411078445,-5.178374697801471,-2.409732699026167
1758974338631795000,8.991794921875,-7.886350046429038,-5.307718286073207,-2.4091477387450633
1758974338641752000,9.001751953125,-7.8005252818882465,-5.436841509592533,-2.40060831232816
1758974338651710000,9.0117099609375,-7.713847699910402,-5.566835086205601,-2.3827099598050117
1758974338661666800,9.021666748046876,-7.625702967989445,-5.697964388850331,-2.356316312267631
1758974338671624000,9.0316240234375,-7.535663800624013,-5.829731404876709,-2.323451569020003
1758974338681581000,9.0415810546875,-7.443434429737925,-5.9615147875159975,-2.2860560504749414
1758974338691538000,9.051537841796875,-7.348672910025716,-6.092976098594069,-2.2456709947250784
1758974338701495000,9.0614951171875,-7.2511162066370245,-6.223944073197245,-2.2032386510565876
1758974338711452000,9.071451904296875,-7.150106732445955,-6.354381301924586,-2.1605929568983613
1758974338721408800,9.08140869140625,-7.045195574641228,-6.484163281613588,-2.1192602450348437
1758974338731366000,9.091365966796875,-6.936132557854056,-6.612999504885077,-2.0805540822826325
1758974338741324000,9.101323974609375,-6.822811299100517,-6.740434044665098,-2.046020821300894
1758974338751281000,9.111281005859375,-6.70631900909543,-6.865064048418402,-2.0165780153259636
1758974338761237800,9.12123779296875,-6.586969576093554,-6.986672658523917,-1.9921393012486397
1758974338771195000,9.13119482421875,-6.4643713704288,-7.106365790396929,-1.9702420883476732
1758974338781152000,9.141152099609375,-6.338370078322291,-7.22499626147449,-1.948049253500998
1758974338791108900,9.15110888671875,-6.208727214843035,-7.343101247373223,-1.9237907182961702
1758974338801066000,9.16106591796875,-6.076121994426846,-7.460092719072103,-1.896874215928465
1758974338811023000,9.171023193359375,-5.941231293421984,-7.575361020240187,-1.8671112380884587
1758974338820981000,9.18098095703125,-5.804014195296168,-7.688235119748115,-1.8370825950495897
1758974338830937900,9.190937744140625,-5.663322114536166,-7.798406974560022,-1.8116458098456263
1758974338840895000,9.20089501953125,-5.518154349666833,-7.906352385494112,-1.7916478546947239
1758974338850852000,9.21085205078125,-5.368166617295146,-8.013059779065847,-1.7731436452329157
1758974338860809000,9.22080908203125,-5.213946361920237,-8.118983913305401,-1.7513548611424863
1758974338870765800,9.230765869140624,-5.055570740431547,-8.223993855309486,-1.7255504116699099
1758974338880723000,9.240722900390624,-4.892388010922074,-8.327896128332615,-1.6973779178917408
1758974338890679800,9.2506796875,-4.7239416617959735,-8.430464522403478,-1.667946510093659
1758974338900637000,9.260636962890626,-4.550407341881096,-8.53113322033286,-1.6382776402778922
1758974338910594800,9.2705947265625,-4.37244994482696,-8.62899036797285,-1.6101587763831018
1758974338920552000,9.280552001953126,-4.191493365956843,-8.722952846261858,-1.5848874108739197
1758974338930508800,9.2905087890625,-4.008791989246011,-8.812639546927809,-1.5611952773801983
1758974338940466000,9.3004658203125,-3.8286382511913772,-8.89727188681364,-1.5331272668898104
1758974338950423000,9.310423095703126,-3.655133449631929,-8.976445376771688,-1.4945865238323808
1758974338960380000,9.3203798828125,-3.4894457515642046,-9.050306147274375,-1.4443389763683079
1758974338970337000,9.3303369140625,-3.330926922212541,-9.119213679283856,-1.3839242551550268
1758974338980294000,9.3402939453125,-3.1770003890872,-9.18414821600914,-1.314708826240152
1758974338990250800,9.350250732421875,-3.0253391705453394,-9.245997646200657,-1.2366121717333793
1758974339000209000,9.360208984375,-2.873566016061604,-9.305349414357542,-1.1504261726647615
1758974339010166000,9.370166015625,-2.7202204976946116,-9.362029332956672,-1.0597994146697223
1758974339020123000,9.380122802734375,-2.5637539246976373,-9.415493212118744,-0.972656041811034
1758974339030079700,9.390079833984375,-2.4040948392696677,-9.464944933030008,-0.8975096884772181
1758974339040036900,9.400036865234375,-2.2442380393125116,-9.509494268852471,-0.8386201310046016
1758974339049994000,9.409993896484375,-2.089506619545072,-9.548592353531717,-0.792926520517841
1758974339059950800,9.419950927734375,-1.9449891352780162,-9.582227496629953,-0.7538768050249666
1758974339069908000,9.429907958984375,-1.8106692198984324,-9.611126258856057,-0.7198241671670228
1758974339079865000,9.439864990234375,-1.6854031101986764,-9.636363575965165,-0.685798198120296
1758974339089823000,9.449822998046875,-1.56853979492411,-9.658561379247903,-0.6498281092684716
1758974339099779800,9.45977978515625,-1.4597192085906863,-9.678098438888787,-0.6115610320532694
1758974339109737000,9.469737060546874,-1.3595508613988756,-9.695190443465114,-0.5703527137544006
1758974339119694000,9.479694091796874,-1.2664287794567644,-9.71026526300013,-0.5266215259144083
1758974339129651000,9.48965087890625,-1.1757684845183043,-9.723968209660052,-0.48206747738420963
1758974339139607800,9.49960791015625,-1.0837931614585221,-9.73669149763286,-0.43888300017416476
1758974339149565000,9.50956494140625,-0.991464129590243,-9.748313546365498,-0.39719139187037944
1758974339159521800,9.519521728515626,-0.9023592474002391,-9.758515206906198,-0.3570585938485339
1758974339169480000,9.52947998046875,-0.8180847810413688,-9.767215815234184,-0.32035430897064504
1758974339179436800,9.539436767578126,-0.7357033618874848,-9.774802909362316,-0.2870128698556684
1758974339189394000,9.549393798828126,-0.6531176523331552,-9.78148867073655,-0.25749997605290265
1758974339199350800,9.559350830078126,-0.5698984306482597,-9.787287712404131,-0.2336719777524471
1758974339209308000,9.569307861328125,-0.4869829411502927,-9.792171977314352,-0.2159542790258303
1758974339219265000,9.57926513671875,-0.40759310502782464,-9.796079506146906,-0.2026606620854698
1758974339229222000,9.589221923828125,-0.3348648456864059,-9.799078103441,-0.19055504935327916
1758974339239179000,9.599178955078125,-0.2693532945244573,-9.801287596184014,-0.18056262938277795
1758974339249135900,9.609135986328125,-0.21030586134269832,-9.802869312417506,-0.17301741990130393
1758974339259094000,9.619093994140625,-0.15682433692608028,-9.80398165757358,-0.16653328204639256
1758974339269051000,9.62905078125,-0.10731663891072385,-9.804756733599305,-0.16001701375385746
1758974339279008000,9.639008056640625,-0.06075296302458737,-9.80526877477467,-0.15293996064024976
1758974339288964900,9.64896484375,-0.018817032562423265,-9.805533563190698,-0.14679875447149388
1758974339298921700,9.658921630859375,0.017966988179413602,-9.805625917649268,-0.14061210172581484
1758974339308878800,9.66887890625,0.050074921710370104,-9.805630009302496,-0.13226447155396454
1758974339318836000,9.6788359375,0.0793090807701461,-9.805566880938411,-0.12231189040350728
1758974339328792800,9.688792724609375,0.10739552196636795,-9.805421334987878,-0.11201334535959176
1758974339338750000,9.69875,0.135258840197511,-9.805178758403658,-0.10261010518758557
1758974339348707800,9.708707763671875,0.16124737753272056,-9.80485727136433,-0.09564415689879097
1758974339358665000,9.7186650390625,0.1827564131000079,-9.804515910580754,-0.0918760365369264
1758974339368621800,9.728621826171874,0.19881478204596786,-9.804200268760322,-0.09216794128874316
1758974339378579000,9.738578857421874,0.20890717352591454,-9.803957107654213,-0.09560583418239839
1758974339388536000,9.7485361328125,0.21433431314118206,-9.803791103437542,-0.10059739539199508
1758974339398493000,9.758492919921874,0.21778644462274385,-9.803651987227797,-0.10663901364379562
1758974339408449800,9.76844970703125,0.22085308391805736,-9.80351871623695,-0.11232467633108607
1758974339418407000,9.778406982421876,0.2232018755339086,-9.803411164209246,-0.1169887043530587
1758974339428364000,9.788364013671876,0.22389626927254722,-9.803350958454608,-0.12063846816541626
1758974339438321000,9.79832080078125,0.22225953491618855,-9.803350958454608,-0.1237066418306902
1758974339448278800,9.80827880859375,0.21843864318747072,-9.803405318990349,-0.12618239342761225
1758974339458236000,9.81823583984375,0.21445693487385287,-9.803474292573332,-0.12762673788387327
1758974339468192800,9.82819287109375,0.21311912866514174,-9.803507610321045,-0.12736452501742168
1758974339478150000,9.83814990234375,0.2148025882400572,-9.803501765102148,-0.12497911858507431
1758974339488107300,9.848107177734375,0.2174667842143215,-9.803490074664353,-0.12122555647152475
1758974339498064400,9.858064453125,0.21961639999626204,-9.803492412751913,-0.11701540056373923
1758974339508021200,9.868021240234375,0.22128891805205492,-9.803501180580257,-0.11302435816619545
1758974339517978000,9.87797802734375,0.22289684643903745,-9.80349591988325,-0.11032923733070492
1758974339527935200,9.887935302734375,0.2234112439682707,-9.803519300758838,-0.10727426107372157
1758974339537893400,9.897893310546875,0.22208558485507965,-9.803579506513476,-0.10441945616449229
1758974339547850500,9.9078505859375,0.21938246337622402,-9.803659001490473,-0.10274590606223791
1758974339557807000,9.91780712890625,0.21594487187666817,-9.803740834555029,-0.10200073198443278
1758974339567764200,9.92776416015625,0.21209243423221633,-9.803822083097696,-0.10238651643162593
1758974339577721300,9.937721435546875,0.2075743540195748,-9.803901578074694,-0.10411758714108728
1758974339587678200,9.94767822265625,0.20247529558120295,-9.80398224209547,-0.10650774281378834
1758974339597635300,9.95763525390625,0.19734407017258926,-9.80405764541924,-0.10899903903971425
1758974339607592400,9.967592529296875,0.1934011047004722,-9.80411317499876,-0.11119196424041874
1758974339617549000,9.977549072265624,0.19106283447863534,-9.804141816571354,-0.11256664099395275
1758974339627507200,9.987507080078124,0.18988120521232485,-9.804158183184265,-0.11327342842328361
1758974339637464300,9.99746435546875,0.18911040350291877,-9.80416987362206,-0.1134332951601129
1758974339647421400,10.00742138671875,0.18890857905419542,-9.804178641450404,-0.11299800901538692
1758974339657378300,10.01737841796875,0.19023495055343956,-9.804162274837493,-0.11217424414288252
1758974339667335200,10.027335205078124,0.19321425862517208,-9.804120189261436,-0.11079806041885167
1758974339677292300,10.037292236328126,0.1967164032609202,-9.804066413247584,-0.10948456666748971
1758974339687249200,10.047249267578126,0.19924241460720077,-9.804023743149637,-0.10878931441232562
1758974339697206300,10.057206298828126,0.20030326703805476,-9.80399919323027,-0.10882001094468868
1758974339707163400,10.067163330078126,0.20033989098770544,-9.803993932533263,-0.10939606640012935
1758974339717121300,10.077121337890626,0.2002030580665916,-9.803982826617359,-0.11046839920622296
1758974339727078100,10.087078125,0.2004929626575671,-9.803968213570117,-0.11128646499030291
1758974339737035300,10.09703515625,0.2008897799554281,-9.803954769566655,-0.11183070966852829
1758974339746992400,10.106992431640625,0.20078721463009713,-9.803951262435316,-0.11231228264039382
1758974339756949200,10.11694921875,0.19937126515125855,-9.803977565920352,-0.11253850174485705
1758974339766906400,10.12690625,0.1965389278021641,-9.804034849065541,-0.11249852592749521
1758974339776863200,10.13686328125,0.19280140350796282,-9.804114344042539,-0.1121403784058988
1758974339786820000,10.146820068359375,0.18883825376434252,-9.804192085453867,-0.11215039747641421
1758974339796777200,10.156777099609375,0.18499410902420058,-9.804259889993071,-0.11250012422953731
1758974339806734300,10.166734375,0.1816346242621541,-9.804339384970069,-0.11096887780795804
1758974339816692500,10.1766923828125,0.17985323900440706,-9.804386146721244,-0.10982400035546161
1758974339826649000,10.186649169921875,0.17874379819147287,-9.804413619250058,-0.10908566701039671
1758974339836606200,10.196606201171875,0.17731433164393529,-9.804442260822654,-0.10881341680712066
1758974339846563300,10.206563232421875,0.17553539407160132,-9.804477332136035,-0.10870528025752864
1758974339856520200,10.216520263671875,0.17435635862117632,-9.804502466577292,-0.10827940126196481
1758974339866477300,10.226477294921875,0.17501197298569604,-9.804498959445953,-0.10741690268111415
1758974339876434400,10.236434326171874,0.1785263012495823,-9.804451028650998,-0.10603974170954897
1758974339886391000,10.24639111328125,0.183858894449193,-9.80437445628345,-0.10408095405828208
1758974339896348200,10.25634814453125,0.18908835606789215,-9.8042978839159,-0.10180895400568843
1758974339906305300,10.26630517578125,0.1933889393386431,-9.804235924595593,-0.09977146596186794
1758974339916263400,10.276263427734374,0.19726130552627144,-9.80416928910017,-0.09863571253074332
1758974339926220300,10.28622021484375,0.2005920756504871,-9.80411025238931,-0.09785385057120584
1758974339936177200,10.29617724609375,0.20308783798897637,-9.804062906116247,-0.097438712165365
1758974339946134300,10.30613427734375,0.2045460191743448,-9.804033095499873,-0.09744516017246059
1758974339956091100,10.316091064453126,0.204305214422103,-9.80403601810932,-0.09770084283342584
1758974339966048300,10.32604833984375,0.2024210081106983,-9.804068166813254,-0.09822118604625575
1758974339976005400,10.33600537109375,0.19939996152278033,-9.804127203524112,-0.09866282886653206
1758974339985962200,10.345962158203125,0.19663493552254513,-9.804180395016074,-0.09875789587199688
1758974339995919000,10.355919189453125,0.19468626740649342,-9.80422540320158,-0.09824274029093794
1758974340005877200,10.365877197265625,0.19281545029962435,-9.804268657821416,-0.09763059974196367
1758974340015834400,10.37583447265625,0.18974018930643796,-9.804327694532274,-0.0976524462475907
1758974340025791200,10.385791259765625,0.18471118216328322,-9.804415372815727,-0.09850484355953522
1758974340035748400,10.395748291015625,0.1779378521034494,-9.80452409388721,-0.100086002670601
1758974340045705200,10.405705322265625,0.17021109377630053,-9.804643920874595,-0.10191352862501517
1758974340055662000,10.415662109375,0.161925769984629,-9.80476550142765,-0.10350798560907132
1758974340065619200,10.425619140625,0.15261640950799918,-9.804898772418499,-0.10517320627439766
1758974340075576300,10.435576416015625,0.1425583221564535,-9.805027951756118,-0.10719600820573978
1758974340085533200,10.445533203125,0.13273910332839003,-9.805142518046498,-0.10934398915302007
1758974340095490300,10.455490234375,0.12409463650127872,-9.80522961180806,-0.11163999113570898
1758974340105448200,10.4654482421875,0.11657994088907725,-9.805296831825375,-0.11377223565774038
1758974340115405300,10.4754052734375,0.10994036587728187,-9.805354114970564,-0.11544024193519725
1758974340125362200,10.485362060546874,0.10446018090052529,-9.805395031502842,-0.11713911827495321
1758974340135319300,10.4953193359375,0.10043833237276412,-9.805423673075436,-0.11825484269820152
1758974340145276400,10.5052763671875,0.09827286143456584,-9.805443546819687,-0.11843608101662248
1758974340155233000,10.51523291015625,0.09761689087701961,-9.805454652735591,-0.11802541785649955
1758974340165190100,10.525190185546874,0.09745833931444212,-9.805464589607714,-0.11735706274141557
1758974340175147300,10.535147216796876,0.09692061570854857,-9.805477449089288,-0.11659238024554215
1758974340185104400,10.5451044921875,0.09580949439518154,-9.805497322833537,-0.11589721932192332
1758974340195061200,10.555061279296876,0.09435816307570785,-9.805517781099676,-0.1153284886564128
1758974340205019100,10.56501904296875,0.09306125513296573,-9.805535316756368,-0.11487821500510909
1758974340214976300,10.574976318359376,0.09173116643982938,-9.80554992980361,-0.11472328930487856
1758974340224933000,10.58493310546875,0.09030520702362992,-9.805561035719514,-0.11495580115281044
1758974340234890200,10.59489013671875,0.08850041349083185,-9.805570972591639,-0.11554101716224104
1758974340244847400,10.604847412109375,0.08627006062287837,-9.805584416595101,-0.11610224950788542
1758974340254804500,10.614804443359375,0.08422841699374839,-9.805596107032894,-0.11656812258712015
1758974340264761000,10.624760986328125,0.08233310476643964,-9.805609551036357,-0.11680014124470763
1758974340274718200,10.63471826171875,0.08014438081681728,-9.805627086693049,-0.116854163853731
1758974340284675300,10.64467529296875,0.07722568035852163,-9.805648714002967,-0.11697019144883379
1758974340294632200,10.654632080078125,0.07328186093645636,-9.80567969366312,-0.11693585992096922
1758974340304590300,10.66459033203125,0.0685981692327885,-9.80571885662973,-0.11650506728827022
1758974340314547200,10.674547119140625,0.06314652536392677,-9.805759773162007,-0.11607989154560491
1758974340324504000,10.684504150390625,0.056908357060141856,-9.805803612303734,-0.11567129247840494
1758974340334461200,10.694461181640625,0.04998702879778575,-9.8058451133579,-0.11529733546632341
1758974340344418300,10.704418212890625,0.042262430461682376,-9.805882522758841,-0.11529191037253476
1758974340354375400,10.71437548828125,0.03328698953097919,-9.805908826243877,-0.11580006995722651
1758974340364332300,10.724332275390625,0.022969242029672023,-9.80593922138214,-0.11571553347893059
1758974340374289200,10.7342890625,0.012547978213318855,-9.80595909512639,-0.11566787667861207
1758974340384246300,10.744246337890624,0.0024289692961494435,-9.805966693910955,-0.11579840772310271
1758974340394203100,10.754203125,-0.007403831103516859,-9.80595967964828,-0.11601410543355159
1758974340404161300,10.764161376953124,-0.017393466032709692,-9.805942143991588,-0.11649766029994935
1758974340414118400,10.774118408203124,-0.027558195521438025,-9.805910579809545,-0.11727859067772514
1758974340424075300,10.7840751953125,-0.037648794619808905,-9.80586498710215,-0.11821422756002284
1758974340434032000,10.7940322265625,-0.04736863559347111,-9.80581179561019,-0.11907215956361032
1758974340443989200,10.8039892578125,-0.056348823481239374,-9.805754512464999,-0.11994369083428755
1758974340453946400,10.8139462890625,-0.06424225274533964,-9.805693137666582,-0.12101406914531253
1758974340463903200,10.8239033203125,-0.07095871521851513,-9.805634100955723,-0.12202512761768884
1758974340473860400,10.8338603515625,-0.07688352499050088,-9.805576817810534,-0.12313645899360999
1758974340483817200,10.843817138671875,-0.0824165817988105,-9.805516612055897,-0.12433008009181357
1758974340493774300,10.8537744140625,-0.08795519156507216,-9.805451730126142,-0.1255013980266638
1758974340503732500,10.863732421875,-0.09341331084049306,-9.805389186283945,-0.12652917930497787
1758974340513689600,10.873689697265625,-0.09842533031622878,-9.805330149573088,-0.12735571152330374
1758974340523646700,10.883646728515625,-0.10291215687408112,-9.805275789037346,-0.12798314097295516
1758974340533603300,10.893603271484375,-0.10738163043833338,-9.805217921370268,-0.12861228745565748
1758974340543560400,10.903560546875,-0.11237407756391912,-9.805151870396733,-0.12954673702786676
1758974340553517600,10.913517578125,-0.11816169365518726,-9.805066530200838,-0.130835890922416
1758974340563474400,10.923474365234375,-0.1247083753522951,-9.804964823392034,-0.13221098780105822
1758974340573431600,10.933431640625,-0.1319988428877201,-9.804850257101654,-0.13360114525151437
1758974340583388700,10.943388671875,-0.14011290176571345,-9.804720493242144,-0.13492063035224564
1758974340593345300,10.95334521484375,-0.14877784512527287,-9.804571440160274,-0.13641485096537506
1758974340603303400,10.963303466796875,-0.15766223078863695,-9.80441069664061,-0.1380931320416741
1758974340613260500,10.973260498046875,-0.16656974159926174,-9.804235340073705,-0.14004898795033804
1758974340623217700,10.9832177734375,-0.17543211636021733,-9.804048877590894,-0.1421470196755137
1758974340633174500,10.993174560546874,-0.18478358981236814,-9.803855985367298,-0.14372511004665867
1758974340643131400,11.00313134765625,-0.19450928513808174,-9.803649064618348,-0.14492032031374982
1758974340653088500,11.013088623046874,-0.20462531322194263,-9.803419932037592,-0.14643246017605996
1758974340663045400,11.02304541015625,-0.21528759527802466,-9.80317852449715,-0.14742433902393096
1758974340673002500,11.03300244140625,-0.2261244484497234,-9.802927764606475,-0.14783059087041764
1758974340682959600,11.042959716796876,-0.2367402062166482,-9.802671744018793,-0.14816333908927626
1758974340692917500,11.05291748046875,-0.24733495772816239,-9.802403448471427,-0.14854909613700581
1758974340702874400,11.062874267578126,-0.25878548581879585,-9.802100666132569,-0.14907848117281683
1758974340712831500,11.07283154296875,-0.27120427441969513,-9.801752875608205,-0.14980604652869514
1758974340722788600,11.08278857421875,-0.28427266776943577,-9.801368260204791,-0.15087450687726958
1758974340732745500,11.092745361328125,-0.2979912503899075,-9.800940390181541,-0.1521404716924764
1758974340742702600,11.10270263671875,-0.31219789052195845,-9.800481540498136,-0.15336014968054368
1758974340752659500,11.112659423828125,-0.3271362972609699,-9.799970083844661,-0.1548188423225656
1758974340762616300,11.1226162109375,-0.34336868933327497,-9.799391991695762,-0.1561923408991657
1758974340772573400,11.132573486328125,-0.36104327957052734,-9.798727974829077,-0.15803004118772224
1758974340782530600,11.142530517578125,-0.38020233621187505,-9.797969265416263,-0.16012253822125494
1758974340792487700,11.15248779296875,-0.40086533114276823,-9.79711995511055,-0.1616916324351914
1758974340802445300,11.1624453125,-0.42278676516953856,-9.796163677299022,-0.16377530684145167
1758974340812402400,11.17240234375,-0.4463755478866398,-9.795077051106095,-0.16607368344431742
1758974340822359600,11.182359619140625,-0.47175041030291465,-9.793851893225312,-0.16825864453427491
1758974340832316400,11.19231640625,-0.4989334181196987,-9.792457808518408,-0.17100094724604858
1758974340842273500,11.2022734375,-0.5281312363576144,-9.790864401847124,-0.17447866982659324
1758974340852230700,11.212230712890625,-0.5593737121656537,-9.789052968510985,-0.17869316398277876
1758974340862187500,11.2221875,-0.5925633765187114,-9.787017663291095,-0.18318499550931155
1758974340872144400,11.232144287109374,-0.6272958863995969,-9.784758486187457,-0.18819133416293188
1758974340882101500,11.2421015625,-0.6631104193635284,-9.782268422937392,-0.19467671412685886
1758974340892059600,11.2520595703125,-0.6999442854378372,-9.779565593719482,-0.2014657897450961
1758974340902016500,11.2620166015625,-0.7378991914313286,-9.77662077243924,-0.20875046686055138
1758974340911973400,11.271973388671874,-0.7770398000780493,-9.773402394914626,-0.21726698732590302
1758974340921930500,11.281930419921874,-0.817295018903166,-9.769899355229734,-0.22687490149084477
1758974340931887400,11.291887451171876,-0.8583947257284075,-9.766115745037794,-0.23778028985410926
1758974340941844500,11.301844482421876,-0.8998940993957221,-9.762081959477067,-0.24967121865600347
1758974340951801600,11.311801513671876,-0.9411913015544414,-9.757851774561404,-0.2624515523119829
1758974340961758700,11.3217587890625,-0.9818557587675749,-9.753467860388755,-0.27608632910652087
1758974340971715300,11.33171533203125,-1.0215203182231634,-9.748971718013285,-0.2906003181546926
1758974340981672400,11.34167236328125,-1.0607865260109304,-9.744331198731064,-0.3051607036278583
1758974340991629600,11.351629638671875,-1.101422926173359,-9.739392573285102,-0.3185846324170008
1758974341001587500,11.36158740234375,-1.1454579557981341,-9.733906250828504,-0.33070812786575404
1758974341011544600,11.371544677734375,-1.1946664425380527,-9.727598090595006,-0.34205092126559467
1758974341021501400,11.38150146484375,-1.2488802632845937,-9.720370477429032,-0.35367209321539844
1758974341031458600,11.39145849609375,-1.3079653433293104,-9.712140409222245,-0.36596206780485807
1758974341041415400,11.40141552734375,-1.3706762126557528,-9.702959908422827,-0.37974315773490813
1758974341051372500,11.41137255859375,-1.4365699498020112,-9.692759416925906,-0.39630726597961036
1758974341061329700,11.42132958984375,-1.5059752022005617,-9.681417938700317,-0.4154030115937814
1758974341071286500,11.43128662109375,-1.5794788298286497,-9.668775899270177,-0.4363260091677308
1758974341081243400,11.441243408203125,-1.656972988397628,-9.654743282264471,-0.4590989089246839
1758974341091200500,11.451200439453125,-1.7379840690463781,-9.63928326280415,-0.48377453703042117
1758974341101158700,11.46115869140625,-1.8216271056339144,-9.622503392916917,-0.5094060045562684
1758974341111115500,11.471115478515625,-1.9049368186138569,-9.604942017263173,-0.5354244986383244
1758974341121072600,11.48107275390625,-1.9856692284516988,-9.587191841039061,-0.5597042227616533
1758974341131029500,11.491029541015624,-2.065292946395278,-9.569185644227266,-0.5793197544662282
1758974341140986400,11.500986328125,-2.1436085043497384,-9.550784895139932,-0.5982135477675125
1758974341150943500,11.510943603515624,-2.220873384207487,-9.531617837855219,-0.6216133837837725
1758974341160900600,11.520900634765624,-2.302700165153295,-9.510466913276911,-0.6473043629445135
1758974341170857500,11.530857421875,-2.3937682371750473,-9.486324405667185,-0.6707406950462609
1758974341180814600,11.540814697265626,-2.494161625294387,-9.45910263674259,-0.6891471432220191
1758974341190771500,11.550771484375,-2.6019883782848714,-9.429249350270629,-0.6995009986497461
1758974341200729600,11.5607294921875,-2.7155405231848357,-9.396939902818202,-0.7026599741373211
1758974341210686500,11.5706865234375,-2.834411817280948,-9.36171544470191,-0.7034050934161991
1758974341220643600,11.5806435546875,-2.958541762557626,-9.322830710512399,-0.7086951626483351
1758974341230600700,11.5906005859375,-3.0873373615577817,-9.279839125525951,-0.7234156888529658
1758974341240557300,11.600557373046875,-3.218269388064742,-9.233259745180606,-0.7483755772601812
1758974341250514400,11.610514404296875,-3.348470469948649,-9.18420082297921,-0.7801122663259505
1758974341260471600,11.620471435546875,-3.4777038758441803,-9.133349172142147,-0.8111065395265817
1758974341270428400,11.630428466796875,-3.604853461202979,-9.081804278343915,-0.8344282322727143
1758974341280385500,11.640385498046875,-3.7282428172454236,-9.030645168992876,-0.8473764150425791
1758974341290342700,11.6503427734375,-3.8493671509653327,-8.979214256963134,-0.8523401018645614
1758974341300299500,11.660299560546875,-3.973467577886581,-8.924664336130023,-0.855726675562933
1758974341310257400,11.67025732421875,-4.105229917737842,-8.864359797292947,-0.8605628635477274
1758974341320214500,11.680214599609375,-4.242831923528016,-8.798795145970583,-0.8660024242531508
1758974341330171600,11.690171630859375,-4.380891317696869,-8.730258200839161,-0.872225536551699
1758974341340128500,11.70012841796875,-4.5161493907093995,-8.660605403420329,-0.8767689521349966
1758974341350085400,11.71008544921875,-4.646637472841143,-8.591332545229792,-0.8764269337642937
1758974341360042500,11.72004248046875,-4.770685585053265,-8.523315240058302,-0.8740914034888148
1758974341369999400,11.729999267578124,-4.890246907240152,-8.454753160485625,-0.8792370958141982
1758974341379956500,11.73995654296875,-5.012514273515343,-8.381101064297557,-0.8956543429341167
1758974341389913600,11.74991357421875,-5.141441682201624,-8.300415416210889,-0.9159955585647374
1758974341399870500,11.759870361328124,-5.273159598389268,-8.215896473571657,-0.9291252353813498
1758974341409828400,11.769828369140624,-5.403697364881634,-8.131032078495622,-0.9256403889402747
1758974341419785500,11.779785400390624,-5.5321209156990045,-8.046751036265492,-0.9032458209764211
1758974341429742600,11.78974267578125,-5.65753242521882,-7.963027627918124,-0.8677169000208377
1758974341439699500,11.799699462890626,-5.777890743002295,-7.879992786356806,-0.8319243596930056
1758974341449656600,11.809656494140626,-5.893354859003424,-7.796160656937956,-0.811530464027077
1758974341459613400,11.819613525390626,-6.006356968805194,-7.709558478283881,-0.8104254984598607
1758974341469570300,11.8295703125,-6.120480191591382,-7.617435490381717,-0.8275256863426417
1758974341479527400,11.83952734375,-6.237985458031297,-7.517139717417955,-0.8663479497551918
1758974341489484300,11.849484375,-6.357774451494216,-7.4102014376997944,-0.9154374862905591
1758974341499441200,11.859441162109375,-6.474639666464925,-7.303544897532463,-0.9527237723074853
1758974341509398300,11.869398193359375,-6.584128215187787,-7.2032877030134195,-0.9655262629963457
1758974341519356200,11.879356201171875,-6.687449473452568,-7.1072472494065755,-0.9671564214814454
1758974341529313300,11.889313232421875,-6.790527570611238,-7.007413833257556,-0.97735625539124
1758974341539270100,11.899270263671875,-6.896433584672212,-6.899395357087254,-1.003969829289615
1758974341549227300,11.909227294921875,-7.00315266868174,-6.784069188252091,-1.0500636180751024
1758974341559184400,11.919184326171875,-7.107116901025176,-6.664642598360777,-1.1143885715346782
1758974341569141200,11.929141357421875,-7.206317864489555,-6.545914512127638,-1.179149870584905
1758974341579098000,11.93909814453125,-7.300874801540374,-6.4316849063575265,-1.2251753433745354
1758974341589055200,11.94905517578125,-7.391574478641152,-6.321892406252026,-1.2524664512082935
1758974341599012000,11.95901220703125,-7.479254515659808,-6.214249193134903,-1.2705236475549637
1758974341608969200,11.96896923828125,-7.564044091933965,-6.108116384580731,-1.2831672944203019
1758974341618927400,11.97892724609375,-7.645318353563547,-6.00356470773816,-1.2948657693900167
1758974341628884200,11.98888427734375,-7.7228592738837,-5.900184997284412,-1.3098456041179596
1758974341638841000,11.998841064453124,-7.79807496612668,-5.795999231144785,-1.3291967857979237
1758974341648798200,12.008798095703124,-7.873518037384748,-5.687278744184971,-1.3538801222860812
1758974341658755300,12.01875537109375,-7.949858934265374,-5.572590873253345,-1.3843246526494621
1758974341668712200,12.028712158203126,-8.024953630477189,-5.454894468155503,-1.4193746309816837
1758974341678669300,12.03866943359375,-8.096974326071143,-5.336984128046035,-1.4580612122505903
1758974341688626200,12.048626220703126,-8.166747534999251,-5.21759670112133,-1.5004438715584576
1758974341698583300,12.058583251953126,-8.235692476409673,-5.097076470774412,-1.537401729338616
1758974341708540200,12.0685400390625,-8.30404938879907,-4.976944362962246,-1.5630597560778259
1758974341718497300,12.078497314453125,-8.370373918578029,-4.857774085919559,-1.5840750715777276
1758974341728455400,12.088455322265625,-8.433871700498461,-4.737248010353744,-1.6120429826945066
1758974341738412000,12.098412109375,-8.496080611652136,-4.611882678063213,-1.6485120340444146
1758974341748369200,12.108369140625,-8.55972277047932,-4.480957081297039,-1.6800354456856845
1758974341758326300,12.118326171875,-8.623865280044079,-4.3482755807742475,-1.7005336054436861
1758974341768283400,12.128283447265625,-8.685859671664238,-4.216851094575226,-1.7159186599716543
1758974341778240300,12.138240234375,-8.744495400506258,-4.087175497870147,-1.731819262806326
1758974341788197400,12.148197265625,-8.80101983628273,-3.956848743779957,-1.7480774469070135
1758974341798154200,12.158154296875,-8.858140484386682,-3.821436649249494,-1.760776331090927
1758974341808111000,12.168111083984375,-8.915900599437952,-3.6803427096903323,-1.769811432070285
1758974341818068200,12.178068115234375,-8.973156272098421,-3.535068269576132,-1.7765512617193162
1758974341828026400,12.1880263671875,-9.028664224308729,-3.387477661474049,-1.7828642442584037
1758974341837983500,12.1979833984375,-9.081884942364692,-3.23779943344295,-1.7906569439612328
1758974341847940000,12.207940185546875,-9.133153357309103,-3.084785046726465,-1.7999904433652758
1758974341857897200,12.217897216796874,-9.182706785029172,-2.929206362479925,-1.8077559628002344
1758974341867854300,12.227854248046874,-9.230215555179118,-2.775617098484933,-1.8081722885161637
1758974341877811200,12.237811279296874,-9.276360635760426,-2.6233228427365423,-1.799356967767328
1758974341887768300,12.247768310546874,-9.319151145216821,-2.46633984465003,-1.800265022522956
1758974341897725400,12.257725341796874,-9.357642496174574,-2.3015962955646216,-1.8186774620480834
1758974341907682300,12.267682373046876,-9.393060431036352,-2.132652518310398,-1.8419028548128902
1758974341917639200,12.27763916015625,-9.42607481188774,-1.9660360149599612,-1.85854375462085
1758974341927596300,12.28759619140625,-9.456760457530617,-1.8018555065847932,-1.8690517046317456
1758974341937554400,12.297554443359376,-9.484761394134162,-1.6366775116048753,-1.8790866303034126
1758974341947511300,12.30751123046875,-9.507585804882645,-1.4730864935554564,-1.8990112279571592
1758974341957468200,12.31746826171875,-9.52454804559946,-1.3128953470773994,-1.9312420572154223
1758974341967425300,12.32742529296875,-9.537944118267298,-1.1587036602098495,-1.9635189175724983
1758974341977382100,12.337382080078125,-9.549063478174805,-1.0157931727480143,-1.988460904996842
1758974341987339300,12.34733935546875,-9.558559620794654,-0.8835610234279185,-2.005903914967924
1758974341997296400,12.35729638671875,-9.567254383903741,-0.7580467111207544,-2.0157972402118145
1758974342007253200,12.367253173828125,-9.574299041718245,-0.6415210303027182,-2.0227716092690824
1758974342017210400,12.37721044921875,-9.57997533378899,-0.5331512930093333,-2.027351776666194
1758974342027167200,12.387167236328125,-9.58590823096931,-0.4311605892285704,-2.023558229602128
1758974342037125400,12.39712548828125,-9.593429274123906,-0.3328415596978739,-2.006425746884942
1758974342047082200,12.407082275390625,-9.602158524024485,-0.23480520129976792,-1.9783407852597534
1758974342057039400,12.417039306640625,-9.610176995307206,-0.13648425380662083,-1.9484091728545725
1758974342066996200,12.426996337890625,-9.614434652751683,-0.03849442426424939,-1.9317111360318957
1758974342076953000,12.436953125,-9.615039632907509,0.060316800097026856,-1.9281497902885079
1758974342086910200,12.44691015625,-9.615345337855816,0.15711783997993917,-1.9211665072724222
1758974342096867300,12.456867431640624,-9.613538580694794,0.24393446510229258,-1.9211292440019547
1758974342106824200,12.46682421875,-9.604978842142224,0.3218357797000557,-1.9522274159684776
1758974342116781300,12.47678125,-9.590447043442726,0.4039526661662385,-2.0076336613699794
1758974342126738400,12.486738525390624,-9.57318728108406,0.49768889795131976,-2.0680324543617665
1758974342136695000,12.496695068359376,-9.553394785377384,0.6008292101586237,-2.1312061188943683
1758974342146653200,12.506653076171874,-9.531475214514137,0.7037143785610794,-2.196847780975699
1758974342156610300,12.5166103515625,-9.512916059994698,0.7927657769981771,-2.246402523870021
1758974342166567400,12.5265673828125,-9.501842877316474,0.8560089996356517,-2.269927776364237
1758974342176524300,12.536524169921876,-9.499552136030793,0.8768944051455706,-2.271547048129141
1758974342186481200,12.546481201171876,-9.507797401806712,0.8576129277009517,-2.2442527984902263
1758974342196438300,12.556438232421876,-9.52661842213273,0.8212203756533563,-2.177056015921384
1758974342206395100,12.56639501953125,-9.548417581486701,0.7835170332681387,-2.09386086923182
1758974342216352300,12.576352294921875,-9.561765138837695,0.7627405680254101,-2.0399172437287865
1758974342226309400,12.586309326171875,-9.562840659114718,0.7706202153593301,-2.031888397182524
1758974342236266200,12.596266357421875,-9.554781271299719,0.7994852214463055,-2.0584788824662565
1758974342246223000,12.60622314453125,-9.542698619318008,0.8350014290507882,-2.100019099600613
1758974342256181200,12.61618115234375,-9.53213923138082,0.8649294612593948,-2.135556569188833
