time,seconds_elapsed,z,y,x
1758974329692149200,0.052149169921875,1.16969895362854,-1.520422101020813,0.8869407773017883
1758974329702106000,0.062106201171875,1.1977691650390625,-1.8627413511276245,1.2498761415481567
1758974329712064300,0.072064208984375,1.339010238647461,-2.367727756500244,1.6191723346710205
1758974329722021400,0.082021484375,1.6639217138290405,-2.902129650115967,1.9621297121047974
1758974329731978200,0.091978271484375,2.058475971221924,-3.002509593963623,2.168442487716675
1758974329741935400,0.101935302734375,2.4545717239379883,-2.799548625946045,2.2849836349487305
1758974329751892200,0.111892333984375,2.7596774101257324,-2.6092824935913086,2.3748152256011963
1758974329761849000,0.12184912109375,2.7783470153808594,-2.153498649597168,2.382749557495117
1758974329771807200,0.13180712890625,2.4176886081695557,-1.1551610231399536,2.0593514442443848
1758974329781764400,0.141764404296875,2.019042491912842,-0.6884596347808838,1.4988478422164917
1758974329791721200,0.15172119140625,1.9143611192703247,-0.41382965445518494,1.201167345046997
1758974329801678000,0.161677978515625,2.078937292098999,-0.11519476771354675,1.0628036260604858
1758974329811635200,0.17163525390625,2.3087222576141357,0.12024997919797897,0.9654608964920044
1758974329821592300,0.18159228515625,2.5022358894348145,0.18560847640037537,0.9342103004455566
1758974329831550500,0.191550537109375,2.706883430480957,-0.06274860352277756,0.9611684083938599
1758974329841507000,0.201507080078125,2.9690170288085938,-0.6379567980766296,0.9909678101539612
1758974329851464200,0.211464111328125,3.288846015930176,-1.2216178178787231,1.0568411350250244
1758974329861421300,0.22142138671875,3.611496925354004,-1.555763840675354,1.1440311670303345
1758974329871378200,0.231378173828125,3.7618374824523926,-1.792166829109192,1.113878607749939
1758974329881335300,0.241335205078125,3.7011325359344482,-2.018847942352295,0.9687573313713074
1758974329891293200,0.251293212890625,3.594587802886963,-2.052816867828369,0.7864602208137512
1758974329901250300,0.261250244140625,3.5028936862945557,-2.044276714324951,0.5851563811302185
1758974329911207200,0.271207275390625,3.4152181148529053,-1.9490424394607544,0.4999222159385681
1758974329921164300,0.281164306640625,3.4730417728424072,-1.881899118423462,0.6106457710266113
1758974329931121400,0.291121337890625,3.7364819049835205,-1.9581480026245117,0.9147172570228577
1758974329941078300,0.301078369140625,4.07483434677124,-2.3855838775634766,1.2896125316619873
1758974329951036200,0.3110361328125,4.504365921020508,-2.9746222496032715,1.7016541957855225
1758974329960993300,0.3209931640625,5.058633327484131,-3.4403247833251953,2.0964369773864746
1758974329970950400,0.330950439453125,5.686697959899902,-3.8346948623657227,2.4148480892181396
1758974329980907300,0.3409072265625,6.300566673278809,-4.040661334991455,2.703061580657959
1758974329990864400,0.350864501953125,6.7047882080078125,-4.138944149017334,2.973734140396118
1758974330000821200,0.3608212890625,6.827970504760742,-4.1883955001831055,3.2213847637176514
1758974330010779100,0.370779052734375,6.753604888916016,-4.110383033752441,3.4471075534820557
1758974330020736300,0.380736328125,6.513628959655762,-3.789963722229004,3.5723559856414795
1758974330030693400,0.390693359375,6.141418933868408,-3.3112428188323975,3.597477674484253
1758974330040650200,0.400650146484375,5.756198406219482,-2.9355061054229736,3.5976192951202393
1758974330050607000,0.410607177734375,5.4161248207092285,-2.6563785076141357,3.5931828022003174
1758974330060564200,0.420564208984375,5.097976207733154,-2.4562764167785645,3.6343815326690674
1758974330070522400,0.4305224609375,4.842423439025879,-2.4220824241638184,3.717480421066284
1758974330080479200,0.440479248046875,4.607729434967041,-2.293393850326538,3.78835391998291
1758974330090436000,0.45043603515625,4.261577606201172,-1.996533751487732,3.8157432079315186
1758974330100393200,0.460393310546875,3.833749771118164,-1.6275367736816406,3.7299227714538574
1758974330110350300,0.470350341796875,3.3625621795654297,-1.1532886028289795,3.558755874633789
1758974330120307200,0.48030712890625,2.9459269046783447,-0.8539140820503235,3.2829036712646484
1758974330130265300,0.490265380859375,2.6441924571990967,-0.7481591701507568,3.0012965202331543
1758974330140222200,0.50022216796875,2.3879971504211426,-0.7432592511177063,2.86691951751709
1758974330150179000,0.510178955078125,2.124677896499634,-0.9020017385482788,2.873549699783325
1758974330160136200,0.52013623046875,1.9107956886291504,-1.1778980493545532,3.0012147426605225
1758974330170093300,0.53009326171875,1.6328966617584229,-1.411391258239746,3.209925413131714
1758974330180050400,0.540050537109375,1.3013685941696167,-1.594403624534607,2.703291177749634
1758974330190007300,0.55000732421875,1.0653632879257202,-2.72278094291687,0.3171912729740143
1758974330199965200,0.559965087890625,0.2264304757118225,-3.723510265350342,-1.4391669034957886
1758974330209922300,0.56992236328125,-0.07154635339975357,-4.157746315002441,-2.0797512531280518
1758974330219879200,0.579879150390625,-0.00640703272074461,-4.202215671539307,-1.780295968055725
1758974330229836300,0.589836181640625,0.15817205607891083,-3.8429696559906006,-0.9496395587921143
1758974330239793400,0.59979345703125,0.06353982537984848,-2.8277227878570557,0.38703054189682007
1758974330249750000,0.60975,0.34535953402519226,-1.754089117050171,1.3124123811721802
1758974330259708200,0.619708251953125,0.6059091091156006,-0.8684206008911133,1.8552695512771606
1758974330269665300,0.629665283203125,0.919325590133667,-0.2576475143432617,2.0328991413116455
1758974330279622400,0.639622314453125,1.2824811935424805,0.06318748742341995,2.076550006866455
1758974330289579300,0.649579345703125,1.5149173736572266,-0.0023409186396747828,2.085174798965454
1758974330299536100,0.6595361328125,1.7130604982376099,-0.30956318974494934,2.007704734802246
1758974330309493200,0.6694931640625,1.7562143802642822,-0.6251195073127747,1.986951470375061
1758974330319451400,0.679451416015625,1.8842504024505615,-1.0931464433670044,1.7120229005813599
1758974330329408300,0.689408203125,1.952958345413208,-1.4498693943023682,1.3842512369155884
1758974330339365000,0.699365234375,1.949137806892395,-1.6836259365081787,1.2064114809036255
1758974330349322200,0.709322265625,1.7339119911193848,-1.4935228824615479,1.0290608406066895
1758974330359279000,0.719279052734375,1.5636640787124634,-0.76921546459198,0.6308991312980652
1758974330369236200,0.729236328125,1.1970338821411133,0.13627740740776062,0.17830023169517517
1758974330379194400,0.7391943359375,0.7426254153251648,0.8148292899131775,-0.060495566576719284
1758974330389151200,0.749151123046875,0.3791310787200928,1.3505915403366089,-0.1722644418478012
1758974330399108000,0.759108154296875,0.021024592220783234,1.845136284828186,-0.24087493121623993
1758974330409065200,0.769065185546875,-0.2533784806728363,2.2571723461151123,-0.3217708468437195
1758974330419022300,0.779022216796875,-0.5423280000686646,2.5069448947906494,-0.47371456027030945
1758974330428979200,0.788979248046875,-0.5825230479240417,2.5478808879852295,-0.5662484765052795
1758974330438937000,0.79893701171875,-0.5224597454071045,2.031461477279663,-0.7691166400909424
1758974330448894200,0.808894287109375,-0.4224167466163635,0.8616833686828613,-0.9561395645141602
1758974330458851300,0.818851318359375,-0.229606032371521,-0.29675522446632385,-1.0836095809936523
1758974330468808200,0.82880810546875,-0.08345787227153778,-1.0232378244400024,-0.8976154923439026
1758974330478765300,0.838765380859375,-0.011264372617006302,-1.3061811923980713,-0.6345263719558716
1758974330488722000,0.848721923828125,0.023139141499996185,-1.408196210861206,-0.2802495062351227
1758974330498679600,0.858679443359375,0.04422897845506668,-1.7520183324813843,0.07997605949640274
1758974330508636700,0.86863671875,0.0346679650247097,-1.8421117067337036,0.11290178447961807
1758974330518593800,0.87859375,-0.13688115775585175,-1.4491018056869507,0.08150551468133926
1758974330528551000,0.888551025390625,-0.09019061177968979,-1.082356572151184,0.04446573555469513
1758974330538507800,0.8985078125,-0.035659462213516235,-0.9189503788948059,0.001032507512718439
1758974330548465000,0.90846484375,-0.2093188613653183,-0.8341838121414185,-0.014767494052648544
1758974330558421800,0.918421875,-0.6660792231559753,-0.8537763953208923,0.08493752777576447
1758974330568379600,0.928379638671875,-1.0902971029281616,-1.2082979679107666,0.4034143090248108
1758974330578336800,0.938336669921875,-0.9387757182121277,-0.9369128346443176,0.32390350103378296
1758974330588294000,0.9482939453125,-0.8683779835700989,-0.7036662697792053,0.34805065393447876
1758974330598250800,0.958250732421875,-0.8566518425941467,-0.8104782104492188,0.26786738634109497
1758974330608207600,0.96820751953125,-0.7921439409255981,-1.0551233291625977,0.11529836058616638
1758974330618164700,0.978164794921875,-0.671330451965332,-1.28903329372406,-0.044138167053461075
1758974330628123000,0.988122802734375,-0.6714766621589661,-1.4626370668411255,-0.16791602969169617
1758974330638079700,0.998079833984375,-0.38891205191612244,-1.794115662574768,-0.3613821566104889
1758974330648036600,1.00803662109375,0.25208204984664917,-2.0878264904022217,-0.7363104820251465
1758974330657993700,1.01799365234375,1.0694456100463867,-2.104581117630005,-1.14286470413208
1758974330667950800,1.027950927734375,1.9048466682434082,-1.820779800415039,-1.389751672744751
1758974330677907700,1.03790771484375,2.6945981979370117,-1.0820242166519165,-1.335074543952942
1758974330687865900,1.047865966796875,3.334632396697998,-0.21511363983154297,-0.8752691745758057
1758974330697822700,1.05782275390625,3.1288414001464844,0.34034425020217896,0.005789179354906082
1758974330707779600,1.067779541015625,2.427260160446167,0.027239875867962837,0.7928395867347717
1758974330717736700,1.07773681640625,2.9154469966888428,-0.5292342901229858,1.2077687978744507
1758974330727693800,1.08769384765625,4.655903339385986,-0.19849684834480286,1.452038288116455
1758974330737651000,1.09765087890625,5.425488471984863,-0.5723263621330261,1.4622669219970703
1758974330747608600,1.107608642578125,1.8078522682189941,-0.9328107833862305,1.9743808507919312
1758974330757565700,1.117565673828125,0.4091995060443878,-1.257183313369751,0.7864522337913513
1758974330767522800,1.127522705078125,0.8267224431037903,-0.1746615618467331,-0.2997097373008728
1758974330777479700,1.137479736328125,0.43474239110946655,0.5938657522201538,-0.5219412446022034
1758974330787436800,1.147436767578125,0.20124763250350952,0.6122660636901855,-0.3781222701072693
1758974330797394000,1.157393798828125,0.1106783077120781,0.23942537605762482,-0.1467612087726593
1758974330807350800,1.167350830078125,0.06208467483520508,-0.13337616622447968,0.0342453233897686
1758974330817308700,1.17730859375,-0.012180766090750694,-0.37940749526023865,0.12750789523124695
1758974330827265800,1.187265869140625,-0.14035364985466003,-0.46433839201927185,0.1323239505290985
1758974330837223000,1.197222900390625,-0.28582215309143066,-0.3937656879425049,0.030735541135072708
1758974330847179800,1.2071796875,-0.16314418613910675,-0.8419283032417297,-0.5524210929870605
1758974330857136600,1.21713671875,0.4479077458381653,-0.6943026185035706,-0.14842942357063293
1758974330867093800,1.22709375,0.9221740961074829,-0.0668804943561554,0.1362113654613495
1758974330877052000,1.237052001953125,0.9550071358680725,0.062132880091667175,0.07382149249315262
1758974330887008800,1.2470087890625,0.6177950501441956,-0.06936096400022507,0.1015268936753273
1758974330896965600,1.256965576171875,0.38888728618621826,-0.2843073606491089,0.2623288333415985
1758974330906922800,1.2669228515625,0.5418587327003479,-0.4446443021297455,0.3813742399215698
1758974330916879600,1.276879638671875,0.7301942706108093,-0.3045676350593567,0.4895039200782776
1758974330926836700,1.286836669921875,0.7899940013885498,0.004821653012186289,0.5587194561958313
1758974330936795000,1.296794921875,0.7231206893920898,0.0394214428961277,0.4914269745349884
1758974330946751700,1.306751708984375,0.6431922912597656,-0.018071943894028664,0.41229090094566345
1758974330956708600,1.31670849609375,0.6062843203544617,0.046485211700201035,0.31411904096603394
1758974330966665700,1.326665771484375,0.6801151633262634,0.13175509870052338,0.36288073658943176
1758974330976622800,1.336622802734375,1.2059341669082642,0.10130558162927628,0.5624780058860779
1758974330986579700,1.346579833984375,2.309697389602661,-0.050640806555747986,0.9681365489959717
1758974330996536800,1.356536865234375,3.4430339336395264,-0.04760560020804405,1.1408201456069946
1758974331006494700,1.36649462890625,4.090794563293457,-0.05793680250644684,0.8506423830986023
1758974331016451800,1.376451904296875,4.386589050292969,-0.5558291673660278,0.44645339250564575
1758974331026408700,1.38640869140625,4.666207790374756,-1.7364273071289062,0.6183574795722961
1758974331036365800,1.39636572265625,4.699730396270752,-1.936449646949768,0.6308868527412415
1758974331046323000,1.406322998046875,4.680032730102539,-1.9038424491882324,0.7990660071372986
1758974331056279600,1.416279541015625,4.736599445343018,-2.0395150184631348,1.2659517526626587
1758974331066237700,1.42623779296875,4.809539318084717,-1.6223891973495483,1.5732402801513672
1758974331076194800,1.43619482421875,4.913243293762207,-0.7494819760322571,1.5788174867630005
1758974331086152000,1.44615185546875,5.016206741333008,-0.11547280102968216,0.9888210296630859
1758974331096108800,1.45610888671875,5.967443943023682,-0.9102529883384705,0.20191740989685059
1758974331106065700,1.466065673828125,6.755212306976318,-2.7809951305389404,-0.9887139797210693
1758974331116022800,1.476022705078125,4.930308818817139,-4.186977386474609,-1.4655511379241943
1758974331125981000,1.48598095703125,3.318452835083008,-5.885494232177734,-0.20242208242416382
1758974331135937800,1.495937744140625,3.151439666748047,-6.1945881843566895,0.8480871319770813
1758974331145894700,1.505894775390625,0.6784735918045044,-5.598273277282715,0.6075059175491333
1758974331155851800,1.515851806640625,-0.039264049381017685,-6.066730499267578,0.7315889596939087
1758974331165808600,1.52580859375,-0.2581665813922882,-5.9320197105407715,0.6207993626594543
1758974331175765800,1.535765869140625,0.26101720333099365,-4.9175004959106445,0.5526219010353088
1758974331185723000,1.545722900390625,0.7461892366409302,-3.7436721324920654,0.5053367018699646
1758974331195680800,1.5556806640625,0.8460982441902161,-2.5851995944976807,0.35585689544677734
1758974331205637600,1.5656376953125,0.7130720019340515,-1.4569395780563354,0.07944102585315704
1758974331215594800,1.5755947265625,0.35139691829681396,-0.4133521616458893,-0.13669419288635254
1758974331225552000,1.5855517578125,0.03657612204551697,0.3465246558189392,-0.24469444155693054
1758974331235508700,1.5955087890625,-0.21884632110595703,0.8446694612503052,-0.270102322101593
1758974331245465900,1.6054658203125,-0.33703234791755676,1.2298091650009155,-0.3371569812297821
1758974331255423700,1.615423828125,-0.3569059371948242,1.551425814628601,-0.44636788964271545
1758974331265380900,1.625380859375,-0.403769850730896,1.8948670625686646,-0.5237465500831604
1758974331275337700,1.635337646484375,-0.48809829354286194,2.3248491287231445,-0.55433189868927
1758974331285294800,1.645294921875,-0.5930476188659668,2.880527973175049,-0.5809766054153442
1758974331295252000,1.655251953125,-0.6517013311386108,3.4716427326202393,-0.5634705424308777
1758974331305208600,1.66520849609375,-0.5610926151275635,3.729447603225708,-0.334852010011673
1758974331315165700,1.675165771484375,-0.5825920701026917,3.793048858642578,-0.030769364908337593
1758974331325123800,1.685123779296875,-0.6138581037521362,3.8999874591827393,0.16106584668159485
1758974331335081000,1.6950810546875,-0.32388219237327576,3.877748966217041,0.2253500372171402
1758974331345037800,1.705037841796875,-0.01264016143977642,3.6421310901641846,0.13835202157497406
1758974331354994700,1.71499462890625,0.10870517790317535,3.129592180252075,-0.07951666414737701
1758974331364951800,1.724951904296875,0.009093896485865116,2.2533562183380127,-0.2666255533695221
1758974331374908700,1.73490869140625,-0.11333055049180984,1.0397928953170776,-0.17146602272987366
1758974331384866800,1.74486669921875,0.001654355670325458,0.2465818226337433,-0.04608174040913582
1758974331394823700,1.75482373046875,0.0096835196018219,-0.14090092480182648,-0.02430826984345913
1758974331404780800,1.76478076171875,0.024896295741200447,-0.4157050549983978,-0.04567427933216095
1758974331414737700,1.774737548828125,0.05517537146806717,-0.6609385013580322,-0.036077044904232025
1758974331424694800,1.78469482421875,0.04404202476143837,-0.8385964035987854,0.008138620294630527
1758974331434652000,1.79465185546875,0.004457599017769098,-0.944343626499176,0.07261055707931519
1758974331444608800,1.80460888671875,-0.04923092946410179,-0.9500941634178162,0.14635029435157776
1758974331454566700,1.814566650390625,-0.11135794967412949,-0.8723442554473877,0.2169128656387329
1758974331464523800,1.824523681640625,-0.16550560295581818,-0.7319623827934265,0.26603007316589355
1758974331474481000,1.83448095703125,-0.20145215094089508,-0.5594508051872253,0.27878981828689575
1758974331484438800,1.844438720703125,-0.20565195381641388,-0.3569570481777191,0.25334519147872925
1758974331494395600,1.854395751953125,-0.17782272398471832,-0.14510498940944672,0.18324439227581024
1758974331504352800,1.864352783203125,-0.11568958312273026,0.04319221153855324,0.07696428894996643
1758974331514311000,1.874310791015625,-0.04176502302289009,0.20137359201908112,-0.05752534419298172
1758974331524267800,1.884267822265625,0.031442876905202866,0.35586249828338623,-0.20067185163497925
1758974331534224600,1.894224609375,0.0885266661643982,0.4865933358669281,-0.30622702836990356
1758974331544181800,1.904181640625,0.12244921922683716,0.6074239015579224,-0.3659692108631134
1758974331554138600,1.914138671875,0.14255687594413757,0.6871466636657715,-0.3959132432937622
1758974331564095700,1.924095703125,0.16051962971687317,0.7043299078941345,-0.40786683559417725
1758974331574052900,1.934052978515625,0.1838180422782898,0.6618149876594543,-0.40173518657684326
1758974331584010800,1.9440107421875,0.19638709723949432,0.6119571328163147,-0.37128886580467224
1758974331593967600,1.953967529296875,0.19851069152355194,0.5921714305877686,-0.3257754445075989
1758974331603924700,1.9639248046875,0.18527691066265106,0.5701258182525635,-0.25410231947898865
1758974331613881900,1.9738818359375,0.15774887800216675,0.5140334963798523,-0.16223923861980438
1758974331623838700,1.983838623046875,0.119462750852108,0.41736286878585815,-0.057864896953105927
1758974331633795800,1.9937958984375,0.07579702883958817,0.3066403567790985,0.03244555741548538
1758974331643752700,2.003752685546875,0.03422854468226433,0.23690815269947052,0.07287739962339401
1758974331653710800,2.0137109375,0.005943642929196358,0.19243016839027405,0.08342485129833221
1758974331663667700,2.023667724609375,-0.0244294423609972,0.15485456585884094,0.09183724224567413
1758974331673624800,2.033624755859375,-0.05758633092045784,0.12089419364929199,0.111470066010952
1758974331683582000,2.04358203125,-0.08730587363243103,0.0975867435336113,0.14440111815929413
1758974331693538600,2.05353857421875,-0.11376624554395676,0.07040678709745407,0.17697663605213165
1758974331703495700,2.06349560546875,-0.13388828933238983,0.037218742072582245,0.20473264157772064
1758974331713453800,2.073453857421875,-0.153766930103302,0.016514528542757034,0.21778452396392822
1758974331723411000,2.083410888671875,-0.16379879415035248,0.01920352131128311,0.2238682508468628
1758974331733367800,2.093367919921875,-0.17164738476276398,0.019459186121821404,0.24416126310825348
1758974331743324700,2.10332470703125,-0.1838529258966446,-0.051175303757190704,0.2952337861061096
1758974331753281800,2.11328173828125,-0.20876626670360565,-0.23369024693965912,0.3851870894432068
1758974331763238700,2.12323876953125,-0.2142917811870575,-0.4916328489780426,0.5069404244422913
1758974331773196800,2.13319677734375,-0.19436468183994293,-0.7375893592834473,0.6194563508033752
1758974331783153700,2.143153564453125,-0.19205759465694427,-0.8734267950057983,0.6769062876701355
1758974331793110800,2.15311083984375,-0.2095731943845749,-0.8299611210823059,0.6525216102600098
1758974331803067600,2.163067626953125,-0.22222614288330078,-0.601849377155304,0.5517430305480957
1758974331813024800,2.173024658203125,-0.23725809156894684,-0.22586721181869507,0.3968983590602875
1758974331822982000,2.18298193359375,-0.24464116990566254,0.19021254777908325,0.23969967663288116
1758974331832938800,2.192938720703125,-0.2415737360715866,0.44126421213150024,0.14686454832553864
1758974331842896600,2.202896728515625,-0.2259274125099182,0.3902740180492401,0.13386325538158417
1758974331852853800,2.212853759765625,-0.1857304573059082,0.17935697734355927,0.09838595986366272
1758974331862811000,2.222810791015625,-0.10535118728876114,-0.04771345853805542,0.029415946453809738
1758974331872767700,2.232767822265625,-0.027879834175109863,-0.21570833027362823,-0.04236689954996109
1758974331882724900,2.242724853515625,0.028250547125935555,-0.24547900259494781,-0.10470724105834961
1758974331892681700,2.252681640625,0.04489557072520256,-0.1859927773475647,-0.14483095705509186
1758974331902638600,2.262638671875,0.030364563688635826,-0.10555785149335861,-0.14553828537464142
1758974331912596700,2.2725966796875,0.0008058725506998599,-0.011923238635063171,-0.11277741193771362
1758974331922553900,2.282553955078125,-0.03809066116809845,0.09149449318647385,-0.0597674585878849
1758974331932511000,2.292510986328125,-0.07068801671266556,0.17145004868507385,-0.0022173479665070772
1758974331942467600,2.302467529296875,-0.09254644811153412,0.18676908314228058,0.041240379214286804
1758974331952424700,2.3124248046875,-0.10665267705917358,0.1227743849158287,0.06890955567359924
1758974331962381800,2.3223818359375,-0.1056063175201416,0.013574131764471531,0.08265306800603867
1758974331972340000,2.332340087890625,-0.09571321308612823,-0.11817643791437149,0.09459041804075241
1758974331982296800,2.342296875,-0.07505001127719879,-0.23904800415039062,0.10355834662914276
1758974331992253700,2.352253662109375,-0.05961992219090462,-0.31874096393585205,0.10463427007198334
1758974332002210800,2.3622109375,-0.04710466042160988,-0.34938567876815796,0.09611853957176208
1758974332012167700,2.372167724609375,-0.03785044327378273,-0.3529767096042633,0.08170338720083237
1758974332022124800,2.382124755859375,-0.033958498388528824,-0.34087714552879333,0.07046537846326828
1758974332032082700,2.392082763671875,-0.03279629722237587,-0.304692804813385,0.06585358083248138
1758974332042039800,2.402039794921875,-0.034439731389284134,-0.2535843253135681,0.06298056244850159
1758974332051996700,2.41199658203125,-0.043897949159145355,-0.20439627766609192,0.055326372385025024
1758974332061953800,2.421953857421875,-0.05326215550303459,-0.16903109848499298,0.042929623275995255
1758974332071911000,2.431910888671875,-0.05902150645852089,-0.1533179134130478,0.02948518842458725
1758974332081867800,2.44186767578125,-0.06354808062314987,-0.14853034913539886,0.016982711851596832
1758974332091825000,2.451824951171875,-0.06537368148565292,-0.14353851974010468,0.00926327332854271
1758974332101782800,2.46178271484375,-0.07050106674432755,-0.13524118065834045,0.0057348511181771755
1758974332111740000,2.471739990234375,-0.07811344414949417,-0.09878463298082352,-0.02455541118979454
1758974332121696800,2.48169677734375,-0.06834203749895096,-0.0508650466799736,-0.04523086175322533
1758974332131654000,2.49165380859375,-0.056716009974479675,-0.02414022386074066,-0.04773370176553726
1758974332141610800,2.50161083984375,-0.05176039785146713,-0.025135446339845657,-0.036559876054525375
1758974332151567600,2.511567626953125,-0.04833371192216873,-0.024814801290631294,-0.025142904371023178
1758974332161524700,2.521524658203125,-0.044606082141399384,-0.010999388061463833,-0.023322366178035736
1758974332171483000,2.53148291015625,-0.04132826626300812,0.008874451741576195,-0.03129613772034645
1758974332181439700,2.541439697265625,-0.039920784533023834,0.01721733622252941,-0.04090429097414017
1758974332191396600,2.551396728515625,-0.04114530608057976,0.00935328844934702,-0.048055410385131836
1758974332201353700,2.561353759765625,-0.046728089451789856,-0.0018154769204556942,-0.03892422839999199
1758974332211310800,2.571310791015625,-0.05119181424379349,-0.013410613872110844,-0.026125077158212662
1758974332221267700,2.581267822265625,-0.05356069654226303,-0.02093910425901413,-0.013230584561824799
1758974332231225900,2.591225830078125,-0.05194469168782234,-0.02942952699959278,-0.004771052859723568
1758974332241182700,2.6011826171875,-0.046191997826099396,-0.04968872666358948,0.0007337008719332516
1758974332251139600,2.6111396484375,-0.04253840446472168,-0.08087114989757538,0.001791242160834372
1758974332261096700,2.6210966796875,-0.030376281589269638,-0.12161804735660553,0.0030479878187179565
1758974332271053800,2.6310537109375,-0.01943814568221569,-0.15290352702140808,-0.003008306724950671
1758974332281011000,2.641010986328125,-0.017363011837005615,-0.15604259073734283,-0.01383858360350132
1758974332290967800,2.6509677734375,-0.012113654054701328,-0.12812495231628418,-0.0237031988799572
1758974332300925700,2.66092578125,-0.011796738021075726,-0.08773571252822876,-0.0296122208237648
1758974332310882800,2.6708828125,-0.0075543224811553955,-0.05132816731929779,-0.030485471710562706
1758974332320839700,2.680839599609375,-0.004830175079405308,-0.018574750050902367,-0.035356923937797546
1758974332330796800,2.690796875,-0.0029401297215372324,0.009184709750115871,-0.04079803079366684
1758974332340754000,2.70075390625,-0.0000476705827168189,0.0224994495511055,-0.0467563197016716
1758974332350710800,2.710710693359375,0.0021403825376182795,0.019838152453303337,-0.04928472638130188
1758974332360668700,2.720668701171875,0.005628857295960188,0.008017978630959988,-0.047624778002500534
1758974332370625800,2.730625732421875,0.008268049918115139,0.0013699301052838564,-0.04730067029595375
1758974332380583000,2.7405830078125,0.005373193882405758,0.006178000941872597,-0.05419879034161568
1758974332390539500,2.75053955078125,0.005565473809838295,0.0180575642734766,-0.05901298671960831
1758974332400496600,2.76049658203125,0.008744489401578903,0.026262495666742325,-0.05787315219640732
1758974332410453800,2.770453857421875,0.009153018705546856,0.011914982460439205,-0.04855288937687874
1758974332420411000,2.780410888671875,0.0121866250410676,-0.015925703570246696,-0.033317744731903076
1758974332430368800,2.79036865234375,0.014653244987130165,-0.03319550305604935,-0.020543357357382774
1758974332440325600,2.80032568359375,0.019227756187319756,-0.026432938873767853,-0.017671937122941017
1758974332450282800,2.81028271484375,0.020969729870557785,-0.013816479593515396,-0.016859939321875572
1758974332460239600,2.820239501953125,0.020859476178884506,-0.0054845139384269714,-0.011667042039334774
1758974332470196700,2.83019677734375,0.017790714278817177,-0.007110107224434614,-0.00443869037553668
1758974332480153900,2.84015380859375,0.012972258031368256,-0.01577203907072544,0.005407015793025494
1758974332490110500,2.8501103515625,0.009874202311038971,-0.022760972380638123,0.00923291314393282
1758974332500068400,2.860068359375,0.008707204833626747,-0.02442012168467045,0.0031284152064472437
1758974332510025200,2.870025146484375,0.004864796530455351,-0.017765413969755173,-0.004063184838742018
1758974332519982300,2.879982421875,0.0024229439441114664,-0.009039035066962242,-0.00785392802208662
1758974332529939500,2.889939453125,0.005638444796204567,-0.003677825443446636,-0.01363378670066595
1758974332539896600,2.899896484375,0.004233627114444971,0.01065211184322834,-0.013702495954930782
1758974332549853400,2.909853515625,0.004772651009261608,0.021518608555197716,-0.014210361056029797
1758974332559811300,2.919811279296875,0.006171609275043011,0.024655278772115707,-0.014462295919656754
1758974332569768400,2.9297685546875,0.004585430957376957,0.03726374730467796,-0.015566443093121052
1758974332579725300,2.939725341796875,0.002966228872537613,0.05465232580900192,-0.015233813785016537
1758974332589682400,2.949682373046875,0.003970507066696882,0.057257696986198425,-0.013020726852118969
1758974332599639300,2.959639404296875,-0.0027595674619078636,0.04770733416080475,-0.01315122190862894
1758974332609596400,2.969596435546875,-0.002525475574657321,0.04710252955555916,-0.007093063089996576
1758974332619553300,2.97955322265625,-0.0035582494456321,0.0638871043920517,0.0038810246624052525
1758974332629511400,2.989511474609375,-0.006517554167658091,0.08320008218288422,0.010945059359073639
1758974332639468500,2.999468505859375,-0.00762969022616744,0.08660626411437988,0.015983227640390396
1758974332649425200,3.009425048828125,-0.007893876172602177,0.07175594568252563,0.019752133637666702
1758974332659382300,3.01938232421875,-0.007673365995287895,0.0501723550260067,0.023634755983948708
1758974332669339400,3.02933935546875,-0.0057433731853961945,0.045935001224279404,0.024895230308175087
1758974332679296500,3.039296630859375,-0.006358563434332609,0.05084720253944397,0.026998594403266907
1758974332689253400,3.04925341796875,-0.009585515595972538,0.0709679126739502,0.024174045771360397
1758974332699211300,3.059211181640625,-0.01230593491345644,0.10235220193862915,0.022220883518457413
1758974332709168400,3.06916845703125,-0.01206971239298582,0.1155066192150116,0.020563066005706787
1758974332719125200,3.079125244140625,-0.010921357199549675,0.10083473473787308,0.020989704877138138
1758974332729082400,3.089082275390625,-0.0031092404387891293,0.07246328145265579,0.01872148923575878
1758974332739039500,3.09903955078125,0.001734516816213727,0.053890660405159,0.014523815363645554
1758974332748996600,3.10899658203125,0.009269664995372295,0.05693678557872772,0.009409214369952679
1758974332758953200,3.118953125,0.007196660153567791,0.08304028958082199,0.010142648592591286
1758974332768911400,3.128911376953125,0.006045375484973192,0.10704735666513443,0.015127287246286869
1758974332778868500,3.138868408203125,0.004165716469287872,0.10864339023828506,0.023739418014883995
1758974332788825300,3.148825439453125,0.005817142780870199,0.09173524379730225,0.03032701276242733
1758974332798782500,3.158782470703125,0.008081628940999508,0.06842273473739624,0.03147563338279724
1758974332808739300,3.1687392578125,0.0096835196018219,0.04749082028865814,0.0284111350774765
1758974332818696400,3.178696533203125,0.012320848181843758,0.04679839685559273,0.02141847275197506
1758974332828654300,3.188654296875,0.009956227615475655,0.05335270240902901,0.018499381840229034
1758974332838611500,3.198611572265625,0.007297327741980553,0.05032522231340408,0.021332452073693275
1758974332848568300,3.208568359375,0.00694845337420702,0.03954740986227989,0.021259216591715813
1758974332858525200,3.218525146484375,0.007727960590273142,0.023742614313960075,0.019816847518086433
1758974332868482300,3.228482421875,0.012945892289280891,-0.004522047471255064,0.014977884478867054
1758974332878439400,3.238439453125,0.010205233469605446,-0.02381904609501362,0.0060080913826823235
1758974332888396300,3.248396240234375,0.007644337601959705,-0.009100819937884808,0.006621151231229305
1758974332898354200,3.258354248046875,0.004096208140254021,0.013703561387956142,0.009492038749158382
1758974332908311300,3.268311279296875,0.003483414649963379,0.029575202614068985,0.012751481495797634
1758974332918268400,3.278268310546875,0.008646751753985882,0.015051120892167091,0.008745288476347923
1758974332928225300,3.288225341796875,0.012445750646293163,-0.012738165445625782,-0.004463191609829664
1758974332938182400,3.298182373046875,0.0170250553637743,-0.025551965460181236,-0.015784556046128273
1758974332948139500,3.308139404296875,0.0160660520195961,-0.020357469096779823,-0.014095046557486057
1758974332958096400,3.318096435546875,0.013789848424494267,-0.010667557828128338,-0.01152616087347269
1758974332968054300,3.32805419921875,0.01227344386279583,0.009100021794438362,-0.005873069167137146
1758974332978011400,3.338011474609375,0.012138954363763332,0.028506742790341377,-0.007617173250764608
1758974332987968500,3.347968505859375,0.014620487578213215,0.02714693173766136,-0.015850868076086044
1758974332997925400,3.35792529296875,0.017298296093940735,0.010633469559252262,-0.02099263295531273
1758974333007882200,3.36788232421875,0.015806393697857857,0.0012716593919321895,-0.022901587188243866
1758974333017839400,3.37783935546875,0.014570420607924461,0.0020682108588516712,-0.022107964381575584
1758974333027796200,3.387796142578125,0.011626562103629112,0.005796902813017368,-0.01894412934780121
1758974333037754400,3.39775439453125,0.010525078512728214,0.0035627768374979496,-0.017358750104904175
1758974333047711500,3.40771142578125,0.014740596525371075,-0.0051801144145429134,-0.019658390432596207
1758974333057668400,3.41766845703125,0.01871509850025177,-0.022554844617843628,-0.022112492471933365
1758974333067625200,3.427625244140625,0.022541262209415436,-0.037266943603754044,-0.022312495857477188
1758974333077582300,3.437582275390625,0.027412183582782745,-0.04273361340165138,-0.02082591876387596
1758974333087539500,3.44753955078125,0.02719273790717125,-0.03322692960500717,-0.02256043627858162
1758974333097496300,3.457496337890625,0.02208665944635868,-0.00945102609694004,-0.023576432839035988
1758974333107454200,3.4674541015625,0.016166718676686287,0.021212078630924225,-0.02437511458992958
1758974333117411300,3.477411376953125,0.010842527262866497,0.02857598476111889,-0.02136627584695816
1758974333127368400,3.487368408203125,0.01034558191895485,0.006725014187395573,-0.01648443378508091
1758974333137325300,3.4973251953125,0.01607191003859043,-0.030953655019402504,-0.013638313859701157
1758974333147282400,3.507282470703125,0.01956304907798767,-0.06539125740528107,-0.009910954162478447
1758974333157239600,3.517239501953125,0.018854381516575813,-0.08632104098796844,-0.014064420014619827
1758974333167196200,3.527196044921875,0.02075454592704773,-0.08377106487751007,-0.02346164919435978
1758974333177154300,3.537154296875,0.017671404406428337,-0.05402062460780144,-0.03281653672456741
1758974333187111400,3.547111328125,0.012515525333583355,0.002767024328932166,-0.04057219251990318
1758974333197068500,3.557068603515625,0.0095671396702528,0.06647276878356934,-0.03782833740115166
1758974333207025400,3.567025390625,0.008474711328744888,0.09973405301570892,-0.031620778143405914
1758974333216982300,3.576982177734375,0.012462528422474861,0.10572722554206848,-0.024469923228025436
1758974333226939400,3.586939453125,0.02040194347500801,0.08883053809404373,-0.018262093886733055
1758974333236896300,3.596896240234375,0.030349383130669594,0.06239733099937439,-0.013340839184820652
1758974333246854400,3.6068544921875,0.038956187665462494,0.04339967295527458,-0.01417494099587202
1758974333256811300,3.616811279296875,0.04969192296266556,0.023501863703131676,-0.011828163638710976
1758974333266768400,3.626768310546875,0.05148715898394585,0.0033595776185393333,-0.008195078931748867
1758974333276725200,3.636725341796875,0.04904157668352127,-0.012011389248073101,0.0022186795249581337
1758974333286682400,3.646682373046875,0.04830148443579674,-0.030489731580018997,0.010801514610648155
1758974333296639500,3.656639404296875,0.03903688117861748,-0.057685401290655136,0.014184794388711452
1758974333306596400,3.666596435546875,0.024038756266236305,-0.06728875637054443,0.009437443688511848
1758974333316554200,3.67655419921875,0.0010242518037557602,-0.03326874226331711,0.008309861645102501
1758974333326511400,3.686511474609375,-0.016533968970179558,0.01926051266491413,0.021954301744699478
1758974333336468500,3.696468505859375,-0.029818881303071976,0.06184898689389229,0.03621579334139824
1758974333346425300,3.70642529296875,-0.03315715491771698,0.0885772705078125,0.041009485721588135
1758974333356382500,3.716382568359375,-0.025469940155744553,0.1084577664732933,0.03630634397268295
1758974333366339300,3.72633935546875,-0.019542807713150978,0.10507315397262573,0.0283522792160511
1758974333376296200,3.736296142578125,-0.00908457487821579,0.07639490813016891,0.02418869361281395
1758974333386254300,3.74625439453125,0.00012676646292675287,0.035118307918310165,0.02160196378827095
1758974333396211500,3.75621142578125,0.009224656969308853,0.002266616327688098,0.020914869382977486
1758974333406168600,3.76616845703125,0.011575429700314999,-0.001657285145483911,0.020605409517884254
1758974333416125200,3.776125244140625,0.0070336745120584965,0.014196246862411499,0.025961292907595634
1758974333426082300,3.786082275390625,-0.000648479734081775,0.03213689848780632,0.031497471034526825
1758974333436039400,3.796039306640625,-0.011652927845716476,0.036681316792964935,0.03609462082386017
1758974333445996300,3.805996337890625,-0.025673139840364456,0.023431556299328804,0.03838254138827324
1758974333455954400,3.815954345703125,-0.03710555657744408,0.008068579249083996,0.03886217623949051
1758974333465911300,3.825911376953125,-0.03831649571657181,-0.004366252571344376,0.034927625209093094
1758974333475868400,3.835868408203125,-0.033672209829092026,-0.014061756432056427,0.023982031270861626
1758974333485825500,3.845825439453125,-0.022952986881136894,-0.017709488049149513,-0.0012293151812627912
1758974333495782700,3.85578271484375,-0.0035896748304367065,-0.008216651156544685,-0.03193183243274689
1758974333505739800,3.86573974609375,0.015504124574363232,0.008831574581563473,-0.0570630207657814
1758974333515696600,3.875696533203125,0.03253983333706856,0.03376195952296257,-0.06858278810977936
1758974333525654500,3.885654541015625,0.03946405276656151,0.054242201149463654,-0.06482719630002975
1758974333535611600,3.895611572265625,0.03465624898672104,0.06577368825674057,-0.05104294419288635
1758974333545568800,3.90556884765625,0.023605193942785263,0.05564621835947037,-0.027228690683841705
1758974333555525600,3.915525634765625,0.008933041244745255,0.03406529128551483,0.0005677859298884869
1758974333565482500,3.925482421875,-0.008686698973178864,0.01089552417397499,0.01913134939968586
1758974333575439600,3.935439697265625,-0.027573836967349052,-0.018508169800043106,0.035168372094631195
1758974333585396500,3.945396484375,-0.04083850979804993,-0.03203330188989639,0.04205717146396637
1758974333595354600,3.955354736328125,-0.04854489862918854,-0.027346935123205185,0.04430381581187248
1758974333605311700,3.965311767578125,-0.046359509229660034,-0.01967676542699337,0.036246687173843384
1758974333615268600,3.9752685546875,-0.03780676797032356,-0.02365419641137123,0.030113693326711655
1758974333625225500,3.9852255859375,-0.025895513594150543,-0.03333718329668045,0.020381437614560127
1758974333635182600,3.9951826171875,-0.017433585599064827,-0.028145086020231247,0.007466704584658146
1758974333645139700,4.0051396484375,-0.006659500766545534,-0.015905994921922684,-0.002775812754407525
1758974333655096600,4.0150966796875,0.002055161399766803,-0.007345797028392553,-0.008787100203335285
1758974333665054500,4.025054443359375,0.012986105866730213,-0.01483194250613451,-0.013961355201900005
1758974333675011600,4.035011474609375,0.021672537550330162,-0.03133635222911835,-0.025644376873970032
1758974333684968700,4.04496875,0.03159947320818901,-0.050215501338243484,-0.039678171277046204
1758974333694925600,4.054925537109375,0.035537753254175186,-0.05678818002343178,-0.048347558826208115
1758974333704882700,4.064882568359375,0.032716136425733566,-0.05013667047023773,-0.052920207381248474
1758974333714839800,4.07483984375,0.024925855919718742,-0.022242721170186996,-0.05047489330172539
1758974333724796400,4.08479638671875,0.0131496237590909,0.016970194876194,-0.04448064789175987
1758974333734754600,4.094754638671875,0.0003448793722782284,0.05560706928372383,-0.03680994734168053
1758974333744711700,4.104711669921875,-0.004701278172433376,0.06935617327690125,-0.02749953418970108
1758974333754668800,4.114668701171875,-0.002870887517929077,0.05889261141419411,-0.025046763941645622
1758974333764625700,4.124625732421875,0.004194212146103382,0.03183755651116371,-0.027301661670207977
1758974333774582500,4.13458251953125,0.015335813164710999,-0.005405418109148741,-0.032410137355327606
1758974333784539600,4.14453955078125,0.022530077025294304,-0.049607232213020325,-0.03765762969851494
1758974333794496500,4.15449658203125,0.023204121738672256,-0.09129130095243454,-0.040829453617334366
1758974333804453600,4.16445361328125,0.024773789569735527,-0.11627227813005447,-0.04532593488693237
1758974333814411500,4.17441162109375,0.023023827001452446,-0.11976341903209686,-0.04734647646546364
1758974333824368600,4.18436865234375,0.023873373866081238,-0.12076583504676819,-0.04826952889561653
1758974333834325500,4.194325439453125,0.03122689574956894,-0.13095694780349731,-0.04878538101911545
1758974333844282600,4.20428271484375,0.03732660040259361,-0.14488954842090607,-0.053165748715400696
1758974333854239700,4.21423974609375,0.04075329005718231,-0.15650412440299988,-0.0636649951338768
1758974333864196600,4.224196533203125,0.03639422729611397,-0.1439710259437561,-0.07678079605102539
1758974333874153700,4.23415380859375,0.025552231818437576,-0.09587433189153671,-0.08067993074655533
1758974333884111600,4.244111572265625,0.013569071888923645,-0.033304162323474884,-0.06964938342571259
1758974333894068700,4.25406884765625,0.0024082965683192015,0.01335708424448967,-0.05175640434026718
1758974333904025600,4.264025634765625,-0.0022397185675799847,0.026998328045010567,-0.0379689522087574
1758974333913982700,4.273982666015625,-0.002544117858633399,0.014873221516609192,-0.03380536660552025
1758974333923939600,4.283939697265625,0.001416269107721746,-0.00016698020044714212,-0.038117557764053345
1758974333933896400,4.293896484375,0.003620567498728633,-0.01495098602026701,-0.04855715110898018
1758974333943853600,4.303853515625,0.0005936186062172055,-0.014670821838080883,-0.05446803569793701
1758974333953811700,4.313811767578125,-0.002019208623096347,-0.005939648021012545,-0.05667393282055855
1758974333963768800,4.323768798828125,-0.00586614478379488,0.01131044514477253,-0.05548775941133499
1758974333973725400,4.333725341796875,-0.0073082465678453445,0.013464409857988358,-0.05433114990592003
1758974333983682600,4.3436826171875,-0.005607551895081997,-0.006481601390987635,-0.051595281809568405
1758974333993639700,4.3536396484375,0.00287408335134387,-0.03658171370625496,-0.04788283631205559
1758974334003596500,4.363596435546875,0.010016947984695435,-0.05179821699857712,-0.05216839537024498
1758974334013553700,4.3735537109375,0.01034478284418583,-0.030880950391292572,-0.05356016382575035
1758974334023511600,4.383511474609375,0.004599545616656542,0.02208905667066574,-0.055395081639289856
1758974334033468700,4.39346875,-0.0013811152894049883,0.09542772173881531,-0.057977549731731415
1758974334043425500,4.403425537109375,-0.00854555144906044,0.1507016271352768,-0.05903083086013794
1758974334053382700,4.413382568359375,-0.010840130969882011,0.17864350974559784,-0.054118361324071884
1758974334063339800,4.42333984375,-0.010844924487173557,0.17784349620342255,-0.045582130551338196
1758974334073296600,4.433296630859375,-0.006103964988142252,0.14606931805610657,-0.03756202384829521
1758974334083253500,4.44325341796875,-0.00018988338706549257,0.10405077040195465,-0.03839612379670143
1758974334093211600,4.453211669921875,0.005623531062155962,0.06984645873308182,-0.041194040328264236
1758974334103168800,4.463168701171875,0.006449909880757332,0.05903375893831253,-0.04399222508072853
1758974334113125600,4.473125732421875,0.0024501082953065634,0.06807971745729446,-0.0367170013487339
1758974334123082800,4.483082763671875,-0.00643686018884182,0.08797859400510788,-0.029992520809173584
1758974334133039600,4.49303955078125,-0.013994645327329636,0.11030200868844986,-0.02135349251329899
1758974334142996500,4.50299658203125,-0.017110809683799744,0.13156680762767792,-0.01619468256831169
1758974334152953600,4.51295361328125,-0.016391223296523094,0.14850930869579315,-0.017235711216926575
1758974334162910700,4.52291064453125,-0.00902811624109745,0.143813356757164,-0.025472071021795273
1758974334172868600,4.53286865234375,-0.00253399764187634,0.12433606386184692,-0.038415566086769104
1758974334182825500,4.542825439453125,0.004625111818313599,0.11202347278594971,-0.053281065076589584
1758974334192782600,4.552782470703125,0.0067939902655780315,0.11765046417713165,-0.06235605105757713
1758974334202739700,4.56273974609375,0.006997722201049328,0.13212928175926208,-0.06414996087551117
1758974334212696600,4.572696533203125,0.004640025552362204,0.13137932121753693,-0.05420145392417908
1758974334222653700,4.58265380859375,0.007900000549852848,0.10671126842498779,-0.04469902813434601
1758974334232610800,4.59261083984375,0.00959909800440073,0.07101638615131378,-0.03478088229894638
1758974334242568700,4.602568603515625,0.013087572529911995,0.0363612025976181,-0.03268923610448837
1758974334252525600,4.612525634765625,0.016943030059337616,0.015369635075330734,-0.029744047671556473
1758974334262482700,4.622482666015625,0.01630626805126667,0.013320066034793854,-0.026251044124364853
1758974334272439800,4.632439697265625,0.011018296703696251,0.024051539599895477,-0.01811482198536396
1758974334282396700,4.642396728515625,0.004289020784199238,0.03701847046613693,-0.00911733228713274
1758974334292353500,4.652353515625,0.00003222424857085571,0.032580580562353134,-0.0009219863568432629
1758974334302310700,4.662310546875,-0.0007113303290680051,0.010870757512748241,-0.00004340952364145778
1758974334312268800,4.672268798828125,0.0021108214277774096,-0.017375528812408447,-0.0024951156228780746
1758974334322225700,4.6822255859375,0.004381166305392981,-0.039091210812330246,-0.00836818479001522
1758974334332182500,4.6921826171875,0.00962413102388382,-0.04364814609289169,-0.01599840819835663
1758974334342139600,4.7021396484375,0.01115997601300478,-0.04044702649116516,-0.017192035913467407
1758974334352096500,4.712096435546875,0.01212990004569292,-0.035048529505729675,-0.01641838811337948
1758974334362053600,4.7220537109375,0.014627145603299141,-0.03634309396147728,-0.018633339554071426
1758974334372010800,4.7320107421875,0.018604310229420662,-0.04644739255309105,-0.025242239236831665
1758974334381967600,4.741967529296875,0.019233616068959236,-0.05776369571685791,-0.026812706142663956
1758974334391925500,4.751925537109375,0.01841655746102333,-0.06509857624769211,-0.02629658579826355
1758974334401882600,4.761882568359375,0.013453757390379906,-0.06561922281980515,-0.024086160585284233
1758974334411839700,4.77183984375,0.008697085082530975,-0.060755759477615356,-0.021344436332583427
1758974334421796600,4.781796630859375,0.0007850998663343489,-0.051245611160993576,-0.023308252915740013
1758974334431753700,4.791753662109375,-0.003282346064224839,-0.03760356828570366,-0.031512387096881866
1758974334441710600,4.801710693359375,-0.008405202999711037,-0.02004135213792324,-0.0445174016058445
1758974334451667500,4.81166748046875,-0.009693107567727566,-0.006317284423857927,-0.05946971848607063
1758974334461625600,4.82162548828125,-0.007439007982611656,-0.004381965380162001,-0.06946749240159988
1758974334471582700,4.831582763671875,-0.005689577199518681,-0.0029057750944048166,-0.07213864475488663
1758974334481539800,4.841539794921875,0.0020003002136945724,-0.0025960493367165327,-0.07345850765705109
1758974334491496200,4.85149609375,0.010183927603065968,-0.009358348324894905,-0.08096648752689362
1758974334501453000,4.861453125,0.018925754353404045,-0.016231700778007507,-0.09504955261945724
1758974334511410200,4.87141015625,0.02159743756055832,-0.01396055705845356,-0.10807773470878601
1758974334521367000,4.881366943359375,0.019059976562857628,0.009959157556295395,-0.11856552958488464
1758974334531324200,4.89132421875,0.010555172339081764,0.05169941484928131,-0.12184680998325348
1758974334541282300,4.9012822265625,0.005575594026595354,0.08813785016536713,-0.12931936979293823
1758974334551239000,4.911239013671875,0.003070358419790864,0.0984749048948288,-0.14148496091365814
1758974334561196000,4.921196044921875,0.00004234426160110161,0.08977223187685013,-0.15912361443042755
1758974334571153200,4.931153076171875,-0.0005550027708522975,0.07393573969602585,-0.17831674218177795
1758974334581110300,4.9411103515625,0.0002790992730297148,0.06893832236528397,-0.1943306028842926
1758974334591067100,4.951067138671875,0.0011789813870564103,0.07054154574871063,-0.20899902284145355
1758974334601024300,4.961024169921875,-0.00040027310024015605,0.07640103250741959,-0.22191108763217926
1758974334610982100,4.970982177734375,0.00634844321757555,0.06503945589065552,-0.23752547800540924
1758974334620939000,4.98093896484375,0.014422348700463772,0.053937267512083054,-0.25073739886283875
1758974334630896000,4.990896240234375,0.01570332981646061,0.05837409198284149,-0.2658740282058716
1758974334640853200,5.000853271484375,0.017905764281749725,0.07353280484676361,-0.2843984365463257
1758974334650810400,5.010810302734375,0.022947659716010094,0.0769917219877243,-0.3028339147567749
1758974334660767000,5.02076708984375,0.028234567493200302,0.07420206069946289,-0.3254803717136383
1758974334670724000,5.03072412109375,0.03552603721618652,0.07588411122560501,-0.34886929392814636
1758974334680682200,5.04068212890625,0.03906324505805969,0.0825665146112442,-0.3794485330581665
1758974334690639000,5.05063916015625,0.037766288965940475,0.10948814451694489,-0.4106980562210083
1758974334700596000,5.060595947265625,0.034447722136974335,0.1440967172384262,-0.4403427541255951
1758974334710553000,5.070552978515625,0.03747387230396271,0.16192178428173065,-0.46539193391799927
1758974334720510200,5.08051025390625,0.04415174946188927,0.15364229679107666,-0.48774731159210205
1758974334730467000,5.090467041015625,0.05372421443462372,0.11436918377876282,-0.5035712718963623
1758974334740424200,5.100424072265625,0.0634884312748909,0.07520713657140732,-0.5141456127166748
1758974334750381300,5.11038134765625,0.07451950758695602,0.04923998564481735,-0.5295349359512329
1758974334760339000,5.1203388671875,0.08227729797363281,0.049849849194288254,-0.5567716360092163
1758974334770296000,5.130296142578125,0.09346789866685867,0.07096391916275024,-0.5954409837722778
1758974334780253200,5.140253173828125,0.10528514534235,0.10540498793125153,-0.64720618724823
1758974334790210300,5.150210205078125,0.11740385740995407,0.15102146565914154,-0.6925973892211914
1758974334800167200,5.160167236328125,0.12623330950737,0.2014968991279602,-0.7280989289283752
1758974334810124000,5.1701240234375,0.1413709819316864,0.24622522294521332,-0.7544090747833252
1758974334820081200,5.1800810546875,0.15660585463047028,0.28537794947624207,-0.7753944993019104
1758974334830039000,5.1900390625,0.18020571768283844,0.33093851804733276,-0.807327151298523
1758974334839996200,5.19999609375,0.21530911326408386,0.37367746233940125,-0.8559849858283997
1758974334849953300,5.209953369140625,0.26540130376815796,0.43932491540908813,-0.9348659515380859
1758974334859910000,5.219909912109375,0.3208690881729126,0.5188114643096924,-1.0252565145492554
1758974334869867000,5.229866943359375,0.3823516368865967,0.5485318303108215,-1.1000492572784424
1758974334879824100,5.23982421875,0.4373011589050293,0.5443940758705139,-1.1516871452331543
1758974334889781200,5.24978125,0.4687347114086151,0.5816817879676819,-1.2079342603683472
1758974334899738000,5.259738037109375,0.475765198469162,0.5780585408210754,-1.3043256998062134
1758974334909696000,5.269696044921875,0.4841421842575073,0.4606704115867615,-1.4604170322418213
1758974334919653000,5.279653076171875,0.5058887600898743,0.18239590525627136,-1.619807481765747
1758974334929610000,5.28960986328125,0.5425817966461182,-0.23001375794410706,-1.7402806282043457
1758974334939567000,5.299567138671875,0.6041498184204102,-0.698613166809082,-1.7657543420791626
1758974334949524200,5.309524169921875,0.6506328582763672,-1.0294121503829956,-1.7071709632873535
1758974334959481300,5.3194814453125,0.6146045923233032,-1.117385745048523,-1.6690232753753662
1758974334969438000,5.32943798828125,0.5172412991523743,-0.9635516405105591,-1.6814274787902832
1758974334979396000,5.33939599609375,0.3985132873058319,-0.7028074264526367,-1.6691524982452393
1758974334989353200,5.349353271484375,0.3014381527900696,-0.3861122727394104,-1.6037672758102417
1758974334999310000,5.35931005859375,0.24908173084259033,-0.06204446405172348,-1.4990930557250977
1758974335009267200,5.36926708984375,0.21421988308429718,0.23339010775089264,-1.4238367080688477
1758974335019224000,5.37922412109375,0.20144709944725037,0.5068640112876892,-1.4494496583938599
1758974335029181200,5.38918115234375,0.21926657855510712,0.6388065814971924,-1.5464065074920654
1758974335039138000,5.399137939453125,0.24795787036418915,0.6376097798347473,-1.6274452209472656
1758974335049095200,5.40909521484375,0.3090217709541321,0.5825906991958618,-1.6420297622680664
1758974335059053000,5.419052978515625,0.39285778999328613,0.6493383049964905,-1.5919133424758911
1758974335069010000,5.429010009765625,0.4315798878669739,0.920809268951416,-1.487911581993103
1758974335078967000,5.438967041015625,0.4440043568611145,1.2602616548538208,-1.3582569360733032
1758974335088924200,5.448924072265625,0.40368595719337463,1.517354965209961,-1.242012858390808
1758974335098881300,5.45888134765625,0.32611018419265747,1.6862187385559082,-1.1760988235473633
1758974335108838100,5.468838134765625,0.20688366889953613,1.666107177734375,-1.199275016784668
1758974335118795300,5.478795166015625,0.020968131721019745,1.2596789598464966,-1.2383089065551758
1758974335128752000,5.488752197265625,-0.10618342459201813,0.6979535222053528,-1.2782185077667236
1758974335138710000,5.4987099609375,-0.2022463083267212,0.1620672047138214,-1.3293336629867554
1758974335148667100,5.508667236328125,-0.23519253730773926,-0.14054273068904877,-1.3589543104171753
1758974335158624300,5.518624267578125,-0.19581849873065948,-0.18800532817840576,-1.3646479845046997
1758974335168581000,5.5285810546875,-0.11599478125572205,-0.09721416980028152,-1.3559199571609497
1758974335178539000,5.5385390625,-0.05735570192337036,-0.029323266819119453,-1.363296627998352
1758974335188496100,5.54849609375,-0.0034205641131848097,-0.06564798206090927,-1.421056866645813
1758974335198453200,5.558453369140625,0.029024994000792503,-0.2540280222892761,-1.5354764461517334
1758974335208411100,5.5684111328125,0.07684178650379181,-0.5039774179458618,-1.657305359840393
1758974335218368000,5.578367919921875,0.0790676549077034,-0.7005777955055237,-1.767127513885498
1758974335228325000,5.5883251953125,0.06832312792539597,-0.83055180311203,-1.7772506475448608
1758974335238282200,5.5982822265625,0.03678171709179878,-0.7684887051582336,-1.6687710285186768
1758974335248239000,5.608239013671875,-0.006654440425336361,-0.4521496295928955,-1.4848699569702148
1758974335258196200,5.6181962890625,-0.05829952657222748,-0.05403660237789154,-1.3069406747817993
1758974335268153000,5.628153076171875,-0.09255922585725784,0.10793818533420563,-1.228222131729126
1758974335278111200,5.638111328125,-0.08509331941604614,0.00509888818487525,-1.2804172039031982
1758974335288068000,5.648068115234375,-0.07422389835119247,-0.1664198637008667,-1.3565911054611206
1758974335298025200,5.658025146484375,-0.03539926931262016,-0.25122371315956116,-1.411019206047058
1758974335307982000,5.667982177734375,-0.06824749708175659,-0.3222736418247223,-1.4539655447006226
1758974335317939000,5.67793896484375,-0.07388434559106827,-0.35229361057281494,-1.4679136276245117
1758974335327896000,5.68789599609375,-0.02159317582845688,-0.25474920868873596,-1.4010573625564575
1758974335337853200,5.697853271484375,0.04150909185409546,-0.10089945048093796,-1.2873516082763672
1758974335347810000,5.70781005859375,0.0721607431769371,-0.007865645922720432,-1.1919385194778442
1758974335357768000,5.717767822265625,0.05868541821837425,-0.06628075242042542,-1.1949976682662964
1758974335367725000,5.72772509765625,0.03422880917787552,-0.1987554430961609,-1.2923487424850464
1758974335377682200,5.73768212890625,-0.017313476651906967,-0.387410044670105,-1.4021726846694946
1758974335387639000,5.74763916015625,-0.0261226799339056,-0.5512101650238037,-1.4279839992523193
1758974335397596200,5.75759619140625,-0.009926932863891125,-0.6487146019935608,-1.4037325382232666
1758974335407553300,5.76755322265625,0.01284762192517519,-0.62008136510849,-1.3540533781051636
1758974335417510100,5.77751025390625,0.04730892553925514,-0.4579577147960663,-1.2849481105804443
1758974335427467000,5.787467041015625,0.09488150477409363,-0.25673192739486694,-1.2455109357833862
1758974335437425200,5.797425048828125,0.13673441112041473,-0.16068795323371887,-1.257190465927124
1758974335447382300,5.80738232421875,0.16676607728004456,-0.14768773317337036,-1.295750617980957
1758974335457339100,5.817339111328125,0.1529378890991211,-0.15163959562778473,-1.3354876041412354
1758974335467296000,5.8272958984375,0.11410633474588394,-0.10377912223339081,-1.3537678718566895
1758974335477253000,5.837253173828125,0.06538273394107819,-0.029255622997879982,-1.3519999980926514
1758974335487210000,5.8472099609375,0.004334827419370413,-0.008434764109551907,-1.3862943649291992
1758974335497167400,5.85716748046875,-0.039985500276088715,-0.027342408895492554,-1.4773403406143188
1758974335507125200,5.867125244140625,-0.019110577180981636,-0.04741412028670311,-1.5450818538665771
1758974335517082000,5.87708203125,0.03949388116598129,-0.13177773356437683,-1.5748670101165771
1758974335527039200,5.887039306640625,0.10059771686792374,-0.19578760862350464,-1.5706977844238281
1758974335536996400,5.896996337890625,0.13199451565742493,-0.16987265646457672,-1.557252049446106
1758974335546953200,5.906953125,0.1104399561882019,0.006019010208547115,-1.5802191495895386
1758974335556910300,5.916910400390625,0.09062311053276062,0.1766381561756134,-1.6082733869552612
1758974335566867500,5.926867431640625,0.08156463503837585,0.21593283116817474,-1.6212341785430908
1758974335577447200,5.937447265625,0.0715375691652298,0.13641509413719177,-1.663439393043518
1758974335587404300,5.947404296875,0.08195452392101288,0.07713846117258072,-1.6965606212615967
1758974335597361400,5.957361328125,0.09609111398458481,0.060194630175828934,-1.7250535488128662
1758974335607318300,5.967318359375,0.10752806067466736,0.05110126733779907,-1.7943884134292603
1758974335617275100,5.977275146484375,0.10035509616136551,0.06447646021842957,-1.824957013130188
1758974335627232300,5.987232177734375,0.10066509246826172,0.022275477647781372,-1.8076754808425903
1758974335637190400,5.9971904296875,0.12070457637310028,-0.0059987702406942844,-1.7875851392745972
1758974335647147300,6.007147216796875,0.15081827342510223,-0.14880599081516266,-1.7817436456680298
1758974335657104100,6.017104248046875,0.19126982986927032,-0.3454812467098236,-1.8501554727554321
1758974335667061200,6.027061279296875,0.2313847541809082,-0.3452002704143524,-2.016937255859375
1758974335677018000,6.03701806640625,0.22774527966976166,-0.451930433511734,-2.1357712745666504
1758974335686975200,6.046975341796875,0.2103724181652069,-0.5682485103607178,-2.0733563899993896
1758974335696932400,6.056932373046875,0.1854739934206009,-0.47859296202659607,-1.911929726600647
1758974335706890200,6.06689013671875,0.16176758706569672,-0.1621982306241989,-1.7889339923858643
1758974335716847000,6.07684716796875,0.19397427141666412,0.07959628850221634,-1.689825177192688
1758974335726804200,6.08680419921875,0.2550000548362732,0.1827668845653534,-1.5437591075897217
1758974335736761300,6.09676123046875,0.28053632378578186,0.33325573801994324,-1.414850115776062
1758974335746718200,6.10671826171875,0.2506929337978363,0.5023640394210815,-1.3082530498504639
1758974335756675300,6.11667529296875,0.2502079904079437,0.5433769822120667,-1.2342352867126465
1758974335766632200,6.126632080078125,0.22145462036132812,0.5509470105171204,-1.171363115310669
1758974335776589000,6.136589111328125,0.1899251937866211,0.5835521221160889,-1.1328485012054443
1758974335786547200,6.146547119140625,0.16058968007564545,0.5453983545303345,-1.1101493835449219
1758974335796504300,6.15650439453125,0.13856400549411774,0.5159509778022766,-1.106186866760254
1758974335806461400,6.16646142578125,0.11529409885406494,0.47744885087013245,-1.1411155462265015
1758974335816418000,6.17641796875,0.09272674471139908,0.4049227237701416,-1.178353190422058
1758974335826375200,6.186375244140625,0.02991661988198757,0.49426111578941345,-1.1486163139343262
1758974335836332300,6.196332275390625,-0.017918545752763748,0.5538538694381714,-1.0664281845092773
1758974335846289200,6.2062890625,-0.07824233919382095,0.5228565335273743,-0.9882192015647888
1758974335856247300,6.216247314453125,-0.16095799207687378,0.4851696193218231,-0.937178373336792
1758974335866204200,6.2262041015625,-0.23576512932777405,0.28120529651641846,-0.8998211622238159
1758974335876161300,6.236161376953125,-0.30859673023223877,0.07427290081977844,-0.9614988565444946
1758974335886118100,6.2461181640625,-0.36520007252693176,-0.02660178393125534,-1.0932412147521973
1758974335896075300,6.2560751953125,-0.3653571903705597,-0.14456357061862946,-1.2081693410873413
1758974335906032400,6.266032470703125,-0.3135957419872284,-0.36466744542121887,-1.152977466583252
1758974335915989200,6.2759892578125,-0.23923495411872864,-0.7865821719169617,-0.8714733719825745
1758974335925947100,6.285947021484375,-0.18450166285037994,-1.0435154438018799,-0.49955201148986816
1758974335935904300,6.295904296875,-0.05391809344291687,-0.7353387475013733,-0.11615030467510223
1758974335945861400,6.305861328125,0.19035902619361877,0.2297610193490982,0.2829821705818176
1758974335955818200,6.315818359375,0.2588890790939331,0.9108902812004089,0.47625282406806946
1758974335965775400,6.325775390625,0.0942428782582283,1.1634749174118042,0.5348474383354187
1758974335975732200,6.335732177734375,-0.09569936245679855,0.9932272434234619,0.46438950300216675
1758974335985689000,6.345689208984375,-0.190398707985878,0.5201358795166016,0.2625064551830292
1758974335995647200,6.355647216796875,-0.22117125988006592,-0.006307963281869888,0.012072375044226646
1758974336005604400,6.365604248046875,-0.25316354632377625,-0.32653337717056274,-0.1996140480041504
1758974336015561200,6.375561279296875,-0.2578296661376953,-0.4179154932498932,-0.33139684796333313
1758974336025518000,6.38551806640625,-0.22748588025569916,-0.3865530490875244,-0.3901890516281128
1758974336035475200,6.39547509765625,-0.2118358165025711,-0.302866667509079,-0.3846283555030823
1758974336045432300,6.405432373046875,-0.2169506847858429,-0.20989996194839478,-0.3392779231071472
1758974336055389200,6.41538916015625,-0.22306664288043976,-0.13907745480537415,-0.27699512243270874
1758974336065347000,6.42534716796875,-0.2295178771018982,-0.11578305810689926,-0.22878071665763855
1758974336075304200,6.43530419921875,-0.2140398472547531,-0.12400530278682709,-0.19537775218486786
1758974336085261300,6.44526123046875,-0.18443429470062256,-0.16621054708957672,-0.1691938191652298
1758974336095218200,6.45521826171875,-0.13039156794548035,-0.23596300184726715,-0.12749990820884705
1758974336105175300,6.46517529296875,-0.05571013316512108,-0.319637656211853,-0.08048605173826218
1758974336115132400,6.47513232421875,0.03635215014219284,-0.39487648010253906,-0.04355626553297043
1758974336125089300,6.48508935546875,0.12586285173892975,-0.42176109552383423,-0.009633186273276806
1758974336135047200,6.495047119140625,0.16440731287002563,-0.3833732306957245,0.009795905090868473
1758974336145004300,6.50500439453125,0.1650984138250351,-0.28420987725257874,0.018898855894804
1758974336154961400,6.51496142578125,0.1275118887424469,-0.20889009535312653,0.03357074409723282
1758974336164918300,6.524918212890625,0.13078650832176208,-0.14630953967571259,0.04574751481413841
1758974336174875100,6.534875244140625,0.14742806553840637,-0.12850497663021088,0.04228327423334122
1758974336184832300,6.544832275390625,0.19465097784996033,-0.194020077586174,0.003751062322407961
1758974336194789000,6.5547890625,0.16800498962402344,-0.23321861028671265,-0.017526263371109962
1758974336204747300,6.564747314453125,0.11550422757863998,-0.26644739508628845,-0.011489941738545895
1758974336214704400,6.574704345703125,0.09077837318181992,-0.3230515718460083,0.019896741956472397
1758974336224661200,6.5846611328125,0.08871015906333923,-0.3735831677913666,0.05046850070357323
1758974336234618000,6.5946181640625,0.10326246917247772,-0.3956514596939087,0.06611324101686478
1758974336244575200,6.6045751953125,0.1117936447262764,-0.39677000045776367,0.07393281161785126
1758974336254532400,6.614532470703125,0.11462245136499405,-0.37405455112457275,0.07070665806531906
1758974336264489200,6.6244892578125,0.10348351299762726,-0.3216667175292969,0.056656088680028915
1758974336274447000,6.634447021484375,0.0707324892282486,-0.2420179545879364,0.034326814115047455
1758974336284404200,6.644404296875,0.053894124925136566,-0.16607019305229187,0.013801566325128078
1758974336294361300,6.654361328125,0.03744138032197952,-0.12846262753009796,-0.009867277927696705
1758974336304318200,6.664318115234375,0.007074953522533178,-0.11712396144866943,-0.03142609819769859
1758974336314275300,6.674275390625,-0.035061314702034,-0.13540177047252655,-0.043721381574869156
1758974336324232400,6.684232421875,-0.07631394267082214,-0.16766409575939178,-0.02694612927734852
1758974336334189000,6.69418896484375,-0.10269708186388016,-0.1694106012582779,0.004998486954718828
1758974336344146200,6.704146240234375,-0.12943868339061737,-0.11785420030355453,0.023820910602808
1758974336354104300,6.714104248046875,-0.14892956614494324,-0.03671646863222122,0.0172096136957407
1758974336364061400,6.7240615234375,-0.15847831964492798,0.011290471069514751,0.00020399813365656883
1758974336374018300,6.734018310546875,-0.18055778741836548,0.01251286268234253,-0.020655743777751923
1758974336383975200,6.74397509765625,-0.21283982694149017,-0.008045143447816372,-0.03518488630652428
1758974336393932300,6.753932373046875,-0.24714241921901703,-0.057742390781641006,-0.039019037038087845
1758974336403889200,6.76388916015625,-0.27347469329833984,-0.10252424329519272,-0.035175297409296036
1758974336413846300,6.77384619140625,-0.2904749810695648,-0.12004358321428299,-0.0253964364528656
1758974336423804200,6.78380419921875,-0.3147243857383728,-0.10521483421325684,-0.005403021350502968
1758974336433761300,6.79376123046875,-0.34295815229415894,-0.10259614884853363,0.02528378553688526
1758974336443718100,6.80371826171875,-0.32998988032341003,-0.054473627358675,0.06462612748146057
1758974336453675300,6.81367529296875,-0.30022189021110535,-0.032577648758888245,0.1034422367811203
1758974336463632400,6.82363232421875,-0.28462374210357666,-0.11149030923843384,0.13907372951507568
1758974336473589200,6.83358935546875,-0.2609516978263855,-0.16633065044879913,0.13037770986557007
1758974336483546400,6.84354638671875,-0.23064519464969635,-0.0999862551689148,0.08706086874008179
1758974336493504000,6.85350390625,-0.18459434807300568,0.0615704208612442,0.06712470948696136
1758974336503461000,6.863461181640625,-0.14682406187057495,0.25337475538253784,0.09945575147867203
1758974336513418200,6.873418212890625,-0.14051583409309387,0.43729478120803833,0.19888566434383392
1758974336523375000,6.883375,-0.19483846426010132,0.635628342628479,0.31538379192352295
1758974336533332200,6.893332275390625,-0.2946135103702545,0.7608752250671387,0.4022742211818695
1758974336543289000,6.9032890625,-0.3008650243282318,0.6763252019882202,0.4318568706512451
1758974336553246000,6.913245849609375,-0.0825452134013176,0.29179883003234863,0.23088674247264862
1758974336563203000,6.923203125,0.04367983713746071,-0.09977186471223831,-0.20458589494228363
1758974336573161200,6.9331611328125,-0.02033323422074318,-0.33766859769821167,-0.5242094397544861
1758974336583118000,6.9431181640625,-0.08506909012794495,-0.5314282178878784,-0.49796637892723083
1758974336593075000,6.953074951171875,-0.11789627373218536,-0.7246440052986145,-0.28616464138031006
1758974336603032000,6.963031982421875,-0.12775982916355133,-0.6456117630004883,-0.1288229525089264
1758974336612989200,6.9729892578125,-0.133257657289505,-0.3027833104133606,-0.0942322239279747
1758974336622946000,6.982946044921875,-0.11076033860445023,0.13268907368183136,-0.09932711720466614
1758974336632903200,6.992903076171875,-0.06280932575464249,0.4654816687107086,-0.06903605908155441
1758974336642861000,7.002861083984375,-0.02479882352054119,0.630534827709198,-0.008432899601757526
1758974336652818200,7.012818115234375,-0.0031851406674832106,0.683211088180542,0.05826357379555702
1758974336662775000,7.022775146484375,0.017601363360881805,0.6085885167121887,0.07276102155447006
1758974336672732200,7.032732177734375,0.031244471669197083,0.5017328858375549,0.005338838789612055
1758974336682689300,7.042689208984375,0.033312149345874786,0.32838746905326843,-0.1320698857307434
1758974336692646100,7.052646240234375,0.049914561212062836,0.0033095101825892925,-0.2806215286254883
1758974336702603000,7.06260302734375,0.07198923826217651,-0.335781455039978,-0.39117762446403503
1758974336712560000,7.07256005859375,0.059726715087890625,-0.5515787601470947,-0.41708430647850037
1758974336722518300,7.082518310546875,0.004804342519491911,-0.6307721138000488,-0.32006269693374634
1758974336732475100,7.09247509765625,-0.03948961943387985,-0.5928468108177185,-0.17696864902973175
1758974336742432000,7.102431884765625,-0.0640823096036911,-0.41193002462387085,-0.08250925689935684
1758974336752389000,7.11238916015625,-0.06226470693945885,-0.1692662537097931,-0.048879656940698624
1758974336762346000,7.122345947265625,-0.03424931690096855,-0.012801283039152622,-0.044677723199129105
1758974336772303000,7.13230322265625,-0.007180148735642433,0.08544299751520157,-0.037874143570661545
1758974336782260200,7.14226025390625,0.002332396572455764,0.12785649299621582,-0.06343995779752731
1758974336792217000,7.152217041015625,-0.022526880726218224,0.13374954462051392,-0.11768055707216263
1758974336802175000,7.162175048828125,-0.025965288281440735,0.14789119362831116,-0.15173865854740143
1758974336812132000,7.172132080078125,-0.04465242102742195,0.10538607835769653,-0.14720995724201202
1758974336822089200,7.182089111328125,-0.06983234733343124,0.042815372347831726,-0.10712219029664993
1758974336832046000,7.192046142578125,-0.09822376817464828,-0.0041374871507287025,-0.06197415664792061
1758974336842003200,7.202003173828125,-0.12232990562915802,-0.01444045826792717,-0.04549691081047058
1758974336851960000,7.2119599609375,-0.13169971108436584,0.036727387458086014,-0.05193110927939415
1758974336861917000,7.2219169921875,-0.1466091424226761,0.09097065031528473,-0.0612441822886467
1758974336871875000,7.231875,-0.1750011146068573,0.10176870226860046,-0.04771558940410614
1758974336881832200,7.241832275390625,-0.2119298279285431,0.06452546268701553,-0.02588246390223503
1758974336891789300,7.251789306640625,-0.25037363171577454,0.04680585488677025,0.011294466443359852
1758974336901746000,7.261745849609375,-0.27756717801094055,0.07517118006944656,0.05706221982836723
1758974336911703000,7.271703125,-0.28987228870391846,0.13328295946121216,0.10469605028629303
1758974336921660200,7.28166015625,-0.29378873109817505,0.19321180880069733,0.15175090730190277
1758974336931617000,7.291616943359375,-0.29054340720176697,0.21694402396678925,0.18739758431911469
1758974336941574100,7.30157421875,-0.2764992415904999,0.2032756209373474,0.1955689638853073
1758974336951532000,7.311531982421875,-0.2395862191915512,0.17641738057136536,0.17322690784931183
1758974336961489200,7.3214892578125,-0.18636801838874817,0.09940328449010849,0.11748374998569489
1758974336971446000,7.331446044921875,-0.11519023776054382,0.003980360459536314,0.0651899203658104
1758974336981403100,7.341403076171875,-0.03590819984674454,-0.046851396560668945,0.04151441901922226
1758974336991360300,7.3513603515625,0.021020863205194473,-0.05007941275835037,0.020976655185222626
1758974337001317000,7.361317138671875,0.054367899894714355,-0.03323225677013397,0.008701612241566181
1758974337011274000,7.37127392578125,0.0739557147026062,-0.005664810072630644,0.022523151710629463
1758974337021231000,7.381231201171875,0.09789779782295227,0.019482621923089027,0.04924238100647926
1758974337031189200,7.391189208984375,0.11188339442014694,0.037873346358537674,0.04956355690956116
1758974337041146000,7.40114599609375,0.10233675688505173,0.03718385472893715,0.01489292923361063
1758974337051103200,7.411103271484375,0.0742153748869896,-0.00007430219557136297,-0.025796709582209587
1758974337061060000,7.42106005859375,0.04813956469297409,-0.051654137670993805,-0.04188486561179161
1758974337071017000,7.431016845703125,0.02911820448935032,-0.08381900191307068,-0.027575435116887093
1758974337080974000,7.44097412109375,0.025428127497434616,-0.09771644324064255,0.0030328077264130116
1758974337090931200,7.45093115234375,0.02528298646211624,-0.0884142816066742,0.02851899340748787
1758974337100888000,7.46088818359375,0.027818314731121063,-0.0685335174202919,0.032943569123744965
1758974337110846000,7.470845947265625,0.032282836735248566,-0.049248505383729935,0.0116148442029953
1758974337120803000,7.480802978515625,0.009618006646633148,-0.035950545221567154,-0.019725501537322998
1758974337130760200,7.49076025390625,-0.009966347366571426,-0.020864002406597137,-0.035234153270721436
1758974337140717000,7.500717041015625,-0.022364428266882896,-0.015469237230718136,-0.04393363371491432
1758974337150674200,7.510674072265625,-0.029937125742435455,-0.03157443925738335,-0.06408710777759552
1758974337160631300,7.52063134765625,-0.03874287009239197,-0.05283178761601448,-0.10098067671060562
1758974337170588000,7.530587890625,-0.026039056479930878,-0.022728215903043747,-0.11098457127809525
1758974337180546000,7.540546142578125,-0.03651406988501549,0.016863401979207993,-0.06899584829807281
1758974337190503200,7.550503173828125,-0.025736255571246147,0.030001841485500336,-0.016943562775850296
1758974337200460300,7.560460205078125,-0.004579039290547371,0.015664713457226753,0.00771730812266469
1758974337210417200,7.570417236328125,0.009953564032912254,0.02593998797237873,-0.001987783471122384
1758974337220374000,7.5803740234375,0.016931578516960144,0.06077546626329422,-0.013920875266194344
1758974337230331100,7.5903310546875,0.017916150391101837,0.08914931863546371,-0.014631407335400581
1758974337240288000,7.6002880859375,0.011475294828414917,0.10141104459762573,-0.014169614762067795
1758974337250245000,7.6102451171875,0.005939381662756205,0.08290713280439377,-0.01835903339087963
1758974337260203000,7.620203125,-0.00871945545077324,0.037279460579156876,-0.024822792038321495
1758974337270160100,7.63016015625,-0.02550615929067135,-0.027836691588163376,-0.024900022894144058
1758974337280117000,7.640116943359375,-0.042092859745025635,-0.07265449315309525,-0.019706061109900475
1758974337290074000,7.65007421875,-0.047918789088726044,-0.08980365842580795,-0.01471636164933443
1758974337300031200,7.66003125,-0.03819771856069565,-0.08502301573753357,-0.011867844499647617
1758974337309988000,7.669988037109375,-0.022103171795606613,-0.05429839342832565,-0.014446583576500416
1758974337319945200,7.6799453125,-0.0065194182097911835,-0.02654079720377922,-0.011183678172528744
1758974337329902000,7.689902099609375,0.0064954496920108795,0.00043063313933089375,-0.01411475334316492
1758974337339860200,7.699860107421875,0.008701878599822521,0.03187590837478638,-0.016957411542534828
1758974337349817000,7.709817138671875,0.008810536004602909,0.04941069334745407,-0.016166985034942627
1758974337359774200,7.719774169921875,0.005209675524383783,0.0464407354593277,-0.009320797398686409
1758974337369731000,7.72973095703125,-0.0033425334841012955,0.030523020774126053,-0.000018109494703821838
1758974337379688000,7.73968798828125,-0.01678217574954033,0.012447348795831203,0.005271727219223976
1758974337389645000,7.74964501953125,-0.02576395310461521,0.005000350996851921,0.004715392831712961
1758974337399602200,7.759602294921875,-0.03531990572810173,0.004396346397697926,0.005822202656418085
1758974337409559000,7.76955908203125,-0.038723427802324295,0.011919243261218071,0.007675762753933668
1758974337419517000,7.779516845703125,-0.04351285472512245,0.020748421549797058,0.005410744342952967
1758974337429474000,7.78947412109375,-0.044132839888334274,0.029765352606773376,0.0037175065372139215
1758974337439431200,7.79943115234375,-0.048107340931892395,0.038112763315439224,-0.0015635418239980936
1758974337449388000,7.809387939453125,-0.051116179674863815,0.04495895281434059,-0.00697934627532959
1758974337459345200,7.81934521484375,-0.054606787860393524,0.04924025014042854,-0.008788431994616985
1758974337469302300,7.82930224609375,-0.05913788825273514,0.05359744653105736,-0.011545868590474129
1758974337479259100,7.839259033203125,-0.05455751717090607,0.04464363306760788,-0.009523198008537292
1758974337489215700,7.8492158203125,-0.05273005738854408,0.04098285362124443,-0.005633384454995394
1758974337499174000,7.859173828125,-0.0378003753721714,0.037154559046030045,-0.006668289192020893
1758974337509131000,7.869131103515625,-0.02189997211098671,0.03407567739486694,-0.005819539539515972
1758974337519087900,7.879087890625,-0.009602027013897896,0.02936933934688568,-0.00839721318334341
1758974337529045000,7.889044921875,0.0028932581190019846,0.028333105146884918,-0.010585798881947994
1758974337539001900,7.899001953125,0.014166419394314289,0.024947693571448326,-0.01594913937151432
1758974337548958700,7.908958740234375,0.023838486522436142,0.019033879041671753,-0.022834209725260735
1758974337558915800,7.918915771484375,0.02803616225719452,0.005904494319111109,-0.028730714693665504
1758974337568873000,7.928873046875,0.032100412994623184,-0.010519752278923988,-0.03328685089945793
1758974337578830800,7.938830810546875,0.03241759538650513,-0.029078789055347443,-0.03134141117334366
1758974337588787700,7.94878759765625,0.035419777035713196,-0.05054200440645218,-0.02419242076575756
1758974337598744800,7.958744873046875,0.040050212293863297,-0.06237522512674332,-0.02045281045138836
1758974337608702000,7.968701904296875,0.04147526994347572,-0.06296538561582565,-0.017788318917155266
1758974337618658800,7.978658935546875,0.04404255747795105,-0.061162691563367844,-0.019631491973996162
1758974337628616000,7.988615966796875,0.04409608989953995,-0.0561295822262764,-0.03062315657734871
1758974337638573000,7.998572998046875,0.04404975101351738,-0.055081892758607864,-0.038057904690504074
1758974337648529700,8.00852978515625,0.041375935077667236,-0.05735916271805763,-0.032764073461294174
1758974337658486800,8.01848681640625,0.033665020018815994,-0.0757184624671936,-0.025537317618727684
1758974337668445000,8.02844482421875,0.039020635187625885,-0.07237113267183304,-0.014096910133957863
1758974337678402000,8.038402099609375,0.036852557212114334,-0.08858232945203781,-0.004569451790302992
1758974337688358700,8.048358642578124,0.02954723872244358,-0.09758275002241135,0.0018823222490027547
1758974337698315800,8.058315673828124,0.02040300890803337,-0.10296925902366638,0.0107682254165411
1758974337708273000,8.06827294921875,0.015807725489139557,-0.09666582196950912,0.013969611376523972
1758974337718229800,8.078229736328124,0.01082947850227356,-0.08004903048276901,0.013525396585464478
1758974337728187000,8.088186767578126,0.007984156720340252,-0.049303632229566574,0.007864580489695072
1758974337738144800,8.098144775390624,0.005665076430886984,-0.017854364588856697,0.0026290726382285357
1758974337748102000,8.108101806640626,0.011363974772393703,0.0022503710351884365,-0.004828044679015875
1758974337758058800,8.118058837890626,0.02095135487616062,0.005621932912617922,-0.008318116888403893
1758974337768016000,8.128015869140626,0.0267687626183033,0.011839881539344788,-0.004859469830989838
1758974337777973000,8.137972900390626,0.020447218790650368,0.020713001489639282,-0.003459446132183075
1758974337787929900,8.147929931640626,0.017013071104884148,0.007065100129693747,-0.0036882117856293917
1758974337797887000,8.157886962890625,0.027178891003131866,-0.014414625242352486,-0.006367085501551628
1758974337807843800,8.16784375,0.02767716720700264,-0.02798023633658886,-0.008874185383319855
1758974337817801000,8.177801025390625,0.027514981105923653,-0.03383013606071472,-0.010786068625748158
1758974337827758800,8.1877587890625,0.021048028022050858,-0.04551315680146217,-0.007656055502593517
1758974337837716000,8.197716064453125,0.02232101745903492,-0.055689629167318344,-0.001169127761386335
1758974337847672800,8.2076728515625,0.025314144790172577,-0.058397796005010605,0.0018937737913802266
1758974337857629700,8.217629638671875,0.025181518867611885,-0.037458691745996475,0.0014769891276955605
1758974337867586800,8.2275869140625,0.016327308490872383,-0.018847724422812462,0.0030370689928531647
1758974337877544000,8.2375439453125,0.008350874297320843,-0.003209908027201891,0.011504855938255787
1758974337887500800,8.247500732421875,-0.006404369603842497,0.010311493650078773,0.015485748648643494
1758974337897458000,8.2574580078125,-0.017060475423932076,0.030645526945590973,0.014570686966180801
1758974337907415800,8.267415771484375,-0.02406858466565609,0.04126887768507004,0.0028186896815896034
1758974337917373000,8.277373046875,-0.02997760660946369,0.10405343025922775,0.002067412016913295
1758974337927329800,8.287329833984375,-0.039568979293107986,0.14873221516609192,-0.003817907767370343
1758974337937287000,8.297286865234375,-0.055500276386737823,0.17461548745632172,-0.009892578236758709
1758974337947244000,8.307244140625,-0.07082197815179825,0.18247421085834503,-0.009472331032156944
1758974337957200600,8.31720068359375,-0.08550771325826645,0.16980262100696564,-0.008313323371112347
1758974337967157800,8.32715771484375,-0.09810605645179749,0.1511431783437729,-0.008142614737153053
1758974337977115000,8.337114990234374,-0.10180758684873581,0.14292572438716888,-0.007339938078075647
1758974337987073000,8.347072998046874,-0.10707025974988937,0.17681685090065002,0.0016900419723242521
1758974337997030000,8.35702978515625,-0.10637065023183823,0.203810915350914,0.007340470794588327
1758974338006986800,8.36698681640625,-0.10491496324539185,0.21524307131767273,0.020022710785269737
1758974338016943900,8.37694384765625,-0.09754732996225357,0.2091316431760788,0.03387434408068657
1758974338026900700,8.386900634765626,-0.08920417726039886,0.19301952421665192,0.04753236472606659
1758974338036857900,8.39685791015625,-0.0799449011683464,0.17522987723350525,0.06156882271170616
1758974338046815000,8.40681494140625,-0.08004450052976608,0.15153706073760986,0.082954540848732
1758974338056772000,8.416772216796875,-0.07920534163713455,0.10325048863887787,0.10366035252809525
1758974338066728700,8.426728759765625,-0.0697133019566536,0.0028037759475409985,0.13277429342269897
1758974338076686800,8.436686767578125,-0.042027611285448074,-0.06891275197267532,0.18540820479393005
1758974338086644000,8.44664404296875,0.003111104713752866,-0.09823069721460342,0.27184242010116577
1758974338096600800,8.456600830078125,0.069841668009758,-0.11576015502214432,0.325135737657547
1758974338106558000,8.466557861328125,0.15712091326713562,-0.15174531936645508,0.2935413420200348
1758974338116514800,8.476514892578125,0.2573676109313965,-0.23506523668766022,0.17607276141643524
1758974338126472000,8.486471923828125,0.389726459980011,-0.2866666615009308,0.04699520394206047
1758974338136428800,8.4964287109375,0.5062543749809265,-0.35907426476478577,0.00020932445477228612
1758974338146386000,8.506385986328125,0.5447503924369812,-0.24580976366996765,-0.026149578392505646
1758974338156344000,8.516343994140625,0.49983352422714233,0.09518590569496155,-0.03274116665124893
1758974338166300700,8.52630078125,0.3621816635131836,0.40718480944633484,0.05512982979416847
1758974338176257800,8.5362578125,0.17211557924747467,0.26496589183807373,0.20720644295215607
1758974338186215000,8.54621484375,0.04724634066224098,-0.3459262549877167,0.26469504833221436
1758974338196172000,8.556172119140625,0.019823240116238594,-0.6101424694061279,0.17190811038017273
1758974338206129000,8.56612890625,0.07569902390241623,-0.5581503510475159,0.09781098365783691
1758974338216086000,8.5760859375,0.1659812480211258,-0.8796519637107849,0.22103677690029144
1758974338226043000,8.58604296875,0.17103458940982819,-1.1431983709335327,0.3867913782596588
1758974338236000800,8.596000732421874,0.11031532287597656,-0.9989029765129089,0.4268021881580353
1758974338245958000,8.6059580078125,0.015221030451357365,-0.7094967365264893,0.4909372329711914
1758974338255915000,8.6159150390625,-0.08940764516592026,-0.7291103601455688,0.6595762968063354
1758974338265872000,8.625871826171876,-0.16966919600963593,-0.8207553625106812,0.7940273284912109
1758974338275828700,8.635828857421876,-0.23573103547096252,-0.6335545778274536,0.8966125845909119
1758974338285785900,8.645785888671876,-0.30569013953208923,-0.30919966101646423,1.0387086868286133
1758974338295743000,8.655742919921876,-0.3407474756240845,0.06551482528448105,1.2145016193389893
1758974338305699800,8.665699951171876,-0.32823753356933594,0.2331879884004593,1.350221872329712
1758974338315657000,8.675656982421875,-0.2943671941757202,0.1732412874698639,1.426426887512207
1758974338325614800,8.68561474609375,-0.25750797986984253,0.08405841886997223,1.4713839292526245
1758974338335571700,8.69557177734375,-0.24694053828716278,0.14716468751430511,1.5339269638061523
1758974338345528800,8.70552880859375,-0.292554646730423,0.3448663055896759,1.6277467012405396
1758974338355486000,8.71548583984375,-0.3303685784339905,0.6314581036567688,1.7237845659255981
1758974338365443000,8.725443115234375,-0.33167406916618347,0.9933835864067078,1.790832281112671
1758974338375400000,8.73539990234375,-0.3327747583389282,1.373318076133728,1.8538378477096558
1758974338385356800,8.745356689453125,-0.429029643535614,1.5264400243759155,1.9604263305664062
1758974338395314000,8.75531396484375,-0.5554296970367432,1.3905432224273682,2.07285737991333
1758974338405271800,8.765271728515625,-0.5883154273033142,1.0698962211608887,2.127107858657837
1758974338415229000,8.77522900390625,-0.501125156879425,0.6711269617080688,2.104485034942627
1758974338425185800,8.785185791015625,-0.4711363613605499,0.40684711933135986,2.0454792976379395
1758974338435143000,8.795142822265625,-0.491006463766098,0.14739876985549927,2.049199342727661
1758974338445099800,8.805099853515625,-0.46538206934928894,-0.18976859748363495,2.0941054821014404
1758974338455057000,8.815056884765625,-0.32636401057243347,-0.6759816408157349,2.1693904399871826
1758974338465014000,8.825013916015624,-0.1399131566286087,-1.2308062314987183,2.2430481910705566
1758974338474971000,8.834970947265624,0.06436407566070557,-1.7031282186508179,2.30332088470459
1758974338484928800,8.8449287109375,0.2555779814720154,-1.8695462942123413,2.298668622970581
1758974338494886000,8.854885986328124,0.31212273240089417,-1.5812292098999023,2.107316017150879
1758974338504843000,8.864843017578124,0.189146488904953,-0.9436327815055847,1.7211296558380127
1758974338514799900,8.8747998046875,-0.058881424367427826,-0.3879208266735077,1.3305373191833496
1758974338524757000,8.884757080078124,-0.2674868404865265,-0.0874163955450058,1.2537230253219604
1758974338534713900,8.8947138671875,-0.3386281132698059,0.20280849933624268,1.4530459642410278
1758974338544670700,8.904670654296876,-0.3739011585712433,0.44863584637641907,1.6583973169326782
1758974338554627800,8.9146279296875,-0.4132501482963562,0.6965295672416687,1.7536076307296753
1758974338564585000,8.9245849609375,-0.4096037745475769,0.7462025284767151,1.751764178276062
1758974338574543000,8.934543212890626,-0.34937265515327454,0.5886776447296143,1.6906976699829102
1758974338584499700,8.944499755859376,-0.2714530825614929,0.31539762020111084,1.622259259223938
1758974338594456800,8.954456787109375,-0.21536290645599365,0.047743286937475204,1.5832841396331787
1758974338604414000,8.9644140625,-0.18157032132148743,-0.11232254654169083,1.5746749639511108
1758974338614370800,8.974370849609375,-0.17443865537643433,-0.16401183605194092,1.5760302543640137
1758974338624328000,8.984327880859375,-0.17668023705482483,-0.13048796355724335,1.5781234502792358
1758974338634285000,8.99428515625,-0.1876087784767151,-0.04424123093485832,1.5872434377670288
1758974338644242000,9.004241943359375,-0.20709699392318726,0.05495272949337959,1.6056700944900513
1758974338654199800,9.01419970703125,-0.24033696949481964,0.15080629289150238,1.6334223747253418
1758974338664157000,9.024156982421875,-0.27600494027137756,0.2086155265569687,1.6507233381271362
1758974338674114000,9.034114013671875,-0.31274351477622986,0.2459421306848526,1.6621108055114746
1758974338684071000,9.04407080078125,-0.3486272394657135,0.25887471437454224,1.6704782247543335
1758974338694027800,9.05402783203125,-0.3708867132663727,0.27128902077674866,1.6827318668365479
1758974338703985000,9.06398486328125,-0.3900231420993805,0.26184093952178955,1.6930854320526123
1758974338713941800,9.073941650390625,-0.39562270045280457,0.2387681007385254,1.710497498512268
1758974338723899000,9.08389892578125,-0.4021698236465454,0.19519080221652985,1.7238402366638184
1758974338733856000,9.09385595703125,-0.4151926636695862,0.12131364643573761,1.7328368425369263
1758974338743814000,9.10381396484375,-0.4058833122253418,0.05182644724845886,1.7293853759765625
1758974338753770800,9.113770751953124,-0.3848518133163452,-0.014182664453983307,1.7185701131820679
1758974338763728000,9.123727783203124,-0.3697199821472168,-0.05524594336748123,1.7245723009109497
1758974338773685000,9.13368505859375,-0.3668155372142792,-0.06406207382678986,1.7401552200317383
1758974338783641900,9.143641845703126,-0.3781273365020752,-0.05752294883131981,1.7634073495864868
1758974338793599000,9.153598876953126,-0.39198482036590576,-0.04024249315261841,1.7841570377349854
1758974338803555800,9.163555908203126,-0.40458476543426514,-0.014371749013662338,1.7957754135131836
1758974338813513000,9.173512939453126,-0.42581361532211304,-0.020735904574394226,1.793893814086914
1758974338823470800,9.183470947265626,-0.4358076751232147,-0.10959307104349136,1.7887046337127686
1758974338833428000,9.193427978515626,-0.440234899520874,-0.23689350485801697,1.7884175777435303
1758974338843385000,9.203385009765626,-0.4371914565563202,-0.3020269572734833,1.811151385307312
1758974338853341700,9.213341796875,-0.4418676793575287,-0.2798750698566437,1.85030198097229
1758974338863298800,9.223298828125,-0.4625796377658844,-0.23894600570201874,1.884737253189087
1758974338873256000,9.233255859375,-0.47123995423316956,-0.2181512415409088,1.9220126867294312
1758974338883212800,9.243212890625,-0.48440423607826233,-0.2284693866968155,1.9604336023330688
1758974338893170000,9.253169921875,-0.49083709716796875,-0.2439756542444229,1.9959830045700073
1758974338903127000,9.263126953125,-0.49006718397140503,-0.28740355372428894,2.021158218383789
1758974338913085000,9.2730849609375,-0.4902477264404297,-0.37632009387016296,2.019780158996582
1758974338923041800,9.283041748046875,-0.4791013300418854,-0.44566670060157776,2.0143375396728516
1758974338932999000,9.2929990234375,-0.4804225265979767,-0.417338103055954,1.9894652366638184
1758974338942956000,9.3029560546875,-0.505912721157074,-0.2477288395166397,1.9300782680511475
1758974338952913000,9.312912841796875,-0.5353838205337524,-0.011258780024945736,1.8674812316894531
1758974338962869800,9.322869873046875,-0.567256510257721,0.2030591070652008,1.8000233173370361
1758974338972827000,9.332826904296875,-0.6168403029441833,0.3296854794025421,1.7476142644882202
1758974338982784000,9.342783935546874,-0.6854190826416016,0.4107776880264282,1.711851716041565
1758974338992740900,9.352740966796874,-0.7397973537445068,0.5414184927940369,1.7106537818908691
1758974339002699000,9.362698974609375,-0.7530639171600342,0.734465479850769,1.7322933673858643
1758974339012655900,9.37265576171875,-0.7140858769416809,0.8631707429885864,1.7586504220962524
1758974339022612700,9.38261279296875,-0.6350496411323547,0.7695680856704712,1.7694511413574219
1758974339032569900,9.39256982421875,-0.5366831421852112,0.5342308878898621,1.748887538909912
1758974339042527000,9.40252685546875,-0.417707234621048,0.3439517915248871,1.6851327419281006
1758974339052484000,9.412484130859376,-0.3642205595970154,0.306490957736969,1.5697097778320312
1758974339062441000,9.42244091796875,-0.30344322323799133,0.28952476382255554,1.4509063959121704
1758974339072397800,9.432397705078126,-0.29932892322540283,0.2645682692527771,1.3490636348724365
1758974339082355000,9.44235498046875,-0.31412625312805176,0.3184211254119873,1.257413625717163
1758974339092312800,9.452312744140626,-0.31740567088127136,0.45010191202163696,1.1810184717178345
1758974339102270000,9.46227001953125,-0.3223024010658264,0.64458829164505,1.0984461307525635
1758974339112227000,9.47222705078125,-0.3315976560115814,0.8339473009109497,1.0226058959960938
1758974339122184000,9.482183837890625,-0.34626099467277527,0.8915501832962036,0.9826587438583374
1758974339132140800,9.492140869140625,-0.3571714460849762,0.8057494759559631,0.9797082543373108
1758974339142098000,9.502097900390625,-0.3561096489429474,0.6712425351142883,0.9852100610733032
1758974339152055000,9.512054931640625,-0.366560697555542,0.5330745577812195,0.9514124393463135
1758974339162012000,9.522011962890625,-0.34895771741867065,0.431047260761261,0.8903946280479431
1758974339171969800,9.5319697265625,-0.32655254006385803,0.28110039234161377,0.852441132068634
1758974339181927000,9.541927001953125,-0.31070220470428467,0.08789310604333878,0.847290575504303
1758974339191883800,9.5518837890625,-0.26366573572158813,-0.09146333485841751,0.847065269947052
1758974339201841000,9.5618408203125,-0.20849569141864777,-0.24731019139289856,0.8487550020217896
1758974339211798000,9.571798095703125,-0.1592698097229004,-0.45211154222488403,0.8166106939315796
1758974339221755100,9.581755126953125,-0.14882142841815948,-0.5499885678291321,0.7517421841621399
1758974339231711700,9.591711669921875,-0.12636859714984894,-0.5396366119384766,0.6776634454727173
1758974339241668900,9.6016689453125,-0.0923328623175621,-0.47896552085876465,0.6098726987838745
1758974339251626000,9.6116259765625,-0.07204223424196243,-0.34112483263015747,0.5522346496582031
1758974339261584000,9.621583984375,-0.06559711694717407,-0.14609648287296295,0.5078078508377075
1758974339271541000,9.631541015625,-0.07285290211439133,0.03875884786248207,0.4874708652496338
1758974339281497900,9.641497802734374,-0.06245671957731247,0.20883923768997192,0.4429185688495636
1758974339291455000,9.651455078125,-0.05645688250660896,0.3169577121734619,0.39250680804252625
1758974339301411800,9.661411865234374,-0.07983358204364777,0.33494603633880615,0.3395724892616272
1758974339311369000,9.671368896484376,-0.09958624839782715,0.2781924605369568,0.3054310083389282
1758974339321326000,9.681326171875,-0.10623029619455338,0.19351433217525482,0.2878059446811676
1758974339331283000,9.691282958984376,-0.10075563937425613,0.09003827720880508,0.2857537269592285
1758974339341239800,9.70123974609375,-0.077732615172863,-0.02334340661764145,0.2727665603160858
1758974339351198000,9.711197998046876,-0.04598693177103996,-0.10114365816116333,0.23000337183475494
1758974339361155000,9.721155029296876,-0.005313538946211338,-0.14070944488048553,0.17562775313854218
1758974339371112000,9.73111181640625,0.03722619637846947,-0.08552661538124084,0.11488637328147888
1758974339381069000,9.741069091796875,0.04452698677778244,0.054360974580049515,0.06061727553606033
1758974339391026000,9.75102587890625,0.0588526651263237,0.17176243662834167,0.03737187385559082
1758974339400982800,9.760982666015625,0.05637698993086815,0.22216835618019104,0.03138961270451546
1758974339410940000,9.77093994140625,0.0477941520512104,0.19744543731212616,0.02648460492491722
1758974339420897000,9.78089697265625,0.03773512691259384,0.14128628373146057,0.011502192355692387
1758974339430854000,9.79085400390625,0.030953122302889824,0.08398465067148209,-0.011151188053190708
1758974339440811000,9.80081103515625,0.027404192835092545,0.07392854988574982,-0.036496225744485855
1758974339450769000,9.810768798828125,0.017958227545022964,0.09785199165344238,-0.04692303389310837
1758974339460726000,9.82072607421875,0.0034463966730982065,0.1091453954577446,-0.023316241800785065
1758974339470683000,9.830682861328125,-0.01991911232471466,0.08870164304971695,0.011266236193478107
1758974339480640000,9.840639892578125,-0.03605014458298683,0.05119927227497101,0.026573820039629936
1758974339490597400,9.850597412109375,-0.0412270650267601,0.007894940674304962,0.02130076102912426
1758974339500554200,9.86055419921875,-0.0403016172349453,-0.009111739695072174,0.01486123725771904
1758974339510511000,9.870510986328124,-0.03116164728999138,-0.000502804818097502,0.014676414430141449
1758974339520468200,9.88046826171875,-0.027239609509706497,0.021407287567853928,0.008568987250328064
1758974339530425300,9.89042529296875,-0.03326767683029175,0.029889188706874847,-0.010994061827659607
1758974339540383200,9.90038330078125,-0.018099907785654068,0.013481453992426395,-0.02726544253528118
1758974339550340000,9.910340087890624,-0.008598282001912594,-0.030118487775325775,-0.03759904205799103
1758974339560297200,9.920297119140624,0.002977414056658745,-0.059370916336774826,-0.04038577154278755
1758974339570254300,9.93025439453125,0.018328141421079636,-0.05158036947250366,-0.04704447463154793
1758974339580211200,9.940211181640626,0.02558072656393051,-0.025104021653532982,-0.05403420701622963
1758974339590168300,9.950168212890626,0.02672215737402439,0.013366671279072762,-0.05644623190164566
1758974339600125400,9.96012548828125,0.024440627545118332,0.039376433938741684,-0.04711291566491127
1758974339610082000,9.97008203125,0.016732107847929,0.017587250098586082,-0.030056435614824295
1758974339620039200,9.9800390625,0.010477674193680286,-0.030818365514278412,-0.016800284385681152
1758974339629997300,9.989997314453126,0.004519650712609291,-0.05615035444498062,-0.011402856558561325
1758974339639954400,9.999954345703125,0.0010101370280608535,-0.04460528492927551,-0.00803022924810648
1758974339649911000,10.0099111328125,-0.005923136603087187,-0.03651699796319008,0.005116731394082308
1758974339659868200,10.0198681640625,-0.014003166928887367,-0.0265439935028553,0.02472531981766224
1758974339669825300,10.0298251953125,-0.014605041593313217,-0.0015502260066568851,0.03497902303934097
1758974339679782100,10.0397822265625,-0.00999297946691513,0.01677658222615719,0.026269420981407166
1758974339689739300,10.0497392578125,-0.0004511394945438951,0.021989721804857254,0.010520018637180328
1758974339699696400,10.0596962890625,0.003954527899622917,0.03304503485560417,-0.0015193333383649588
1758974339709653200,10.0696533203125,0.011374360881745815,0.035229094326496124,-0.004852279555052519
1758974339719611100,10.079611083984375,0.010339722968637943,0.027946146205067635,-0.001856223214417696
1758974339729568300,10.089568359375,0.006139385048300028,0.02942686527967453,0.0013347762869670987
1758974339739525400,10.099525390625,0.005879460833966732,0.03784085437655449,-0.001228516222909093
1758974339749482200,10.109482177734375,0.00227939966134727,0.037871215492486954,-0.014167483896017075
1758974339759439000,10.119439208984375,0.0012053466634824872,0.0326857753098011,-0.028596490621566772
1758974339769396200,10.129396240234374,-0.0027651600539684296,0.03274836018681526,-0.038904257118701935
1758974339779353000,10.13935302734375,-0.0062128882855176926,0.046366434544324875,-0.042391929775476456
1758974339789310200,10.149310302734374,0.012737366370856762,0.032702285796403885,-0.041075531393289566
1758974339799267300,10.159267333984374,-0.01775556057691574,0.047147270292043686,-0.04090002924203873
1758974339809224400,10.169224365234374,-0.014464426785707474,0.0679905042052269,-0.023134879767894745
1758974339819182000,10.17918212890625,-0.009836118668317795,0.09053496271371841,-0.012566125951707363
1758974339829139200,10.18913916015625,-0.005301821045577526,0.1038808599114418,-0.014189056120812893
1758974339839096300,10.199096435546876,0.00005512743518920615,0.08462221175432205,-0.018668493255972862
1758974339849053200,10.20905322265625,-0.002632800955325365,0.04111361503601074,-0.017667677253484726
1758974339859010300,10.21901025390625,-0.0059724049642682076,-0.004864530172199011,-0.0020591560751199722
1758974339868967200,10.22896728515625,-0.01001934427767992,-0.05553090199828148,0.02587660402059555
1758974339878924300,10.23892431640625,-0.013583453372120857,-0.12344710528850555,0.04891800880432129
1758974339888881200,10.248881103515625,-0.017293769866228104,-0.18224357068538666,0.051474377512931824
1758974339898838300,10.25883837890625,-0.017474064603447914,-0.1858801245689392,0.03949121758341789
1758974339908795400,10.26879541015625,-0.00944889523088932,-0.11551860719919205,0.036860544234514236
1758974339918753000,10.2787529296875,-0.006689594127237797,-0.021937789395451546,0.03314889967441559
1758974339928710100,10.288710205078125,-0.0035923379473388195,0.041496843099594116,0.024873126298189163
1758974339938667300,10.298667236328125,0.0000881506348378025,0.03957164287567139,0.01635660231113434
1758974339948624400,10.308624267578125,0.004464523401111364,-0.01709296740591526,-0.00019973708549514413
1758974339958581200,10.318581298828125,0.00945262424647808,-0.07414320111274719,-0.017912954092025757
1758974339968538400,10.328538330078125,0.008473645895719528,-0.07626574486494064,-0.03394145518541336
1758974339978495200,10.3384951171875,0.005964948330074549,-0.04292509704828262,-0.03395557031035423
1758974339988452000,10.3484521484375,-0.002930808812379837,-0.005084507167339325,-0.023563383147120476
1758974339998409200,10.3584091796875,-0.006655772216618061,0.028801022097468376,-0.019756393507122993
1758974340008367400,10.368367431640625,-0.0021076255943626165,0.04151575267314911,-0.028488365933299065
1758974340018324200,10.37832421875,0.006653641816228628,0.03654230013489723,-0.04788949340581894
1758974340028281000,10.388281005859374,0.01624821126461029,0.026514165103435516,-0.06736306101083755
1758974340038238200,10.39823828125,0.020479708909988403,0.03729251027107239,-0.08090097457170486
1758974340048195300,10.4081953125,0.016466857865452766,0.06258082389831543,-0.08470689505338669
1758974340058152200,10.418152099609374,0.01660347729921341,0.07684924453496933,-0.09558963775634766
1758974340068109300,10.428109375,0.02044961415231228,0.07623511552810669,-0.10314609110355377
1758974340078066400,10.43806640625,0.024103205651044846,0.05534288287162781,-0.10521430522203445
1758974340088023300,10.448023193359376,0.023782560601830482,0.008990831673145294,-0.09447909891605377
1758974340097980200,10.457980224609376,0.026985011994838715,-0.029709959402680397,-0.08095583319664001
1758974340107938300,10.467938232421876,0.01781574822962284,-0.018739599734544754,-0.07474401593208313
1758974340117895400,10.4778955078125,0.019276225939393044,0.009299758821725845,-0.060029249638319016
1758974340127852300,10.487852294921876,0.015683887526392937,0.010684335604310036,-0.04849350079894066
1758974340137809200,10.49780908203125,0.005264803301542997,-0.008321579545736313,-0.02959304489195347
1758974340147766300,10.507766357421875,-0.000767523015383631,-0.01642904058098793,-0.013064669445157051
1758974340157723100,10.51772314453125,-0.00436065997928381,-0.0065322015434503555,-0.004215783905237913
1758974340167680300,10.52768017578125,-0.005423261318355799,-0.00797137338668108,-0.006584665738046169
1758974340177637400,10.537637451171875,-0.004629373084753752,-0.02905775047838688,-0.01360209472477436
1758974340187594200,10.54759423828125,-0.0037324202712625265,-0.05541052669286728,-0.017241304740309715
1758974340197551400,10.55755126953125,-0.0033510555513203144,-0.06542161852121353,-0.01751667633652687
1758974340207509200,10.56750927734375,0.0007233145297504961,-0.055927712470293045,-0.01768631860613823
1758974340217466400,10.57746630859375,0.002968092914670706,-0.04376452416181564,-0.016565127298235893
1758974340227423200,10.58742333984375,0.008923187851905823,-0.03503335267305374,-0.020740166306495667
1758974340237380400,10.59738037109375,0.007955661043524742,-0.02754933573305607,-0.025123462080955505
1758974340247337200,10.607337158203125,0.007426224648952484,-0.026460902765393257,-0.02575196884572506
1758974340257294000,10.617294189453125,0.005434712860733271,-0.028258269652724266,-0.02255990356206894
1758974340267251200,10.627251220703124,0.0020940436515957117,-0.020063722506165504,-0.023920511826872826
1758974340277208300,10.637208251953124,0.0012503541074693203,-0.008110390976071358,-0.030527016147971153
1758974340287165200,10.647165283203124,0.002353169023990631,-0.006911169271916151,-0.04074237123131752
1758974340297122300,10.657122314453124,-0.0022916500456631184,-0.00746031291782856,-0.04988100752234459
1758974340307080200,10.667080078125,-0.004197674337774515,-0.011025220155715942,-0.05662199854850769
1758974340317037300,10.677037353515624,-0.003512975759804249,-0.018785672262310982,-0.06572228670120239
1758974340326994200,10.686994140625,-0.003596598980948329,-0.02983699180185795,-0.07227872312068939
1758974340336951300,10.696951416015626,-0.0008173241512849927,-0.03303944319486618,-0.0793539434671402
1758974340346908400,10.706908447265626,0.011579956859350204,-0.026202043518424034,-0.08933626860380173
1758974340356865300,10.716865234375,0.0008998821140266955,-0.01660960353910923,-0.10764790326356888
1758974340366822100,10.726822265625,0.00039494677912443876,-0.009501093067228794,-0.1096564531326294
1758974340376779300,10.736779296875,0.0021028320770710707,0.01673716865479946,-0.10629687458276749
1758974340386736000,10.746736083984375,0.0035412053111940622,0.041137050837278366,-0.10328670591115952
1758974340396693200,10.756693359375,0.00606375141069293,0.04676644131541252,-0.10416501760482788
1758974340406651100,10.766651123046875,0.008176703006029129,0.043305397033691406,-0.10538554191589355
1758974340416608300,10.776608154296875,0.01224787812680006,0.04337037727236748,-0.1057266965508461
1758974340426565000,10.786565185546875,0.01056289579719305,0.05317959934473038,-0.10343797504901886
1758974340436522200,10.796522216796875,0.010083260014653206,0.06825096160173416,-0.09698939323425293
1758974340446479400,10.806479248046875,0.013153619132936,0.06899184733629227,-0.08477321267127991
1758974340456436200,10.816436279296875,0.012268650345504284,0.047328900545835495,-0.07422948628664017
1758974340466393300,10.826393310546875,0.011214571073651314,0.016280703246593475,-0.06516461819410324
1758974340476350200,10.83635009765625,0.014248444698750973,-0.011984224431216717,-0.06101888045668602
1758974340486307000,10.84630712890625,0.013277722522616386,-0.024637969210743904,-0.058818843215703964
1758974340496264400,10.856264404296875,0.013226056471467018,-0.013220730237662792,-0.0600590743124485
1758974340506222600,10.86622265625,0.010525877587497234,0.007948203943669796,-0.05618897080421448
1758974340516179500,10.876179443359375,0.00854581780731678,0.020627779886126518,-0.049078863114118576
1758974340526136300,10.88613623046875,0.009167665615677834,0.014378140680491924,-0.04698295518755913
1758974340536093400,10.896093505859374,0.011113637126982212,0.014268151484429836,-0.05133003368973732
1758974340546050600,10.906050537109374,0.014492389746010303,0.02243952825665474,-0.060436978936195374
1758974340556007700,10.916007568359374,0.01613103225827217,0.0291147418320179,-0.06814443320035934
1758974340565964500,10.925964599609374,0.015812251716852188,0.05001895874738693,-0.07523563504219055
1758974340575921400,10.93592138671875,0.015156581997871399,0.0757240578532219,-0.08178301155567169
1758974340585878500,10.94587841796875,0.016882311552762985,0.08828059583902359,-0.08837779611349106
1758974340595835400,10.95583544921875,0.020235231146216393,0.08351247012615204,-0.09183724224567413
1758974340605793500,10.96579345703125,0.020903684198856354,0.07481298595666885,-0.0925736129283905
1758974340615750700,10.975750732421876,0.023811589926481247,0.06266231834888458,-0.0920335203409195
1758974340625707300,10.985707275390626,0.020806744694709778,0.07170161604881287,-0.09610762447118759
1758974340635664400,10.995664306640625,0.016534768044948578,0.07363906502723694,-0.10031062364578247
1758974340645621500,11.00562158203125,0.017129186540842056,0.08046182245016098,-0.1040494367480278
1758974340655578600,11.01557861328125,0.01648629829287529,0.08338171243667603,-0.1086638942360878
1758974340665535500,11.025535400390625,0.010153035633265972,0.07065393030643463,-0.1133425384759903
1758974340675492600,11.03549267578125,0.00546240946277976,0.07512271404266357,-0.111721470952034
1758974340685449700,11.04544970703125,0.007416104432195425,0.07931239902973175,-0.10850996524095535
1758974340695407400,11.055407470703125,0.008528773672878742,0.07783514261245728,-0.11666163802146912
1758974340705364500,11.065364501953125,0.009103749878704548,0.06843232363462448,-0.12674729526042938
1758974340715321600,11.075321533203125,0.011245996691286564,0.05816316977143288,-0.13479429483413696
1758974340725278700,11.08527880859375,0.016398414969444275,0.06119970604777336,-0.14098241925239563
1758974340735235300,11.0952353515625,0.015863651409745216,0.06453877687454224,-0.14528529345989227
1758974340745192400,11.1051923828125,0.01769457384943962,0.0714464858174324,-0.15132108330726624
1758974340755149600,11.115149658203125,0.019822973757982254,0.08439131081104279,-0.1650182455778122
1758974340765106400,11.1251064453125,0.020867198705673218,0.10214634239673615,-0.17812180519104004
1758974340775063600,11.1350634765625,0.027593277394771576,0.09722481667995453,-0.19429464638233185
1758974340785020700,11.145020751953124,0.0215337872505188,0.10133834183216095,-0.2088586688041687
1758974340794977500,11.1549775390625,0.024993499740958214,0.11291350424289703,-0.22214438021183014
1758974340804935400,11.164935302734374,0.030130205675959587,0.11921507120132446,-0.23797234892845154
1758974340814892500,11.174892578125,0.0288164671510458,0.13165895640850067,-0.2566158175468445
1758974340824849700,11.184849609375,0.03377314284443855,0.14170067012310028,-0.2738587260246277
1758974340834806500,11.194806640625,0.041261155158281326,0.14462162554264069,-0.29495707154273987
1758974340844763400,11.204763427734376,0.05180114507675171,0.14473827183246613,-0.31609031558036804
1758974340854720500,11.214720458984376,0.05390877276659012,0.14106284081935883,-0.3359215557575226
1758974340864677400,11.224677490234376,0.058526959270238876,0.13373729586601257,-0.353488028049469
1758974340874634500,11.234634521484375,0.07252666354179382,0.1323753446340561,-0.3655713200569153
1758974340884591600,11.244591552734375,0.08008871227502823,0.12120232731103897,-0.3747408390045166
1758974340894549500,11.254549560546875,0.07917550951242447,0.09105826914310455,-0.3876001834869385
1758974340904506400,11.26450634765625,0.09045160561800003,0.06411240994930267,-0.4018949866294861
1758974340914463500,11.27446337890625,0.09900780767202377,0.03616492822766304,-0.4133780002593994
1758974340924420600,11.284420654296875,0.10909559577703476,-0.001972070662304759,-0.42467406392097473
1758974340934377500,11.29437744140625,0.11809228360652924,-0.045648977160453796,-0.4311721622943878
1758974340944334600,11.30433447265625,0.12305136024951935,-0.07505879551172256,-0.43129226565361023
1758974340954291500,11.31429150390625,0.1293974071741104,-0.10072341561317444,-0.42675212025642395
1758974340964248300,11.324248291015625,0.13610243797302246,-0.11250630766153336,-0.4179019033908844
1758974340974205400,11.334205322265625,0.14272679388523102,-0.10155005753040314,-0.41034945845603943
1758974340984162600,11.34416259765625,0.13714800775051117,-0.05059526488184929,-0.4192337393760681
1758974340994119400,11.354119384765625,0.13078011572360992,0.030842600390315056,-0.4443207383155823
1758974341004077300,11.364077392578125,0.12778539955615997,0.08349116146564484,-0.494894415140152
1758974341014034400,11.374034423828125,0.12989062070846558,0.08510664105415344,-0.5486820340156555
1758974341023991600,11.383991455078124,0.1307673305273056,0.0464354082942009,-0.6008355021476746
1758974341033948400,11.393948486328124,0.13869529962539673,0.012141351588070393,-0.6438873410224915
1758974341043905500,11.403905517578124,0.16209836304187775,-0.00945289060473442,-0.6780027151107788
1758974341053862700,11.413862548828124,0.19043892621994019,-0.011804461479187012,-0.7126376628875732
1758974341063819500,11.423819580078124,0.21077774465084076,-0.014708638191223145,-0.7550677061080933
1758974341073776400,11.4337763671875,0.22527892887592316,-0.03123088926076889,-0.8007888197898865
1758974341083733500,11.4437333984375,0.24570457637310028,-0.05739857628941536,-0.8411136269569397
1758974341093690400,11.4536904296875,0.25430551171302795,-0.0574643574655056,-0.8752872943878174
1758974341103648500,11.4636484375,0.26376691460609436,-0.047208789736032486,-0.8830522894859314
1758974341113605400,11.47360546875,0.2550581395626068,-0.05206799507141113,-0.8564534187316895
1758974341123562500,11.4835625,0.22287489473819733,0.0346519872546196,-0.83809894323349
1758974341133519400,11.493519287109375,0.21532562375068665,0.12250780314207077,-0.8254736661911011
1758974341143476500,11.5034765625,0.24324966967105865,0.03801076486706734,-0.8088089227676392
1758974341153433600,11.51343359375,0.2538309395313263,-0.0871647298336029,-0.8498237729072571
1758974341163390500,11.523390380859375,0.24189013242721558,-0.06360134482383728,-0.9429898858070374
1758974341173347600,11.53334765625,0.25960201025009155,0.17261996865272522,-1.0333901643753052
1758974341183304400,11.543304443359375,0.2616553008556366,0.48050910234451294,-1.0981491804122925
1758974341193261600,11.553261474609375,0.24066613614559174,0.6946373581886292,-1.1479883193969727
1758974341203219500,11.563219482421875,0.21441082656383514,0.728866696357727,-1.205197811126709
1758974341213176600,11.573176513671875,0.20749805867671967,0.5629743933677673,-1.2802119255065918
1758974341223133400,11.583133544921875,0.21990519762039185,0.2767442464828491,-1.3620846271514893
1758974341233090300,11.59309033203125,0.24298495054244995,-0.010945858433842659,-1.4231677055358887
1758974341243047400,11.60304736328125,0.25605201721191406,-0.23604102432727814,-1.4458378553390503
1758974341253004500,11.613004638671875,0.23779578506946564,-0.31640323996543884,-1.4484882354736328
1758974341262961400,11.62296142578125,0.21072475612163544,-0.19212043285369873,-1.4305236339569092
1758974341272918500,11.63291845703125,0.18638639152050018,0.033071666955947876,-1.3762092590332031
1758974341282875600,11.642875732421874,0.16841058433055878,0.2450140118598938,-1.327419400215149
1758974341292832500,11.65283251953125,0.15517866611480713,0.28789517283439636,-1.3468575477600098
1758974341302789400,11.662789306640626,0.154928058385849,0.22642435133457184,-1.4432759284973145
1758974341312747500,11.67274755859375,0.16571146249771118,0.22881880402565002,-1.5372130870819092
1758974341322704600,11.68270458984375,0.18578211963176727,0.23337866365909576,-1.564896821975708
1758974341332661500,11.69266162109375,0.18286728858947754,0.23520000278949738,-1.5501275062561035
1758974341342618400,11.702618408203126,0.1903369277715683,0.33866938948631287,-1.5031310319900513
1758974341352575500,11.712575439453126,0.19648243486881256,0.4309370219707489,-1.4297741651535034
1758974341362532600,11.72253271484375,0.19540810585021973,0.30338090658187866,-1.38555109500885
1758974341372489500,11.732489501953125,0.18218950927257538,0.017122261226177216,-1.4344350099563599
1758974341382446600,11.742446533203125,0.17021220922470093,-0.1408950686454773,-1.5519791841506958
1758974341392403700,11.75240380859375,0.1806933432817459,-0.03285861387848854,-1.6069023609161377
1758974341402360300,11.7623603515625,0.202149897813797,0.28666770458221436,-1.576832890510559
1758974341412318500,11.772318359375,0.1946304738521576,0.6268112063407898,-1.5285471677780151
1758974341422275600,11.782275634765625,0.11659079790115356,0.7801352143287659,-1.500786304473877
1758974341432232700,11.792232666015625,0.007140467409044504,0.6902729868888855,-1.4685330390930176
1758974341442189600,11.802189453125,-0.1029205247759819,0.30857035517692566,-1.4588817358016968
1758974341452146400,11.812146484375,-0.18312640488147736,-0.15348036587238312,-1.4792536497116089
1758974341462103600,11.822103515625,-0.26112401485443115,-0.5236424207687378,-1.538720726966858
1758974341472060400,11.832060302734375,-0.2812143564224243,-0.9036734104156494,-1.645256757736206
1758974341482017500,11.842017578125,-0.2572195529937744,-1.1055731773376465,-1.7396130561828613
1758974341491974400,11.851974365234375,-0.22281309962272644,-0.940914511680603,-1.7340196371078491
1758974341501931300,11.86193115234375,-0.1856612116098404,-0.48626524209976196,-1.6059974431991577
1758974341511888400,11.871888427734374,-0.1599569171667099,-0.18079774081707,-1.4826278686523438
1758974341521846300,11.88184619140625,-0.12965120375156403,-0.23228223621845245,-1.4847275018692017
1758974341531803400,11.891803466796874,-0.10847507417201996,-0.4315681755542755,-1.5799219608306885
1758974341541760300,11.90176025390625,-0.05241447314620018,-0.6407110095024109,-1.6626445055007935
1758974341551717400,11.91171728515625,0.04662076383829117,-0.8335198760032654,-1.6983228921890259
1758974341561674200,11.92167431640625,0.12952683866024017,-0.841398298740387,-1.6664868593215942
1758974341571631000,11.931631103515626,0.1567762941122055,-0.5782252550125122,-1.5818612575531006
1758974341581588200,11.941588134765626,0.15666604042053223,-0.2752012014389038,-1.491052508354187
1758974341591545300,11.95154541015625,0.17009876668453217,-0.11843530088663101,-1.4370877742767334
1758974341601502200,11.961502197265625,0.1866939812898636,-0.023980965837836266,-1.3979963064193726
1758974341611459300,11.971459228515625,0.18887537717819214,0.007396929897367954,-1.3610223531723022
1758974341621417200,11.981417236328125,0.17477872967720032,-0.04292616248130798,-1.3291841745376587
1758974341631374300,11.991374267578125,0.13347390294075012,-0.13285419344902039,-1.3220990896224976
1758974341641331200,12.001331298828125,0.10489632189273834,-0.2184433937072754,-1.3606294393539429
1758974341651288300,12.011288330078125,0.07708732783794403,-0.31090009212493896,-1.4331310987472534
1758974341661245400,12.021245361328125,0.054055776447057724,-0.3929715156555176,-1.4748817682266235
1758974341671202300,12.031202392578125,0.01810523495078087,-0.45230382680892944,-1.4700247049331665
1758974341681159200,12.0411591796875,-0.010511763393878937,-0.5290771722793579,-1.4776769876480103
1758974341691116300,12.0511162109375,-0.015164838172495365,-0.5004745721817017,-1.4839924573898315
1758974341701073200,12.0610732421875,-0.031615450978279114,-0.35558873414993286,-1.473211646080017
1758974341711030300,12.0710302734375,-0.018274610862135887,-0.2521970868110657,-1.4462088346481323
1758974341720987400,12.0809873046875,0.0062552327290177345,-0.29226914048194885,-1.4340124130249023
1758974341730945300,12.0909453125,0.030367759987711906,-0.4124695956707001,-1.4677200317382812
1758974341740902100,12.100902099609375,0.0558353029191494,-0.37570253014564514,-1.5252373218536377
1758974341750859300,12.110859375,0.10642018169164658,-0.20781578123569489,-1.537750482559204
1758974341760816400,12.12081640625,0.1558990478515625,-0.09948530793190002,-1.505317211151123
1758974341770773200,12.130773193359374,0.1579534113407135,-0.10100757330656052,-1.4722238779067993
1758974341780730400,12.14073046875,0.13510429859161377,-0.12788313627243042,-1.4573315382003784
1758974341790687200,12.150687255859374,0.12432780861854553,-0.10092022269964218,-1.5025267601013184
1758974341800644000,12.16064404296875,0.12695102393627167,-0.05350104346871376,-1.5604363679885864
1758974341810601200,12.170601318359376,0.10879012942314148,-0.03444106504321098,-1.607636570930481
1758974341820558300,12.180558349609376,0.07457783073186874,-0.03672286123037338,-1.6340850591659546
