time,seconds_elapsed,z,y,x
1757491397412997600,0.05999755859375,9.626486778259277,2.9851953983306885,-1.2561328411102295
1757491397423057700,0.0700576171875,9.60299301147461,3.0132524967193604,-1.121010184288025
1757491397433098000,0.080097900390625,9.589226722717285,2.58738374710083,-0.7133224606513977
1757491397443138800,0.090138916015625,9.564237594604492,2.470890998840332,-1.0636241436004639
1757491397453179600,0.1001796875,9.528399467468262,3.0894179344177246,-1.554510235786438
1757491397463218700,0.11021875,9.8622407913208,3.307065963745117,-1.4651018381118774
1757491397473260500,0.120260498046875,9.9865140914917,2.8405706882476807,-1.0690858364105225
1757491397483275300,0.130275146484375,9.836503028869629,2.452784776687622,-0.8406640887260437
1757491397493341700,0.140341796875,9.77096176147461,2.3696610927581787,-0.6703016757965088
1757491397503382800,0.1503828125,9.717241287231445,2.3120505809783936,-0.5880758166313171
1757491397513421000,0.160421142578125,9.533935546875,2.5038859844207764,-0.692148745059967
1757491397523459600,0.17045947265625,9.493084907531738,2.504709005355835,-0.8518120646476746
1757491397533476000,0.18047607421875,9.276484489440918,2.503586769104004,-0.5644330382347107
1757491397543542800,0.190542724609375,9.243339538574219,2.5283517837524414,-0.48894086480140686
1757491397553559000,0.20055908203125,9.344269752502441,2.520421028137207,-0.5813421010971069
1757491397563625700,0.210625732421875,9.353248596191406,2.404975652694702,-0.6620715856552124
1757491397573662000,0.220661865234375,9.304840087890625,2.229600429534912,-0.6750152707099915
1757491397583701800,0.23070166015625,9.375245094299316,2.1548564434051514,-0.5409399271011353
1757491397593747200,0.240747314453125,9.421856880187988,2.0883424282073975,-0.38052842020988464
1757491397603762700,0.2507626953125,9.4636812210083,2.043750524520874,-0.30466216802597046
1757491397613828900,0.260828857421875,9.63179874420166,2.059387445449829,-0.37813422083854675
1757491397623869200,0.270869140625,9.781062126159668,2.1128830909729004,-0.3844190239906311
1757491397633864700,0.28086474609375,9.76744556427002,2.2193500995635986,-0.4481646418571472
1757491397643946500,0.290946533203125,9.797223091125488,2.2020668983459473,-1.5808465480804443
1757491397654000400,0.30100048828125,9.15737247467041,2.108393907546997,-1.0295815467834473
1757491397664031200,0.31103125,9.003844261169434,2.1519384384155273,-0.36152446269989014
1757491397674068500,0.321068359375,8.987459182739258,2.2002713680267334,0.26418519020080566
1757491397684087300,0.33108740234375,9.091008186340332,2.3495349884033203,0.4878185987472534
1757491397694153200,0.3411533203125,9.065046310424805,2.3994390964508057,0.541987419128418
1757491397704194000,0.351194091796875,9.089811325073242,2.331578254699707,0.49724575877189636
1757491397714230500,0.36123046875,9.110535621643066,2.3016507625579834,0.2750339210033417
1757491397724275000,0.37127490234375,9.163657188415527,2.3125743865966797,-0.03299509361386299
1757491397734290400,0.38129052734375,9.336114883422852,2.3784897327423096,-0.3877858519554138
1757491397744356900,0.39135693359375,9.370306968688965,2.364872694015503,-0.5478981137275696
1757491397754401300,0.4014013671875,9.272443771362305,2.246060371398926,-0.3800047039985657
1757491397764433400,0.411433349609375,9.437418937683105,1.9897311925888062,0.224905326962471
1757491397774474000,0.421473876953125,9.849446296691895,2.1070470809936523,0.7953238487243652
1757491397784494300,0.431494384765625,10.007912635803223,2.371756076812744,0.8190414309501648
1757491397794556000,0.441555908203125,10.032453536987305,2.4622867107391357,0.34581249952316284
1757491397804574200,0.45157421875,9.922843933105469,2.4624364376068115,-0.15008652210235596
1757491397814641000,0.461640869140625,9.720383644104004,2.3371150493621826,-0.339752197265625
1757491397824655400,0.4716552734375,9.59835433959961,2.2332663536071777,-0.31356561183929443
1757491397834721800,0.4817216796875,9.583989143371582,2.1815667152404785,-0.23867198824882507
1757491397844762400,0.491762451171875,9.607033729553223,2.250624418258667,-0.20612579584121704
1757491397854786600,0.50178662109375,9.64915657043457,2.335169553756714,-0.16400282084941864
1757491397864817700,0.511817626953125,9.695693969726562,2.3133225440979004,-0.10347440838813782
1757491397874856000,0.52185595703125,9.781885147094727,2.309357166290283,-0.06097732484340668
1757491397884924400,0.53192431640625,9.821165084838867,2.2997055053710938,-0.054093994200229645
1757491397894965000,0.541965087890625,9.74933910369873,2.2245874404907227,-0.06494271755218506
1757491397905004500,0.552004638671875,9.65259838104248,2.2117185592651367,-0.08132804185152054
1757491397915046000,0.5620458984375,9.578826904296875,2.287210702896118,-0.11387421935796738
1757491397925082400,0.572082275390625,9.48343276977539,2.305316925048828,-0.13242928683757782
1757491397935127000,0.582126953125,9.345991134643555,2.2362592220306396,-0.13819032907485962
1757491397945163800,0.592163818359375,9.219247817993164,2.190021276473999,-0.16056114435195923
1757491397955207000,0.60220703125,9.330353736877441,2.251746654510498,-0.09023147821426392
1757491397965248800,0.612248779296875,9.376741409301758,2.2627451419830322,-0.16317981481552124
1757491397975246600,0.62224658203125,9.449240684509277,2.2055087089538574,-0.19729718565940857
1757491397985330200,0.632330078125,9.58129596710205,2.126574754714966,-0.21996727585792542
1757491397995367200,0.6423671875,9.679009437561035,2.135179042816162,-0.2943371832370758
1757491398005409000,0.652408935546875,9.700632095336914,2.1890485286712646,-0.3346644937992096
1757491398015447800,0.66244775390625,9.698163032531738,2.181940793991089,-0.33945292234420776
1757491398025466600,0.672466552734375,9.695693969726562,2.1424365043640137,-0.3241898715496063
1757491398035529700,0.68252978515625,9.729362487792969,2.1266496181488037,-0.30062195658683777
1757491398045571800,0.69257177734375,9.711705207824707,2.1802947521209717,-0.27750295400619507
1757491398055614200,0.7026142578125,9.723751068115234,2.21620774269104,-0.2928408086299896
1757491398065654500,0.712654541015625,9.704597473144531,2.2055087089538574,-0.2952350080013275
1757491398075692000,0.722692138671875,9.646163940429688,2.174159526824951,-0.22595278918743134
1757491398085731600,0.732731689453125,9.616386413574219,2.155005931854248,-0.19370588660240173
1757491398095775700,0.742775634765625,9.659256935119629,2.1297919750213623,-0.19048866629600525
1757491398105817000,0.752817138671875,9.702202796936035,2.1321115493774414,-0.17874212563037872
1757491398115857400,0.762857421875,9.760486602783203,2.117671489715576,-0.16834230720996857
1757491398125868000,0.772867919921875,9.772382736206055,2.114154815673828,-0.1767968386411667
1757491398135938800,0.782938720703125,9.715446472167969,2.1773767471313477,-0.1546504646539688
1757491398145979400,0.7929794921875,9.650053977966309,2.2118682861328125,-0.10751461982727051
1757491398156021200,0.803021240234375,9.603517532348633,2.2130653858184814,-0.08342296630144119
1757491398166062600,0.8130625,9.577255249023438,2.20116925239563,-0.08581716567277908
1757491398176097800,0.823097900390625,9.570222854614258,2.2478561401367188,-0.10811316967010498
1757491398186137600,0.8331376953125,9.540594100952148,2.293121576309204,-0.07668927311897278
1757491398196157000,0.843156982421875,9.499743461608887,2.287210702896118,-0.05978022515773773
1757491398206197000,0.853197021484375,9.468618392944336,2.2550387382507324,-0.06224924325942993
1757491398216260600,0.863260498046875,9.45679759979248,2.2801778316497803,-0.06801029294729233
1757491398226302200,0.87330224609375,9.48186206817627,2.271648406982422,-0.0454898327589035
1757491398236323600,0.883323486328125,9.447220802307129,2.2513725757598877,-0.04429273307323456
1757491398246363100,0.893363037109375,9.481712341308594,2.240748405456543,-0.07788637280464172
1757491398256423200,0.903423095703125,9.585411071777344,2.238354206085205,-0.09988310188055038
1757491398266440400,0.9134404296875,9.606958389282227,2.2706010341644287,-0.10931026935577393
1757491398276481300,0.923481201171875,9.641899108886719,2.272845506668091,-0.12023381888866425
1757491398286522600,0.933522705078125,9.659706115722656,2.2620716094970703,-0.12158055603504181
1757491398296567300,0.9435673828125,9.631199836730957,2.288407802581787,-0.12247838079929352
1757491398306603000,0.95360302734375,9.620426177978516,2.2968623638153076,-0.14739304780960083
1757491398316664300,0.963664306640625,9.604864120483398,2.3247697353363037,-0.2223614901304245
1757491398326684000,0.973683837890625,9.603517532348633,2.29020357131958,-0.2380734384059906
1757491398336750000,0.98375,9.730110168457031,2.3005285263061523,-0.186074361205101
1757491398346804700,0.9938046875,9.676390647888184,2.299481153488159,-0.20373159646987915
1757491398356809000,1.00380908203125,9.717690467834473,2.2315456867218018,-0.22939445078372955
1757491398366868000,1.013867919921875,9.710582733154297,2.2339398860931396,-0.22580315172672272
1757491398376912100,1.023912109375,9.677288055419922,2.2793548107147217,-0.2265513390302658
1757491398386949000,1.03394921875,9.710806846618652,2.301950216293335,-0.21458032727241516
1757491398396993500,1.04399365234375,9.719112396240234,2.3068881034851074,-0.26231473684310913
1757491398407056000,1.054055908203125,9.711779594421387,2.279654026031494,-0.29710546135902405
1757491398417074700,1.06407470703125,9.684171676635742,2.215010643005371,-0.2520645558834076
1757491398427093500,1.074093505859375,9.668684005737305,2.219724178314209,-0.24361002445220947
1757491398437151700,1.08415185546875,9.64227294921875,2.2665607929229736,-0.2610428035259247
1757491398447196700,1.09419677734375,9.618406295776367,2.271498918533325,-0.28954875469207764
1757491398457233200,1.104233154296875,9.60643482208252,2.255936622619629,-0.27406126260757446
1757491398467277600,1.114277587890625,9.630302429199219,2.241421699523926,-0.2528127431869507
1757491398477320400,1.124320556640625,9.623119354248047,2.233116865158081,-0.2552069425582886
1757491398487358500,1.1343583984375,9.60411548614502,2.256983995437622,-0.24779987335205078
1757491398497398800,1.144398681640625,9.626636505126953,2.2031145095825195,-0.23276129364967346
1757491398507396600,1.154396728515625,9.6849946975708,2.1803696155548096,-0.23672668635845184
1757491398517476600,1.1644765625,9.69038200378418,2.174234390258789,-0.2667290270328522
1757491398527497500,1.17449755859375,9.72509765625,2.188375234603882,-0.23455694317817688
1757491398537574000,1.184573974609375,9.736993789672852,2.182464599609375,-0.2537853717803955
1757491398547602400,1.1946025390625,9.684545516967773,2.1980268955230713,-0.2438344806432724
1757491398557642500,1.204642578125,9.666664123535156,2.182539224624634,-0.23433248698711395
1757491398567683300,1.214683349609375,9.62020206451416,2.204012393951416,-0.2172738015651703
1757491398577717000,1.224717041015625,9.567903518676758,2.233715295791626,-0.17986440658569336
1757491398587764500,1.234764404296875,9.535881042480469,2.259902000427246,-0.15083470940589905
1757491398597805300,1.244805419921875,9.542689323425293,2.2468833923339844,-0.15809212625026703
1757491398607820000,1.254820068359375,9.577106475830078,2.2376060485839844,-0.21682488918304443
1757491398617882400,1.26488232421875,9.658134460449219,2.203937530517578,-0.19355624914169312
1757491398627923000,1.2749228515625,9.705944061279297,2.2217442989349365,-0.18412907421588898
1757491398637967400,1.28496728515625,9.76213264465332,2.258704900741577,-0.19482816755771637
1757491398648008000,1.295008056640625,9.745448112487793,2.2720224857330322,-0.22692543268203735
1757491398658023000,1.30502294921875,9.716717720031738,2.2566099166870117,-0.24241292476654053
1757491398668089000,1.315089111328125,9.580622673034668,2.237680673599243,-0.23829789459705353
1757491398678129700,1.325129638671875,9.693000793457031,2.31526780128479,-0.272938996553421
1757491398688166100,1.335166259765625,9.700407028198242,2.409764051437378,-0.300921231508255
1757491398698210600,1.34521044921875,9.893963813781738,2.343848705291748,-0.058882396668195724
1757491398708225800,1.355225830078125,10.404228210449219,1.404199242591858,0.7665934562683105
1757491398718292000,1.3652919921875,8.822708129882812,1.8810943365097046,-0.34341830015182495
1757491398728313600,1.375313720703125,9.040580749511719,2.3242461681365967,-0.1934814304113388
1757491398738373600,1.38537353515625,9.6710786819458,2.228403329849243,-0.32710781693458557
1757491398748412400,1.395412353515625,8.994566917419434,2.5807249546051025,-0.3800795078277588
1757491398758429000,1.405428955078125,10.13517951965332,2.2129156589508057,-0.18614917993545532
1757491398768491500,1.415491455078125,10.716371536254883,2.0503344535827637,0.16804303228855133
1757491398778510300,1.42551025390625,11.429096221923828,1.5910218954086304,0.6198737621307373
1757491398788576300,1.435576171875,11.873669624328613,0.9852139949798584,0.8381202220916748
1757491398798616600,1.445616455078125,10.619482040405273,0.7841010689735413,1.059733510017395
1757491398808631300,1.45563134765625,7.846771717071533,1.0574889183044434,1.1519851684570312
1757491398818659000,1.4656591796875,5.419126033782959,1.4489409923553467,1.1670985221862793
1757491398828734000,1.47573388671875,3.9775171279907227,2.291924476623535,1.8405425548553467
1757491398838761000,1.485760986328125,4.540753364562988,2.3300819396972656,1.1759271621704102
1757491398848819700,1.49581982421875,5.315501689910889,2.240673542022705,0.42115503549575806
1757491398858859800,1.50585986328125,8.25655460357666,2.0016274452209473,0.3413982093334198
1757491398868900400,1.515900390625,10.403928756713867,2.614318609237671,-1.3278840780258179
1757491398878910500,1.525910400390625,9.198822021484375,6.946476936340332,-9.220220565795898
1757491398888956000,1.535955810546875,8.808492660522461,9.834931373596191,-11.369614601135254
1757491398898999300,1.545999267578125,10.332402229309082,4.029216766357422,-2.5423429012298584
1757491398909062400,1.5560625,10.162114143371582,2.294243812561035,-1.7274913787841797
1757491398919108900,1.56610888671875,10.712257385253906,2.9456162452697754,-2.293645143508911
1757491398929143800,1.576143798828125,10.456526756286621,3.522843360900879,-2.3220014572143555
1757491398939184000,1.58618408203125,10.327987670898438,3.0859014987945557,-2.5451111793518066
1757491398949199400,1.596199462890625,9.071255683898926,2.8110921382904053,-2.8704981803894043
1757491398959265500,1.606265625,8.044816970825195,2.68180513381958,-2.2556371688842773
1757491398969282600,1.616282470703125,8.278101921081543,2.8406455516815186,-1.0981155633926392
1757491398979347000,1.626346923828125,7.913509845733643,3.1913211345672607,-0.9007435441017151
1757491398989388300,1.63638818359375,7.841683864593506,3.6478655338287354,-1.2255319356918335
1757491398999404300,1.646404296875,8.527697563171387,3.26456880569458,-0.7038952708244324
1757491399009464300,1.65646435546875,8.731354713439941,2.8896517753601074,-0.26223990321159363
1757491399019505700,1.666505615234375,9.10649585723877,2.6041431427001953,-0.09883563965559006
1757491399029547800,1.6765478515625,9.250746726989746,2.1134815216064453,0.09531915187835693
1757491399039590000,1.68658984375,9.181913375854492,2.471414804458618,-0.33039984107017517
1757491399049605000,1.696605224609375,8.849418640136719,2.5155577659606934,-0.21996727585792542
1757491399059667000,1.7066669921875,8.88338565826416,2.055945873260498,0.24338556826114655
1757491399069686300,1.716686279296875,9.081207275390625,2.373626470565796,0.17896658182144165
1757491399079748900,1.726748779296875,9.707590103149414,2.7113585472106934,-0.19153612852096558
1757491399089792800,1.736792724609375,9.86770248413086,3.166780710220337,-0.8431330919265747
1757491399099803000,1.746802978515625,9.750985145568848,3.319261312484741,-0.9800515174865723
1757491399109848300,1.756848388671875,9.644742012023926,3.406275749206543,-1.1686697006225586
1757491399119914200,1.766914306640625,9.728988647460938,3.5201499462127686,-1.026289463043213
1757491399129955300,1.776955322265625,9.741857528686523,3.4267759323120117,-0.9864110946655273
1757491399139991800,1.78699169921875,9.221492767333984,2.6686370372772217,-0.353069931268692
1757491399150036200,1.7970361328125,9.08951187133789,2.315417528152466,-0.1066167950630188
1757491399160075800,1.80707568359375,8.816797256469727,2.4340052604675293,-0.12367548048496246
1757491399170124000,1.8171240234375,8.028356552124023,3.078569173812866,-0.5858312249183655
1757491399180139300,1.82713916015625,7.393219947814941,3.350984573364258,-0.6813000440597534
1757491399190198800,1.83719873046875,7.810559272766113,3.203965663909912,-0.5302408337593079
1757491399200235500,1.847235595703125,7.884330749511719,2.724451780319214,-0.39541736245155334
1757491399210237400,1.857237548828125,8.200440406799316,2.9503297805786133,-0.7855974435806274
1757491399220319700,1.86731982421875,8.584634780883789,4.0143280029296875,-1.4269442558288574
1757491399230335200,1.877335205078125,8.664017677307129,4.328267574310303,-1.6722750663757324
1757491399240406000,1.887406005859375,8.88675308227539,3.196483612060547,-1.2058546543121338
1757491399250438100,1.897438232421875,9.66307258605957,2.4707412719726562,-0.741828441619873
1757491399260457200,1.907457275390625,9.789292335510254,2.240074872970581,-0.4742763936519623
1757491399270519600,1.91751953125,9.808819770812988,1.12736976146698,0.4918588101863861
1757491399280561400,1.9275615234375,8.988805770874023,2.370708703994751,-0.08544307202100754
1757491399290578400,1.937578369140625,8.66903018951416,3.344400405883789,-0.613214910030365
1757491399300621600,1.94762158203125,9.290849685668945,2.7828104496002197,-0.7081599831581116
1757491399310672600,1.957672607421875,9.906757354736328,2.072780132293701,-0.477119505405426
1757491399320725800,1.967725830078125,10.217181205749512,2.516979455947876,-0.3993079662322998
1757491399330745000,1.9777451171875,10.446351051330566,2.5935189723968506,-0.49290627241134644
1757491399340764200,1.98776416015625,10.860472679138184,2.222118377685547,-0.35411739349365234
1757491399350848000,1.997847900390625,11.510124206542969,1.8998738527297974,-0.08723872154951096
1757491399360869000,2.007869140625,11.902698516845703,1.8811691999435425,-0.029553426429629326
1757491399370929200,2.01792919921875,11.823017120361328,2.047715902328491,0.3693056106567383
1757491399380969200,2.02796923828125,11.688716888427734,2.1635353565216064,0.4076876640319824
1757491399390988000,2.037988037109375,11.146729469299316,2.3359179496765137,-0.02536357380449772
1757491399401015000,2.04801513671875,10.45742416381836,2.3185598850250244,-0.43275195360183716
1757491399411110700,2.058110595703125,9.979930877685547,2.093878984451294,-0.7363666892051697
1757491399421131300,2.06813134765625,9.518447875976562,2.0305824279785156,-1.0985645055770874
1757491399431151400,2.0781513671875,9.18969440460205,1.9783587455749512,-1.3145663738250732
1757491399441186300,2.088186279296875,9.149067878723145,1.8914941549301147,-0.6216694116592407
1757491399451249400,2.09824951171875,9.426870346069336,1.9996821880340576,-0.35254621505737305
1757491399461289500,2.10828955078125,9.737217903137207,2.2753894329071045,-0.17672201991081238
1757491399471335000,2.1183349609375,9.749189376831055,2.198251247406006,-0.02693476900458336
1757491399481376300,2.128376220703125,9.814730644226074,2.1793220043182373,-0.09898527711629868
1757491399491413800,2.138413818359375,10.133009910583496,2.162562608718872,-0.1817348748445511
1757491399501451800,2.14845166015625,10.335469245910645,2.018686056137085,-0.12996025383472443
1757491399511471000,2.15847119140625,10.402881622314453,2.003048896789551,-0.37020343542099
1757491399521535200,2.16853515625,10.290653228759766,2.027439832687378,-0.4339490532875061
1757491399531593500,2.178593505859375,9.475726127624512,2.2921488285064697,-0.3687070608139038
1757491399541622000,2.1886220703125,9.029507637023926,2.1146037578582764,-0.07309797406196594
1757491399551658200,2.198658203125,8.980276107788086,1.8723405599594116,0.17492635548114777
1757491399561673700,2.208673828125,9.605836868286133,2.1217117309570312,0.03763385862112045
1757491399571716600,2.218716552734375,9.923068046569824,2.1360020637512207,-0.04489128291606903
1757491399581760500,2.228760498046875,9.686491012573242,2.014496326446533,-0.0338929183781147
1757491399591809300,2.238809326171875,9.313145637512207,2.044797897338867,-0.021173721179366112
1757491399601857300,2.248857177734375,9.01783561706543,1.921122431755066,0.45190557837486267
1757491399611878400,2.25887841796875,8.759411811828613,2.0068647861480713,1.080159068107605
1757491399621919700,2.268919677734375,8.661772727966309,1.6237925291061401,1.8130840063095093
1757491399631981300,2.278981201171875,9.336039543151855,1.1577461957931519,2.6803088188171387
1757491399642000400,2.28900048828125,9.533336639404297,0.8882488012313843,3.282600164413452
1757491399652062500,2.2990625,9.611298561096191,0.8855553269386292,4.062661170959473
1757491399662105900,2.30910595703125,9.175553321838379,0.7478887438774109,5.259387969970703
1757491399672119800,2.319119873046875,8.36152458190918,0.657657265663147,6.385485649108887
1757491399682201600,2.32920166015625,7.58176326751709,0.5276970267295837,6.827365398406982
1757491399692203500,2.33920361328125,5.829656600952148,-0.5939116477966309,6.6967315673828125
1757491399702267100,2.34926708984375,5.985579013824463,0.1472434103488922,6.968249320983887
1757491399712282400,2.359282470703125,6.233378887176514,-1.082777738571167,7.180809497833252
1757491399722324700,2.36932470703125,5.336002349853516,-2.8220155239105225,7.85462760925293
1757491399732364300,2.3793642578125,3.392284631729126,-3.7410149574279785,7.598522663116455
1757491399742405400,2.3894052734375,1.9371336698532104,-3.8186769485473633,6.800505638122559
1757491399752466200,2.399466064453125,0.08716390281915665,-4.344952583312988,6.787636756896973
1757491399762507800,2.4095078125,-1.2285248041152954,-4.567987442016602,6.144344329833984
1757491399772516600,2.4195166015625,-1.0589104890823364,-4.980687618255615,5.249361991882324
1757491399782588000,2.429587890625,0.00823006872087717,-5.194370269775391,4.184540748596191
1757491399792651000,2.439651123046875,1.18827223777771,-4.579584121704102,2.624718427658081
1757491399802668800,2.449668701171875,2.3733272552490234,-4.11406135559082,1.5794249773025513
1757491399812713700,2.459713623046875,3.959186553955078,-3.782015562057495,0.5850830674171448
1757491399822728700,2.469728759765625,4.556614875793457,-3.7002387046813965,0.29403790831565857
1757491399832769300,2.479769287109375,4.521524906158447,-3.7485716342926025,2.4072201251983643
1757491399842831400,2.489831298828125,5.598017692565918,-3.1377508640289307,4.933701515197754
1757491399852876000,2.4998759765625,11.876736640930176,-2.1699697971343994,8.167594909667969
1757491399862916000,2.509916015625,15.156942367553711,-4.025027275085449,12.069395065307617
1757491399872953000,2.519953125,17.23944854736328,-4.145560264587402,13.663933753967285
1757491399882997500,2.52999755859375,17.972225189208984,-2.0616321563720703,14.09810733795166
1757491399893023200,2.540023193359375,18.297836303710938,-0.27817630767822266,13.84843635559082
1757491399903079200,2.5500791015625,18.989086151123047,1.361028790473938,12.439823150634766
1757491399913131500,2.560131591796875,20.58340072631836,2.3457190990448,11.545214653015137
1757491399923112700,2.57011279296875,21.983186721801758,2.510619640350342,10.84895133972168
1757491399933174800,2.5801748046875,23.400178909301758,2.4577229022979736,10.764405250549316
1757491399943236600,2.590236572265625,24.048484802246094,2.0901381969451904,11.031060218811035
1757491399953281500,2.600281494140625,23.418359756469727,1.5887024402618408,11.204789161682129
1757491399963303700,2.6103037109375,21.85524559020996,1.322871208190918,10.800917625427246
1757491399973359400,2.620359375,19.79136848449707,1.3899089097976685,9.636736869812012
1757491399983377400,2.63037744140625,16.90934944152832,1.4505869150161743,8.037185668945312
1757491399993439700,2.640439697265625,13.536666870117188,1.370605707168579,6.554725646972656
1757491400003480600,2.65048046875,11.904719352722168,1.356390118598938,5.526490688323975
1757491400013504000,2.66050390625,11.169100761413574,0.6750152707099915,4.662558078765869
1757491400023539500,2.67053955078125,10.621352195739746,0.05469254404306412,3.962852716445923
1757491400033581300,2.680581298828125,9.67003059387207,-0.4827309250831604,3.5149874687194824
1757491400043642400,2.690642333984375,8.235529899597168,-1.1549030542373657,2.9753942489624023
1757491400053687300,2.700687255859375,9.736470222473145,-1.3084312677383423,2.6761937141418457
1757491400063688400,2.7106884765625,10.075698852539062,-2.001103639602661,2.3478140830993652
1757491400073767700,2.720767578125,9.346814155578613,-2.400411605834961,1.9212720394134521
1757491400083809000,2.73080908203125,8.36384391784668,-2.51106858253479,1.6339678764343262
1757491400093824000,2.740823974609375,7.622913837432861,-2.294243812561035,1.222389578819275
1757491400103890200,2.75089013671875,7.211784362792969,-2.7181670665740967,1.5973066091537476
1757491400113906000,2.760906005859375,7.0435919761657715,-2.793883800506592,1.7420061826705933
1757491400123971000,2.77097119140625,6.715211868286133,-2.581173896789551,1.8070237636566162
1757491400134011600,2.78101171875,6.707954406738281,-2.22623348236084,1.7497873306274414
1757491400144052500,2.791052490234375,6.419902324676514,-2.438868522644043,1.852289080619812
1757491400154092800,2.8010927734375,6.536918640136719,-2.4886977672576904,1.9957915544509888
1757491400164116500,2.811116455078125,7.049203395843506,-2.430189609527588,2.0964229106903076
1757491400174148400,2.8211484375,7.320346355438232,-2.5156326293945312,2.3989152908325195
1757491400184214300,2.83121435546875,7.54779577255249,-2.4503157138824463,2.6512792110443115
1757491400194229800,2.841229736328125,7.847968578338623,-2.3826048374176025,2.88299298286438
1757491400204277200,2.85127734375,8.027009963989258,-2.2101473808288574,2.9262382984161377
1757491400214296300,2.86129638671875,8.095619201660156,-1.993696689605713,2.841468572616577
1757491400224376600,2.87137646484375,7.904007911682129,-1.8801217079162598,2.8693759441375732
1757491400234415000,2.8814150390625,7.845050811767578,-1.6540940999984741,2.801964282989502
1757491400244424400,2.891424560546875,8.01728343963623,-1.498845100402832,2.7473464012145996
1757491400254472400,2.901472412109375,8.133552551269531,-1.4701147079467773,2.953397512435913
1757491400264545800,2.9115458984375,8.190713882446289,-1.3426982164382935,3.254692792892456
1757491400274553600,2.9215537109375,8.413299560546875,-1.2363059520721436,3.4035820960998535
1757491400294656800,2.94165673828125,8.888399124145508,-1.2208184003829956,3.060163974761963
1757491400304701400,2.951701416015625,8.973318099975586,-1.0662428140640259,2.9104514122009277
1757491400314698800,2.96169873046875,8.96957778930664,-0.772429347038269,2.896984100341797
1757491400334804500,2.981804443359375,9.105972290039062,-0.25984570384025574,2.7887961864471436
1757491400344837600,2.991837646484375,9.262269020080566,-0.21196167171001434,2.714426279067993
1757491400374959400,3.02195947265625,8.092551231384277,-1.296086072921753,2.8498482704162598
1757491400395041300,3.042041259765625,10.835184097290039,-0.27825114130973816,2.1804444789886475
1757491400405065200,3.052065185546875,11.275193214416504,-0.2265513390302658,1.9651906490325928
1757491400415125000,3.062125,11.387496948242188,-0.04765957593917847,1.7343746423721313
1757491400425144600,3.07214453125,10.61656379699707,0.40140289068222046,1.44497549533844
1757491400435212000,3.0822119140625,9.902791976928711,0.1066167950630188,2.3651719093322754
1757491400445252400,3.09225244140625,9.917681694030762,0.7508814930915833,2.7358243465423584
1757491400455293000,3.10229296875,9.01791000366211,1.9396774768829346,2.3433997631073
1757491400465326300,3.112326416015625,8.015787124633789,2.2934207916259766,2.3277626037597656
1757491400475392500,3.122392578125,7.758859634399414,2.3355438709259033,2.081084966659546
1757491400485429000,3.132428955078125,8.309900283813477,1.9491046667099,2.0771195888519287
1757491400495468300,3.14246826171875,9.47722339630127,1.3293805122375488,2.2417209148406982
1757491400505510400,3.152510498046875,10.72258186340332,1.2208932638168335,2.327089309692383
1757491400515551500,3.162551513671875,11.498602867126465,1.351077914237976,2.3434746265411377
1757491400525598700,3.1725986328125,11.326070785522461,1.371503472328186,2.3300819396972656
1757491400535609000,3.182609130859375,10.628609657287598,1.4701894521713257,2.378115653991699
1757491400565731300,3.2127314453125,8.40073013305664,2.920851230621338,2.5497500896453857
1757491400585810700,3.232810791015625,8.566228866577148,1.4561983346939087,3.1739633083343506
1757491400595863600,3.242863525390625,7.998952865600586,0.5861304998397827,3.250727415084839
1757491400605892400,3.252892333984375,8.604910850524902,0.2281973510980606,3.288435935974121
1757491400615933200,3.26293310546875,9.157222747802734,0.6364087462425232,3.1478514671325684
1757491400625981400,3.2729814453125,9.105448722839355,0.6012439131736755,3.5261354446411133
1757491400636023800,3.28302392578125,9.53513240814209,0.5006126165390015,3.21675968170166
1757491400646056700,3.293056640625,9.486650466918945,0.7981669902801514,2.929006576538086
1757491400656083200,3.303083251953125,9.303045272827148,0.8727613091468811,2.863539934158325
1757491400666127600,3.313127685546875,9.475427627563477,0.5845593214035034,2.9199533462524414
1757491400696246800,3.343246826171875,8.946309089660645,0.8162731528282166,2.6951229572296143
1757491400706288400,3.353288330078125,8.805649757385254,0.8788216710090637,2.5922470092773438
1757491400716327000,3.363326904296875,8.78769302368164,0.9193734526634216,2.3696610927581787
1757491400726356700,3.373356689453125,8.868721961975098,0.9184008240699768,2.1740846633911133
1757491400736405200,3.3834052734375,9.101557731628418,1.1001356840133667,1.8830395936965942
1757491400746469600,3.3934697265625,9.355717658996582,1.0324246883392334,1.790264368057251
1757491400756503300,3.40350341796875,9.66382122039795,0.9447370171546936,1.6634464263916016
1757491400766563600,3.4135634765625,9.927632331848145,0.9843161702156067,1.5757588148117065
1757491400776582000,3.423581787109375,10.211869239807129,0.8479962944984436,1.5115642547607422
1757491400786648600,3.433648681640625,10.2561616897583,0.8438813090324402,1.5007154941558838
1757491400796684500,3.4436845703125,10.045696258544922,0.8804676532745361,1.4940567016601562
1757491400806729200,3.453729248046875,9.84151554107666,0.8758289217948914,1.5368530750274658
1757491400816769500,3.46376953125,9.619976997375488,0.9626935124397278,1.5124621391296387
1757491400826784500,3.473784423828125,9.40023422241211,1.0831518173217773,1.515454888343811
1757491400836852000,3.48385205078125,9.129165649414062,1.2205191850662231,1.617133617401123
1757491400846891000,3.49389111328125,9.04559326171875,1.3010989427566528,1.668160080909729
1757491400856940000,3.50393994140625,9.097891807556152,1.3127707242965698,1.683273434638977
1757491400866968000,3.513968017578125,9.232864379882812,1.2815712690353394,1.6493057012557983
1757491400877013000,3.524012939453125,9.49226188659668,1.2089970111846924,1.5138088464736938
1757491400887053600,3.534053466796875,9.683348655700684,1.137245774269104,1.4255226850509644
1757491400897068500,3.544068603515625,9.706243515014648,1.1552022695541382,1.3436708450317383
1757491400907093800,3.55409375,9.655141830444336,1.1900678873062134,1.32085120677948
1757491400917171200,3.564171142578125,9.58129596710205,1.2361562252044678,1.3659669160842896
1757491400927210800,3.574210693359375,9.511415481567383,1.2725181579589844,1.4449007511138916
1757491400937224000,3.584223876953125,9.457620620727539,1.2464812994003296,1.5132102966308594
1757491400947280400,3.5942802734375,9.387065887451172,1.3036428689956665,1.5523405075073242
1757491400957324000,3.604323974609375,9.243489265441895,1.3898340463638306,1.5021370649337769
1757491400967340800,3.6143408203125,9.206304550170898,1.425148606300354,1.4689176082611084
1757491400977385700,3.6243857421875,9.2009916305542,1.445274829864502,1.4925602674484253
1757491400987415800,3.634415771484375,9.250821113586426,1.4349498748779297,1.5183727741241455
1757491400997461500,3.64446142578125,9.277307510375977,1.4010568857192993,1.514257788658142
1757491401007523600,3.654523681640625,9.253813743591309,1.4069676399230957,1.4359225034713745
1757491401017564200,3.664564208984375,9.187599182128906,1.4710873365402222,1.475875735282898
1757491401027604700,3.674604736328125,9.212140083312988,1.5449334383010864,1.5110405683517456
1757491401037645000,3.68464501953125,9.230021476745605,1.5209914445877075,1.5494226217269897
1757491401047675000,3.6946748046875,9.282918930053711,1.500042200088501,1.5860090255737305
1757491401057705700,3.704705810546875,9.313669204711914,1.5100679397583008,1.619752287864685
1757491401067743700,3.71474365234375,9.364171981811523,1.5132851600646973,1.5991771221160889
1757491401077824000,3.724823974609375,9.34621524810791,1.5298948287963867,1.5814450979232788
1757491401087880400,3.73488037109375,9.31157398223877,1.521589994430542,1.5708208084106445
1757491401097894400,3.744894287109375,9.330577850341797,1.4725089073181152,1.5990275144577026
1757491401107945700,3.75494580078125,9.256956100463867,1.4910639524459839,1.7319804430007935
1757491401117982500,3.764982421875,9.079411506652832,1.4811878204345703,1.8543840646743774
1757491401128022800,3.775022705078125,8.751629829406738,1.4675707817077637,2.043226718902588
1757491401138067000,3.78506689453125,8.506299018859863,1.4597148895263672,2.266261577606201
1757491401148107800,3.795107666015625,8.445322036743164,1.3664158582687378,2.4973020553588867
1757491401158148400,3.8051484375,8.5857572555542,1.022698163986206,2.9204022884368896
1757491401168188700,3.815188720703125,8.740556716918945,0.7065139412879944,3.3161189556121826
1757491401178229000,3.82522900390625,8.626158714294434,0.5185691118240356,3.6995654106140137
1757491401188244000,3.835243896484375,8.030975341796875,0.25184008479118347,4.224419116973877
1757491401198305800,3.845305908203125,6.97700309753418,-0.0371849462389946,5.043610572814941
1757491401208351000,3.85535107421875,5.659219264984131,-0.6585550904273987,5.7841668128967285
1757491401218393900,3.865393798828125,4.671611309051514,-1.0205284357070923,5.375805854797363
1757491401228428000,3.875427978515625,4.9886932373046875,-1.6892589330673218,5.30308198928833
1757491401238449200,3.88544921875,5.689371585845947,-2.8518683910369873,5.7597761154174805
1757491401248510000,3.895510009765625,5.660865306854248,-3.7656302452087402,5.100996494293213
1757491401258552000,3.905552001953125,4.828730583190918,-4.832845687866211,3.805359125137329
1757491401268597500,3.915597412109375,3.13468337059021,-6.223951816558838,2.8361563682556152
1757491401278635800,3.9256357421875,1.2779051065444946,-7.235950946807861,1.5241338014602661
1757491401288634000,3.935634033203125,0.3454384207725525,-7.525798797607422,0.006284779403358698
1757491401298716000,3.9457158203125,0.0012719196965917945,-7.685986042022705,-1.0898854732513428
1757491401308756500,3.955756591796875,-0.7318027019500732,-8.82203483581543,-0.9867103695869446
1757491401318793200,3.965793212890625,-1.4953285455703735,-9.680505752563477,0.46814125776290894
1757491401328838700,3.975838623046875,-0.8488941192626953,-9.302745819091797,1.4223054647445679
1757491401338878500,3.98587841796875,0.7300818562507629,-8.3922758102417,1.8148796558380127
1757491401348918800,3.995918701171875,2.4571990966796875,-8.123003005981445,1.1869255304336548
1757491401358955800,4.005955810546875,4.617218017578125,-8.93381404876709,0.5545569658279419
1757491401369000200,4.016000244140625,8.978331565856934,-9.386168479919434,0.9680056571960449
1757491401379036700,4.02603662109375,12.166509628295898,-10.151939392089844,4.078073501586914
1757491401389085400,4.03608544921875,13.810578346252441,-12.064980506896973,9.613542556762695
1757491401399121400,4.046121337890625,14.492925643920898,-12.493917465209961,15.930793762207031
1757491401409141500,4.0561416015625,13.43708324432373,-11.504288673400879,21.01622772216797
1757491401419202800,4.066202880859375,10.669161796569824,-9.363872528076172,24.16273307800293
1757491401429239300,4.0762392578125,7.661669731140137,-6.119878768920898,25.59349250793457
1757491401439272400,4.0862724609375,4.357671737670898,-2.8796260356903076,26.1366024017334
1757491401449324800,4.09632470703125,2.3588123321533203,-0.18884265422821045,25.342924118041992
1757491401459365600,4.10636572265625,2.3664438724517822,2.2852654457092285,23.088708877563477
1757491401469408800,4.11640869140625,2.6996867656707764,2.4969279766082764,22.141054153442383
1757491401479442200,4.126442138671875,2.2603509426116943,1.9637690782546997,20.664579391479492
1757491401489466400,4.13646630859375,0.9859622120857239,2.2697031497955322,19.499576568603516
1757491401499523600,4.146523681640625,-1.1896189451217651,2.1624131202697754,19.36452865600586
1757491401509555200,4.15655517578125,-3.63649320602417,2.062455177307129,19.023204803466797
1757491401519608000,4.166608154296875,-5.8488850593566895,2.199298620223999,18.036792755126953
1757491401529649200,4.176649169921875,-6.507814407348633,2.6886136531829834,17.030031204223633
1757491401539689500,4.186689453125,-5.8057146072387695,2.7386674880981445,16.097564697265625
1757491401549719600,4.196719482421875,-4.390442371368408,2.3243956565856934,14.67054557800293
1757491401559749000,4.2067490234375,-3.1966333389282227,1.708636999130249,13.25759220123291
1757491401569807000,4.21680712890625,-2.6256911754608154,0.8075193166732788,12.270358085632324
1757491401579852000,4.22685205078125,-2.2566099166870117,0.3076549172401428,11.069591522216797
1757491401589892000,4.23689208984375,-2.6315269470214844,-0.3362357020378113,9.748440742492676
1757491401599907800,4.246907958984375,-3.5441668033599854,-2.7871501445770264,9.947383880615234
1757491401609973200,4.25697314453125,-7.249642848968506,-5.353285312652588,7.5953803062438965
1757491401619991300,4.2669912109375,-11.51850414276123,-6.234426498413086,5.122469425201416
1757491401630055000,4.277054931640625,-3.8191258907318115,-2.263942241668701,5.5131731033325195
1757491401640072400,4.287072509765625,0.2694973349571228,-6.3792009353637695,7.924657821655273
1757491401650135600,4.297135498046875,0.773476779460907,-3.7468507289886475,9.366042137145996
1757491401660172300,4.30717236328125,3.2311997413635254,-1.8010382652282715,9.475052833557129
1757491401670216400,4.317216552734375,6.307225227355957,-4.660388469696045,10.477400779724121
1757491401680257300,4.32725732421875,4.854618072509766,-9.403526306152344,8.025064468383789
1757491401690284000,4.337283935546875,7.157017230987549,-9.515680313110352,3.606790065765381
1757491401700334300,4.347334228515625,4.021360874176025,-8.996512413024902,2.595015287399292
1757491401710379300,4.357379150390625,-2.3591864109039307,-10.027215957641602,4.265644550323486
1757491401720417300,4.367417236328125,-3.309385299682617,-8.908899307250977,6.641515731811523
1757491401730455800,4.377455810546875,-3.579930067062378,-9.127594947814941,8.24742603302002
1757491401740497400,4.387497314453125,-1.4246248006820679,-10.35065746307373,8.930895805358887
1757491401750538500,4.39753857421875,-1.212363839149475,-8.536675453186035,8.066215515136719
1757491401760577300,4.407577392578125,-2.5383026599884033,-7.868169784545898,8.99928092956543
1757491401770597000,4.41759716796875,-2.9526493549346924,-7.734318733215332,10.83623218536377
1757491401780662800,4.427662841796875,-2.9690346717834473,-6.417433261871338,11.604097366333008
1757491401790703600,4.43770361328125,-2.945391893386841,-2.354398012161255,13.15157413482666
1757491401800739800,4.44773974609375,-5.551779747009277,1.9217957258224487,16.314016342163086
1757491401810784800,4.45778466796875,2.9741971492767334,-0.3266589045524597,14.071995735168457
1757491401820825000,4.4678251953125,5.326051235198975,-0.06404489278793335,12.633304595947266
1757491401830860500,4.477860595703125,3.7816414833068848,-0.8795698285102844,10.368913650512695
1757491401840881400,4.48788134765625,0.7089081406593323,-2.589104652404785,8.47435188293457
1757491401850947000,4.497947021484375,-2.652176856994629,-4.4589762687683105,7.002516269683838
1757491401860987400,4.5079873046875,-4.414159774780273,-7.250914573669434,5.600486755371094
1757491401870982400,4.517982421875,-3.440093755722046,-10.172364234924316,3.9916579723358154
1757491401881043200,4.528043212890625,-2.5173535346984863,-11.50339126586914,3.656245231628418
1757491401891105500,4.53810546875,-1.9711761474609375,-12.077849388122559,4.52571439743042
1757491401901149700,4.548149658203125,-2.855459690093994,-9.385644912719727,6.084863662719727
1757491401911190500,4.5581904296875,-1.89052152633667,-7.757138729095459,6.57462739944458
1757491401921232000,4.56823193359375,-2.608333110809326,-5.070245742797852,6.222530364990234
1757491401931246000,4.57824609375,-1.9223195314407349,-4.59544563293457,7.0936455726623535
1757491401941312800,4.588312744140625,-1.691802740097046,-4.589086055755615,7.204751491546631
1757491401951352600,4.5983525390625,-2.9293806552886963,-4.405331134796143,6.57806921005249
1757491401961389600,4.6083896484375,-3.4577510356903076,-4.3989715576171875,6.643835067749023
1757491401971430700,4.6184306640625,-3.6210055351257324,-5.080196857452393,7.321393966674805
1757491401981454000,4.6284541015625,-0.15180735290050507,-6.529736042022705,8.535404205322266
1757491401991513300,4.638513427734375,0.877774178981781,-6.1349921226501465,7.8267951011657715
1757491402001529300,4.648529296875,-5.620238780975342,-5.039570331573486,5.185391902923584
1757491402011571200,4.6585712890625,-4.419023036956787,-7.325957775115967,5.535543918609619
1757491402021632300,4.66863232421875,-1.6516999006271362,-2.1377975940704346,6.672116279602051
1757491402031640300,4.678640380859375,-1.8560301065444946,-0.7705588340759277,6.473472595214844
1757491402041695700,4.68869580078125,-2.5078513622283936,-2.8464064598083496,7.5388922691345215
1757491402051754800,4.698754638671875,-5.477334976196289,-6.24505090713501,6.528614044189453
1757491402061794600,4.708794677734375,-3.3652000427246094,-8.409558296203613,5.843198776245117
1757491402071813400,4.7188134765625,-0.5113117098808289,-9.382128715515137,6.385485649108887
1757491402081875700,4.728875732421875,-0.5407155156135559,-9.211915969848633,7.992892742156982
1757491402091895300,4.738895263671875,-3.5977370738983154,-7.599720001220703,9.58713150024414
1757491402101935400,4.748935302734375,-3.808950424194336,-4.380491256713867,10.366294860839844
1757491402112001300,4.759001220703125,0.3297264575958252,-1.7969980239868164,10.747570991516113
1757491402122041000,4.769041015625,0.5947346687316895,-1.8889503479003906,12.664504051208496
1757491402132057600,4.7790576171875,1.4996681213378906,-4.356100559234619,11.463587760925293
1757491402142201000,4.789201171875,-1.9547908306121826,-5.6950578689575195,10.098294258117676
1757491402152197000,4.799197021484375,-2.5556607246398926,-5.967921733856201,7.921515464782715
1757491402162218500,4.809218505859375,-1.3304280042648315,-5.742043972015381,7.518765926361084
1757491402172242200,4.8192421875,-0.7914332747459412,-6.147636413574219,7.535001754760742
1757491402182286300,4.829286376953125,-1.7985692024230957,-7.98952579498291,7.720627307891846
1757491402192326400,4.839326416015625,-2.3600094318389893,-7.2212114334106445,7.284508228302002
1757491402202367700,4.84936767578125,-2.3579893112182617,-5.382390022277832,6.288520336151123
1757491402212403700,4.85940380859375,-1.731606364250183,-4.48598575592041,5.914576053619385
1757491402222444500,4.869444580078125,-5.969418048858643,-3.752387523651123,6.328174591064453
1757491402232484000,4.879484130859375,-3.567061185836792,-3.7000889778137207,7.166967868804932
1757491402242525700,4.889525634765625,8.593912124633789,-4.430544853210449,8.97197151184082
1757491402252582400,4.89958251953125,4.55496883392334,-2.6011505126953125,9.635464668273926
1757491402262611000,4.90961083984375,-2.3865702152252197,-3.515062093734741,11.041010856628418
1757491402272651500,4.919651611328125,-6.1810808181762695,-1.065868616104126,11.589357376098633
1757491402282666200,4.929666259765625,1.120935320854187,-0.1817348748445511,12.547038078308105
1757491402292733000,4.93973291015625,-0.3637690246105194,-1.1890203952789307,12.886042594909668
1757491402302773200,4.949773193359375,-1.4257471561431885,-1.526528000831604,11.123835563659668
1757491402312813800,4.959813720703125,-2.774505615234375,0.14686931669712067,9.174805641174316
1757491402322854100,4.969854248046875,-1.2144588232040405,-0.3130418658256531,8.012944221496582
1757491402332894700,4.979894775390625,0.33010056614875793,-1.7967735528945923,7.4695353507995605
1757491402342931700,4.989931640625,1.1504138708114624,-4.2981157302856445,6.941763401031494
1757491402352976400,4.999976318359375,1.5750854015350342,-7.2340803146362305,6.304306983947754
1757491402363017000,5.010016845703125,1.3391817808151245,-8.579846382141113,5.894225120544434
1757491402373057300,5.020057373046875,0.32613515853881836,-8.066739082336426,5.521702289581299
1757491402383093500,5.030093505859375,1.3373112678527832,-6.727182865142822,5.252803802490234
1757491402393138700,5.040138671875,1.252017855644226,-5.095534801483154,5.63767147064209
1757491402403175400,5.050175537109375,-2.0796635150909424,-7.271265506744385,6.174272060394287
1757491402413219800,5.0602197265625,-0.7559691667556763,-8.715641975402832,7.197793483734131
1757491402423260700,5.0702607421875,1.5464298725128174,-10.186056137084961,7.872883319854736
1757491402433300200,5.08030029296875,2.718690872192383,-10.794781684875488,7.957653045654297
1757491402443341600,5.090341552734375,0.38150107860565186,-11.043554306030273,7.247248649597168
1757491402453405200,5.1004052734375,-3.0235774517059326,-11.13266372680664,5.6693949699401855
1757491402463420700,5.110420654296875,-4.243049144744873,-10.436848640441895,3.8623709678649902
1757491402473459200,5.120459228515625,-3.9037458896636963,-9.294066429138184,2.7479450702667236
1757491402483478300,5.130478271484375,-2.281000852584839,-8.529343605041504,2.6464908123016357
1757491402493542400,5.14054248046875,-1.4071919918060303,-7.047631740570068,4.894646167755127
1757491402503585000,5.1505849609375,-1.0313771963119507,-5.355604648590088,8.23351001739502
1757491402513625600,5.16062548828125,-2.1380221843719482,-5.23567008972168,9.46263313293457
1757491402523667200,5.170667236328125,-2.11714768409729,-7.606528282165527,8.119635581970215
1757491402533707300,5.180707275390625,-4.87870979309082,-6.178611755371094,6.471452236175537
1757491402543743700,5.19074365234375,-3.97489857673645,-5.482273101806641,6.159308433532715
1757491402553788000,5.200787841796875,-5.031489849090576,-6.901810169219971,5.948244571685791
1757491402563829200,5.210829345703125,-5.792471885681152,-8.97077465057373,5.609689235687256
1757491402573870000,5.2208701171875,-7.3028388023376465,-10.868029594421387,4.3103861808776855
1757491402583909600,5.23090966796875,-6.01071834564209,-10.740164756774902,2.4198646545410156
1757491402593951500,5.240951416015625,-3.90554141998291,-11.527033805847168,0.8368483185768127
1757491402603991300,5.2509912109375,1.9221699237823486,-12.872350692749023,-0.4545990526676178
1757491402614008000,5.261008056640625,6.9083943367004395,-11.846959114074707,-0.8861538767814636
1757491402624072400,5.271072509765625,9.39784049987793,-6.6763811111450195,-0.23171383142471313
1757491402634088000,5.281087890625,1.3755437135696411,-5.897068500518799,5.705681800842285
1757491402644153900,5.29115380859375,0.28535890579223633,-7.376011848449707,8.913164138793945
1757491402654194200,5.301194091796875,-0.5017349123954773,-7.260641098022461,9.992724418640137
1757491402664231700,5.311231689453125,0.3553144931793213,-7.073594093322754,9.324143409729004
1757491402674237400,5.321237548828125,0.8344541192054749,-7.577199459075928,8.102577209472656
1757491402684316200,5.331316162109375,0.9282768964767456,-8.24316120147705,6.779107093811035
1757491402694356500,5.3413564453125,1.0784382820129395,-8.43507194519043,5.9083662033081055
1757491402704401700,5.351401611328125,1.0802339315414429,-8.969801902770996,5.379696369171143
1757491402714434600,5.3614345703125,0.3163338899612427,-8.942193984985352,4.076801776885986
1757491402724475000,5.371474853515625,-0.6703016757965088,-8.740856170654297,3.7259016036987305
1757491402734516200,5.38151611328125,-1.9043630361557007,-8.075942039489746,4.1179518699646
1757491402744557000,5.39155712890625,-2.7012581825256348,-7.268496990203857,5.037624835968018
1757491402754596600,5.4015966796875,-2.112434148788452,-6.967501163482666,6.110900402069092
1757491402764641000,5.41164111328125,-1.8172738552093506,-7.679925918579102,6.935254096984863
1757491402774659600,5.42165966796875,-2.328809976577759,-8.98356819152832,7.032668113708496
1757491402784722400,5.431722412109375,-3.0400376319885254,-9.715371131896973,6.484545707702637
1757491402794763000,5.441762939453125,-3.4000656604766846,-9.053449630737305,5.5050177574157715
1757491402804803300,5.45180322265625,-2.155529737472534,-7.277774810791016,4.84406852722168
1757491402814844700,5.4618447265625,-0.7590367794036865,-7.1490864753723145,5.484068393707275
1757491402824892400,5.471892333984375,-0.7644985318183899,-8.246902465820312,5.33704948425293
1757491402834925300,5.48192529296875,-1.2907739877700806,-9.355268478393555,4.323703765869141
1757491402844962300,5.49196240234375,-1.9062334299087524,-9.3573637008667,4.937517166137695
1757491402855007000,5.502007080078125,1.0729016065597534,-8.605508804321289,3.139995574951172
1757491402865047600,5.512047607421875,-0.22460605204105377,-8.034940719604492,3.5592052936553955
1757491402875075000,5.522074951171875,-1.109562873840332,-7.27029275894165,2.9777135848999023
1757491402885128400,5.53212841796875,1.4820857048034668,-6.937947750091553,3.1278748512268066
1757491402895169500,5.54216943359375,0.6991068720817566,-7.917251110076904,4.639214515686035
1757491402905209900,5.5522099609375,0.08753799647092819,-7.557222843170166,5.9403886795043945
1757491402915247400,5.562247314453125,-0.15734393894672394,-7.691747188568115,5.901183605194092
1757491402925268000,5.57226806640625,-0.7216273546218872,-7.115941524505615,5.5103302001953125
1757491402935331600,5.58233154296875,0.2667290270328522,-7.461155414581299,5.742043972015381
1757491402945373000,5.592373046875,-0.12547113001346588,-7.836596488952637,5.966874599456787
1757491402955411500,5.602411376953125,-0.030226796865463257,-4.937517166137695,4.948964595794678
1757491402965449500,5.612449462890625,2.4298901557922363,3.0890438556671143,2.156203031539917
1757491402975469000,5.622468994140625,2.1028573513031006,0.6016179919242859,0.0694318488240242
1757491402985531100,5.63253125,0.3430442214012146,-3.6712839603424072,0.49881696701049805
1757491402995575800,5.642575927734375,-1.3429975509643555,-7.733421325683594,2.2764368057250977
1757491403005616000,5.6526162109375,-3.6001312732696533,-10.917335510253906,4.319214820861816
1757491403015631000,5.662631103515625,-2.5231144428253174,-12.34517765045166,5.447781562805176
1757491403025697300,5.672697265625,-0.7865700721740723,-12.655974388122559,6.246696472167969
1757491403035738000,5.682738037109375,-1.2311433553695679,-12.826486587524414,7.33351469039917
1757491403045778700,5.69277880859375,-0.5734861493110657,-13.743764877319336,6.191854476928711
1757491403055819500,5.702819580078125,-0.5387701988220215,-11.062409400939941,4.5283331871032715
1757491403065859000,5.712859130859375,-1.1774983406066895,-12.085406303405762,2.67484712600708
1757491403075874800,5.722874755859375,-1.119738221168518,-10.431836128234863,1.9649661779403687
1757491403085941000,5.73294091796875,-1.0077344179153442,-9.016114234924316,4.0084919929504395
1757491403095981800,5.74298193359375,0.21540333330631256,-8.11050796508789,4.282179355621338
1757491403106023200,5.753023193359375,-0.05439326912164688,-7.773898124694824,3.6365678310394287
1757491403116061700,5.763061767578125,0.059555768966674805,-7.379902362823486,3.846285104751587
1757491403126100500,5.7731005859375,-0.2878279387950897,-8.419509887695312,4.375478267669678
1757491403136140300,5.783140380859375,-0.3463362455368042,-6.477736949920654,3.338714361190796
1757491403146159600,5.79315966796875,2.184185266494751,-7.654786586761475,4.762965202331543
1757491403156222500,5.803222412109375,0.7460930943489075,-7.267150402069092,3.2746694087982178
1757491403166262000,5.813261962890625,1.2644377946853638,-7.929222106933594,3.4992754459381104
1757491403176293000,5.823293212890625,1.773879051208496,-8.852411270141602,3.389291763305664
1757491403186347800,5.83334765625,3.4917187690734863,-10.073304176330566,2.5103204250335693
1757491403196389000,5.84338916015625,1.4386159181594849,-10.586261749267578,1.7825579643249512
1757491403206390300,5.853390380859375,-2.285490036010742,-10.936638832092285,0.9992051124572754
1757491403216466000,5.8634658203125,-4.388347148895264,-11.579930305480957,0.07504326105117798
1757491403226489600,5.873489501953125,-2.493561029434204,-12.38340950012207,-0.7541735172271729
1757491403236538000,5.8835380859375,0.9883564114570618,-12.253599166870117,-1.2050316333770752
1757491403246591500,5.893591552734375,1.6630723476409912,-11.967192649841309,-1.3768904209136963
1757491403256632300,5.90363232421875,-0.49732059240341187,-13.23215389251709,-1.372925043106079
1757491403266673000,5.9136728515625,-1.7081880569458008,-16.620697021484375,-1.2838906049728394
1757491403276690400,5.9236904296875,-0.587701678276062,-16.53166389465332,-0.7670423984527588
1757491403286750000,5.93375,-0.13325229287147522,-14.76152515411377,2.9455413818359375
1757491403296790500,5.94379052734375,0.6386532783508301,-12.604125022888184,9.46951675415039
1757491403306835200,5.953835205078125,2.9559412002563477,-15.18776798248291,13.963956832885742
1757491403316875800,5.963875732421875,1.8702455759048462,-16.735170364379883,8.832210540771484
1757491403326891300,5.973891357421875,-1.7262942790985107,-17.39357566833496,0.06180033087730408
1757491403336957000,5.98395703125,-1.301847219467163,-16.818368911743164,-2.7333552837371826
1757491403346997800,5.993997802734375,1.0773159265518188,-14.204349517822266,-0.2793734073638916
1757491403357034800,6.00403466796875,1.6736966371536255,-12.53529167175293,1.326911449432373
1757491403367079700,6.01407958984375,3.8396260738372803,-12.48202133178711,-2.4500913619995117
1757491403377115100,6.024115234375,5.436334133148193,-11.596166610717773,-7.117288112640381
1757491403387160300,6.034160400390625,6.755539417266846,-9.377714157104492,-8.743325233459473
1757491403397175600,6.044175537109375,4.9496378898620605,-8.611719131469727,-7.106963157653809
1757491403407242000,6.054241943359375,0.6749404072761536,-8.556801795959473,-4.349291801452637
1757491403417282300,6.0642822265625,0.2083703726530075,-7.282188892364502,-2.6046669483184814
1757491403427301400,6.07430126953125,-0.6912509202957153,-7.355960369110107,-5.873051643371582
1757491403437364500,6.084364501953125,-8.318055152893066,-5.055282115936279,-9.524957656860352
1757491403447410000,6.094409912109375,-7.4893622398376465,1.2273277044296265,-3.9962220191955566
1757491403457441000,6.10444091796875,-1.7760487794876099,5.628169536590576,3.0830583572387695
1757491403467482600,6.114482666015625,-6.7038397789001465,3.4025347232818604,7.766341209411621
1757491403477500700,6.124500732421875,-2.4858546257019043,1.7103577852249146,7.58984375
1757491403487563300,6.134563232421875,0.6172551512718201,0.6875099539756775,3.0972740650177
1757491403497608000,6.14460791015625,2.977863073348999,-0.061276599764823914,-2.0439748764038086
1757491403507648300,6.154648193359375,4.7299699783325195,-0.2596960663795471,-4.761019706726074
1757491403517684700,6.164684814453125,5.778480529785156,-0.26336219906806946,-6.5295867919921875
1757491403527722200,6.17472216796875,1.3631986379623413,7.2072954177856445,-4.913575172424316
1757491403537770000,6.18477001953125,1.5059528350830078,13.98872184753418,-5.818508625030518
1757491403547811000,6.19481103515625,2.5759365558624268,5.200430393218994,-6.32405948638916
1757491403557847600,6.20484765625,-0.6390274167060852,-3.1833903789520264,-5.774814605712891
1757491403567892500,6.214892578125,-4.653879165649414,-17.51994514465332,-3.1222634315490723
1757491403577907500,6.224907470703125,-4.511274337768555,-25.31898307800293,-0.9784802794456482
1757491403587969800,6.2349697265625,-0.3876362144947052,-26.661081314086914,2.0231003761291504
1757491403598014200,6.24501416015625,1.1668740510940552,-25.384075164794922,4.920608043670654
1757491403608043800,6.255043701171875,3.0772974491119385,-24.98341941833496,4.952630519866943
1757491403618076400,6.265076416015625,1.2996026277542114,-25.606735229492188,5.994856834411621
1757491403628132000,6.275132080078125,-0.8628104329109192,-24.247278213500977,6.243105411529541
1757491403638176800,6.2851767578125,-0.8610895872116089,-20.80022621154785,6.250736713409424
1757491403648217900,6.2952177734375,0.1678185760974884,-15.45599365234375,4.253299236297607
1757491403658237000,6.30523681640625,3.0429556369781494,-10.396671295166016,-0.3751414716243744
1757491403668296400,6.31529638671875,3.1949872970581055,-8.754623413085938,-3.4638113975524902
1757491403678335700,6.325335693359375,3.6774189472198486,-9.134477615356445,-6.561609268188477
1757491403688380400,6.33538037109375,3.423783302307129,-9.307534217834473,-7.7370123863220215
1757491403698418400,6.34541845703125,3.1380503177642822,-9.903166770935059,-8.690728187561035
1757491403708457700,6.355457763671875,0.5900958776473999,-9.832761764526367,-9.160514831542969
1757491403718514400,6.365514404296875,-1.3960440158843994,-10.404452323913574,-7.853206157684326
1757491403728539000,6.375538818359375,-0.7223755717277527,-12.168530464172363,-3.970858335494995
1757491403738558000,6.385557861328125,-0.00396539643406868,-13.305401802062988,-1.4127286672592163
1757491403748620300,6.395620361328125,0.24989479780197144,-14.348450660705566,-0.34932899475097656
1757491403758665200,6.405665283203125,1.1432312726974487,-14.91019058227539,0.4816834628582001
1757491403768681500,6.415681396484375,1.8106898069381714,-14.823624610900879,1.161711573600769
1757491403778748000,6.425747802734375,1.0629507303237915,-14.114941596984863,1.2522423267364502
1757491403788761300,6.43576123046875,0.13444939255714417,-12.86703872680664,1.250671148300171
1757491403798823700,6.44582373046875,-0.5992985963821411,-10.507328033447266,1.1374702453613281
1757491403808864300,6.4558642578125,-0.4504092037677765,-7.6245598793029785,1.2503718137741089
1757491403818909200,6.4659091796875,0.5678747296333313,-5.445611953735352,1.2400468587875366
1757491403828940500,6.4759404296875,2.1612160205841064,-4.533944606781006,1.1278185844421387
1757491403838990300,6.485990234375,3.1053543090820312,-4.819976806640625,1.2407950162887573
1757491403849031000,6.496031005859375,2.486528158187866,-6.210259914398193,1.505204677581787
1757491403859071700,6.50607177734375,0.642469048500061,-7.846397399902344,1.625662922859192
1757491403869112300,6.5161123046875,1.1113585233688354,-9.243339538574219,1.7239000797271729
1757491403879128800,6.52612890625,0.4998644292354584,-10.04539680480957,1.5841385126113892
1757491403889189600,6.536189697265625,0.5573252439498901,-10.214188575744629,1.4001591205596924
1757491403899234300,6.546234375,0.9983072876930237,-9.694347381591797,1.4278420209884644
1757491403909249300,6.556249267578125,0.26972177624702454,-9.569100379943848,1.4177415370941162
1757491403919315700,6.566315673828125,1.3554922342300415,-9.65723705291748,1.045742392539978
1757491403929313000,6.57631298828125,1.4395138025283813,-9.53041934967041,0.48303020000457764
1757491403939371800,6.586371826171875,1.1660510301589966,-9.379135131835938,0.13684359192848206
1757491403949412400,6.596412353515625,1.2103437185287476,-9.645265579223633,0.09068039059638977
1757491403959458300,6.606458251953125,1.4637550115585327,-9.660155296325684,0.39728784561157227
1757491403969495000,6.6164951171875,1.6840964555740356,-9.449614524841309,0.9979332089424133
1757491403979534600,6.62653466796875,1.896806240081787,-9.834407806396484,1.249698519706726
1757491403989584400,6.63658447265625,1.769838809967041,-10.441712379455566,1.446696400642395
1757491403999625000,6.646625,2.3108534812927246,-11.746850967407227,0.5487959384918213
1757491404009642800,6.656642822265625,1.7758243083953857,-10.352153778076172,0.18951602280139923
1757491404019723000,6.666722900390625,1.9280056953430176,4.247762680053711,1.2690017223358154
1757491404029745000,6.676744873046875,-0.8307880163192749,17.90204429626465,3.4403929710388184
1757491404039803600,6.6868037109375,3.8179287910461426,-2.75348162651062,2.6237456798553467
1757491404049844700,6.6968447265625,5.409773349761963,-7.642665863037109,0.8496423363685608
1757491404059885300,6.70688525390625,6.941015243530273,-7.4806084632873535,-0.2876783013343811
1757491404069900500,6.716900634765625,6.134393692016602,-11.229554176330566,-1.3580360412597656
1757491404079957500,6.72695751953125,2.074126958847046,-12.228160858154297,-2.0510826110839844
1757491404089982000,6.73698193359375,0.7909843921661377,-11.381510734558105,-3.1862335205078125
1757491404100063000,6.74706298828125,0.7451952695846558,-10.949657440185547,-3.5912277698516846
1757491404110088400,6.75708837890625,1.7082629203796387,-9.723526000976562,-3.841646194458008
1757491404120084000,6.767083984375,2.5353100299835205,-8.905158042907715,-3.4461541175842285
1757491404130144500,6.77714453125,2.626514196395874,-9.398513793945312,-2.9343934059143066
1757491404140166100,6.787166259765625,3.580379009246826,-9.675642013549805,-2.1972784996032715
1757491404150226000,6.797225830078125,4.035950660705566,-11.748722076416016,-1.0438719987869263
1757491404160245200,6.807245361328125,3.0148236751556396,-14.82811450958252,0.25752630829811096
1757491404170306800,6.817306884765625,1.5307178497314453,-19.33295440673828,1.6577602624893188
1757491404180348000,6.827347900390625,0.25266310572624207,-15.985859870910645,0.9773580431938171
1757491404190412000,6.837412109375,0.3603273630142212,-13.222652435302734,0.4023755192756653
1757491404200451000,6.847451171875,1.0868927240371704,-13.608268737792969,-0.06658873707056046
1757491404210492700,6.85749267578125,1.0833762884140015,-14.355558395385742,-1.5966333150863647
1757491404220534500,6.867534423828125,0.47173255681991577,-13.241207122802734,-2.731858968734741
1757491404230551000,6.877551025390625,0.8408136963844299,-11.668665885925293,-2.3387608528137207
1757491404240614700,6.88761474609375,0.685789167881012,-10.96649169921875,-1.8166005611419678
1757491404250658300,6.897658203125,0.721477746963501,-11.419893264770508,-1.6516250371932983
1757491404260674300,6.90767431640625,0.5322609543800354,-10.014720916748047,-1.5541361570358276
1757491404270719500,6.917719482421875,-0.47173255681991577,-11.555390357971191,-0.924984872341156
1757491404280765000,6.927764892578125,-0.6437410116195679,-12.229133605957031,-0.2795230448246002
1757491404290797300,6.93779736328125,-0.7383867502212524,-12.839430809020996,0.027009587734937668
1757491404300836600,6.947836669921875,-0.8374468684196472,-13.167435646057129,-0.01885433867573738
1757491404310902800,6.95790283203125,-1.4529063701629639,-12.942081451416016,0.2313397377729416
1757491404320919800,6.967919921875,-1.173981785774231,-12.765284538269043,0.38636431097984314
1757491404330980400,6.97798046875,-1.6468366384506226,-11.638289451599121,0.557250440120697
1757491404341024500,6.9880244140625,-1.9963901042938232,-9.195605278015137,0.9654618501663208
1757491404351065300,6.9980654296875,-1.9663130044937134,-7.5453267097473145,1.675716757774353
1757491404361080600,7.00808056640625,-2.1915175914764404,-8.095244407653809,2.606163263320923
1757491404371146500,7.018146484375,-3.385251522064209,-9.820791244506836,3.4974796772003174
1757491404381187300,7.028187255859375,-5.053636074066162,-11.752687454223633,3.730914354324341
1757491404391224300,7.038224365234375,-5.087828159332275,-13.486238479614258,3.45805025100708
1757491404401235000,7.04823486328125,-3.902773141860962,-13.473594665527344,2.4562265872955322
1757491404411284000,7.058283935546875,-2.7679965496063232,-12.74725341796875,1.310301661491394
1757491404421324800,7.06832470703125,-1.6966660022735596,-12.349367141723633,1.1743559837341309
1757491404431409400,7.078409423828125,-0.7854477763175964,-13.0142822265625,1.6155624389648438
1757491404441428200,7.08842822265625,0.3586065173149109,-14.074165344238281,1.394248366355896
1757491404451468500,7.098468505859375,1.6008979082107544,-15.317204475402832,0.79899001121521
1757491404461510700,7.1085107421875,3.1204679012298584,-16.50899314880371,0.37581485509872437
1757491404471550200,7.11855029296875,5.005826950073242,-17.57546043395996,0.6140379309654236
1757491404481554700,7.1285546875,8.488343238830566,-18.166305541992188,1.0342203378677368
1757491404491634700,7.138634765625,8.573861122131348,-17.664644241333008,1.7054197788238525
1757491404501650200,7.148650146484375,5.975104331970215,-16.8007869720459,2.3641245365142822
1757491404511714300,7.15871435546875,3.624147891998291,-15.946355819702148,2.904615640640259
1757491404521755100,7.168755126953125,1.9221699237823486,-15.537022590637207,3.245864152908325
1757491404531776500,7.178776611328125,0.49709612131118774,-15.494600296020508,4.040365219116211
1757491404541813200,7.188813232421875,-1.2791770696640015,-16.00404167175293,4.965200424194336
1757491404551877600,7.198877685546875,-0.04010287672281265,-15.103073120117188,5.464316368103027
1757491404561918500,7.20891845703125,0.21061493456363678,-13.490578651428223,4.514566421508789
1757491404571960600,7.218960693359375,1.1305869817733765,-11.608960151672363,2.53725528717041
1757491404582002000,7.229001953125,0.7867197394371033,-10.780566215515137,0.4597615599632263
1757491404592061000,7.23906103515625,-0.10639233887195587,-10.79508113861084,-0.9753379225730896
1757491404602059800,7.249059814453125,-0.7572411298751831,-10.36337661743164,-1.9072809219360352
1757491404612196000,7.259196044921875,-1.7067664861679077,-9.623494148254395,-2.5291748046875
1757491404622217700,7.2692177734375,-2.213439464569092,-8.768389701843262,-2.663100481033325
1757491404632215600,7.279215576171875,-1.8727895021438599,-7.0866875648498535,-2.372953176498413
1757491404642242000,7.289241943359375,-1.7513585090637207,-5.433042049407959,-1.8958336114883423
1757491404652264200,7.29926416015625,-1.8649334907531738,-4.815787315368652,-1.358933925628662
1757491404662327800,7.309327880859375,-1.335740089416504,-3.761216163635254,-0.5762544274330139
1757491404672343000,7.319343017578125,-1.3735984563827515,-2.7207858562469482,0.09442132711410522
1757491404682407700,7.32940771484375,-1.5916204452514648,-2.6945242881774902,0.9380781650543213
1757491404692446000,7.339446044921875,-1.3929765224456787,-2.701033592224121,1.2413935661315918
1757491404702470400,7.349470458984375,-1.156474232673645,-2.691082715988159,1.3382091522216797
1757491404712527400,7.35952734375,-1.1968015432357788,-2.877007484436035,1.7726819515228271
1757491404722550800,7.36955078125,-1.4902409315109253,-3.3325042724609375,1.9858406782150269
1757491404732613000,7.379613037109375,-1.5043816566467285,-3.1680526733398438,1.80919349193573
1757491404742653700,7.38965380859375,-1.2483516931533813,-2.5853636264801025,1.7307833433151245
1757491404752710000,7.3997099609375,-0.8850316405296326,-3.116726875305176,2.3662943840026855
1757491404762735000,7.409735107421875,-1.6320973634719849,-3.030909776687622,3.0982465744018555
1757491404772750000,7.41975,-2.3790135383605957,-2.467299699783325,3.808351993560791
1757491404782816300,7.429816162109375,-3.0538790225982666,-2.4158990383148193,4.490849018096924
1757491404792835800,7.4398359375,-3.701061725616455,-2.6809821128845215,4.678195476531982
1757491404802876400,7.44987646484375,-4.286219596862793,-3.1467292308807373,4.630012035369873
1757491404812938800,7.459938720703125,-4.791021823883057,-3.647491455078125,4.865317344665527
1757491404823001000,7.4700009765625,-4.928763389587402,-4.027870178222656,5.798906326293945
1757491404833020200,7.480020263671875,-5.497461318969727,-4.632256507873535,7.003937721252441
1757491404843057000,7.490056884765625,-5.554996967315674,-5.489530563354492,7.768136978149414
1757491404853075700,7.50007568359375,-5.114912509918213,-6.368277072906494,8.609773635864258
1757491404863142100,7.51014208984375,-4.943652629852295,-6.752022743225098,8.41427230834961
1757491404873176600,7.520176513671875,-4.782941818237305,-7.225101947784424,7.916353225708008
1757491404883179800,7.5301796875,-4.3792195320129395,-6.956876754760742,7.135843276977539
1757491404893264600,7.5402646484375,-6.180481910705566,-6.531083106994629,6.538489818572998
1757491404903305200,7.55030517578125,-7.390377044677734,-6.397830486297607,6.247893810272217
1757491404913320700,7.56032080078125,-8.045565605163574,-7.10494327545166,6.2485671043396
1757491404923411200,7.5704111328125,-8.124947547912598,-8.84290885925293,5.686004638671875
1757491404933426000,7.580426025390625,-7.1927056312561035,-10.021530151367188,3.95177960395813
1757491404943464200,7.590464111328125,-6.80319881439209,-10.337414741516113,2.486079216003418
1757491404953467100,7.600467041015625,-6.5709614753723145,-10.296488761901855,3.3337013721466064
1757491404963545000,7.610545166015625,-4.82865571975708,-10.395624160766602,4.824914932250977
1757491404973590500,7.620590576171875,-1.5545850992202759,-9.462409019470215,3.957989454269409
1757491404983631400,7.63063134765625,0.16175825893878937,-7.382221698760986,1.921122431755066
1757491404993671700,7.640671630859375,-1.1784709692001343,-6.151003360748291,0.7900117635726929
1757491405003683000,7.65068310546875,-3.361833333969116,-6.413318157196045,0.5883750915527344
1757491405013753000,7.660753173828125,-4.4618940353393555,-7.3040361404418945,0.9228151440620422
1757491405023751700,7.670751708984375,-3.8657379150390625,-8.452953338623047,1.5435867309570312
1757491405033831000,7.680830810546875,-3.0906150341033936,-9.654094696044922,2.295590400695801
1757491405043875600,7.69087548828125,-2.0352959632873535,-11.084854125976562,3.2953941822052
1757491405053878000,7.7008779296875,-0.9534908533096313,-12.36597728729248,4.197035789489746
1757491405063957000,7.71095703125,-0.45646950602531433,-13.245022773742676,4.852298736572266
1757491405073994000,7.720993896484375,-0.66042560338974,-13.567492485046387,5.433416366577148
1757491405084039200,7.7310390625,-0.585232675075531,-13.348123550415039,5.730446815490723
1757491405094054000,7.741053955078125,-0.7067384123802185,-12.58572006225586,5.638344764709473
1757491405104095000,7.751094970703125,-0.7932289242744446,-11.450119972229004,5.155913352966309
1757491405114160600,7.76116064453125,-0.09472060203552246,-10.185532569885254,4.422464847564697
1757491405124182300,7.771182373046875,0.3106476664543152,-9.149665832519531,3.66387677192688
1757491405134242600,7.78124267578125,0.48325464129447937,-8.605284690856934,3.145232915878296
1757491405144279300,7.791279296875,1.0690110921859741,-8.496423721313477,2.927285671234131
1757491405154298600,7.801298583984375,1.2510452270507812,-8.591816902160645,2.8517935276031494
1757491405164363300,7.81136328125,1.022698163986206,-8.851139068603516,2.939406394958496
1757491405174382600,7.821382568359375,0.5014356374740601,-9.23795223236084,3.075277328491211
1757491405184442400,7.8314423828125,0.4560205936431885,-9.690007209777832,3.238307476043701
1757491405194483700,7.841483642578125,0.3767126798629761,-10.227505683898926,3.309011220932007
1757491405204506000,7.851506103515625,-0.15839140117168427,-10.635493278503418,3.1298201084136963
1757491405214564400,7.861564453125,0.013991116546094418,-10.746299743652344,3.0435540676116943
1757491405224600000,7.87160009765625,-0.11477204412221909,-10.505607604980469,2.688912868499756
1757491405234650000,7.881650146484375,0.1255459487438202,-10.083703994750977,2.7777976989746094
1757491405244690400,7.8916904296875,-0.46649524569511414,-9.53618049621582,2.6267385482788086
1757491405254706000,7.901705810546875,-0.1767968386411667,-9.157522201538086,2.994323253631592
1757491405264764200,7.91176416015625,-1.4190133810043335,-8.349404335021973,2.665419816970825
1757491405274787300,7.921787353515625,-1.382651448249817,-7.870713710784912,2.6875662803649902
1757491405284832800,7.931832763671875,-1.5450830459594727,-7.168988227844238,2.557007312774658
1757491405294894800,7.941894775390625,-2.570474863052368,-6.479158878326416,1.6928502321243286
1757491405304910800,7.951910888671875,-1.5575029850006104,-6.747683525085449,1.6100258827209473
1757491405314950400,7.961950439453125,-1.9076550006866455,-7.276352882385254,1.6534206867218018
1757491405324991700,7.97199169921875,-2.8455088138580322,-8.013691902160645,1.534683346748352
1757491405335057400,7.982057373046875,-3.4427871704101562,-8.383970260620117,1.236605167388916
1757491405345073000,7.992072998046875,-1.9809026718139648,-9.117344856262207,2.099565267562866
1757491405355135200,8.00213525390625,-1.580173134803772,-9.255011558532715,2.800841808319092
1757491405365179600,8.0121796875,-1.4258967638015747,-9.054197311401367,3.2071828842163086
1757491405375240400,8.022240478515625,-0.5670517086982727,-8.517671585083008,3.355997323989868
1757491405385261600,8.032261474609374,-0.7401823997497559,-8.365489959716797,3.0427310466766357
1757491405395302100,8.04230224609375,-0.8675240278244019,-8.473678588867188,2.238354206085205
1757491405405343000,8.052343017578124,-0.22453123331069946,-8.514604568481445,1.1348515748977661
1757491405415384300,8.06238427734375,0.587701678276062,-8.578499794006348,0.020874446257948875
1757491405425422600,8.072422607421874,0.5031564235687256,-8.893187522888184,-1.0583868026733398
1757491405435440000,8.082440185546876,0.9151087999343872,-9.364246368408203,-1.8008885383605957
1757491405445484800,8.09248486328125,1.8580501079559326,-9.828198432922363,-1.9360861778259277
1757491405455522000,8.10252197265625,2.4066965579986572,-10.5252103805542,-1.415871024131775
1757491405465587700,8.112587646484375,3.6752493381500244,-10.807052612304688,-0.7852233648300171
1757491405475646700,8.122646728515624,4.817732334136963,-10.998139381408691,-0.11881226301193237
1757491405485643800,8.132643798828125,4.8593316078186035,-11.401412963867188,1.0452934503555298
1757491405495709700,8.142709716796874,3.4244565963745117,-12.485611915588379,2.474257707595825
1757491405505725000,8.152724853515625,2.7024552822113037,-13.84492015838623,3.5364603996276855
1757491405515787300,8.162787353515625,2.080336809158325,-15.3923978805542,4.221052646636963
1757491405525832400,8.17283251953125,1.1558756828308105,-16.929698944091797,4.624325752258301
1757491405535872500,8.18287255859375,0.4042460024356842,-18.07001304626465,4.854094505310059
1757491405545913900,8.192913818359376,-0.9173533320426941,-18.357091903686523,4.35108757019043
1757491405555954700,8.20295458984375,-1.7166426181793213,-17.900697708129883,3.0440778732299805
1757491405565994800,8.212994873046876,-1.5768810510635376,-16.95094871520996,1.672798752784729
1757491405576036600,8.22303662109375,-2.1320366859436035,-16.151508331298828,0.7057657837867737
1757491405586074600,8.23307470703125,-3.550675868988037,-15.717559814453125,0.5220108032226562
1757491405596092200,8.243092041015625,-5.370044708251953,-15.302689552307129,0.9544634819030762
1757491405606154800,8.25315478515625,-6.607173919677734,-14.880861282348633,1.99998140335083
1757491405616194800,8.26319482421875,-7.139883518218994,-14.479159355163574,3.2820017337799072
1757491405626238000,8.273238037109374,-6.665681838989258,-14.111200332641602,4.599710464477539
1757491405636279000,8.283279052734375,-4.810774326324463,-13.730222702026367,5.5208048820495605
1757491405646322000,8.293322021484375,-1.3067103624343872,-13.359271049499512,5.757606029510498
1757491405656359200,8.303359130859375,3.39445424079895,-13.252429962158203,5.243675708770752
1757491405666399700,8.313399658203124,6.5650506019592285,-13.398626327514648,4.65754508972168
1757491405676428500,8.323428466796875,5.599364280700684,-13.524770736694336,4.6098856925964355
1757491405686466300,8.33346630859375,3.167229652404785,-13.742568016052246,4.688894271850586
1757491405696524500,8.343524658203124,0.21630115807056427,-14.197017669677734,5.219808578491211
1757491405706556200,8.35355615234375,-1.2770073413848877,-14.437484741210938,5.254973411560059
1757491405716585500,8.36358544921875,-1.4412345886230469,-14.056358337402344,4.255918025970459
1757491405726643500,8.3736435546875,-1.0779144763946533,-13.307047843933105,2.2975358963012695
1757491405736644400,8.383644287109375,-1.4652514457702637,-12.465710639953613,0.5174468159675598
1757491405746725400,8.393725341796875,-0.4308066666126251,-11.129671096801758,-0.020126258954405785
1757491405756770000,8.40377001953125,1.0663175582885742,-10.027589797973633,0.27982231974601746
1757491405766785500,8.41378564453125,1.4112322330474854,-9.637859344482422,0.834528923034668
1757491405776844800,8.4238447265625,1.3291560411453247,-9.491737365722656,1.2547112703323364
1757491405786892300,8.433892333984375,1.460687518119812,-9.442357063293457,1.8713679313659668
1757491405796948500,8.443948486328125,1.4995183944702148,-9.008782386779785,2.578181028366089
1757491405806973700,8.4539736328125,0.9394248723983765,-8.19692325592041,2.7807905673980713
1757491405817028400,8.4640283203125,0.5474491715431213,-6.833799839019775,2.9934256076812744
1757491405827029800,8.47402978515625,0.32291796803474426,-5.598840713500977,2.482487916946411
1757491405837096200,8.48409619140625,0.6744915246963501,-5.506289958953857,1.0209025144577026
1757491405847111200,8.494111083984375,1.2386252880096436,-5.2235493659973145,-0.10152911394834518
1757491405857173800,8.504173828125,1.5394717454910278,-4.325798511505127,-0.3999813199043274
1757491405867218400,8.514218505859375,0.20043957233428955,-3.837381601333618,-0.26164135336875916
1757491405877240300,8.524240234375,-0.166995570063591,-3.138124942779541,-0.30892685055732727
1757491405887295700,8.534295654296875,-0.49208328127861023,-2.57698392868042,-0.4671685993671417
1757491405897315600,8.544315673828125,-0.06329670548439026,-1.208622932434082,-0.8429834842681885
1757491405907356000,8.55435595703125,-0.07556699216365814,-0.5093663930892944,-0.5029320120811462
1757491405917393000,8.564392822265624,-0.04077624902129173,-0.0735468864440918,-0.013242928311228752
1757491405927426800,8.5744267578125,0.02431611157953739,0.003441664855927229,0.6969371438026428
1757491405937466000,8.584466064453125,-0.3538181185722351,-0.7183353304862976,1.2618939876556396
1757491405947571500,8.594571533203125,-0.9962871670722961,-1.651475429534912,1.8056769371032715
1757491405957581000,8.6045810546875,-1.679457664489746,-2.455777645111084,2.6552445888519287
1757491405967625700,8.614625732421874,-2.0469677448272705,-2.8960113525390625,3.557858467102051
1757491405977646300,8.624646240234375,-2.0469677448272705,-3.5316720008850098,4.665102005004883
1757491405987703300,8.634703369140626,-1.7910125255584717,-4.404732704162598,5.845293998718262
1757491405997766100,8.64476611328125,-1.7510592937469482,-5.3617401123046875,6.639944553375244
1757491406007788800,8.654788818359375,-2.036792278289795,-6.094066143035889,6.668674945831299
1757491406027830800,8.674830810546876,-3.049464702606201,-6.588244438171387,5.228038787841797
1757491406037911300,8.684911376953124,-4.049343109130859,-6.850035667419434,4.565742492675781
1757491406047927600,8.694927490234376,-4.630835056304932,-6.699874401092529,3.8242135047912598
1757491406057992000,8.704991943359374,-5.229235649108887,-6.583530902862549,2.4000375270843506
1757491406068008200,8.71500830078125,-4.5667901039123535,-6.4426469802856445,0.3405003845691681
1757491406078074000,8.72507421875,-4.689941883087158,-6.046182155609131,-1.5646108388900757
1757491406088115200,8.735115234375,-6.115913391113281,-5.540482044219971,-1.5552585124969482
1757491406098128100,8.745128173828125,-6.545523166656494,-7.256077289581299,1.264886736869812
1757491406108196000,8.755196044921876,-5.134140968322754,-11.431565284729004,4.679616928100586
1757491406118218500,8.765218505859375,-3.723282814025879,-15.727286338806152,6.2363715171813965
1757491406128278300,8.7752783203125,-4.2747721672058105,-20.5047664642334,6.010793209075928
1757491406138318800,8.78531884765625,-4.699818134307861,-23.903409957885742,6.380397796630859
1757491406148353500,8.795353515625,-2.903942108154297,-23.384916305541992,7.700799942016602
1757491406158406000,8.805406005859375,-2.2171804904937744,-18.770166397094727,8.277652740478516
1757491406168425700,8.81542578125,-2.497152328491211,-13.1630220413208,7.3786301612854
1757491406178478300,8.825478271484375,-1.4882208108901978,-8.577377319335938,5.038073539733887
1757491406188519700,8.835519775390624,-0.04885667935013771,-5.252130508422852,2.6417770385742188
1757491406198573300,8.8455732421875,1.1138274669647217,-3.0619595050811768,1.2166285514831543
1757491406208578800,8.855578857421875,1.9075053930282593,-2.454131603240967,0.8873509764671326
1757491406218619400,8.865619384765624,1.4984710216522217,-3.3574938774108887,1.3893852233886719
1757491406228685800,8.875685791015625,0.889445960521698,-5.297245979309082,2.279055595397949
1757491406238704400,8.885704345703125,0.7119757533073425,-7.499163627624512,3.0445268154144287
1757491406248767500,8.895767578125,0.6427683234214783,-9.57905101776123,3.718045711517334
1757491406258792200,8.905792236328125,0.4017769694328308,-11.372458457946777,4.548983097076416
1757491406268807400,8.915807373046874,0.04803367331624031,-12.559159278869629,5.396530628204346
1757491406278873600,8.92587353515625,-0.28895020484924316,-12.887314796447754,6.276923656463623
1757491406288914400,8.93591455078125,-0.8938602209091187,-12.28771686553955,7.009998321533203
1757491406298971400,8.945971435546875,-1.0395324230194092,-10.801515579223633,7.311069011688232
1757491406308993000,8.955992919921876,-0.9104700088500977,-9.166051864624023,7.265728950500488
1757491406319021600,8.966021484375,-0.7416039705276489,-8.263213157653809,6.8093342781066895
1757491406329077500,8.976077392578125,-1.1402385234832764,-7.578695774078369,5.959392547607422
1757491406339118300,8.986118408203126,-0.5931634902954102,-6.6530375480651855,5.125312328338623
1757491406349175300,8.99617529296875,-0.3108721375465393,-6.000692367553711,4.189628601074219
1757491406359216400,9.00621630859375,0.02042553387582302,-5.756259441375732,3.380687713623047
1757491406369231600,9.016231689453125,0.012045827694237232,-5.877690315246582,2.772261142730713
1757491406379297800,9.0262978515625,-0.3720739185810089,-6.1932759284973145,2.268206834793091
1757491406389324500,9.036324462890626,-0.8468740582466125,-6.885275363922119,2.0864720344543457
1757491406399379700,9.046379638671874,-0.7209540009498596,-7.401973724365234,2.2527942657470703
1757491406409418500,9.05641845703125,-1.376441478729248,-7.892261505126953,2.360084295272827
1757491406419438600,9.0664384765625,-1.9231425523757935,-8.643142700195312,2.4561517238616943
1757491406429494800,9.076494873046874,-1.4940567016601562,-8.60079574584961,2.504634141921997
1757491406439517000,9.086516845703125,-1.7934067249298096,-8.636857986450195,2.4961798191070557
1757491406449558300,9.096558349609374,-2.7685201168060303,-8.862885475158691,2.3460183143615723
1757491406459599000,9.10659912109375,-1.9915268421173096,-8.501660346984863,2.5008933544158936
1757491406469665300,9.116665283203124,-1.3774889707565308,-8.399008750915527,2.8831424713134766
1757491406479705300,9.126705322265625,-1.9844191074371338,-8.496124267578125,3.072359323501587
1757491406489743600,9.13674365234375,-2.4786720275878906,-8.849343299865723,2.810568332672119
1757491406499783700,9.14678369140625,-0.9429413676261902,-8.605733871459961,2.2450878620147705
1757491406509828400,9.156828369140625,0.50876784324646,-8.463428497314453,1.7662475109100342
1757491406519840800,9.1668408203125,0.3870376646518707,-8.846949577331543,1.7783681154251099
1757491406529909800,9.17690966796875,0.37409400939941406,-9.420435905456543,2.235361337661743
1757491406539951600,9.18695166015625,0.9077017307281494,-10.199149131774902,2.394575834274292
1757491406549992400,9.196992431640625,1.5077484846115112,-10.67170524597168,1.789965033531189
1757491406560028700,9.207028564453125,2.405499219894409,-11.161543846130371,0.8834604024887085
1757491406570097000,9.217096923828125,2.8238861560821533,-11.662455558776855,-0.5244050025939941
1757491406580113700,9.22711376953125,2.0534019470214844,-12.752864837646484,-1.118615984916687
1757491406590154500,9.237154541015625,1.856628656387329,-13.818733215332031,-0.6210708618164062
1757491406600170000,9.247169921875,0.9665092825889587,-15.117887496948242,0.8149263858795166
1757491406610214100,9.257214111328125,0.3354875147342682,-16.25259017944336,2.8016648292541504
1757491406620253000,9.2672529296875,-0.199092835187912,-17.297658920288086,4.643105506896973
1757491406630331400,9.277331298828125,-0.5978770852088928,-17.93937873840332,5.999345779418945
1757491406640360400,9.2873603515625,-0.6203227043151855,-17.710359573364258,6.257994174957275
1757491406650406000,9.297406005859376,-0.28371289372444153,-17.21341323852539,5.466336727142334
1757491406660437000,9.30743701171875,0.43754035234451294,-16.509965896606445,4.416853427886963
1757491406670477300,9.317477294921876,0.5460276007652283,-15.053842544555664,3.5476083755493164
1757491406680519000,9.327518798828125,-0.7439233660697937,-13.576919555664062,3.5447652339935303
1757491406690551600,9.337551513671874,-2.899827241897583,-13.070396423339844,4.993556499481201
1757491406700592000,9.347592041015625,-4.430994033813477,-13.112593650817871,6.908843040466309
1757491406710645000,9.35764501953125,-4.525864124298096,-13.198934555053711,8.539144515991211
1757491406720685000,9.36768505859375,-3.3288381099700928,-13.159131050109863,9.531915664672852
1757491406730726000,9.377725830078125,-1.2259808778762817,-12.967595100402832,9.824531555175781
1757491406740767700,9.387767822265625,1.2274773120880127,-12.887089729309082,9.588703155517578
1757491406750834200,9.397834228515626,2.8214170932769775,-13.044808387756348,8.773477554321289
1757491406760845300,9.40784521484375,2.639906644821167,-13.411345481872559,7.292140007019043
1757491406770887400,9.417887451171875,1.8959084749221802,-13.855469703674316,5.545719146728516
1757491406780930800,9.427930908203125,1.4856770038604736,-14.444443702697754,4.04193639755249
1757491406790935300,9.437935302734376,1.2405705451965332,-15.236101150512695,2.2848165035247803
1757491406801011500,9.448011474609375,0.7796119451522827,-15.560215950012207,0.29291561245918274
1757491406811035600,9.45803564453125,0.6532429456710815,-15.265055656433105,-1.147720456123352
1757491406821068000,9.468068115234376,0.7229741215705872,-14.037653923034668,-2.0067150592803955
1757491406831134000,9.478134033203125,1.266981601715088,-12.30013656616211,-1.9714006185531616
1757491406841175800,9.48817578125,2.9168858528137207,-10.852168083190918,-0.634762704372406
1757491406851204000,9.4982041015625,4.250830173492432,-9.86426067352295,1.5821932554244995
1757491406861280300,9.5082802734375,3.3137996196746826,-9.286808967590332,4.087126731872559
1757491406871298000,9.518298095703125,1.5213655233383179,-9.00047779083252,6.294580936431885
1757491406881334800,9.528334716796875,0.1215057373046875,-8.725144386291504,6.833500385284424
1757491406891380500,9.53838037109375,1.1774234771728516,-8.466196060180664,5.330166339874268
1757491406901417700,9.548417724609376,1.7125276327133179,-8.089408874511719,3.1902737617492676
1757491406911457300,9.558457275390625,1.6990602016448975,-7.799635887145996,0.9825953245162964
1757491406921499000,9.568498779296876,2.5957634449005127,-6.929867267608643,-1.2666075229644775
1757491406931515000,9.578514892578125,2.5044846534729004,-5.85808801651001,-2.761786460876465
1757491406941561000,9.58856103515625,1.9072060585021973,-4.714258193969727,-2.7911155223846436
1757491406951604200,9.598604248046875,0.8952069878578186,-3.477203845977783,-1.8392705917358398
1757491406961644800,9.608644775390625,-0.09778817743062973,-2.614767551422119,-0.95162034034729
1757491406971669000,9.6186689453125,-0.5246294736862183,-2.091409921646118,-1.006462574005127
1757491406981717500,9.628717529296875,-0.5792471766471863,-1.7881693840026855,-1.5373018980026245
1757491406991771400,9.638771484375,-0.2198176383972168,-1.1982979774475098,-1.6884359121322632
1757491407001791700,9.648791748046875,0.18248306214809418,-0.24607904255390167,-1.2495487928390503
1757491407011851000,9.65885107421875,0.018405426293611526,-0.22535423934459686,0.22296003997325897
1757491407021886700,9.66888671875,-0.32441434264183044,-1.2132617235183716,1.7708114385604858
1757491407031947800,9.67894775390625,-0.7026233673095703,-2.4170961380004883,3.0016555786132812
1757491407041965300,9.68896533203125,-0.5985504388809204,-3.4567034244537354,4.389095306396484
1757491407052007000,9.6990068359375,-0.017956512048840523,-4.284873008728027,5.315726280212402
1757491407062070000,9.709070068359376,0.6407482028007507,-5.029244899749756,5.150750637054443
1757491407072098800,9.719098876953124,0.28079497814178467,-6.146664142608643,4.109722137451172
1757491407082130700,9.729130615234375,-1.633518934249878,-6.842030048370361,1.8620156049728394
1757491407092206800,9.739206787109374,-2.1897218227386475,-7.297377109527588,-1.044620156288147
1757491407102237400,9.749237548828125,-0.7626280784606934,-7.499687194824219,-3.345597505569458
1757491407112277200,9.75927734375,1.6115221977233887,-7.504849910736084,-2.042553424835205
1757491407122317800,9.76931787109375,1.6151134967803955,-8.996137619018555,3.6161422729492188
1757491407132359700,9.779359619140624,-2.9985880851745605,-11.47331428527832,7.645209789276123
1757491407142396700,9.789396728515625,-5.8093061447143555,-14.89874267578125,7.192032337188721
1757491407152435500,9.799435546875,-2.634519577026367,-17.766023635864258,4.690690040588379
1757491407162477000,9.80947705078125,-1.1404629945755005,-18.55640983581543,3.811194896697998
1757491407172512300,9.81951220703125,-1.55712890625,-16.70224952697754,4.568436145782471
1757491407182540000,9.8295400390625,-1.9024176597595215,-12.732364654541016,5.039046287536621
1757491407192631000,9.839631103515625,-1.3303531408309937,-9.328483581542969,4.853944778442383
1757491407202608400,9.8496083984375,0.49485155940055847,-7.606902599334717,4.527061462402344
1757491407212658700,9.85965869140625,1.1679962873458862,-7.570615291595459,4.5172600746154785
1757491407222726700,9.8697265625,-0.071077860891819,-8.639252662658691,4.769848346710205
1757491407232763100,9.87976318359375,-0.40963295102119446,-9.939528465270996,4.955324172973633
1757491407242808300,9.889808349609375,-0.6939443945884705,-10.984447479248047,4.926668643951416
1757491407252822800,9.89982275390625,-0.18996493518352509,-11.496058464050293,4.831424236297607
1757491407262889200,9.90988916015625,0.1488146036863327,-11.368343353271484,4.78354024887085
1757491407272925700,9.91992578125,-0.08641571551561356,-10.922123908996582,4.898013114929199
1757491407282971600,9.9299716796875,-0.7615805864334106,-10.3595609664917,4.961160182952881
1757491407293012000,9.940011962890624,-0.7674164772033691,-9.766547203063965,4.818779945373535
1757491407303048700,9.950048583984374,-0.7060650587081909,-9.386467933654785,4.350189685821533
1757491407313086000,9.9600859375,-0.3428197503089905,-8.965537071228027,3.6088101863861084
1757491407323134500,9.970134521484376,0.0371849462389946,-8.43963623046875,2.9684360027313232
1757491407333171000,9.9801708984375,0.5041291117668152,-8.032846450805664,2.590975046157837
1757491407343215600,9.990215576171876,0.3736450970172882,-7.889418125152588,2.4675240516662598
1757491407353257000,10.000257080078125,0.5592705607414246,-7.780781269073486,2.7089643478393555
1757491407363297500,10.010297607421874,0.5283703804016113,-7.821108818054199,3.068842887878418
1757491407373335000,10.0203349609375,0.24862287938594818,-8.031349182128906,3.411438226699829
1757491407383379200,10.030379150390624,0.08312369138002396,-8.125396728515625,3.67195725440979
1757491407393417700,10.040417724609375,0.2108393907546997,-8.012944221496582,3.969661235809326
1757491407403456800,10.050456787109376,0.23089082539081573,-7.754071235656738,4.1495256423950195
1757491407413476000,10.06047607421875,-0.08132804185152054,-7.515398979187012,4.21693754196167
1757491407423542800,10.070542724609375,0.17717093229293823,-7.4922051429748535,4.383334636688232
1757491407433558300,10.080558349609374,-0.38726213574409485,-7.286303997039795,4.065204620361328
1757491407443577900,10.090577880859374,-0.4903624355792999,-7.201085567474365,3.6902878284454346
1757491407453665800,10.100665771484374,-0.6275053024291992,-7.253982067108154,3.8134396076202393
1757491407463681500,10.110681640625,-0.544456422328949,-7.130606174468994,3.94871187210083
1757491407473747000,10.120746826171874,-0.652719259262085,-7.366734027862549,3.9273886680603027
1757491407483788000,10.1307880859375,-1.5662568807601929,-7.939322471618652,3.3406596183776855
1757491407493829000,10.1408291015625,-0.9727940559387207,-8.002095222473145,2.559476375579834
1757491407503870700,10.15087060546875,0.10339958220720291,-8.333093643188477,2.0427029132843018
1757491407513906700,10.16090673828125,0.3167079985141754,-8.788290977478027,1.8346319198608398
1757491407523951600,10.17095166015625,1.5228619575500488,-9.165079116821289,1.8635119199752808
1757491407533972000,10.180971923828125,1.2651859521865845,-9.86351203918457,1.9351882934570312
1757491407544019700,10.191019775390625,2.8826937675476074,-9.723526000976562,2.1338322162628174
1757491407554050300,10.20105029296875,3.0324060916900635,-10.290054321289062,2.214038133621216
1757491407564114400,10.211114501953125,1.595062017440796,-10.863166809082031,1.6464625597000122
1757491407574154200,10.221154296875,1.7414824962615967,-11.490073204040527,0.8671499490737915
1757491407584197000,10.231197021484375,1.9809774160385132,-12.371064186096191,0.4926069974899292
1757491407594237200,10.2412373046875,2.3627030849456787,-13.371766090393066,0.8850316405296326
1757491407604277800,10.25127783203125,1.9654899835586548,-14.200533866882324,1.7631051540374756
1757491407614318800,10.26131884765625,1.0500818490982056,-14.93989372253418,2.8387749195098877
1757491407624359700,10.271359619140625,0.5532850623130798,-15.392248153686523,3.9478142261505127
1757491407634357000,10.28135693359375,-0.5850830674171448,-15.943962097167969,4.799027442932129
1757491407644437000,10.29143701171875,-1.1037269830703735,-16.191612243652344,4.79738187789917
1757491407654479000,10.30147900390625,-0.29052141308784485,-15.922114372253418,4.135534286499023
1757491407664519400,10.31151953125,-0.5270236730575562,-15.552884101867676,3.398045539855957
1757491407674559500,10.3215595703125,-1.1187655925750732,-14.773271560668945,3.068319082260132
1757491407684570600,10.331570556640624,-2.0569186210632324,-13.415984153747559,3.425429344177246
1757491407694645000,10.34164501953125,-3.041459083557129,-12.277167320251465,4.755108833312988
1757491407704654000,10.351654052734375,-3.55942964553833,-11.76361083984375,6.6332106590271
1757491407714727200,10.36172705078125,-3.39445424079895,-11.431190490722656,8.468814849853516
1757491407724763400,10.371763427734376,-2.013897657394409,-10.81004524230957,9.739762306213379
1757491407734808600,10.38180859375,0.3983353078365326,-10.043750762939453,10.084602355957031
1757491407744845600,10.391845458984376,1.9970635175704956,-9.835530281066895,9.759963035583496
1757491407754890500,10.401890380859374,1.9764134883880615,-10.360309600830078,8.914061546325684
1757491407764931300,10.411931396484375,1.1725603342056274,-11.429170608520508,7.466691970825195
1757491407774972400,10.421972412109374,0.2828899025917053,-12.887463569641113,5.566070079803467
1757491407785013000,10.432012939453125,-1.596782922744751,-14.573281288146973,3.6100821495056152
1757491407795053600,10.442053466796875,-2.9961190223693848,-15.941417694091797,1.50123929977417
1757491407805094100,10.45209423828125,-2.016441583633423,-16.75020980834961,-0.44427403807640076
1757491407815131400,10.46213134765625,-0.9176526069641113,-16.850990295410156,-1.4142998456954956
1757491407825150700,10.472150634765624,-0.3653402030467987,-15.84984016418457,-1.4363713264465332
1757491407835191000,10.48219091796875,-0.18046295642852783,-14.132299423217773,-1.126172661781311
1757491407845232400,10.492232421875,-0.3684077858924866,-12.31517505645752,-0.5450549721717834
1757491407855274200,10.502274169921876,0.02693476900458336,-10.679186820983887,0.2910451292991638
1757491407865339100,10.512339111328124,0.4742015600204468,-9.784278869628906,1.5312416553497314
1757491407875343000,10.522343017578125,-0.2877531051635742,-9.439663887023926,2.8437130451202393
1757491407885398800,10.532398681640625,-1.3941736221313477,-9.274313926696777,4.046874046325684
1757491407895436500,10.5424365234375,-1.4459482431411743,-9.386617660522461,4.569034576416016
1757491407905499000,10.552498779296876,-0.02603694424033165,-9.560870170593262,4.394183158874512
1757491407915542800,10.562542724609376,0.8891466856002808,-9.678485870361328,3.9822309017181396
1757491407925558800,10.572558837890625,1.0436475276947021,-9.512462615966797,3.433734178543091
1757491407935625200,10.582625244140624,1.0776900053024292,-8.66319465637207,2.8521676063537598
1757491407945667300,10.592667236328126,0.44936174154281616,-7.676558971405029,1.9714754819869995
1757491407955676700,10.6026767578125,0.791358470916748,-6.473023414611816,0.8861538767814636
1757491407965748500,10.61274853515625,1.08419930934906,-4.858882904052734,0.09135375916957855
1757491407975762700,10.6227626953125,-0.1512088030576706,-4.077624797821045,-0.3678092360496521
1757491407985803800,10.6328037109375,-0.6938695907592773,-3.432462215423584,-0.7858219146728516
1757491407995870000,10.642869873046875,-0.6301987767219543,-2.7974002361297607,-1.2997522354125977
1757491408005885200,10.65288525390625,-0.6338648796081543,-2.3883657455444336,-1.4484920501708984
1757491408015952600,10.66295263671875,-0.6859387755393982,-2.0922329425811768,-1.1789946556091309
1757491408025967000,10.672967041015625,-0.9448866844177246,-1.8224364519119263,-1.104400396347046
1757491408036033500,10.683033447265625,-0.6524199843406677,-1.5710452795028687,-0.3331681191921234
1757491408046034700,10.69303466796875,-0.9059808850288391,-1.8275240659713745,0.9454852342605591
1757491408056068900,10.70306884765625,-1.4858266115188599,-2.3095815181732178,2.282646894454956
1757491408066152400,10.71315234375,-1.5818191766738892,-2.4845829010009766,3.444133996963501
1757491408076170800,10.723170654296876,-1.5030349493026733,-2.878803014755249,4.535440921783447
1757491408086235100,10.733235107421875,-0.7713818550109863,-3.591601848602295,5.311312198638916
1757491408096252700,10.743252685546874,-0.2981529235839844,-4.211026668548584,5.606846332550049
1757491408106319600,10.753319580078125,-0.9923965930938721,-4.695104122161865,5.914650917053223
1757491408116315400,10.7633154296875,-2.3056910037994385,-5.088277339935303,6.1233954429626465
1757491408126406000,10.773406005859375,-3.6243724822998047,-5.393463134765625,5.91981315612793
1757491408136415500,10.78341552734375,-4.597690105438232,-5.714510440826416,5.432892799377441
1757491408146478600,10.793478515625,-4.951508522033691,-5.947870254516602,4.4007673263549805
1757491408156537900,10.803537841796874,-5.109825134277344,-6.0202202796936035,2.8151323795318604
1757491408166561000,10.81356103515625,-4.756605625152588,-6.088529586791992,1.274837613105774
1757491408176603600,10.823603759765625,-4.797232151031494,-5.671414852142334,-0.03957914561033249
1757491408186620000,10.833619873046874,-6.306252479553223,-5.949366569519043,1.0944494009017944
1757491408196686300,10.843686279296875,-3.75059175491333,-8.098686218261719,5.337723255157471
1757491408206727000,10.853726806640625,0.4257189929485321,-11.667767524719238,9.344419479370117
1757491408216768300,10.863768310546876,-1.4993687868118286,-15.035661697387695,11.319934844970703
1757491408226805000,10.873804931640626,-3.2818520069122314,-17.62641143798828,10.038738250732422
1757491408236849700,10.883849609375,-3.4862568378448486,-17.52907371520996,8.477120399475098
1757491408246890200,10.89389013671875,-2.021454334259033,-14.766912460327148,8.203657150268555
1757491408256927700,10.903927734375,-1.9548656940460205,-10.842217445373535,7.695188522338867
1757491408266972000,10.913971923828125,-2.832864284515381,-7.637877464294434,6.310292720794678
1757491408277012700,10.9240126953125,-1.7971476316452026,-5.459303379058838,4.370316028594971
1757491408287049700,10.9340498046875,-0.25812485814094543,-4.261604309082031,2.899827241897583
1757491408297094400,10.944094482421875,0.15427637100219727,-4.072312831878662,2.398017406463623
1757491408307109600,10.954109619140626,0.3910030722618103,-4.74381160736084,2.6645219326019287
1757491408317176600,10.964176513671875,0.5523872375488281,-5.978845596313477,3.2019455432891846
1757491408327217700,10.9742177734375,0.9050082564353943,-7.448062419891357,3.7107133865356445
1757491408337258000,10.984258056640625,1.2872575521469116,-8.9843168258667,4.255918025970459
1757491408347298600,10.994298583984374,1.3476362228393555,-10.511293411254883,4.941033840179443
1757491408357336300,11.00433642578125,1.444152593612671,-11.697320938110352,5.734561920166016
1757491408367380500,11.01438037109375,0.9659107327461243,-12.156858444213867,6.594005584716797
1757491408377418500,11.02441845703125,0.7423521876335144,-11.637616157531738,7.190461158752441
1757491408387458000,11.0344580078125,0.6028150916099548,-10.413430213928223,7.409306049346924
1757491408397499100,11.0444990234375,0.3444657623767853,-9.02703857421875,7.242085933685303
1757491408407542000,11.0545419921875,0.10714052617549896,-7.988627910614014,6.6594719886779785
1757491408417580800,11.064580810546875,0.27226561307907104,-7.586402416229248,5.644704818725586
1757491408427625700,11.074625732421875,0.5298667550086975,-7.437886714935303,4.2316765785217285
1757491408437665800,11.084665771484374,1.1561750173568726,-7.033940315246582,2.9701569080352783
1757491408447706400,11.094706298828125,1.3043910264968872,-6.791302680969238,2.1309890747070312
1757491408457747500,11.10474755859375,1.5316157341003418,-6.690073013305664,1.6306757926940918
1757491408467788300,11.114788330078126,1.6184803247451782,-6.714987754821777,1.5596727132797241
1757491408477809000,11.124808837890624,1.4821604490280151,-6.899789810180664,1.815627932548523
1757491408487866000,11.1348662109375,1.8195184469223022,-7.167192459106445,2.6857705116271973
1757491408497910500,11.14491064453125,1.3029694557189941,-7.627552509307861,3.4869303703308105
1757491408507934000,11.154933837890624,0.969576895236969,-8.296282768249512,4.344353675842285
1757491408517993000,11.164992919921875,0.7350947260856628,-9.251270294189453,5.107505798339844
1757491408528033800,11.17503369140625,-0.013093290850520134,-10.198925018310547,5.493645668029785
1757491408538074000,11.18507421875,0.2577507793903351,-10.592696189880371,5.607893943786621
1757491408548110600,11.195110595703126,-0.2841618061065674,-10.773907661437988,5.213000297546387
1757491408558152000,11.20515185546875,-1.1105355024337769,-10.184260368347168,4.230329990386963
1757491408568197600,11.21519775390625,-1.3000515699386597,-9.512686729431152,3.177255392074585
1757491408578237200,11.2252373046875,-0.5806687474250793,-8.8809175491333,2.68180513381958
1757491408588231200,11.235231201171874,-1.6849942207336426,-8.223409652709961,2.354846954345703
1757491408598295300,11.24529541015625,-2.2468833923339844,-7.5889458656311035,2.421360969543457
1757491408608328700,11.25532861328125,-1.8543092012405396,-7.673042297363281,3.1623663902282715
1757491408618405400,11.2654052734375,-1.7713351249694824,-7.581015110015869,3.8559367656707764
1757491408628437200,11.275437255859375,-1.4047977924346924,-7.407959461212158,4.264671802520752
1757491408638478000,11.28547802734375,0.39885905385017395,-6.990096092224121,4.778227806091309
1757491408648521700,11.295521728515626,0.04346972331404686,-6.997204303741455,4.860977649688721
1757491408658573600,11.305573486328125,-0.36893153190612793,-7.11998176574707,4.701014995574951
1757491408668604200,11.315604248046874,-0.12831424176692963,-7.1793131828308105,4.050315856933594
1757491408678641400,11.325641357421874,-0.0901566594839096,-7.885901927947998,2.9845221042633057
1757491408688686000,11.33568603515625,0.8334066271781921,-8.614412307739258,2.006415843963623
1757491408698727200,11.34572705078125,1.4216320514678955,-8.958952903747559,1.4739304780960083
1757491408708745700,11.355745849609375,2.1711668968200684,-9.566781044006348,1.5093196630477905
1757491408718804500,11.365804443359375,3.020509958267212,-10.137798309326172,1.503857970237732
1757491408728850000,11.375849853515625,3.652204990386963,-10.54256820678711,1.3204022645950317
1757491408738886000,11.385885986328125,5.197437763214111,-11.389142990112305,0.6142624020576477
1757491408748931000,11.39593115234375,5.536067485809326,-12.229207992553711,-0.3428197503089905
1757491408758971100,11.40597119140625,5.506364822387695,-13.242928504943848,-0.825625479221344
1757491408769012700,11.4160126953125,5.358448028564453,-14.34209156036377,-0.6498013138771057
1757491408779053800,11.4260537109375,4.762965202331543,-15.454123497009277,0.6092495322227478
1757491408789090000,11.436090087890625,3.7898716926574707,-16.474502563476562,2.520944833755493
1757491408799131100,11.446131103515626,2.2827963829040527,-17.485902786254883,4.2574143409729
1757491408809175600,11.456175537109376,0.872836172580719,-18.17408561706543,5.505092620849609
1757491408819216600,11.466216552734375,-0.6281038522720337,-18.882095336914062,6.680346488952637
1757491408829257700,11.4762578125,-1.22874915599823,-18.95250129699707,7.109881401062012
1757491408839298300,11.48629833984375,-1.5420902967453003,-18.1673526763916,6.5545759201049805
1757491408849339100,11.496339111328124,-1.1115829944610596,-17.315689086914062,5.613205909729004
1757491408859376000,11.506376220703125,-2.363002300262451,-16.102128982543945,4.164190292358398
1757491408869417000,11.5164169921875,-3.3284640312194824,-15.373468399047852,3.3848025798797607
1757491408879457800,11.526457763671875,-2.1274726390838623,-14.50362491607666,3.892223834991455
1757491408889499000,11.536498779296876,-1.8299182653427124,-13.271808624267578,4.875193119049072
1757491408899540700,11.546540771484375,-1.6551415920257568,-11.276241302490234,5.7445878982543945
1757491408909583400,11.556583251953125,-2.156277894973755,-9.486425399780273,6.652738571166992
1757491408919625200,11.566625244140624,-1.1534814834594727,-8.156222343444824,8.082974433898926
1757491408929662000,11.576661865234374,0.09980828315019608,-7.303811550140381,9.716567993164062
1757491408939706000,11.5867060546875,1.7230021953582764,-7.121702671051025,10.848651885986328
1757491408949747200,11.596747314453125,2.9955952167510986,-7.760131359100342,11.139098167419434
1757491408959788500,11.60678857421875,3.1863832473754883,-9.039084434509277,10.647613525390625
1757491408969829400,11.616829345703126,2.117746114730835,-10.326865196228027,9.612869262695312
1757491408979870200,11.6268701171875,0.45819035172462463,-11.246088981628418,8.326884269714355
1757491408989910000,11.636909912109376,-1.8037316799163818,-12.34749698638916,6.8681416511535645
1757491408999947000,11.646947021484374,-2.667888879776001,-13.888389587402344,4.767603874206543
1757491409009991700,11.65699169921875,-2.7525088787078857,-15.339875221252441,2.205733060836792
1757491409020032800,11.66703271484375,-2.461014986038208,-15.406912803649902,-0.3246387839317322
1757491409030073300,11.6770732421875,-1.5298948287963867,-14.009745597839355,-1.8720412254333496
1757491409040114000,11.687114013671875,-0.2404676377773285,-12.293402671813965,-2.124255418777466
1757491409050155000,11.697155029296875,0.7569418549537659,-10.84363842010498,-1.7325042486190796
1757491409060192800,11.70719287109375,0.0504278726875782,-9.913117408752441,-0.5977274179458618
1757491409070237200,11.7172373046875,-1.8233342170715332,-9.451933860778809,1.1336544752120972
1757491409080278000,11.727278076171874,-2.2316205501556396,-9.152284622192383,2.7544541358947754
1757491409090318000,11.737318115234375,-0.2190694510936737,-8.831911087036133,3.815235137939453
1757491409100360200,11.747360107421875,1.3552677631378174,-8.632593154907227,4.372560501098633
1757491409110385000,11.757385009765626,1.473182201385498,-8.495525360107422,4.628291130065918
1757491409120437500,11.7674375,0.8607903122901917,-8.234258651733398,4.62933874130249
1757491409130477600,11.7774775390625,0.9188497066497803,-7.676558971405029,4.083834648132324
1757491409140521700,11.787521728515625,1.315539002418518,-7.245602607727051,2.494234323501587
1757491409150573000,11.797572998046874,1.4870237112045288,-6.296600818634033,0.7647978067398071
1757491409160595500,11.807595458984375,1.2420669794082642,-4.945747375488281,0.005312134977430105
1757491409170645000,11.81764501953125,-0.09322422742843628,-4.165162563323975,-0.2803460657596588
1757491409180686000,11.82768603515625,-0.29890111088752747,-3.03794264793396,-0.727687656879425
1757491409190722300,11.837722412109375,-0.5892729163169861,-1.9829975366592407,-1.0247182846069336
1757491409200767000,11.84776708984375,-1.0137947797775269,-1.2236615419387817,-1.1561001539230347
1757491409210807800,11.857807861328125,-1.31815767288208,-0.5686977505683899,-1.193210244178772
1757491409220848600,11.8678486328125,-1.875557780265808,-0.8394669890403748,-0.8380454182624817
1757491409230885400,11.877885498046876,-1.2002432346343994,-0.6052092909812927,-0.08544307202100754
1757491409240930300,11.887930419921876,-1.0096797943115234,-1.2177507877349854,1.352275013923645
1757491409250967000,11.897967041015624,-0.6533926129341125,-2.02040696144104,3.042057752609253
1757491409260969700,11.9079697265625,-0.6319944262504578,-2.730811595916748,4.7579522132873535
1757491409271052800,11.918052734375,-0.823156476020813,-3.6641013622283936,6.213177680969238
1757491409281094100,11.92809423828125,-0.5860556960105896,-3.899256706237793,7.157989501953125
1757491409291135000,11.938135009765626,-1.1813141107559204,-4.75540828704834,8.075043678283691
1757491409301172000,11.948171875,-1.2930185794830322,-5.4031147956848145,8.229844093322754
1757491409311215600,11.958215576171876,-1.1151742935180664,-5.968445777893066,7.553407192230225
1757491409321252600,11.968252685546876,-1.3083564043045044,-6.471751689910889,6.739528179168701
1757491409331297300,11.97829736328125,-2.207005023956299,-6.840009689331055,6.117110729217529
1757491409341338000,11.988338134765625,-3.625868797302246,-7.230264663696289,5.510105609893799
1757491409351379500,11.99837939453125,-5.286696434020996,-7.997905731201172,4.4852375984191895
1757491409361417700,12.008417724609375,-5.659518718719482,-8.5711669921875,2.86256742477417
1757491409371456800,12.018456787109375,-5.885471343994141,-8.537050247192383,2.050035238265991
1757491409381498400,12.028498291015625,-3.845686435699463,-8.927679061889648,4.214543342590332
1757491409391540000,12.0385400390625,-0.18540099263191223,-9.959280967712402,7.591489791870117
1757491409401580300,12.048580322265625,-0.5019593238830566,-11.552621841430664,9.539247512817383
1757491409411623200,12.058623046875,-2.5090484619140625,-12.69054126739502,7.901314735412598
1757491409421664300,12.068664306640626,-3.1693992614746094,-12.619538307189941,5.246219635009766
1757491409431691500,12.07869140625,-2.1122095584869385,-11.623774528503418,4.1967363357543945
1757491409441744400,12.088744384765626,-2.69415020942688,-10.190021514892578,4.169651985168457
1757491409451783400,12.098783447265625,-3.001805305480957,-9.079935073852539,4.091466426849365
1757491409461802500,12.108802490234375,-2.0842273235321045,-8.465522766113281,3.676072359085083
1757491409471864600,12.118864501953125,-1.1583447456359863,-8.29358959197998,3.411587715148926
1757491409481906400,12.128906494140624,-0.2761562168598175,-8.59540843963623,3.5785086154937744
1757491409491941400,12.13894140625,0.3669114112854004,-9.18468189239502,4.021435737609863
1757491409501989600,12.14898974609375,0.9701754450798035,-9.942521095275879,4.509927749633789
1757491409512029700,12.15902978515625,1.4294131994247437,-10.578256607055664,4.9724578857421875
1757491409522070000,12.169070068359375,1.418714165687561,-10.853963851928711,5.455188751220703
1757491409532115200,12.179115234375,1.2617442607879639,-10.63392162322998,5.922731399536133
1757491409542207500,12.18920751953125,0.9253589510917664,-9.85191535949707,6.299518585205078
1757491409552216800,12.199216796875,0.28064534068107605,-8.817320823669434,6.608969211578369
1757491409562248200,12.209248291015625,-0.14275427162647247,-7.90782356262207,6.8162922859191895
1757491409572274000,12.21927392578125,-0.3150619864463806,-7.372644901275635,6.807613372802734
1757491409582318000,12.229318115234374,-0.45078328251838684,-7.186570644378662,6.642413139343262
1757491409592359700,12.239359619140625,-0.6454617977142334,-7.3600006103515625,6.267421722412109
1757491409602397000,12.24939697265625,-0.46903908252716064,-7.624410152435303,5.581108570098877
1757491409612436000,12.25943603515625,-0.27563247084617615,-7.785569667816162,4.777255535125732
1757491409622477000,12.26947705078125,0.20275895297527313,-7.810035705566406,4.265270233154297
1757491409632519200,12.279519287109375,0.29478609561920166,-7.894431114196777,3.902773141860962
1757491409642558200,12.28955810546875,0.3223194181919098,-7.966556549072266,3.501145839691162
1757491409652603600,12.299603759765626,0.5412392020225525,-7.9631147384643555,3.214963912963867
1757491409662644500,12.30964453125,0.04174889251589775,-7.995586395263672,2.9163620471954346
1757491409672681500,12.319681396484375,0.6982839107513428,-8.011597633361816,3.0802900791168213
1757491409682726100,12.32972607421875,0.759635329246521,-8.092401504516602,3.4636616706848145
1757491409692767000,12.33976708984375,0.10871171951293945,-8.228721618652344,3.9454946517944336
1757491409702803500,12.349803466796875,-0.16924013197422028,-8.222586631774902,4.504091739654541
1757491409712848100,12.35984814453125,-0.18727146089076996,-8.182857513427734,4.9316816329956055
1757491409722889500,12.369889404296876,-0.391900897026062,-7.981595039367676,4.848033905029297
1757491409732941300,12.37994140625,-0.8010101318359375,-7.932888031005859,4.2894368171691895
1757491409742966800,12.389966796875,-0.1265185922384262,-7.544803142547607,3.8318450450897217
1757491409753012000,12.400011962890625,-0.6854150295257568,-7.245452880859375,3.0668227672576904
1757491409763048000,12.4100478515625,-0.2795230448246002,-7.368679523468018,2.7478702068328857
1757491409773093600,12.42009375,-0.7750479578971863,-7.648501873016357,2.472611904144287
1757491409783108600,12.430108642578125,-0.23119010031223297,-8.034940719604492,2.4758291244506836
1757491409793174500,12.440174560546875,0.15307927131652832,-8.456694602966309,2.6657190322875977
1757491409803215600,12.450215576171875,0.6770353317260742,-8.902914047241211,2.932373285293579
1757491409813256400,12.46025634765625,2.320056200027466,-8.780509948730469,2.81939697265625
1757491409823297000,12.470297119140625,2.427196741104126,-8.847173690795898,2.2492029666900635
1757491409833305000,12.48030517578125,1.6295535564422607,-9.282394409179688,2.1151275634765625
1757491409843357700,12.490357666015624,2.9421746730804443,-10.40452766418457,1.9380314350128174
1757491409853418000,12.50041796875,3.6599113941192627,-11.701361656188965,0.5059995651245117
1757491409863456500,12.51045654296875,2.2591538429260254,-12.977994918823242,-0.7729530334472656
1757491409873475800,12.520475830078125,1.6292542219161987,-14.680347442626953,-0.15255554020404816
1757491409883501300,12.530501220703124,0.4332756996154785,-16.435819625854492,1.9903297424316406
1757491409893558500,12.54055859375,0.1239747554063797,-16.919374465942383,3.81186842918396
1757491409903619800,12.550619873046875,-0.16400282084941864,-16.83804702758789,5.1215715408325195
1757491409913665000,12.5606650390625,0.006808510981500149,-16.382400512695312,6.163198947906494
1757491409923705300,12.570705322265624,-0.9353846907615662,-16.194379806518555,7.047108173370361
1757491409933711400,12.58071142578125,-1.1163713932037354,-16.134674072265625,7.1139960289001465
1757491409943767600,12.590767578125,0.12599486112594604,-15.536723136901855,6.2876973152160645
1757491409953827800,12.600827880859375,-0.507720410823822,-14.956278800964355,5.216965675354004
1757491409963869400,12.610869384765625,-1.6647183895111084,-14.060173988342285,4.428824424743652
1757491409973905400,12.620905517578125,-1.955464243888855,-12.396951675415039,4.033257007598877
1757491409983950000,12.6309501953125,-2.314145565032959,-10.7017822265625,4.214543342590332
1757491409993990700,12.64099072265625,-2.686518669128418,-9.88393783569336,5.5749735832214355
1757491410004031700,12.65103173828125,-2.9654433727264404,-9.772382736206055,7.4898858070373535
1757491410014072600,12.661072509765624,-2.68180513381958,-9.80792236328125,9.096843719482422
1757491410024108300,12.6711083984375,-1.5119383335113525,-9.833135604858398,10.014870643615723
1757491410034154500,12.681154541015625,-0.066962830722332,-10.147075653076172,10.072854995727539
1757491410044191700,12.691191650390625,0.4296844005584717,-10.889951705932617,9.207575798034668
1757491410054236000,12.70123583984375,0.375964492559433,-11.873818397521973,7.4852471351623535
1757491410064276000,12.71127587890625,-0.306682288646698,-13.007698059082031,5.357923984527588
1757491410074317800,12.72131787109375,-2.0434510707855225,-14.226346969604492,3.0440030097961426
1757491410084358400,12.7313583984375,-2.8003928661346436,-14.973337173461914,1.0068366527557373
1757491410094404000,12.741404052734374,-2.3790135383605957,-15.193753242492676,-0.21143794059753418
1757491410104436000,12.75143603515625,-2.1484968662261963,-14.704813003540039,-0.9060556888580322
1757491410114476500,12.7614765625,-1.4633809328079224,-13.240309715270996,-0.9841665625572205
1757491410124486400,12.771486328125,-0.4464437961578369,-11.546337127685547,-0.22685061395168304
1757491410134539000,12.7815390625,0.6216694116592407,-10.267234802246094,1.129913568496704
1757491410144577800,12.791577880859375,1.8444331884384155,-9.453206062316895,3.070039987564087
1757491410154620000,12.801619873046874,2.5066542625427246,-9.028534889221191,5.199831962585449
1757491410164659500,12.811659423828125,1.825728416442871,-9.039308547973633,7.15043306350708
1757491410174700000,12.821699951171874,0.8366986513137817,-9.205406188964844,7.9748616218566895
1757491410184741000,12.8317412109375,0.43185412883758545,-9.509096145629883,7.179986476898193
1757491410194770400,12.8417705078125,0.4180126488208771,-9.867627143859863,5.758803367614746
1757491410204814300,12.851814453125,0.47824180126190186,-9.877728462219238,4.365901470184326
1757491410214872300,12.861872314453125,0.7693617343902588,-9.3759183883667,2.9717280864715576
1757491410224904200,12.871904296875,0.8582465052604675,-8.3097505569458,1.4725836515426636
1757491410234932500,12.881932373046874,0.7423521876335144,-7.214103698730469,0.11297639459371567
1757491410245011200,12.89201123046875,0.5099649429321289,-6.222829341888428,-1.1549779176712036
1757491410255027000,12.90202685546875,0.30720600485801697,-5.1949687004089355,-2.2998552322387695
1757491410265093600,12.91209375,0.1528548151254654,-3.73248553276062,-2.7153239250183105
1757491410275130600,12.922130615234375,-0.7433996200561523,-2.7484686374664307,-2.224886655807495
1757491410285175600,12.932175537109375,-1.316810965538025,-1.9984850883483887,-1.5906476974487305
1757491410295215400,12.94221533203125,-1.7155203819274902,-2.0555717945098877,-1.0212018489837646
