time,seconds_elapsed,z,y,x
1757491397392916700,0.039916748046875,0.09178352355957031,0.2656693458557129,0.03289353847503662
1757491397402946000,0.049946044921875,0.18004131317138672,0.2754647731781006,-0.07026004791259766
1757491397412997600,0.05999755859375,0.12430763244628906,0.5045676231384277,-0.15945899486541748
1757491397423057700,0.0700576171875,0.08733558654785156,0.5775692462921143,-0.03884232044219971
1757491397433098000,0.080097900390625,0.060454368591308594,0.19495224952697754,0.35159558057785034
1757491397443138800,0.090138916015625,0.022139549255371094,0.12109684944152832,-0.02116990089416504
1757491397453179600,0.1001796875,-0.02553844451904297,0.777834415435791,-0.5336999893188477
1757491397463218700,0.11021875,0.2964000701904297,1.0335829257965088,-0.46847355365753174
1757491397473260500,0.120260498046875,0.4089803695678711,0.602398157119751,-0.10376036167144775
1757491397483275300,0.130275146484375,0.24777984619140625,0.24641990661621094,0.0880395770072937
1757491397493341700,0.140341796875,0.17244815826416016,0.1902930736541748,0.2221083641052246
1757491397503382800,0.1503828125,0.1108388900756836,0.15340971946716309,0.27065229415893555
1757491397513421000,0.160421142578125,-0.07831382751464844,0.35885024070739746,0.13550430536270142
1757491397523459600,0.17045947265625,-0.12339496612548828,0.36759138107299805,-0.05189710855484009
1757491397533476000,0.18047607421875,-0.3437376022338867,0.3716418743133545,0.20354795455932617
1757491397543542800,0.190542724609375,-0.380615234375,0.40117907524108887,0.2458302080631256
1757491397553559000,0.20055908203125,-0.28390026092529297,0.4002830982208252,0.11922609806060791
1757491397563625700,0.210625732421875,-0.28017520904541016,0.296278715133667,0.0013470053672790527
1757491397573662000,0.220661865234375,-0.3347434997558594,0.13690829277038574,-0.050219058990478516
1757491397583701800,0.23070166015625,-0.27052783966064453,0.0798196792602539,0.0479578971862793
1757491397593747200,0.240747314453125,-0.22946929931640625,0.029825925827026367,0.17582324147224426
1757491397603762700,0.2507626953125,-0.19225311279296875,-0.0015075206756591797,0.22260507941246033
1757491397613828900,0.260828857421875,-0.027327537536621094,0.02262735366821289,0.12406733632087708
1757491397623869200,0.270869140625,0.12034797668457031,0.0784151554107666,0.09558027982711792
1757491397643946500,0.290946533203125,0.1392364501953125,0.14873814582824707,-1.126293659210205
1757491397654000400,0.30100048828125,-0.4993906021118164,0.04100680351257324,-0.614656388759613
1757491397664031200,0.31103125,-0.6517000198364258,0.07104134559631348,0.011994749307632446
1757491397674068500,0.321068359375,-0.6667203903198242,0.10721993446350098,0.6035265922546387
1757491397684087300,0.33108740234375,-0.5620107650756836,0.24780821800231934,0.8041708469390869
1757491397694153200,0.3411533203125,-0.5878639221191406,0.2953641414642334,0.8455947637557983
1757491397704194000,0.351194091796875,-0.5644321441650391,0.23299694061279297,0.7988590598106384
1757491397714230500,0.36123046875,-0.5463523864746094,0.2161095142364502,0.5828759670257568
1757491397724275000,0.37127490234375,-0.49735069274902344,0.24705004692077637,0.28362786769866943
1757491397734290400,0.38129052734375,-0.3302192687988281,0.33856749534606934,-0.06586936116218567
1757491397744356900,0.39135693359375,-0.3024253845214844,0.3545103073120117,-0.2295428216457367
1757491397754401300,0.4014013671875,-0.4073047637939453,0.2671194076538086,-0.07287412881851196
1757491397764433400,0.411433349609375,-0.2488107681274414,0.040825486183166504,0.5217280983924866
1757491397774474000,0.421473876953125,0.15874862670898438,0.1774369478225708,1.0745799541473389
1757491397784494300,0.431494384765625,0.3157215118408203,0.45080602169036865,1.1061773300170898
1757491397794556000,0.441555908203125,0.34015941619873047,0.5448018312454224,0.6523720026016235
1757491397804574200,0.45157421875,0.23109912872314453,0.5445684194564819,0.17087380588054657
1757491397814641000,0.461640869140625,0.029145240783691406,0.4176064729690552,-0.01293298602104187
1757491397824655400,0.4716552734375,-0.09273910522460938,0.313051700592041,0.012550175189971924
1757491397834721800,0.4817216796875,-0.10745429992675781,0.2625619173049927,0.08363007009029388
1757491397844762400,0.491762451171875,-0.08507823944091797,0.333795428276062,0.1112215667963028
1757491397854786600,0.50178662109375,-0.04374885559082031,0.4215925931930542,0.14867638051509857
1757491397864817700,0.511817626953125,0.0017137527465820312,0.4046804904937744,0.20531146228313446
1757491397874856000,0.52185595703125,0.08648872375488281,0.4069802761077881,0.2450377345085144
1757491397884924400,0.53192431640625,0.12447643280029297,0.40362119674682617,0.2485492080450058
1757491397894965000,0.541965087890625,0.0514984130859375,0.3333585262298584,0.2330288141965866
1757491397905004500,0.552004638671875,-0.045807838439941406,0.3227207660675049,0.21243777871131897
1757491397915046000,0.5620458984375,-0.11964797973632812,0.3983265161514282,0.17837859690189362
1757491397925082400,0.572082275390625,-0.21501541137695312,0.41640543937683105,0.161210298538208
1757491397935127000,0.582126953125,-0.3525104522705078,0.3480565547943115,0.15859197080135345
1757491397945163800,0.592163818359375,-0.4793567657470703,0.3035244941711426,0.14174319803714752
1757491397955207000,0.60220703125,-0.36862945556640625,0.368245005607605,0.2207820564508438
1757491397965248800,0.612248779296875,-0.32291221618652344,0.38400065898895264,0.1548912078142166
1757491397985330200,0.632330078125,-0.11997318267822266,0.2575201988220215,0.10500134527683258
1757491397995367200,0.6423671875,-0.022905349731445312,0.2699047327041626,0.03372907638549805
1757491398005409000,0.652408935546875,-0.001766204833984375,0.3267022371292114,-0.002998828887939453
1757491398015447800,0.66244775390625,-0.004422187805175781,0.3216482400894165,-0.0029472708702087402
1757491398025466600,0.672466552734375,-0.006993293762207031,0.2834566831588745,0.017113536596298218
1757491398035529700,0.68252978515625,0.026749610900878906,0.26796603202819824,0.043898582458496094
1757491398045571800,0.69257177734375,0.009328842163085938,0.3206140995025635,0.06810048222541809
1757491398055614200,0.7026142578125,0.02167797088623047,0.3546701669692993,0.0519372820854187
1757491398065654500,0.712654541015625,0.0028829574584960938,0.34176552295684814,0.047011762857437134
1757491398075692000,0.722692138671875,-0.05519390106201172,0.30794191360473633,0.11224198341369629
1757491398085731600,0.732731689453125,-0.08470344543457031,0.28618407249450684,0.13938315212726593
1757491398095775700,0.742775634765625,-0.04144477844238281,0.2580159902572632,0.13688507676124573
1757491398105817000,0.752817138671875,0.002071380615234375,0.25656235218048096,0.14284266531467438
1757491398115857400,0.762857421875,0.061061859130859375,0.2376384735107422,0.14771007001399994
1757491398125868000,0.772867919921875,0.0739431381225586,0.22830045223236084,0.1344670206308365
1757491398135938800,0.782938720703125,0.018198013305664062,0.2845877408981323,0.15265348553657532
1757491398145979400,0.7929794921875,-0.04572868347167969,0.31129395961761475,0.19725021719932556
1757491398156021200,0.803021240234375,-0.09069633483886719,0.3046928644180298,0.22005197405815125
1757491398166062600,0.8130625,-0.11560535430908203,0.28567373752593994,0.2163616269826889
1757491398176097800,0.823097900390625,-0.12142372131347656,0.32589757442474365,0.19148477911949158
1757491398186137600,0.8331376953125,-0.14998149871826172,0.3653881549835205,0.21898037195205688
1757491398196157000,0.843156982421875,-0.1900177001953125,0.3547794818878174,0.23079827427864075
1757491398206197000,0.853197021484375,-0.22054195404052734,0.3187183141708374,0.22277234494686127
1757491398216260600,0.863260498046875,-0.2318706512451172,0.3403831720352173,0.21111313998699188
1757491398226302200,0.87330224609375,-0.20633411407470703,0.3288078308105469,0.22816216945648193
1757491398236323600,0.883323486328125,-0.2405385971069336,0.30556511878967285,0.2243386209011078
1757491398246363100,0.893363037109375,-0.2055644989013672,0.2920573949813843,0.18709617853164673
1757491398256423200,0.903423095703125,-0.10143566131591797,0.28741455078125,0.1627836674451828
1757491398266440400,0.9134404296875,-0.07970237731933594,0.31860578060150146,0.15138448774814606
1757491398276481300,0.923481201171875,-0.04488849639892578,0.32108986377716064,0.14001010358333588
1757491398286522600,0.933522705078125,-0.02721118927001953,0.3112621307373047,0.13917498290538788
1757491398296567300,0.9435673828125,-0.055840492248535156,0.33805227279663086,0.1386362910270691
1757491398306603000,0.95360302734375,-0.06665515899658203,0.34671998023986816,0.11306564509868622
1757491398316664300,0.963664306640625,-0.0822134017944336,0.3743462562561035,0.03690655529499054
1757491398326684000,0.973683837890625,-0.08359050750732422,0.3397369384765625,0.019752278923988342
1757491398336750000,0.98375,0.042777061462402344,0.3511925935745239,0.07135042548179626
1757491398346804700,0.9938046875,-0.011425971984863281,0.35223448276519775,0.05189839005470276
1757491398356809000,1.00380908203125,0.029388427734375,0.286618709564209,0.025146707892417908
1757491398366868000,1.013867919921875,0.021834373474121094,0.29092180728912354,0.02808031439781189
1757491398376912100,1.023912109375,-0.01168060302734375,0.337715744972229,0.027761489152908325
1757491398386949000,1.03394921875,0.0216064453125,0.3616628646850586,0.041604265570640564
1757491398396993500,1.04399365234375,0.029605865478515625,0.36828792095184326,-0.003798365592956543
1757491398407056000,1.054055908203125,0.022001266479492188,0.3425794839859009,-0.036996036767959595
1757491398417074700,1.06407470703125,-0.0057811737060546875,0.27904558181762695,0.008834600448608398
1757491398427093500,1.074093505859375,-0.021291732788085938,0.28408586978912354,0.018067926168441772
1757491398437151700,1.08415185546875,-0.047580718994140625,0.3305321931838989,0.002148836851119995
1757491398447196700,1.09419677734375,-0.07122230529785156,0.3345872163772583,-0.023477226495742798
1757491398457233200,1.104233154296875,-0.08280563354492188,0.31770801544189453,-0.004388868808746338
1757491398467277600,1.114277587890625,-0.058510780334472656,0.3015693426132202,0.020293980836868286
1757491398477320400,1.124320556640625,-0.06526565551757812,0.29138052463531494,0.019964754581451416
1757491398487358500,1.1343583984375,-0.08385276794433594,0.313464879989624,0.028625667095184326
1757491398497398800,1.144398681640625,-0.061077117919921875,0.2584965229034424,0.0448431521654129
1757491398517476600,1.1644765625,0.00279998779296875,0.22920775413513184,0.01151949167251587
1757491398527497500,1.17449755859375,0.03767585754394531,0.24264895915985107,0.04428829252719879
1757491398537574000,1.184573974609375,0.049652099609375,0.23610973358154297,0.02427658438682556
1757491398547602400,1.1946025390625,-0.002605438232421875,0.2504626512527466,0.031364649534225464
1757491398557642500,1.204642578125,-0.020209312438964844,0.23281610012054443,0.03733985126018524
1757491398567683300,1.214683349609375,-0.0660858154296875,0.2510567903518677,0.05020195245742798
1757491398577717000,1.224717041015625,-0.1176900863647461,0.27673280239105225,0.08308908343315125
1757491398587764500,1.234764404296875,-0.1489734649658203,0.29853761196136475,0.10752607882022858
1757491398597805300,1.244805419921875,-0.1414356231689453,0.28151094913482666,0.09652714431285858
1757491398607820000,1.254820068359375,-0.1063985824584961,0.2689380645751953,0.035048529505729675
1757491398617882400,1.26488232421875,-0.02490997314453125,0.2331087589263916,0.057613834738731384
1757491398627923000,1.2749228515625,0.023077964782714844,0.24999535083770752,0.06677396595478058
1757491398637967400,1.28496728515625,0.07935047149658203,0.28656280040740967,0.056144848465919495
1757491398648008000,1.295008056640625,0.06275749206542969,0.29927873611450195,0.024333342909812927
1757491398658023000,1.30502294921875,0.03433799743652344,0.2824256420135498,0.008886635303497314
1757491398668089000,1.315089111328125,-0.1011819839477539,0.2608644962310791,0.013088464736938477
1757491398678129700,1.325129638671875,0.011888504028320312,0.335235595703125,-0.019893914461135864
1757491398688166100,1.335166259765625,0.020172119140625,0.42566728591918945,-0.04752650856971741
1757491398698210600,1.34521044921875,0.21462535858154297,0.35534071922302246,0.19369657337665558
1757491398708225800,1.355225830078125,0.7245941162109375,-0.58455491065979,1.0071202516555786
1757491398718292000,1.3652919921875,-0.8573713302612305,-0.10759997367858887,-0.12162865698337555
1757491398728313600,1.375313720703125,-0.6389846801757812,0.3343167304992676,0.03991028666496277
1757491398738373600,1.38537353515625,-0.0065593719482421875,0.23475408554077148,-0.0525820255279541
1757491398748412400,1.395412353515625,-0.6800661087036133,0.5811738967895508,-0.050309717655181885
1757491398758429000,1.405428955078125,0.46532726287841797,0.2043449878692627,0.217966690659523
1757491398768491500,1.415491455078125,1.0534429550170898,0.025242090225219727,0.6448241472244263
1757491398778510300,1.42551025390625,1.7763433456420898,-0.4661242961883545,1.156726360321045
1757491398788576300,1.435576171875,2.2351808547973633,-1.1268737316131592,1.4132351875305176
1757491398798616600,1.445616455078125,0.9979238510131836,-1.401126742362976,1.6398110389709473
1757491398808631300,1.45563134765625,-1.7509856224060059,-1.224834680557251,1.7460192441940308
1757491398818659000,1.4656591796875,-4.148440837860107,-0.938187837600708,1.8249366283416748
1757491398828734000,1.47573388671875,-5.552088260650635,-0.20035600662231445,2.635293483734131
1757491398838761000,1.485760986328125,-4.941615581512451,-0.25866198539733887,2.188671350479126
1757491398848819700,1.49581982421875,-4.107259273529053,-0.44498753547668457,1.6953400373458862
1757491398858859800,1.50585986328125,-1.0975885391235352,-0.7804429531097412,1.8793812990188599
1757491398868900400,1.515900390625,1.1158409118652344,-0.26598548889160156,0.41081273555755615
1757491398878910500,1.525910400390625,-0.03804492950439453,3.972072124481201,-7.374276161193848
1757491398888956000,1.535955810546875,-0.40055179595947266,6.7867865562438965,-9.506890296936035
1757491398898999300,1.545999267578125,1.1301774978637695,0.942279577255249,-0.7108120918273926
1757491398909062400,1.5560625,0.952824592590332,-0.8010129928588867,0.05439174175262451
1757491398919108900,1.56610888671875,1.4819154739379883,-0.13863706588745117,-0.6022151708602905
1757491398929143800,1.576143798828125,1.198953628540039,0.4485611915588379,-0.7645684480667114
1757491398939184000,1.58618408203125,1.0483264923095703,0.002213716506958008,-1.1439087390899658
1757491398949199400,1.596199462890625,-0.12815189361572266,-0.26995134353637695,-1.014859676361084
1757491398959265500,1.606265625,-1.1702189445495605,-0.4326796531677246,-0.5378034114837646
1757491398969282600,1.616282470703125,-0.950714111328125,-0.29062795639038086,0.512786865234375
1757491398979347000,1.626346923828125,-1.3350849151611328,0.06404948234558105,0.6026889085769653
1757491398989388300,1.63638818359375,-1.428598403930664,0.5397744178771973,0.18306410312652588
1757491398999404300,1.646404296875,-0.7614374160766602,0.18604826927185059,0.6458516120910645
1757491399009464300,1.65646435546875,-0.5725116729736328,-0.15994501113891602,1.0530747175216675
1757491399019505700,1.666505615234375,-0.21057701110839844,-0.41793131828308105,1.187506914138794
1757491399029547800,1.6765478515625,-0.09051036834716797,-0.8594319820404053,1.3223012685775757
1757491399039590000,1.68658984375,-0.16185474395751953,-0.4916198253631592,0.9015435576438904
1757491399049605000,1.696605224609375,-0.49265003204345703,-0.44550180435180664,1.0291898250579834
1757491399059667000,1.7066669921875,-0.45509910583496094,-0.9032628536224365,1.5230363607406616
1757491399069686300,1.716686279296875,-0.2578392028808594,-0.5749926567077637,1.4787299633026123
1757491399079748900,1.726748779296875,0.3655281066894531,-0.21940207481384277,1.1272354125976562
1757491399089792800,1.736792724609375,0.5261621475219727,0.25516629219055176,0.5208515524864197
1757491399099803000,1.746802978515625,0.40581512451171875,0.43351173400878906,0.41383612155914307
1757491399109848300,1.756848388671875,0.29348182678222656,0.5498886108398438,0.24544072151184082
1757491399119914200,1.766914306640625,0.3718996047973633,0.692453145980835,0.4076184034347534
1757491399129955300,1.776955322265625,0.3812847137451172,0.6216535568237305,0.46918249130249023
1757491399139991800,1.78699169921875,-0.14063549041748047,-0.12472224235534668,1.1150777339935303
1757491399150036200,1.7970361328125,-0.27596282958984375,-0.4675915241241455,1.3601279258728027
1757491399160075800,1.80707568359375,-0.5474472045898438,-0.344158411026001,1.3596701622009277
1757491399170124000,1.8171240234375,-1.3360257148742676,0.307600736618042,0.9104404449462891
1757491399180139300,1.82713916015625,-1.9731435775756836,0.5919961929321289,0.8249030709266663
1757491399190198800,1.83719873046875,-1.5601143836975098,0.46412134170532227,0.9841889142990112
1757491399200235500,1.847235595703125,-1.4962577819824219,0.013846397399902344,1.1114470958709717
1757491399210237400,1.857237548828125,-1.1961021423339844,0.28192782402038574,0.6982818841934204
1757491399220319700,1.86731982421875,-0.7996730804443359,1.2836880683898926,0.01924765110015869
1757491399230335200,1.877335205078125,-0.5841083526611328,1.2134861946105957,-0.14009177684783936
1757491399240406000,1.887406005859375,-0.3866615295410156,0.12887358665466309,0.2694050073623657
1757491399250438100,1.897438232421875,0.36521053314208984,-0.5520131587982178,0.6733835935592651
1757491399260457200,1.907457275390625,0.4601297378540039,-0.7251231670379639,0.8574280738830566
1757491399270519600,1.91751953125,0.27036190032958984,-1.33329176902771,1.2807536125183105
1757491399280561400,1.9275615234375,-0.565770149230957,-0.050131797790527344,0.6315904259681702
1757491399290578400,1.937578369140625,-0.902705192565918,0.9735143184661865,0.043066322803497314
1757491399300621600,1.94762158203125,-0.30140018463134766,0.48286962509155273,-0.09456980228424072
1757491399310672600,1.957672607421875,0.29048824310302734,-0.13691353797912598,0.0962364673614502
1757491399320725800,1.967725830078125,0.574371337890625,0.41170287132263184,0.1269846260547638
1757491399330745000,1.9777451171875,0.7773847579956055,0.5976099967956543,-0.013550221920013428
1757491399340764200,1.98776416015625,1.167546272277832,0.33361589908599854,0.08261194825172424
1757491399350848000,1.997847900390625,1.7958002090454102,0.11188018321990967,0.3037680387496948
1757491399360869000,2.007869140625,2.1701955795288086,0.17942678928375244,0.2984199523925781
1757491399370929200,2.01792919921875,2.0767555236816406,0.40987658500671387,0.6122375726699829
1757491399380969200,2.02796923828125,1.934732437133789,0.5590612888336182,0.5529103875160217
1757491399390988000,2.037988037109375,1.3919544219970703,0.7301163673400879,0.024007540196180344
1757491399401015000,2.04801513671875,0.7071733474731445,0.6850436925888062,-0.4638961851596832
1757491399411110700,2.058110595703125,0.23713016510009766,0.4192337989807129,-0.8279421329498291
1757491399421131300,2.06813134765625,-0.21489715576171875,0.30142438411712646,-1.158469796180725
1757491399431151400,2.0781513671875,-0.5373878479003906,0.21524834632873535,-1.3818893432617188
1757491399441186300,2.088186279296875,-0.5744848251342773,0.11037659645080566,-0.7105183601379395
1757491399451249400,2.09824951171875,-0.29544734954833984,0.2119671106338501,-0.4485655128955841
1757491399461289500,2.10828955078125,0.014619827270507812,0.4894847869873047,-0.2773396074771881
1757491399471335000,2.1183349609375,0.025531768798828125,0.4188193082809448,-0.14199045300483704
1757491399481376300,2.128376220703125,0.08996868133544922,0.4072459936141968,-0.2354602813720703
1757491399491413800,2.138413818359375,0.40788936614990234,0.39445924758911133,-0.3420565724372864
1757491399501451800,2.14845166015625,0.6116504669189453,0.24554574489593506,-0.3136758804321289
1757491399511471000,2.15847119140625,0.6825675964355469,0.2130129337310791,-0.5712447762489319
1757491399521535200,2.16853515625,0.5752801895141602,0.21302878856658936,-0.6500633358955383
1757491399531593500,2.178593505859375,-0.23407459259033203,0.45056188106536865,-0.6031088829040527
1757491399541622000,2.1886220703125,-0.6752300262451172,0.2490924596786499,-0.3239213824272156
1757491399551658200,2.198658203125,-0.7203607559204102,-0.012281298637390137,-0.09031812846660614
1757491399561673700,2.208673828125,-0.09096527099609375,0.21931970119476318,-0.23643308877944946
1757491399571716600,2.218716552734375,0.23058509826660156,0.21399188041687012,-0.332494854927063
1757491399581760500,2.228760498046875,-0.00070953369140625,0.06995904445648193,-0.3467785120010376
1757491399591809300,2.238809326171875,-0.36797618865966797,0.07656216621398926,-0.368574857711792
1757491399601857300,2.248857177734375,-0.6571550369262695,-0.06927371025085449,0.06388413906097412
1757491399611878400,2.25887841796875,-0.9101810455322266,0.0008985996246337891,0.6409722566604614
1757491399621919700,2.268919677734375,-1.0023918151855469,-0.39326417446136475,1.3100019693374634
1757491399631981300,2.278981201171875,-0.3163280487060547,-0.8087787628173828,1.8510310649871826
1757491399642000400,2.28900048828125,-0.10314559936523438,-1.0551259517669678,2.240382194519043
1757491399652062500,2.2990625,-0.004146575927734375,-1.0825731754302979,2.882976531982422
1757491399662105900,2.30910595703125,-0.4092874526977539,-1.2627902030944824,3.91497802734375
1757491399672119800,2.319119873046875,-1.1786632537841797,-1.4088133573532104,4.827362537384033
1757491399682201600,2.32920166015625,-1.877401351928711,-1.5891056060791016,4.891180038452148
1757491399692203500,2.33920361328125,-3.550743579864502,-2.771496295928955,4.469086647033691
1757491399702267100,2.34926708984375,-3.2989697456359863,-2.056650400161743,4.394261837005615
1757491399712282400,2.359282470703125,-2.9005279541015625,-3.1958136558532715,4.053389549255371
1757491399722324700,2.36932470703125,-3.5657119750976562,-4.233571529388428,3.799619197845459
1757491399732364300,2.3793642578125,-5.279550075531006,-5.08378267288208,3.0546698570251465
1757491399742405400,2.3894052734375,-6.480706214904785,-5.091673851013184,1.7865839004516602
1757491399752466200,2.399466064453125,-8.06545352935791,-5.52531623840332,1.335174560546875
1757491399762507800,2.4095078125,-9.133052825927734,-5.625107288360596,0.31673336029052734
1757491399772516600,2.4195166015625,-8.763046264648438,-5.877551078796387,-0.8645434379577637
1757491399782588000,2.429587890625,-7.544312477111816,-5.8887434005737305,-2.1401219367980957
1757491399792651000,2.439651123046875,-6.244322776794434,-5.025966644287109,-3.861727476119995
1757491399802668800,2.449668701171875,-4.946114540100098,-4.2626142501831055,-5.047415733337402
1757491399812713700,2.459713623046875,-3.2198410034179688,-3.576491594314575,-6.191624164581299
1757491399832769300,2.479769287109375,-2.1723837852478027,-2.679281711578369,-4.769961357116699
1757491399842831400,2.489831298828125,-0.7646679878234863,-1.579811453819275,-2.450042247772217
1757491399852876000,2.4998759765625,5.823654651641846,-0.12119388580322266,0.6466693878173828
1757491399862916000,2.509916015625,9.348014831542969,-1.5050649642944336,4.500663757324219
1757491399872953000,2.519953125,11.610203742980957,-1.1920547485351562,6.117053985595703
1757491399882997500,2.52999755859375,12.442771911621094,1.2795395851135254,6.639960765838623
1757491399893023200,2.540023193359375,12.787875175476074,3.407467842102051,6.539182662963867
1757491399903079200,2.5500791015625,13.439342498779297,5.360957622528076,5.327561855316162
1757491399913131500,2.560131591796875,14.957010269165039,6.635781288146973,4.664793014526367
1757491399933174800,2.5801748046875,17.58116912841797,7.232973098754883,4.378724098205566
1757491399943236600,2.590236572265625,18.131580352783203,7.033034324645996,4.865194797515869
1757491399953281500,2.600281494140625,17.39260482788086,6.627895355224609,5.223618030548096
1757491399963303700,2.6103037109375,15.69526195526123,6.376667499542236,4.9690752029418945
1757491399973359400,2.620359375,13.465841293334961,6.381708145141602,3.9281387329101562
1757491399983377400,2.63037744140625,10.399131774902344,6.326418876647949,2.4348206520080566
1757491399993439700,2.640439697265625,6.835363864898682,6.103940963745117,1.054323673248291
1757491400003480600,2.65048046875,5.008664131164551,5.935946941375732,0.1354670524597168
1757491400013504000,2.66050390625,4.079470157623291,5.095546245574951,-0.610992431640625
1757491400023539500,2.67053955078125,3.348133087158203,4.312745094299316,-1.195150375366211
1757491400033581300,2.680581298828125,2.1748857498168945,3.529203414916992,-1.523725986480713
1757491400043642400,2.690642333984375,0.574892520904541,2.676947832107544,-1.9551491737365723
1757491400053687300,2.700687255859375,1.8090367317199707,2.2138285636901855,-2.0627031326293945
1757491400063688400,2.7106884765625,1.9796867370605469,1.2912813425064087,-2.271679162979126
1757491400073767700,2.720767578125,0.7932462692260742,0.3959178924560547,-2.1761555671691895
1757491400083809000,2.73080908203125,-0.3029518127441406,0.056088924407958984,-2.375504970550537
1757491400093824000,2.740823974609375,-1.1477222442626953,0.04718136787414551,-2.6994762420654297
1757491400103890200,2.75089013671875,-1.6561813354492188,-0.5932879447937012,-2.228607416152954
1757491400113906000,2.760906005859375,-1.9093351364135742,-0.8700578212738037,-1.9919973611831665
1757491400123971000,2.77097119140625,-2.3072400093078613,-0.8369090557098389,-1.8474671840667725
1757491400134011600,2.78101171875,-2.3718271255493164,-0.6380065679550171,-1.8333723545074463
1757491400144052500,2.791052490234375,-2.7073044776916504,-0.9807815551757812,-1.665387749671936
1757491400154092800,2.8010927734375,-2.633194923400879,-1.1393789052963257,-1.453207015991211
1757491400164116500,2.811116455078125,-2.1618332862854004,-1.1747100353240967,-1.2785351276397705
1757491400174148400,2.8211484375,-1.9264287948608398,-1.3407330513000488,-0.9068589210510254
1757491400184214300,2.83121435546875,-1.7291202545166016,-1.3480085134506226,-0.5946972370147705
1757491400194229800,2.841229736328125,-1.453528881072998,-1.347662329673767,-0.3144688606262207
1757491400204277200,2.85127734375,-1.29359769821167,-1.2389769554138184,-0.23539948463439941
1757491400214296300,2.86129638671875,-1.2389545440673828,-1.084045648574829,-0.29717206954956055
1757491400224376600,2.87137646484375,-1.439931869506836,-1.0273845195770264,-0.25725769996643066
1757491400234415000,2.8814150390625,-1.5058231353759766,-0.8510018587112427,-0.31706929206848145
1757491400244424400,2.891424560546875,-1.3389935493469238,-0.7353441715240479,-0.3653254508972168
1757491400254472400,2.901472412109375,-1.2257556915283203,-0.735270082950592,-0.1569204330444336
1757491400264545800,2.9115458984375,-1.169656753540039,-0.6271332502365112,0.14317536354064941
1757491400274553600,2.9215537109375,-0.947291374206543,-0.5343974828720093,0.2896904945373535
1757491400294656800,2.94165673828125,-0.47303104400634766,-0.5422148704528809,-0.05626559257507324
1757491400304701400,2.951701416015625,-0.3895130157470703,-0.3979228138923645,-0.20390844345092773
1757491400324756700,2.9717568359375,-0.36596012115478516,0.1396833062171936,-0.24093198776245117
1757491400344837600,2.991837646484375,-0.09983348846435547,0.43901944160461426,-0.4056887626647949
1757491400354878000,3.0018779296875,0.18098068237304688,0.46418923139572144,-0.23784804344177246
1757491400384979500,3.0319794921875,0.2781534194946289,-0.11423525214195251,-0.6581904888153076
1757491400405065200,3.052065185546875,1.930903434753418,0.20306001603603363,-1.2440491914749146
1757491400415125000,3.062125,2.048025131225586,0.19689974188804626,-1.5071254968643188
1757491400425144600,3.07214453125,1.2895641326904297,0.5092962384223938,-1.838568091392517
1757491400435212000,3.0822119140625,0.5893440246582031,0.06668412685394287,-0.9570610523223877
1757491400445252400,3.09225244140625,0.6209068298339844,0.5555770993232727,-0.6263308525085449
1757491400455293000,3.10229296875,-0.2614631652832031,1.5597944259643555,-1.049445390701294
1757491400465326300,3.112326416015625,-1.2405791282653809,1.8022037744522095,-1.1123547554016113
1757491400475392500,3.122392578125,-1.48573637008667,1.7722687721252441,-1.3789088726043701
1757491400485429000,3.132428955078125,-0.9392051696777344,1.3512868881225586,-1.3649563789367676
1757491400495468300,3.14246826171875,0.16545772552490234,0.635758101940155,-1.0084948539733887
1757491400515551500,3.162551513671875,2.1413097381591797,0.6398055553436279,-0.7700719833374023
1757491400525598700,3.1725986328125,1.954289436340332,0.6303899884223938,-0.73256516456604
1757491400535609000,3.182609130859375,1.248347282409668,0.6883960962295532,-0.6481964588165283
1757491400565731300,3.2127314453125,-0.9913930892944336,1.9805493354797363,-0.3926656246185303
1757491400585810700,3.232810791015625,-0.8057289123535156,0.35645925998687744,0.22407126426696777
1757491400595863600,3.242863525390625,-1.3702993392944336,-0.5243961215019226,0.2964608669281006
1757491400605892400,3.252892333984375,-0.7674026489257812,-0.8738532662391663,0.3405294418334961
1757491400615933200,3.26293310546875,-0.22596359252929688,-0.4463992714881897,0.22729969024658203
1757491400625981400,3.2729814453125,-0.293731689453125,-0.45830363035202026,0.6481828689575195
1757491400646056700,3.293056640625,0.05090141296386719,-0.22242814302444458,0.15777134895324707
1757491400656083200,3.303083251953125,-0.14753055572509766,-0.13333773612976074,0.13750863075256348
1757491400696246800,3.343246826171875,-0.6436252593994141,-0.19663292169570923,0.08935403823852539
1757491400706288400,3.353288330078125,-0.7262916564941406,-0.14266037940979004,0.0065915584564208984
1757491400716327000,3.363326904296875,-0.716639518737793,-0.12614834308624268,-0.20241236686706543
1757491400726356700,3.373356689453125,-0.6365280151367188,-0.16334837675094604,-0.30043458938598633
1757491400736405200,3.3834052734375,-0.3656291961669922,0.09080827236175537,-0.5688236951828003
1757491400746469600,3.3934697265625,-0.0752410888671875,-0.10607254505157471,-0.5331548452377319
1757491400756503300,3.40350341796875,0.1837139129638672,-0.13426262140274048,-0.6160709857940674
1757491400766563600,3.4135634765625,0.43035030364990234,-0.10925531387329102,-0.6391276121139526
1757491400776582000,3.423581787109375,0.7076940536499023,-0.30098646879196167,-0.6591233015060425
1757491400786648600,3.433648681640625,0.6526603698730469,-0.2570075988769531,-0.6376786231994629
1757491400796684500,3.4436845703125,0.38851070404052734,-0.2589045763015747,-0.6488186120986938
1757491400806729200,3.453729248046875,0.1916036605834961,-0.30090969800949097,-0.5801327228546143
1757491400816769500,3.46376953125,-0.026441574096679688,-0.23115801811218262,-0.6269232034683228
1757491400826784500,3.473784423828125,-0.24428749084472656,-0.12921321392059326,-0.6047279834747314
1757491400836852000,3.48385205078125,-0.5355339050292969,-0.02365100383758545,-0.45959413051605225
1757491400846891000,3.49389111328125,-0.5284662246704102,0.014290809631347656,-0.4316636323928833
1757491400856940000,3.50393994140625,-0.45458030700683594,-0.01776885986328125,-0.39681172370910645
1757491400866968000,3.513968017578125,-0.2904644012451172,-0.06834256649017334,-0.4492783546447754
1757491400877013000,3.524012939453125,0.0017042160034179688,-0.1639573574066162,-0.5779843330383301
1757491400887053600,3.534053466796875,0.1527862548828125,-0.2262592315673828,-0.6369450092315674
1757491400897068500,3.544068603515625,0.10806655883789062,-0.1946120262145996,-0.7098581790924072
1757491400907093800,3.55409375,0.06263446807861328,-0.16364359855651855,-0.7106403112411499
1757491400917171200,3.564171142578125,-0.015867233276367188,-0.13272523880004883,-0.6480244398117065
1757491400927210800,3.574210693359375,-0.08219432830810547,-0.13657057285308838,-0.5869930982589722
1757491400937224000,3.584223876953125,-0.11639690399169922,-0.18575000762939453,-0.5384933948516846
1757491400947280400,3.5942802734375,-0.20718002319335938,-0.12119078636169434,-0.5203438997268677
1757491400957324000,3.604323974609375,-0.3493776321411133,-0.049388766288757324,-0.6054236888885498
1757491400967340800,3.6143408203125,-0.3473978042602539,-0.03914666175842285,-0.6320598125457764
1757491400987415800,3.634415771484375,-0.27519989013671875,-0.062454819679260254,-0.5836126804351807
1757491400997461500,3.64446142578125,-0.26841163635253906,-0.10760343074798584,-0.6050992012023926
1757491401007523600,3.654523681640625,-0.2926445007324219,-0.08904552459716797,-0.705659031867981
1757491401017564200,3.664564208984375,-0.3757753372192383,-0.010127902030944824,-0.6310021877288818
1757491401027604700,3.674604736328125,-0.31081199645996094,0.04455852508544922,-0.6106326580047607
1757491401037645000,3.68464501953125,-0.30078887939453125,-0.0006620883941650391,-0.582267165184021
1757491401047675000,3.6946748046875,-0.22519493103027344,-0.015430331230163574,-0.5510406494140625
1757491401062726000,3.709725830078125,-0.17380428314208984,0.002652764320373535,-0.5592739582061768
1757491401077824000,3.724823974609375,-0.17583274841308594,0.017402052879333496,-0.6057684421539307
1757491401087880400,3.73488037109375,-0.20780277252197266,0.011453986167907715,-0.6296058893203735
1757491401097894400,3.744894287109375,-0.18550586700439453,-0.03489983081817627,-0.6175535917282104
1757491401107945700,3.75494580078125,-0.2545175552368164,-0.014140129089355469,-0.5057373046875
1757491401117982500,3.764982421875,-0.4258852005004883,-0.023096919059753418,-0.4098621606826782
1757491401128022800,3.775022705078125,-0.7462339401245117,-0.03531014919281006,-0.2526555061340332
1757491401138067000,3.78506689453125,-0.9841041564941406,-0.037790656089782715,-0.06364202499389648
1757491401148107800,3.795107666015625,-1.0380935668945312,-0.11903560161590576,0.1313784122467041
1757491401158148400,3.8051484375,-0.8903789520263672,-0.4442412853240967,0.5140829086303711
1757491401168188700,3.815188720703125,-0.7250394821166992,-0.7359488010406494,0.8542077541351318
1757491401178229000,3.82522900390625,-0.8210544586181641,-0.8936522603034973,1.151198387145996
1757491401188244000,3.835243896484375,-1.3930792808532715,-1.147728681564331,1.5852606296539307
1757491401198305800,3.845305908203125,-2.4140357971191406,-1.4363384246826172,2.289689302444458
1757491401208351000,3.85535107421875,-3.686581611633301,-2.0679895877838135,2.8863022327423096
1757491401218393900,3.865393798828125,-4.616640567779541,-2.450838327407837,2.3092172145843506
1757491401228428000,3.875427978515625,-4.226329326629639,-3.140347480773926,2.033423900604248
1757491401238449200,3.88544921875,-3.4218811988830566,-4.303694248199463,2.2133545875549316
1757491401248510000,3.895510009765625,-3.297302722930908,-5.193739891052246,1.177445411682129
1757491401258552000,3.905552001953125,-3.9095864295959473,-6.219228267669678,-0.5965750217437744
1757491401268597500,3.915597412109375,-5.301611423492432,-7.556013107299805,-2.1312153339385986
1757491401278635800,3.9256357421875,-6.774962425231934,-8.503080368041992,-4.054188251495361
1757491401298716000,3.9457158203125,-7.107517719268799,-8.750004768371582,-7.855960845947266
1757491401308756500,3.955756591796875,-7.322116374969482,-9.702573776245117,-8.27857780456543
1757491401318793200,3.965793212890625,-7.2881855964660645,-7.560144424438477,-7.23332405090332
1757491401328838700,3.975838623046875,-6.127220153808594,-6.621143341064453,-6.467846870422363
1757491401338878500,3.98587841796875,-4.233187198638916,-5.328266143798828,-6.138027191162109
1757491401348918800,3.995918701171875,-2.2213406562805176,-4.603863716125488,-6.7482123374938965
1757491401358955800,4.005955810546875,-0.22945880889892578,-4.496602535247803,-6.801486968994141
1757491401369000200,4.016000244140625,4.439006328582764,-4.436984062194824,-6.253973484039307
1757491401379036700,4.02603662109375,8.008269309997559,-4.662388324737549,-2.977877140045166
1757491401389085400,4.03608544921875,10.056632995605469,-6.04538106918335,2.7699480056762695
1757491401399121400,4.046121337890625,11.089489936828613,-6.00092887878418,9.344701766967773
1757491401409141500,4.0561416015625,10.265752792358398,-4.620215892791748,14.720012664794922
1757491401419202800,4.066202880859375,7.578134536743164,-2.1767525672912598,18.17324447631836
1757491401429239300,4.0762392578125,4.506697654724121,1.2865266799926758,19.91136360168457
1757491401439272400,4.0862724609375,1.0394189357757568,4.676688194274902,20.750139236450195
1757491401449324800,4.09632470703125,-1.1720614433288574,7.464624404907227,20.23287010192871
1757491401459365600,4.10636572265625,-1.3790063858032227,10.002527236938477,18.230377197265625
1757491401469408800,4.11640869140625,-1.2394917011260986,10.254976272583008,17.502925872802734
1757491401479442200,4.126442138671875,-1.8260455131530762,9.744543075561523,16.192596435546875
1757491401489466400,4.13646630859375,-3.1894989013671875,10.056123733520508,15.11918830871582
1757491401499523600,4.146523681640625,-5.411904811859131,9.934019088745117,15.002001762390137
1757491401509555200,4.15655517578125,-7.869500160217285,9.801897048950195,14.613967895507812
1757491401519608000,4.166608154296875,-10.048105239868164,9.903788566589355,13.535618782043457
1757491401529649200,4.176649169921875,-10.630311012268066,10.366570472717285,12.41519546508789
1757491401539689500,4.186689453125,-9.82053279876709,10.400518417358398,11.364246368408203
1757491401549719600,4.196719482421875,-8.268964767456055,9.97541618347168,9.809884071350098
1757491401559749000,4.2067490234375,-6.9049482345581055,9.344799041748047,8.245723724365234
1757491401569807000,4.21680712890625,-6.130655288696289,8.41796588897705,7.07934045791626
1757491401579852000,4.22685205078125,-5.529979228973389,7.877445220947266,5.675256252288818
1757491401589892000,4.23689208984375,-5.330131530761719,7.106314182281494,3.88724422454834
1757491401599907800,4.246907958984375,-5.948722839355469,4.589800834655762,3.8828186988830566
1757491401609973200,4.25697314453125,-9.382474899291992,1.951472282409668,1.3480148315429688
1757491401619991300,4.2669912109375,-13.41446590423584,1.0385732650756836,-1.2343859672546387
1757491401630055000,4.277054931640625,-5.504125595092773,5.041464328765869,-0.8633708953857422
1757491401640072400,4.287072509765625,-1.1502468585968018,0.9676704406738281,1.5344910621643066
1757491401650135600,4.297135498046875,-0.4134323000907898,3.515932559967041,2.836721897125244
1757491401660172300,4.30717236328125,2.1304686069488525,5.303027629852295,2.7599563598632812
1757491401670216400,4.317216552734375,5.486482620239258,2.3895583152770996,3.669125556945801
1757491401680257300,4.32725732421875,4.292956352233887,-2.4536662101745605,1.0919198989868164
1757491401690284000,4.337283935546875,6.813703536987305,-2.6764516830444336,-3.446889638900757
1757491401700334300,4.347334228515625,3.683126926422119,-2.1396994590759277,-4.441774845123291
1757491401710379300,4.357379150390625,-2.5586345195770264,-3.1914844512939453,-2.795363426208496
1757491401720417300,4.367417236328125,-3.4277868270874023,-2.0715322494506836,-0.4188065528869629
1757491401730455800,4.377455810546875,-3.654595136642456,-2.2814736366271973,1.195511817932129
1757491401740497400,4.387497314453125,-1.477957844734192,-3.4950242042541504,1.8882203102111816
1757491401760577300,4.407577392578125,-2.5309031009674072,-1.0204715728759766,1.9494595527648926
1757491401770597000,4.41759716796875,-2.928497314453125,-0.8988943099975586,3.774724006652832
1757491401780662800,4.427662841796875,-2.9530248641967773,0.4038996696472168,4.528841972351074
1757491401790703600,4.43770361328125,-2.9558918476104736,4.464655876159668,6.0738348960876465
1757491401800739800,4.44773974609375,-5.597464084625244,8.7597017288208,9.254220962524414
1757491401810784800,4.45778466796875,2.8940937519073486,6.55548095703125,7.055220127105713
1757491401820825000,4.4678251953125,5.2438507080078125,6.882684707641602,5.6802873611450195
1757491401830860500,4.477860595703125,3.75993275642395,6.161990165710449,3.512134552001953
1757491401840881400,4.48788134765625,0.8258013725280762,4.57084846496582,1.7437357902526855
1757491401850947000,4.497947021484375,-2.359199285507202,2.828308582305908,0.41745758056640625
1757491401860987400,4.5079873046875,-3.8075990676879883,0.18566608428955078,-0.7896356582641602
1757491401881043200,4.528043212890625,-1.862086296081543,-3.8132762908935547,-2.4210965633392334
1757491401891105500,4.53810546875,-1.3686434030532837,-4.281296730041504,-1.420816421508789
1757491401901149700,4.548149658203125,-2.288379669189453,-1.514932632446289,0.23267173767089844
1757491401911190500,4.5581904296875,-1.2953544855117798,0.15930986404418945,0.7876157760620117
1757491401921232000,4.56823193359375,-1.952010154724121,2.87723970413208,0.48572206497192383
1757491401931246000,4.57824609375,-1.1967034339904785,3.3807663917541504,1.4061717987060547
1757491401941312800,4.588312744140625,-0.8978791236877441,3.41019344329834,1.5600299835205078
1757491401951352600,4.5983525390625,-2.0551400184631348,3.6073689460754395,0.9654874801635742
1757491401961389600,4.6083896484375,-2.4798974990844727,3.618119716644287,1.056086540222168
1757491401971430700,4.6184306640625,-2.2934045791625977,2.7747855186462402,1.5829048156738281
1757491401981454000,4.6284541015625,1.2029825448989868,1.3316097259521484,2.8123841285705566
1757491401991513300,4.638513427734375,1.907163143157959,1.5820412635803223,1.8411259651184082
1757491402001529300,4.648529296875,-4.559688568115234,2.66033935546875,-0.8163642883300781
1757491402011571200,4.6585712890625,-3.2750909328460693,0.35312318801879883,-0.47642087936401367
1757491402021632300,4.66863232421875,-0.6458529233932495,5.485269069671631,0.563103199005127
1757491402031640300,4.678640380859375,-1.0153489112854004,6.788603782653809,0.2588667869567871
1757491402041695700,4.68869580078125,-1.7604010105133057,4.682148456573486,1.274209976196289
1757491402051754800,4.698754638671875,-4.74300479888916,1.2464985847473145,0.21812820434570312
1757491402061794600,4.708794677734375,-2.640127658843994,-0.9871530532836914,-0.5496249198913574
1757491402071813400,4.7188134765625,0.23798739910125732,-2.0680384635925293,-0.12777423858642578
1757491402081875700,4.728875732421875,0.3087288737297058,-2.0443482398986816,1.3321800231933594
1757491402091895300,4.738895263671875,-2.5953421592712402,-0.6057519912719727,2.767117500305176
1757491402101935400,4.748935302734375,-2.698230266571045,2.4339866638183594,3.384817123413086
1757491402112001300,4.759001220703125,1.4830560684204102,4.8708624839782715,3.6333208084106445
1757491402122041000,4.769041015625,1.8036682605743408,4.696358680725098,5.483718395233154
1757491402132057600,4.7790576171875,2.7536330223083496,2.2020435333251953,4.266188144683838
1757491402142201000,4.789201171875,-0.6709598302841187,0.8746790885925293,2.917123317718506
1757491402162218500,4.809218505859375,-0.07268071174621582,0.8713440895080566,0.37277936935424805
1757491402172242200,4.8192421875,0.42382538318634033,0.5111441612243652,0.42337942123413086
1757491402182286300,4.829286376953125,-0.6174652576446533,-1.2867169380187988,0.6441855430603027
1757491402192326400,4.839326416015625,-1.2125142812728882,-0.5069684982299805,0.2129673957824707
1757491402202367700,4.84936767578125,-1.2446870803833008,1.3078293800354004,-0.8115448951721191
1757491402212403700,4.85940380859375,-0.6329070329666138,2.1546902656555176,-1.2342438697814941
1757491402222444500,4.869444580078125,-4.618139743804932,2.768109083175659,-0.8845996856689453
1757491402232484000,4.879484130859375,-2.21987247467041,2.76106858253479,-0.09967613220214844
1757491402242525700,4.889525634765625,9.894369125366211,1.9942922592163086,1.664168357849121
1757491402252582400,4.89958251953125,5.787228107452393,3.8167495727539062,2.3090147972106934
1757491402262611000,4.90961083984375,-1.1858489513397217,2.9110729694366455,3.716157913208008
1757491402272651500,4.919651611328125,-5.014296531677246,5.363483428955078,4.261480331420898
1757491402282666200,4.929666259765625,2.189004421234131,6.293617248535156,5.2435302734375
1757491402292733000,4.93973291015625,0.6374945044517517,5.359323501586914,5.637507438659668
1757491402302773200,4.949773193359375,-0.45200634002685547,5.113372325897217,3.9548044204711914
1757491402312813800,4.959813720703125,-1.6741729974746704,6.59091329574585,1.8488125801086426
1757491402322854100,4.969854248046875,-0.129006028175354,6.330226898193359,0.8643932342529297
1757491402332894700,4.979894775390625,1.3962905406951904,5.093878746032715,0.5556044578552246
1757491402342931700,4.989931640625,2.197319507598877,2.8551321029663086,0.2961745262145996
1757491402352976400,4.999976318359375,2.313939094543457,0.16514015197753906,-0.11351490020751953
1757491402363017000,5.010016845703125,2.028745651245117,-0.9840254783630371,-0.2962775230407715
1757491402373057300,5.020057373046875,0.9353532791137695,-0.313596248626709,-0.4805116653442383
1757491402383093500,5.030093505859375,1.866426706314087,1.158879280090332,-0.5828037261962891
1757491402393138700,5.040138671875,1.7038094997406006,2.9408669471740723,0.0028219223022460938
1757491402403175400,5.050175537109375,-1.4676990509033203,0.8523855209350586,0.6837687492370605
1757491402413219800,5.0602197265625,-0.24603897333145142,-0.40496826171875,1.9819869995117188
1757491402423260700,5.0702607421875,1.9357049465179443,-1.723832130432129,2.8937220573425293
1757491402433300200,5.08030029296875,3.0176782608032227,-2.224644660949707,3.1585288047790527
1757491402443341600,5.090341552734375,0.6554385423660278,-2.4040603637695312,2.5721850395202637
1757491402453405200,5.1004052734375,-2.726141929626465,-2.45418643951416,1.0688915252685547
1757491402463420700,5.110420654296875,-3.9203014373779297,-1.7440195083618164,-0.7087690830230713
1757491402473459200,5.120459228515625,-3.5722947120666504,-0.5981655120849609,-1.8165392875671387
1757491402483478300,5.130478271484375,-1.972717523574829,0.1688547134399414,-1.915663242340088
1757491402493542400,5.14054248046875,-1.1187238693237305,1.6618108749389648,0.3523521423339844
1757491402503585000,5.1505849609375,-0.6519051790237427,3.1085925102233887,3.256812572479248
1757491402513625600,5.16062548828125,-1.7273682355880737,3.2950568199157715,4.60388708114624
1757491402523667200,5.170667236328125,-1.6768953800201416,0.9857621192932129,3.3737754821777344
1757491402533707300,5.180707275390625,-4.3372392654418945,2.434821128845215,1.7762947082519531
1757491402543743700,5.19074365234375,-3.4377498626708984,3.1603341102600098,1.517488956451416
1757491402553788000,5.200787841796875,-4.510395050048828,1.7677068710327148,1.3547744750976562
1757491402563829200,5.210829345703125,-5.307875633239746,-0.2767448425292969,1.058018684387207
1757491402573870000,5.2208701171875,-6.877006530761719,-2.165616035461426,-0.2321186065673828
1757491402583909600,5.23090966796875,-5.665076732635498,-2.0587587356567383,-2.1708061695098877
1757491402593951500,5.240951416015625,-3.6103203296661377,-2.889195442199707,-3.8396337032318115
1757491402603991300,5.2509912109375,2.2273290157318115,-4.305397987365723,-5.258818626403809
1757491402614008000,5.261008056640625,7.24656867980957,-3.370833396911621,-5.846153736114502
1757491402624072400,5.271072509765625,9.774917602539062,1.7139430046081543,-5.3321309089660645
1757491402634088000,5.281087890625,1.825382947921753,2.43646240234375,0.5199875831604004
1757491402644153900,5.29115380859375,0.7400490045547485,0.9311389923095703,3.6857967376708984
1757491402654194200,5.301194091796875,-0.07202446460723877,1.0325884819030762,4.74091100692749
1757491402664231700,5.311231689453125,0.7447669506072998,1.2142763137817383,4.060091018676758
1757491402674237400,5.321237548828125,1.178063154220581,0.7139959335327148,2.8397879600524902
1757491402684316200,5.331316162109375,1.222883939743042,0.06057929992675781,1.5324249267578125
1757491402694356500,5.3413564453125,1.3160955905914307,-0.10587120056152344,0.6983160972595215
1757491402704401700,5.351401611328125,1.2841525077819824,-0.5947160720825195,0.24179840087890625
1757491402714434600,5.3614345703125,0.4823566973209381,-0.48043155670166016,-0.9192390441894531
1757491402724475000,5.371474853515625,-0.5110251307487488,-0.19556427001953125,-1.1261587142944336
1757491402734516200,5.38151611328125,-1.7441941499710083,0.5540781021118164,-0.5818071365356445
1757491402744557000,5.39155712890625,-2.5372493267059326,1.4431061744689941,0.4909687042236328
1757491402754596600,5.4015966796875,-1.8936409950256348,1.7964210510253906,1.669295310974121
1757491402764641000,5.41164111328125,-1.590651273727417,1.166825294494629,2.6616063117980957
1757491402774659600,5.42165966796875,-2.095506429672241,-0.06087779998779297,2.920375347137451
1757491402784722400,5.431722412109375,-2.81628680229187,-0.7312955856323242,2.507554769515991
1757491402794763000,5.441762939453125,-3.20072340965271,-0.025544166564941406,1.6266953945159912
1757491402804803300,5.45180322265625,-1.9649131298065186,1.780622959136963,1.0368309020996094
1757491402814844700,5.4618447265625,-0.5531880259513855,1.9411425590515137,1.7546312808990479
1757491402824892400,5.471892333984375,-0.4486572742462158,0.7706451416015625,1.4447321891784668
1757491402834925300,5.48192529296875,-0.9286351203918457,-0.31223392486572266,0.4961578845977783
1757491402844962300,5.49196240234375,-1.5047255754470825,-0.29172515869140625,1.1686320304870605
1757491402855007000,5.502007080078125,1.4853266477584839,0.4742603302001953,-0.5933024883270264
1757491402865047600,5.512047607421875,0.17500340938568115,1.0445842742919922,-0.17642664909362793
1757491402875075000,5.522074951171875,-0.7853964567184448,1.798579216003418,-0.7925190925598145
1757491402885128400,5.53212841796875,1.778921127319336,2.1155476570129395,-0.6819257736206055
1757491402895169500,5.54216943359375,1.0111647844314575,1.1279511451721191,0.8112304210662842
1757491402905209900,5.5522099609375,0.40464746952056885,1.436246395111084,1.9929742813110352
1757491402915247400,5.562247314453125,0.15992243587970734,1.2248163223266602,1.7829842567443848
1757491402925268000,5.57226806640625,-0.39839276671409607,1.7951478958129883,1.3808369636535645
1757491402935331600,5.58233154296875,0.5827767848968506,1.4377655982971191,1.5857157707214355
1757491402945373000,5.592373046875,0.15462905168533325,0.9404864311218262,1.5560078620910645
1757491402955411500,5.602411376953125,0.23767423629760742,3.816361904144287,0.49126100540161133
1757491402965449500,5.612449462890625,2.6723010540008545,11.823843955993652,-2.3407018184661865
1757491402975469000,5.622468994140625,2.355360507965088,9.355835914611816,-4.388857364654541
1757491402985531100,5.63253125,0.5984392166137695,5.138035774230957,-3.849303960800171
1757491402995575800,5.642575927734375,-1.085129737854004,1.1388392448425293,-1.9415690898895264
1757491403005616000,5.6526162109375,-3.29536509513855,-1.994044303894043,0.2143383026123047
1757491403015631000,5.662631103515625,-2.130359172821045,-3.383620262145996,1.436567783355713
1757491403025697300,5.672697265625,-0.2962798476219177,-3.65927791595459,2.327906608581543
1757491403035738000,5.682738037109375,-0.6814670562744141,-3.7880964279174805,3.521350383758545
1757491403045778700,5.69277880859375,-0.02612006664276123,-4.6661834716796875,2.4735107421875
1757491403055819500,5.702819580078125,-0.012426018714904785,-1.9550085067749023,0.8801290988922119
1757491403065859000,5.712859130859375,-0.6530824303627014,-2.9480247497558594,-0.8978965282440186
1757491403075874800,5.722874755859375,-0.5965563058853149,-1.2638168334960938,-1.528616189956665
1757491403085941000,5.73294091796875,-0.5020369291305542,0.18077373504638672,0.5887656211853027
1757491403095981800,5.74298193359375,0.6643319129943848,1.1041450500488281,0.9012579917907715
1757491403106023200,5.753023193359375,0.3050486445426941,1.451125144958496,0.27107763290405273
1757491403116061700,5.763061767578125,0.2981785535812378,1.8527131080627441,0.48786473274230957
1757491403126100500,5.7731005859375,-0.175179585814476,0.8147096633911133,1.0120079517364502
1757491403136140300,5.783140380859375,-0.36495962738990784,2.762172222137451,-0.014088153839111328
1757491403146159600,5.79315966796875,2.0033247470855713,1.5973429679870605,1.4448583126068115
1757491403156222500,5.803222412109375,0.39890310168266296,2.005460739135742,0.023641109466552734
1757491403166262000,5.813261962890625,0.7242821455001831,1.369023323059082,0.34472179412841797
1757491403176293000,5.823293212890625,1.019218921661377,0.473236083984375,0.35666990280151367
1757491403186347800,5.83334765625,2.5547139644622803,-0.7086553573608398,-0.35096216201782227
1757491403196389000,5.84338916015625,0.36727309226989746,-1.1727867126464844,-0.8668946027755737
1757491403206390300,5.853390380859375,-3.4405364990234375,-1.4635725021362305,-1.3923900127410889
1757491403216466000,5.8634658203125,-5.579178333282471,-2.0378942489624023,-2.0050487518310547
1757491403226489600,5.873489501953125,-3.6817269325256348,-2.768862724304199,-2.46883225440979
1757491403236538000,5.8835380859375,-0.16764456033706665,-2.5740299224853516,-2.5284013748168945
1757491403246591500,5.893591552734375,0.5457267761230469,-2.2388505935668945,-2.316046714782715
1757491403256632300,5.90363232421875,-1.6025311946868896,-3.4747314453125,-1.9514026641845703
1757491403266673000,5.9136728515625,-2.849618434906006,-6.853304862976074,-1.5275473594665527
1757491403276690400,5.9236904296875,-1.7896478176116943,-6.768405914306641,-0.7110676765441895
1757491403286750000,5.93375,-1.3891714811325073,-5.009854316711426,3.2631659507751465
1757491403296790500,5.94379052734375,-0.6181317567825317,-2.8629236221313477,10.015623092651367
1757491403306835200,5.953835205078125,1.7615822553634644,-5.452000617980957,14.700841903686523
1757491403316875800,5.963875732421875,0.7499691247940063,-6.992819786071777,9.589942932128906
1757491403326891300,5.973891357421875,-2.798821449279785,-7.635364532470703,0.6660998463630676
1757491403336957000,5.98395703125,-2.3536391258239746,-7.047772407531738,-2.323664903640747
1757491403346997800,5.993997802734375,0.021331787109375,-4.428007125854492,-0.05252484977245331
1757491403357034800,6.00403466796875,0.6119102835655212,-2.757176399230957,1.4132558107376099
1757491403367079700,6.01407958984375,2.778914451599121,-2.7033300399780273,-2.4599926471710205
1757491403377115100,6.024115234375,4.38192892074585,-1.8170671463012695,-7.18639612197876
1757491403387160300,6.034160400390625,5.705716609954834,0.4017362594604492,-8.828277587890625
1757491403397175600,6.044175537109375,3.89432954788208,1.1673526763916016,-7.164571285247803
1757491403407242000,6.054241943359375,-0.3625069260597229,1.220505714416504,-4.090737819671631
1757491403417282300,6.0642822265625,-0.8460338115692139,2.4902005195617676,-2.245068311691284
1757491403427301400,6.07430126953125,-1.7422709465026855,2.403690814971924,-5.2565436363220215
1757491403437364500,6.084364501953125,-9.446913719177246,4.688769817352295,-8.801295280456543
1757491403447410000,6.094409912109375,-8.65243911743164,10.966619491577148,-3.258669853210449
1757491403457441000,6.10444091796875,-2.949526309967041,15.369163513183594,3.781898260116577
1757491403467482600,6.114482666015625,-7.91416072845459,13.139117240905762,8.467903137207031
1757491403477500700,6.124500732421875,-3.7349748611450195,11.4391508102417,8.333745956420898
1757491403497608000,6.14460791015625,1.625134825706482,9.649415969848633,-1.2371153831481934
1757491403507648300,6.154648193359375,3.3478941917419434,9.450915336608887,-4.000530242919922
1757491403517684700,6.164684814453125,4.405292987823486,9.454814910888672,-5.855251312255859
1757491403527722200,6.17472216796875,0.035798072814941406,16.938526153564453,-4.347555160522461
1757491403537770000,6.18477001953125,0.16948223114013672,23.71875,-5.252202987670898
1757491403547811000,6.19481103515625,1.1067209243774414,14.902360916137695,-5.608400344848633
1757491403557847600,6.20484765625,-2.204216957092285,6.490228652954102,-4.891408920288086
1757491403567892500,6.214892578125,-6.288949012756348,-7.878840446472168,-2.030292510986328
1757491403577907500,6.224907470703125,-6.202172756195068,-15.714452743530273,0.3304519057273865
1757491403587969800,6.2349697265625,-2.143630027770996,-17.100208282470703,3.5500078201293945
1757491403598014200,6.24501416015625,-0.6788837909698486,-15.87457275390625,6.651662349700928
1757491403618076400,6.265076416015625,-0.6439461708068848,-16.177227020263672,8.031668663024902
1757491403628132000,6.275132080078125,-2.8008670806884766,-14.831550598144531,8.347342491149902
1757491403638176800,6.2851767578125,-2.758538246154785,-11.378074645996094,8.361680030822754
1757491403648217900,6.2952177734375,-1.655347466468811,-6.008427619934082,6.312979221343994
1757491403658237000,6.30523681640625,1.3149762153625488,-0.913182258605957,1.5965380668640137
1757491403668296400,6.31529638671875,1.3767504692077637,0.7042818069458008,-1.4521729946136475
1757491403678335700,6.325335693359375,1.9188764095306396,0.370758056640625,-4.723934173583984
1757491403688380400,6.33538037109375,1.6795194149017334,0.2315206527709961,-6.068414688110352
1757491403698418400,6.34541845703125,1.3667964935302734,-0.34541797637939453,-7.16098165512085
1757491403708457700,6.355457763671875,-1.2349604368209839,-0.2686786651611328,-7.7339067459106445
1757491403718514400,6.365514404296875,-3.26643443107605,-0.8420324325561523,-6.4717278480529785
1757491403728539000,6.375538818359375,-2.610915184020996,-2.6102981567382812,-2.5841445922851562
1757491403738558000,6.385557861328125,-1.890321969985962,-3.7482223510742188,-0.01606273651123047
1757491403748620300,6.395620361328125,-1.6181271076202393,-4.786456108093262,1.0378543138504028
1757491403758665200,6.405665283203125,-0.6980947256088257,-5.338024139404297,1.8330963850021362
1757491403768681500,6.415681396484375,-0.0026193857192993164,-5.236845016479492,2.4443390369415283
1757491403778748000,6.425747802734375,-0.7182852029800415,-4.5088300704956055,2.429871082305908
1757491403788761300,6.43576123046875,-1.6014671325683594,-3.237030029296875,2.290905237197876
1757491403798823700,6.44582373046875,-2.27034854888916,-0.8493986129760742,2.0082833766937256
1757491403808864300,6.4558642578125,-2.048170804977417,2.059650421142578,1.9450069665908813
1757491403818909200,6.4659091796875,-0.9564571976661682,4.260474681854248,1.7674782276153564
1757491403828940500,6.4759404296875,0.6913191080093384,5.18735933303833,1.5025779008865356
1757491403838990300,6.485990234375,1.6721867322921753,4.911108493804932,1.47142493724823
1757491403849031000,6.496031005859375,1.0756444931030273,3.526400566101074,1.5947729349136353
1757491403859071700,6.50607177734375,-0.7648798823356628,1.8911628723144531,1.581050992012024
1757491403869112300,6.5161123046875,-0.29556798934936523,0.49256324768066406,1.529581069946289
1757491403879128800,6.52612890625,-0.89884352684021,-0.3111763000488281,1.2786173820495605
1757491403889189600,6.536189697265625,-0.8645147085189819,-0.48476314544677734,1.0443328619003296
1757491403899234300,6.546234375,-0.4371049404144287,0.03151702880859375,1.0280866622924805
1757491403909249300,6.556249267578125,-1.085221290588379,0.16465377807617188,0.9491689801216125
1757491403919315700,6.566315673828125,0.00020360946655273438,0.07780838012695312,0.605880618095398
1757491403939371800,6.586371826171875,-0.2003093957901001,0.3549318313598633,-0.29132986068725586
1757491403949412400,6.596412353515625,-0.16366469860076904,0.08742237091064453,-0.3462912440299988
1757491403959458300,6.606458251953125,0.08821189403533936,0.07198905944824219,-0.046903133392333984
1757491403969495000,6.6164951171875,0.31463921070098877,0.2832660675048828,0.5523371696472168
1757491403979534600,6.62653466796875,0.5418847799301147,-0.09924888610839844,0.812253475189209
1757491403989584400,6.63658447265625,0.43461430072784424,-0.7031679153442383,1.028693675994873
1757491403999625000,6.646625,0.9972063302993774,-2.004643440246582,0.15206870436668396
1757491404009642800,6.656642822265625,0.4686455726623535,-0.6090078353881836,-0.20472387969493866
1757491404019723000,6.666722900390625,0.6186525821685791,13.990623474121094,0.8756101727485657
1757491404029745000,6.676744873046875,-2.147581100463867,27.64752197265625,3.15069317817688
1757491404039803600,6.6868037109375,2.5144834518432617,6.997602462768555,2.6705515384674072
1757491404049844700,6.6968447265625,4.020214557647705,2.0906524658203125,1.2011983394622803
1757491404059885300,6.70688525390625,5.312748432159424,2.2053747177124023,0.3086150586605072
1757491404069900500,6.716900634765625,4.4142656326293945,-1.5751972198486328,-0.5393264889717102
1757491404079957500,6.72695751953125,0.2716403007507324,-2.6091995239257812,-1.0168180465698242
1757491404089982000,6.73698193359375,-1.0617210865020752,-1.8030872344970703,-1.8950270414352417
1757491404100063000,6.74706298828125,-1.1570956707000732,-1.4268693923950195,-1.9959595203399658
1757491404110088400,6.75708837890625,-0.2396986484527588,-0.2727975845336914,-1.9091148376464844
1757491404130144500,6.77714453125,0.5015292167663574,-0.17042255401611328,-0.2548828125
1757491404140166100,6.787166259765625,1.3674914836883545,-0.5269489288330078,0.6777071952819824
1757491404150226000,6.797225830078125,1.705322265625,-2.6731929779052734,1.9691689014434814
1757491404160245200,6.807245361328125,0.53863525390625,-5.815276145935059,3.345019578933716
1757491404170306800,6.817306884765625,-1.0744731426239014,-10.361811637878418,4.763422012329102
1757491404190412000,6.837412109375,-2.3493664264678955,-4.24160099029541,3.390944480895996
1757491404200451000,6.847451171875,-1.6512585878372192,-4.624621391296387,2.888821601867676
1757491404210492700,6.85749267578125,-1.6777445077896118,-5.3728227615356445,1.3408839702606201
1757491404220534500,6.867534423828125,-2.3130991458892822,-4.262917518615723,0.19759869575500488
1757491404230551000,6.877551025390625,-1.9626941680908203,-2.6992406845092773,0.6002793312072754
1757491404240614700,6.88761474609375,-2.13106107711792,-2.0046539306640625,1.133137583732605
1757491404250658300,6.897658203125,-2.099726915359497,-2.461261749267578,1.3038793802261353
1757491404260674300,6.90767431640625,-2.215261220932007,-1.0193071365356445,1.35703444480896
1757491404270719500,6.917719482421875,-3.199083089828491,-2.5532732009887695,1.9838123321533203
1757491404300836600,6.947836669921875,-3.408143997192383,-4.107032775878906,2.8476600646972656
1757491404310902800,6.95790283203125,-3.9525704383850098,-3.8505611419677734,3.060199022293091
1757491404320919800,6.967919921875,-3.5901079177856445,-3.636500358581543,3.1652657985687256
1757491404330980400,6.97798046875,-3.9750161170959473,-2.466036796569824,3.2651522159576416
1757491404341024500,6.9880244140625,-4.127078533172607,0.07070159912109375,3.505924940109253
1757491404351065300,6.9980654296875,-3.994570255279541,1.766000747680664,4.13129997253418
1757491404361080600,7.00808056640625,-4.115455150604248,1.256901741027832,4.986533164978027
1757491404371146500,7.018146484375,-5.201148986816406,-0.42705345153808594,5.794402599334717
1757491404381187300,7.028187255859375,-6.743995189666748,-2.3109378814697266,5.920748710632324
1757491404391224300,7.038224365234375,-6.612602233886719,-3.98757266998291,5.51416015625
1757491404401235000,7.04823486328125,-5.211450099945068,-3.9096174240112305,4.344661235809326
1757491404411284000,7.058283935546875,-3.8183248043060303,-3.1178369522094727,3.0080535411834717
1757491404421324800,7.06832470703125,-2.4613232612609863,-2.66219425201416,2.6729116439819336
1757491404431409400,7.078409423828125,-1.2521589994430542,-3.280797004699707,2.9080657958984375
1757491404441428200,7.08842822265625,0.1951962113380432,-4.305144309997559,2.4549379348754883
1757491404451468500,7.098468505859375,1.7323960065841675,-5.524444580078125,1.5911195278167725
1757491404461510700,7.1085107421875,3.5280508995056152,-6.7059173583984375,0.8639116287231445
1757491404471550200,7.11855029296875,5.659547328948975,-7.776581764221191,0.770591139793396
1757491404481554700,7.1285546875,9.333429336547852,-8.3840913772583,0.8375276923179626
1757491404491634700,7.138634765625,9.538156509399414,-7.908236503601074,1.1445493698120117
1757491404501650200,7.148650146484375,7.004915714263916,-7.079123497009277,1.439941167831421
1757491404511714300,7.15871435546875,4.71608829498291,-6.271506309509277,1.62971031665802
1757491404521755100,7.168755126953125,3.120795726776123,-5.925728797912598,1.6356639862060547
1757491404531776500,7.178776611328125,1.8622618913650513,-5.9649248123168945,2.1160035133361816
1757491404541813200,7.188813232421875,0.293670654296875,-6.574650764465332,2.7373197078704834
1757491404551877600,7.198877685546875,1.7504647970199585,-5.793088912963867,2.9278035163879395
1757491404561918500,7.20891845703125,2.2112808227539062,-4.313224792480469,1.6760823726654053
1757491404571960600,7.218960693359375,3.3245413303375244,-2.569101333618164,-0.5803587436676025
1757491404582002000,7.229001953125,3.164659261703491,-1.8733816146850586,-2.8912203311920166
1757491404592061000,7.23906103515625,2.4577338695526123,-2.0170164108276367,-4.519466400146484
1757491404612196000,7.259196044921875,1.2007213830947876,-0.9940223693847656,-6.163745880126953
1757491404622217700,7.2692177734375,0.850989580154419,-0.20751094818115234,-6.327029705047607
1757491404642242000,7.289241943359375,1.5853866338729858,2.8760108947753906,-5.881083965301514
1757491404652264200,7.29926416015625,1.6017634868621826,3.3716859817504883,-5.479778289794922
1757491404662327800,7.309327880859375,2.2459120750427246,4.308107376098633,-4.827327728271484
1757491404672343000,7.319343017578125,2.3148622512817383,5.236494541168213,-4.272706508636475
1757491404682407700,7.32940771484375,2.199659824371338,5.157427787780762,-3.52834415435791
1757491404692446000,7.339446044921875,2.493544816970825,5.0516510009765625,-3.31375789642334
1757491404702470400,7.349470458984375,2.816218376159668,4.9712324142456055,-3.2931127548217773
1757491404712527400,7.35952734375,2.851714611053467,4.707075119018555,-2.919863224029541
1757491404722550800,7.36955078125,2.622953176498413,4.181528091430664,-2.7615387439727783
1757491404732613000,7.379613037109375,2.6575725078582764,4.281371116638184,-2.996203899383545
1757491404742653700,7.38965380859375,2.9534215927124023,4.805618762969971,-3.1291322708129883
1757491404752710000,7.3997099609375,3.3546741008758545,4.223139762878418,-2.5372488498687744
1757491404762735000,7.409735107421875,2.648613452911377,4.259244918823242,-1.8428452014923096
1757491404772750000,7.41975,1.9470858573913574,4.773116111755371,-1.1653780937194824
1757491404782816300,7.429816162109375,1.3180642127990723,4.777047157287598,-0.5108013153076172
1757491404792835800,7.4398359375,0.7136983871459961,4.466594219207764,-0.35001659393310547
1757491404802876400,7.44987646484375,0.1636052131652832,3.95699143409729,-0.4285602569580078
1757491404812938800,7.459938720703125,-0.3198695182800293,3.4144041538238525,-0.23260164260864258
1757491404823001000,7.4700009765625,-0.4551877975463867,2.996816635131836,0.6521291732788086
1757491404833020200,7.480020263671875,-0.9862256050109863,2.2587780952453613,1.7121591567993164
1757491404843057000,7.490056884765625,-1.06884765625,1.375378131866455,2.4209957122802734
1757491404853075700,7.50007568359375,-0.6599030494689941,0.47652673721313477,3.210568904876709
1757491404863142100,7.51014208984375,-0.5118608474731445,0.07792520523071289,2.9770078659057617
1757491404873176600,7.520176513671875,-0.36186838150024414,-0.4004659652709961,2.463496208190918
1757491404883179800,7.5301796875,0.03970956802368164,-0.12204885482788086,1.693939208984375
1757491404893264600,7.5402646484375,-1.7405428886413574,0.3363661766052246,1.1554756164550781
1757491404903305200,7.55030517578125,-2.923922538757324,0.524569034576416,0.9583444595336914
1757491404913320700,7.56032080078125,-3.5589890480041504,-0.10727167129516602,1.076608657836914
1757491404923411200,7.5704111328125,-3.6370434761047363,-1.7510113716125488,0.6450204849243164
1757491404933426000,7.580426025390625,-2.731612205505371,-2.822813034057617,-0.9604580402374268
1757491404943464200,7.590464111328125,-2.396458148956299,-3.0170884132385254,-2.294820547103882
1757491404953467100,7.600467041015625,-2.2553153038024902,-2.837254047393799,-1.3156147003173828
1757491404963545000,7.610545166015625,-0.6517829895019531,-2.7852730751037598,0.29256677627563477
1757491404973590500,7.620590576171875,2.4220056533813477,-1.685349941253662,-0.47445178031921387
1757491404983631400,7.63063134765625,3.9434995651245117,0.5430717468261719,-2.4223475456237793
1757491404993671700,7.640671630859375,2.4155006408691406,1.9148283004760742,-3.4569220542907715
1757491405003683000,7.65068310546875,0.06645631790161133,1.7800779342651367,-3.553678274154663
1757491405013753000,7.660753173828125,-1.189594030380249,1.0079917907714844,-3.110783815383911
1757491405033831000,7.680830810546875,-0.14521050453186035,-1.088486671447754,-1.4567506313323975
1757491405043875600,7.69087548828125,0.7064857482910156,-2.4076242446899414,-0.35809898376464844
1757491405053878000,7.7008779296875,1.5800437927246094,-3.5831241607666016,0.6419134140014648
1757491405063957000,7.71095703125,1.868011713027954,-4.363115310668945,1.396963357925415
1757491405073994000,7.720993896484375,1.4648969173431396,-4.596055030822754,2.0777933597564697
1757491405084039200,7.7310390625,1.3576855659484863,-4.297399520874023,2.47397780418396
1757491405094054000,7.741053955078125,1.0732070207595825,-3.4645233154296875,2.4827497005462646
1757491405104095000,7.751094970703125,0.8418206572532654,-2.2647552490234375,2.106149673461914
1757491405114160600,7.76116064453125,1.4072952270507812,-0.9386968612670898,1.4886996746063232
1757491405124182300,7.771182373046875,1.3503385782241821,0.14289379119873047,0.6618566513061523
1757491405134242600,7.78124267578125,1.4000215530395508,0.7464990615844727,0.28746533393859863
1757491405144279300,7.791279296875,1.8680853843688965,0.9134140014648438,0.22577214241027832
1757491405154298600,7.801298583984375,1.9331259727478027,0.8730106353759766,0.3119218349456787
1757491405164363300,7.81136328125,1.5749540328979492,0.6634502410888672,0.5546646118164062
1757491405174382600,7.821382568359375,0.87956702709198,0.3112373352050781,0.7910652160644531
1757491405184442400,7.8314423828125,0.7211118340492249,-0.10057735443115234,1.1082794666290283
1757491405194483700,7.841483642578125,0.5293510556221008,-0.6018276214599609,1.333325982093811
1757491405204506000,7.851506103515625,-0.11995687335729599,-0.9790143966674805,1.299634337425232
1757491405214564400,7.861564453125,-0.060055360198020935,-1.0642938613891602,1.35024893283844
1757491405224600000,7.87160009765625,-0.2949594557285309,-0.8024072647094727,1.1253212690353394
1757491405234650000,7.881650146484375,-0.16451558470726013,-0.3632354736328125,1.337568998336792
1757491405244690400,7.8916904296875,-0.756928563117981,0.1770009994506836,1.1380776166915894
1757491405254706000,7.901705810546875,-0.551807165145874,0.5543889999389648,1.5113567113876343
1757491405264764200,7.91176416015625,-1.9236297607421875,1.3702936172485352,1.2677631378173828
1757491405274787300,7.921787353515625,-2.0236167907714844,1.8518280982971191,1.3601999282836914
1757491405284832800,7.931832763671875,-2.321152925491333,2.552412509918213,1.2866723537445068
1757491405294894800,7.941894775390625,-3.4805171489715576,3.237743377685547,0.4702146053314209
1757491405304910800,7.951910888671875,-2.6008613109588623,2.9634037017822266,0.4403029680252075
1757491405314950400,7.961950439453125,-3.0699472427368164,2.4290895462036133,0.5427725315093994
1757491405324991700,7.97199169921875,-4.108230113983154,1.686962604522705,0.48720431327819824
1757491405335057400,7.982057373046875,-4.769880771636963,1.3158903121948242,0.2591269016265869
1757491405345073000,7.992072998046875,-3.221329689025879,0.5955410003662109,1.1450986862182617
1757491405355135200,8.00213525390625,-2.4170377254486084,0.47427845001220703,1.6304011344909668
1757491405365179600,8.0121796875,-2.106386423110962,0.6729135513305664,1.9319881200790405
1757491405375240400,8.022240478515625,-1.2825627326965332,1.2140445709228516,2.1339497566223145
1757491405385261600,8.032261474609374,-1.4849573373794556,1.3705549240112305,1.8720431327819824
1757491405395302100,8.04230224609375,-1.6311662197113037,1.266500473022461,1.1140705347061157
1757491405405343000,8.052343017578124,-1.0004326105117798,1.2295026779174805,0.05372655391693115
1757491405415384300,8.06238427734375,-0.19541960954666138,1.169825553894043,-1.0166716575622559
1757491405425422600,8.072422607421874,-0.2846059203147888,0.8597211837768555,-2.0482547283172607
1757491405435440000,8.082440185546876,0.11889946460723877,0.40232181549072266,-2.6372294425964355
1757491405445484800,8.09248486328125,1.023366928100586,-0.05567741394042969,-2.6602330207824707
1757491405455522000,8.10252197265625,1.5401501655578613,-0.7502317428588867,-2.068773031234741
1757491405465587700,8.112587646484375,2.7631657123565674,-1.0310401916503906,-1.360590934753418
1757491405475646700,8.122646728515624,3.8536980152130127,-1.2224149703979492,-0.6147908568382263
1757491405495709700,8.142709716796874,2.355868339538574,-2.7129602432250977,2.1469173431396484
1757491405505725000,8.152724853515625,1.577407956123352,-4.075843811035156,3.2892961502075195
1757491405515787300,8.162787353515625,0.9043571949005127,-5.627488136291504,4.04158353805542
1757491405525832400,8.17283251953125,-0.06105196475982666,-7.16867733001709,4.501560688018799
1757491405535872500,8.18287255859375,-0.8390225172042847,-8.311671257019043,4.778326034545898
1757491405545913900,8.192913818359376,-2.168077230453491,-8.599437713623047,4.30802583694458
1757491405555954700,8.20295458984375,-2.956284999847412,-8.14171314239502,3.0098350048065186
1757491405565994800,8.212994873046876,-2.786541223526001,-7.188481330871582,1.6192255020141602
1757491405576036600,8.22303662109375,-3.2930352687835693,-6.38377571105957,0.6113454103469849
1757491405586074600,8.23307470703125,-4.642796516418457,-5.943057060241699,0.3746442198753357
1757491405596092200,8.243092041015625,-6.36887264251709,-5.520071029663086,0.7451801300048828
1757491405606154800,8.25315478515625,-7.484808444976807,-5.08951473236084,1.71364426612854
1757491405616194800,8.26319482421875,-7.863664150238037,-4.679909706115723,2.892087936401367
1757491405626238000,8.273238037109374,-7.197799205780029,-4.307724952697754,4.069697856903076
1757491405636279000,8.283279052734375,-5.116454601287842,-3.930330276489258,4.808246612548828
1757491405646322000,8.293322021484375,-1.3695677518844604,-3.57578182220459,4.817925453186035
1757491405656359200,8.303359130859375,3.5608017444610596,-3.5012760162353516,4.036491394042969
1757491405666399700,8.313399658203124,6.925565719604492,-3.696390151977539,3.147787094116211
1757491405676428500,8.323428466796875,6.10961389541626,-3.8866920471191406,2.7744736671447754
1757491405686466300,8.33346630859375,3.7928755283355713,-4.182889938354492,2.514770746231079
1757491405696524500,8.343524658203124,0.9485602378845215,-4.732239723205566,2.6954455375671387
1757491405706556200,8.35355615234375,-0.4172280430793762,-5.088657379150391,2.368257522583008
1757491405716585500,8.36358544921875,-0.4211568832397461,-4.845798492431641,1.004157543182373
1757491405726643500,8.3736435546875,0.11441421508789062,-4.248294830322266,-1.2995574474334717
1757491405736644400,8.383644287109375,-0.11548852920532227,-3.5585145950317383,-3.385941743850708
1757491405746725400,8.393725341796875,1.0560203790664673,-2.3732900619506836,-4.202086925506592
1757491405756770000,8.40377001953125,2.5806593894958496,-1.3267889022827148,-4.006403923034668
1757491405766785500,8.41378564453125,2.7791595458984375,-0.8678503036499023,-3.361693859100342
1757491405776844800,8.4238447265625,2.7045888900756836,-0.7666606903076172,-3.031643867492676
1757491405786892300,8.433892333984375,2.796598434448242,-0.7483129501342773,-2.49064302444458
1757491405796948500,8.443948486328125,2.963294506072998,-0.4439878463745117,-1.9911019802093506
1757491405806973700,8.4539736328125,2.579866409301758,0.21045589447021484,-2.012110471725464
1757491405817028400,8.4640283203125,2.3572280406951904,1.4150433540344238,-2.0064289569854736
1757491405827029800,8.47402978515625,2.2903010845184326,2.496856689453125,-2.7020463943481445
1757491405837096200,8.48409619140625,2.7969698905944824,2.443345546722412,-4.323306560516357
1757491405847111200,8.494111083984375,3.5216879844665527,2.5842089653015137,-5.584326267242432
1757491405857173800,8.504173828125,3.9903564453125,3.348674774169922,-5.9946064949035645
1757491405867218400,8.514218505859375,2.830315351486206,3.7157561779022217,-5.936676979064941
1757491405877240300,8.524240234375,2.635089874267578,4.301466941833496,-6.048466682434082
1757491405887295700,8.534295654296875,2.464233875274658,4.758480072021484,-6.260703086853027
1757491405897315600,8.544315673828125,3.015434980392456,6.037928581237793,-6.682600021362305
1757491405907356000,8.55435595703125,3.1001009941101074,6.666314601898193,-6.376543045043945
1757491405917393000,8.564392822265624,3.2041029930114746,7.049839496612549,-5.911605358123779
1757491405927426800,8.5744267578125,3.3111801147460938,7.090141773223877,-5.221711158752441
1757491405937466000,8.584466064453125,2.954979658126831,6.343074321746826,-4.674386024475098
1757491405947571500,8.594571533203125,2.3202414512634277,5.39251184463501,-4.14679479598999
1757491405957581000,8.6045810546875,1.634655237197876,4.576596260070801,-3.312286376953125
1757491405967625700,8.614625732421874,1.2545325756072998,4.12898063659668,-2.425487995147705
1757491405977646300,8.624646240234375,1.2365221977233887,3.488314151763916,-1.3342223167419434
1757491405987703300,8.634703369140626,1.472259759902954,2.6127943992614746,-0.16820287704467773
1757491405997766100,8.64476611328125,1.4917181730270386,1.6564536094665527,0.6158685684204102
1757491406007788800,8.654788818359375,1.1798107624053955,0.9255976676940918,0.6318340301513672
1757491406027830800,8.674830810546876,0.13385653495788574,0.4624366760253906,-0.790687084197998
1757491406037911300,8.684911376953124,-0.877676248550415,0.23980712890625,-1.4133028984069824
1757491406047927600,8.694927490234376,-1.477849006652832,0.44663143157958984,-2.0972094535827637
1757491406057992000,8.704991943359374,-2.096895456314087,0.6398124694824219,-3.4390320777893066
1757491406068008200,8.71500830078125,-1.4631977081298828,0.8828392028808594,-5.3860321044921875
1757491406078074000,8.72507421875,-1.6378138065338135,1.4102606773376465,-7.149101257324219
1757491406088115200,8.735115234375,-3.154819965362549,2.0716772079467773,-6.977767467498779
1757491406098128100,8.745128173828125,-3.1722445487976074,0.5881743431091309,-3.5452210903167725
1757491406108196000,8.755196044921876,-1.9246273040771484,-3.402571678161621,0.06310462951660156
1757491406118218500,8.765218505859375,-0.6824846267700195,-7.530276298522949,1.801236629486084
1757491406128278300,8.7752783203125,-1.4150285720825195,-12.15444278717041,1.7407407760620117
1757491406138318800,8.78531884765625,-2.021014928817749,-15.411453247070312,2.2716832160949707
1757491406148353500,8.795353515625,-0.3731086254119873,-14.776391983032227,3.7404253482818604
1757491406158406000,8.805406005859375,0.1947767734527588,-10.069938659667969,4.442813873291016
1757491406168425700,8.81542578125,-0.18465518951416016,-4.386937141418457,3.6549065113067627
1757491406178478300,8.825478271484375,0.7083642482757568,0.2504749298095703,1.364079236984253
1757491406188519700,8.835519775390624,2.074662685394287,3.640303611755371,-0.9191505908966064
1757491406198573300,8.8455732421875,3.149245262145996,5.900564670562744,-2.219968557357788
1757491406208578800,8.855578857421875,3.830333709716797,6.586831569671631,-2.408416271209717
1757491406218619400,8.865619384765624,3.2900547981262207,5.766430854797363,-1.751448392868042
1757491406228685800,8.875685791015625,2.534456253051758,3.90838623046875,-0.7030980587005615
1757491406238704400,8.885704345703125,2.1985695362091064,1.7827048301696777,0.2150571346282959
1757491406248767500,8.895767578125,1.9452921152114868,-0.22852325439453125,1.0217902660369873
1757491406258792200,8.905792236328125,1.5454241037368774,-1.9624824523925781,1.9858965873718262
1757491406268807400,8.915807373046874,1.0447173118591309,-3.099149703979492,2.954699993133545
1757491406278873600,8.92587353515625,0.5765947103500366,-3.385382652282715,3.9461021423339844
1757491406288914400,8.93591455078125,-0.14567726850509644,-2.7498703002929688,4.783879280090332
1757491406298971400,8.945971435546875,-0.39591479301452637,-1.2311220169067383,5.190717697143555
1757491406308993000,8.955992919921876,-0.35550957918167114,0.4363126754760742,5.265280723571777
1757491406319021600,8.966021484375,-0.260627806186676,1.371541976928711,4.947479724884033
1757491406329077500,8.976077392578125,-0.636725127696991,1.99822998046875,3.8253564834594727
1757491406339118300,8.986118408203126,-0.14385199546813965,2.9553375244140625,3.1227407455444336
1757491406349175300,8.99617529296875,0.07434108853340149,3.634037971496582,2.3013267517089844
1757491406359216400,9.00621630859375,0.3359544575214386,3.9010777473449707,1.5947436094284058
1757491406369231600,9.016231689453125,0.2530711591243744,3.7988452911376953,1.0780750513076782
1757491406379297800,9.0262978515625,-0.20937088131904602,3.499953269958496,0.6585026979446411
1757491406389324500,9.036324462890626,-0.7725771069526672,2.8221569061279297,0.5539182424545288
1757491406399379700,9.046379638671874,-0.7445545196533203,2.3165807723999023,0.7858279943466187
1757491406409418500,9.05641845703125,-1.494600534439087,1.8345651626586914,0.9483330249786377
1757491406419438600,9.0664384765625,-2.1206047534942627,1.088958740234375,1.0859383344650269
1757491406429494800,9.076494873046874,-1.774897575378418,1.1353788375854492,1.1735029220581055
1757491406439517000,9.086516845703125,-2.142951011657715,1.1025714874267578,1.2014234066009521
1757491406449558300,9.096558349609374,-3.0288589000701904,0.8762111663818359,1.0337061882019043
1757491406459599000,9.10659912109375,-2.3146049976348877,1.2420530319213867,1.2337188720703125
1757491406469665300,9.116665283203124,-1.7565908432006836,1.349477767944336,1.6665152311325073
1757491406479705300,9.126705322265625,-2.3906874656677246,1.256394386291504,1.8954451084136963
1757491406489743600,9.13674365234375,-2.752016067504883,0.9006013870239258,1.5838295221328735
1757491406499783700,9.14678369140625,-1.2542999982833862,1.149977684020996,1.0719571113586426
1757491406509828400,9.156828369140625,0.16116666793823242,1.2977838516235352,0.648154616355896
1757491406519840800,9.1668408203125,0.010053932666778564,0.9203624725341797,0.723508358001709
1757491406529909800,9.17690966796875,-0.03376278281211853,0.34818363189697266,1.2017794847488403
1757491406539951600,9.18695166015625,0.4611773192882538,-0.4246978759765625,1.432600975036621
1757491406549992400,9.196992431640625,1.019412636756897,-0.892277717590332,0.8979601860046387
1757491406560028700,9.207028564453125,1.858285903930664,-1.3788642883300781,0.05942422151565552
1757491406570097000,9.217096923828125,2.2080883979797363,-1.8772335052490234,-1.272432804107666
1757491406580113700,9.22711376953125,1.359684944152832,-2.965550422668457,-1.7719473838806152
1757491406590154500,9.237154541015625,1.080456018447876,-4.030437469482422,-1.1674401760101318
1757491406600170000,9.247169921875,0.10361641645431519,-5.330478668212891,0.3840525150299072
1757491406610214100,9.257214111328125,-0.617496132850647,-6.4685163497924805,2.4867618083953857
1757491406620253000,9.2672529296875,-1.2369133234024048,-7.518816947937012,4.431993007659912
1757491406630331400,9.277331298828125,-1.7061258554458618,-8.166375160217285,5.870154857635498
1757491406640360400,9.2873603515625,-1.777157187461853,-7.942011833190918,6.187478542327881
1757491406650406000,9.297406005859376,-1.4682629108428955,-7.447948455810547,5.44280481338501
1757491406660437000,9.30743701171875,-0.7627061605453491,-6.746386528015137,4.43503999710083
1757491406670477300,9.317477294921876,-0.6598687767982483,-5.291006088256836,3.5927352905273438
1757491406680519000,9.327518798828125,-1.9417835474014282,-3.8131561279296875,3.59643292427063
1757491406690551600,9.337551513671874,-4.068455696105957,-3.3032426834106445,5.025191307067871
1757491406700592000,9.347592041015625,-5.534017086029053,-3.3382415771484375,6.8779072761535645
1757491406710645000,9.35764501953125,-5.519490718841553,-3.414738655090332,8.39261531829834
1757491406720685000,9.36768505859375,-4.170676231384277,-3.3658504486083984,9.21306037902832
1757491406730726000,9.377725830078125,-1.8865488767623901,-3.1715269088745117,9.28180980682373
1757491406740767700,9.387767822265625,0.7597676515579224,-3.0994186401367188,8.782773971557617
1757491406750834200,9.397834228515626,2.5456702709198,-3.279660224914551,7.675575256347656
1757491406760845300,9.40784521484375,2.5510873794555664,-3.6841583251953125,5.882201194763184
1757491406770887400,9.417887451171875,1.9875659942626953,-4.1817626953125,3.814126491546631
1757491406780930800,9.427930908203125,1.7436712980270386,-4.8388566970825195,1.985140323638916
1757491406790935300,9.437935302734376,1.6384552717208862,-5.71163272857666,-0.0965874195098877
1757491406801011500,9.448011474609375,1.2923589944839478,-6.130838394165039,-2.418769359588623
1757491406811035600,9.45803564453125,1.2691609859466553,-5.943429946899414,-4.187726020812988
1757491406821068000,9.468068115234376,1.4451966285705566,-4.83450984954834,-5.365031719207764
1757491406831134000,9.478134033203125,2.0867409706115723,-3.221358299255371,-5.63020133972168
1757491406841175800,9.48817578125,3.8106744289398193,-1.8987550735473633,-4.572811126708984
1757491406851204000,9.4982041015625,5.219149112701416,-1.0360422134399414,-2.611063003540039
1757491406861280300,9.5082802734375,4.393036842346191,-0.5917091369628906,-0.34809160232543945
1757491406871298000,9.518298095703125,2.760077953338623,-0.45717811584472656,1.6157703399658203
1757491406881334800,9.528334716796875,1.540547490119934,-0.3563385009765625,1.9008145332336426
1757491406891380500,9.53838037109375,2.6160287857055664,-0.27088451385498047,0.1199188232421875
1757491406901417700,9.548417724609376,3.295466423034668,-0.0812997817993164,-2.26103138923645
1757491406911457300,9.558457275390625,3.4028513431549072,0.03748464584350586,-4.67495059967041
1757491406921499000,9.568498779296876,4.406337738037109,0.7500481605529785,-7.102027893066406
1757491406931515000,9.578514892578125,4.448454856872559,1.6709561347961426,-8.74688720703125
1757491406941561000,9.58856103515625,4.020404815673828,2.666835308074951,-8.89932632446289
1757491406951604200,9.598604248046875,3.192208766937256,3.7621726989746094,-8.047274589538574
1757491406961644800,9.608644775390625,2.3768677711486816,4.4947028160095215,-7.238453388214111
1757491406971669000,9.6186689453125,2.102921485900879,4.903844833374023,-7.356728553771973
1757491406981717500,9.628717529296875,2.1703672409057617,5.115609169006348,-7.9341325759887695
1757491406991771400,9.638771484375,2.6173434257507324,5.641040325164795,-8.114934921264648
1757491407001791700,9.648791748046875,3.0745701789855957,6.554632186889648,-7.691781997680664
1757491407011851000,9.65885107421875,2.9363889694213867,6.558887958526611,-6.224635124206543
1757491407021886700,9.66888671875,2.5942800045013428,5.575099945068359,-4.672097206115723
1757491407031947800,9.67894775390625,2.2018353939056396,4.391070365905762,-3.427030086517334
1757491407041965300,9.68896533203125,2.2825381755828857,3.3843801021575928,-2.0154404640197754
1757491407052007000,9.6990068359375,2.8310883045196533,2.600454330444336,-1.0561599731445312
1757491407062070000,9.709070068359376,3.4586997032165527,1.9127073287963867,-1.1738028526306152
1757491407072098800,9.719098876953124,3.085430860519409,0.8664193153381348,-2.1420464515686035
1757491407082130700,9.729130615234375,1.166599154472351,0.2584223747253418,-4.292631149291992
1757491407092206800,9.739206787109374,0.5701184272766113,-0.08942461013793945,-7.092212677001953
1757491407102237400,9.749237548828125,1.8907462358474731,-0.16193008422851562,-9.285459518432617
1757491407112277200,9.75927734375,4.0802507400512695,-0.01074075698852539,-7.868581295013428
1757491407122317800,9.76931787109375,3.2285971641540527,-1.07844877243042,-1.9563918113708496
1757491407132359700,9.779359619140624,-1.5774977207183838,-3.4278831481933594,2.201737403869629
1757491407142396700,9.789396728515625,-4.562710762023926,-6.756291389465332,1.8482084274291992
1757491407152435500,9.799435546875,-1.5733866691589355,-9.536239624023438,-0.5615353584289551
1757491407162477000,9.80947705078125,-0.26279735565185547,-10.2335205078125,-1.3299107551574707
1757491407172512300,9.81951220703125,-0.8362625241279602,-8.284506797790527,-0.44364118576049805
1757491407182540000,9.8295400390625,-1.3202346563339233,-4.227774620056152,0.15486717224121094
1757491407192631000,9.839631103515625,-0.8856432437896729,-0.7475042343139648,0.08806228637695312
1757491407212658700,9.85965869140625,1.3671398162841797,1.1348724365234375,-0.03907299041748047
1757491407222726700,9.8697265625,0.01981516182422638,0.11962127685546875,0.31152820587158203
1757491407232763100,9.87976318359375,-0.43160754442214966,-1.1308422088623047,0.5934247970581055
1757491407242808300,9.889808349609375,-0.8357425928115845,-2.1278085708618164,0.6629829406738281
1757491407252822800,9.89982275390625,-0.45118218660354614,-2.591390609741211,0.6723008155822754
1757491407262889200,9.90988916015625,-0.2186392992734909,-2.414937973022461,0.7366170883178711
1757491407272925700,9.91992578125,-0.5434562563896179,-1.919504165649414,0.9694225788116455
1757491407282971600,9.9299716796875,-1.2944954633712769,-1.3088798522949219,1.1529333591461182
1757491407293012000,9.940011962890624,-1.3693089485168457,-0.6689691543579102,1.1332542896270752
1757491407303048700,9.950048583984374,-1.365724802017212,-0.24327468872070312,0.788245677947998
1757491407313086000,9.9600859375,-1.0609626770019531,0.22336292266845703,0.1767733097076416
1757491407323134500,9.970134521484376,-0.7475049495697021,0.7923755645751953,-0.3322150707244873
1757491407333171000,9.9801708984375,-0.3433862328529358,1.2392997741699219,-0.580406665802002
1757491407343215600,9.990215576171876,-0.5345779657363892,1.4206767082214355,-0.5749104022979736
1757491407353257000,10.000257080078125,-0.41385504603385925,1.5649724006652832,-0.20256543159484863
1757491407363297500,10.010297607421874,-0.5124143362045288,1.5578842163085938,0.2888035774230957
1757491407373335000,10.0203349609375,-0.8587067127227783,1.3771448135375977,0.7580201625823975
1757491407383379200,10.030379150390624,-1.0913333892822266,1.307734489440918,1.135500431060791
1757491407393417700,10.040417724609375,-1.0317970514297485,1.439134120941162,1.5366487503051758
1757491407403456800,10.050456787109376,-1.0802233219146729,1.7128114700317383,1.8096959590911865
1757491407413476000,10.06047607421875,-1.459523320198059,1.963322639465332,1.963062047958374
1757491407423542800,10.070542724609375,-1.2717697620391846,1.9963455200195312,2.2143843173980713
1757491407433558300,10.080558349609374,-1.906704306602478,2.2098612785339355,1.9768085479736328
1757491407443577900,10.090577880859374,-2.0748300552368164,2.301934242248535,1.6806375980377197
1757491407453665800,10.100665771484374,-2.27034854888916,2.2558889389038086,1.882787823677063
1757491407463681500,10.110681640625,-2.2360575199127197,2.386223316192627,2.094038486480713
1757491407473747000,10.120746826171874,-2.38126802444458,2.1575841903686523,2.1454310417175293
1757491407483788000,10.1307880859375,-3.331751823425293,1.5917611122131348,1.631173849105835
1757491407493829000,10.1408291015625,-2.776024580001831,1.5346970558166504,0.9211369752883911
1757491407503870700,10.15087060546875,-1.721954107284546,1.2115020751953125,0.47504520416259766
1757491407513906700,10.16090673828125,-1.5154210329055786,0.7660140991210938,0.33539092540740967
1757491407523951600,10.17095166015625,-0.31702935695648193,0.39909934997558594,0.4382905960083008
1757491407533972000,10.180971923828125,-0.5834726095199585,-0.2901754379272461,0.5849543809890747
1757491407544019700,10.191019775390625,1.0179134607315063,-0.14301490783691406,0.8578726053237915
1757491407554050300,10.20105029296875,1.1447805166244507,-0.7038459777832031,1.0160936117172241
1757491407564114400,10.211114501953125,-0.3272308111190796,-1.2746429443359375,0.5228826999664307
1757491407574154200,10.221154296875,-0.22263598442077637,-1.90130615234375,-0.18198764324188232
1757491407584197000,10.231197021484375,-0.031500935554504395,-2.783571243286133,-0.47730422019958496
1757491407594237200,10.2412373046875,0.2979162931442261,-3.7870969772338867,-0.002472221851348877
1757491407604277800,10.25127783203125,-0.15204989910125732,-4.619770050048828,0.9572041630744934
1757491407614318800,10.26131884765625,-1.117344617843628,-5.363677978515625,2.111415386199951
1757491407624359700,10.271359619140625,-1.6571033000946045,-5.82027530670166,3.294253349304199
1757491407644437000,10.29143701171875,-3.368042469024658,-6.624032020568848,4.271184921264648
1757491407654479000,10.30147900390625,-2.5527217388153076,-6.351261138916016,3.664055347442627
1757491407664519400,10.31151953125,-2.7703089714050293,-5.975702285766602,2.970186710357666
1757491407674559500,10.3215595703125,-3.3273909091949463,-5.187082290649414,2.669152021408081
1757491407684570600,10.331570556640624,-4.216998100280762,-3.818866729736328,3.034536123275757
1757491407694645000,10.34164501953125,-5.1356353759765625,-2.6667604446411133,4.343340873718262
1757491407704654000,10.351654052734375,-5.564110279083252,-2.137645721435547,6.160902500152588
1757491407714727200,10.36172705078125,-5.282852649688721,-1.7883968353271484,7.889431953430176
1757491407724763400,10.371763427734376,-3.762117862701416,-1.1522436141967773,9.006867408752441
1757491407734808600,10.38180859375,-1.2002177238464355,-0.37777042388916016,9.157941818237305
1757491407744845600,10.391845458984376,0.5422846078872681,-0.17215633392333984,8.607145309448242
1757491407754890500,10.401890380859374,0.6548726558685303,-0.7123241424560547,7.507242679595947
1757491407764931300,10.411931396484375,-0.027361154556274414,-1.8104743957519531,5.783478736877441
1757491407774972400,10.421972412109374,-0.8089607954025269,-3.312167167663574,3.5910000801086426
1757491407785013000,10.432012939453125,-2.5888397693634033,-5.054981231689453,1.3331892490386963
1757491407795053600,10.442053466796875,-3.8790338039398193,-6.493035316467285,-1.0871540307998657
1757491407805094100,10.45209423828125,-2.7635343074798584,-7.383997917175293,-3.3509185314178467
1757491407815131400,10.46213134765625,-1.4980846643447876,-7.579344749450684,-4.640323638916016
1757491407825150700,10.472150634765624,-0.7618411183357239,-6.6817522048950195,-4.967340469360352
1757491407835191000,10.48219091796875,-0.40542173385620117,-5.07376766204834,-4.939884662628174
1757491407845232400,10.492232421875,-0.46122467517852783,-3.370537757873535,-4.621448040008545
1757491407855274200,10.502274169921876,0.02517475187778473,-1.849980354309082,-4.029008865356445
1757491407865339100,10.512339111328124,0.47252345085144043,-0.8555164337158203,-2.5790629386901855
1757491407875343000,10.522343017578125,-0.13341273367404938,-0.5046186447143555,-1.2469100952148438
1757491407885398800,10.532398681640625,-1.09995436668396,-0.4578514099121094,-0.2836117744445801
1757491407895436500,10.5424365234375,-1.013974666595459,-0.7023963928222656,-0.007549285888671875
1757491407905499000,10.552498779296876,0.5312824249267578,-1.019209861755371,-0.42812108993530273
1757491407915542800,10.562542724609376,1.5557405948638916,-1.2799835205078125,-1.0702764987945557
1757491407925558800,10.572558837890625,1.7729523181915283,-1.2225122451782227,-1.7855186462402344
1757491407935625200,10.582625244140624,1.932953119277954,-0.5078191757202148,-2.554565668106079
1757491407945667300,10.592667236328126,1.4544568061828613,0.34163856506347656,-3.6093764305114746
1757491407955676700,10.6026767578125,1.9521653652191162,1.410623550415039,-4.85157585144043
1757491407965748500,10.61274853515625,2.4145777225494385,2.893787384033203,-5.783791542053223
1757491407975762700,10.6227626953125,1.3637480735778809,3.551884174346924,-6.355703830718994
1757491407985803800,10.6328037109375,1.0001757144927979,4.0801472663879395,-6.870103359222412
1757491407995870000,10.642869873046875,1.2234206199645996,4.607110500335693,-7.467140197753906
1757491408005885200,10.65288525390625,1.3624695539474487,4.919300079345703,-7.684527397155762
1757491408015952600,10.66295263671875,1.434989333152771,5.131739616394043,-7.469332695007324
1757491408025967000,10.672967041015625,1.2826364040374756,5.329791069030762,-7.438262462615967
1757491408036033500,10.683033447265625,1.660939335823059,5.520902633666992,-6.702766418457031
1757491408046034700,10.69303466796875,1.4808508157730103,5.213587760925293,-5.452258110046387
1757491408056068900,10.70306884765625,0.9599504470825195,4.687962532043457,-4.139803886413574
1757491408066152400,10.71315234375,0.9013468027114868,4.47358512878418,-3.0061073303222656
1757491408076170800,10.723170654296876,0.9999487400054932,4.046853065490723,-1.941725730895996
1757491408086235100,10.733235107421875,1.7396217584609985,3.3071627616882324,-1.191293716430664
1757491408096252700,10.743252685546874,2.2181384563446045,2.6639761924743652,-0.9187664985656738
1757491408106319600,10.753319580078125,1.5379459857940674,2.1596436500549316,-0.626579761505127
1757491408126406000,10.773406005859375,-1.051952600479126,1.4503140449523926,-0.6159424781799316
1757491408136415500,10.78341552734375,-1.9958288669586182,1.1478185653686523,-1.0712862014770508
1757491408146478600,10.793478515625,-2.3412487506866455,0.958930492401123,-2.0527639389038086
1757491408166561000,10.81356103515625,-2.2081990242004395,0.9861888885498047,-5.020636558532715
1757491408176603600,10.823603759765625,-2.338096857070923,1.52935791015625,-6.228052616119385
1757491408186620000,10.833619873046874,-3.9826037883758545,1.4029874801635742,-4.968968868255615
1757491408196686300,10.843686279296875,-1.606369972229004,-0.5794267654418945,-0.5881390571594238
1757491408206727000,10.853726806640625,2.3517894744873047,-3.9855380058288574,3.550835132598877
1757491408216768300,10.863768310546876,0.22388947010040283,-7.204800128936768,5.659989833831787
1757491408226805000,10.873804931640626,-1.741611361503601,-9.666305541992188,4.504839897155762
1757491408236849700,10.883849609375,-2.107158660888672,-9.457009315490723,3.0617198944091797
1757491408246890200,10.89389013671875,-0.7765491008758545,-6.594520568847656,2.905320644378662
1757491408256927700,10.903927734375,-0.8206690549850464,-2.579977035522461,2.5106863975524902
1757491408266972000,10.913971923828125,-1.7767868041992188,0.6955776214599609,1.2229766845703125
1757491408277012700,10.9240126953125,-0.835007905960083,2.9515089988708496,-0.6087837219238281
1757491408287049700,10.9340498046875,0.6137731075286865,4.225451946258545,-1.9667353630065918
1757491408297094400,10.944094482421875,0.9316384792327881,4.4924702644348145,-2.3485546112060547
1757491408307109600,10.954109619140626,1.0629091262817383,3.8982629776000977,-1.9584133625030518
1757491408317176600,10.964176513671875,1.1037039756774902,2.737644672393799,-1.2976689338684082
1757491408327217700,10.9742177734375,1.3189830780029297,1.3377294540405273,-0.6697938442230225
1757491408337258000,10.984258056640625,1.4137946367263794,-0.1302928924560547,-0.008696556091308594
1757491408347298600,10.994298583984374,1.3187057971954346,-1.6008377075195312,0.7907462120056152
1757491408357336300,11.00433642578125,1.265499234199524,-2.7372779846191406,1.6932792663574219
1757491408367380500,11.01438037109375,0.6512805819511414,-3.153946876525879,2.655035972595215
1757491408377418500,11.02441845703125,0.3065015971660614,-2.597219467163086,3.3475873470306396
1757491408387458000,11.0344580078125,0.062282711267471313,-1.3389225006103516,3.6590964794158936
1757491408397499100,11.0444990234375,-0.28363633155822754,0.0815725326538086,3.587534189224243
1757491408407542000,11.0545419921875,-0.592366635799408,1.1479101181030273,3.0871694087982178
1757491408417580800,11.064580810546875,-0.48673632740974426,1.5644254684448242,2.1200923919677734
1757491408427625700,11.074625732421875,-0.30260956287384033,1.7521085739135742,0.825960636138916
1757491408437665800,11.084665771484374,0.24421405792236328,2.1928458213806152,-0.31543564796447754
1757491408447706400,11.094706298828125,0.305855929851532,2.4701290130615234,-1.0315749645233154
1757491408457747500,11.10474755859375,0.4400200843811035,2.6041393280029297,-1.4045480489730835
1757491408467788300,11.114788330078126,0.42830991744995117,2.6097207069396973,-1.3447186946868896
1757491408477809000,11.124808837890624,0.18481743335723877,2.452711582183838,-0.9528435468673706
1757491408487866000,11.1348662109375,0.4063931703567505,2.21108341217041,0.06163477897644043
1757491408497910500,11.14491064453125,-0.22974693775177002,1.7725534439086914,1.009047031402588
1757491408507934000,11.154933837890624,-0.6718581318855286,1.1120595932006836,1.9660484790802002
1757491408517993000,11.164992919921875,-1.019528865814209,0.17042064666748047,2.8631489276885986
1757491408528033800,11.17503369140625,-1.87576425075531,-0.7667951583862305,3.380526304244995
1757491408538074000,11.18507421875,-1.7068378925323486,-1.1540908813476562,3.616006374359131
1757491408548110600,11.195110595703126,-2.33950138092041,-1.332625389099121,3.3248066902160645
1757491408558152000,11.20515185546875,-3.244074583053589,-0.742680549621582,2.429704189300537
1757491408568197600,11.21519775390625,-3.3515353202819824,-0.05107402801513672,1.3898934125900269
1757491408578237200,11.2252373046875,-2.659886121749878,0.5874443054199219,0.9623574018478394
1757491408598295300,11.24529541015625,-4.387057781219482,1.8892321586608887,0.8335198163986206
1757491408608328700,11.25532861328125,-4.007716655731201,1.811633586883545,1.6320109367370605
1757491408618405400,11.2654052734375,-3.9292821884155273,1.9103622436523438,2.373873472213745
1757491408628437200,11.275437255859375,-3.5597968101501465,2.090391159057617,2.8240773677825928
1757491408638478000,11.28547802734375,-1.743086576461792,2.516941547393799,3.377167224884033
1757491408648521700,11.295521728515626,-2.071230888366699,2.520195960998535,3.490489959716797
1757491408658573600,11.305573486328125,-2.4503989219665527,2.4071202278137207,3.349421977996826
1757491408668604200,11.315604248046874,-2.1811535358428955,2.3541040420532227,2.7009215354919434
1757491408678641400,11.325641357421874,-2.1108245849609375,1.6522464752197266,1.6217466592788696
1757491408688686000,11.33568603515625,-1.1407420635223389,0.9295253753662109,0.6189132928848267
1757491408698727200,11.34572705078125,-0.4956008195877075,0.592167854309082,0.059346914291381836
1757491408708745700,11.355745849609375,0.30898964405059814,-0.0077838897705078125,0.07722711563110352
1757491408718804500,11.365804443359375,1.2068870067596436,-0.5710697174072266,0.06366050243377686
1757491408728850000,11.375849853515625,1.8769742250442505,-0.9689960479736328,-0.11996543407440186
1757491408738886000,11.385885986328125,3.4487295150756836,-1.808588981628418,-0.8106417059898376
1757491408748931000,11.39593115234375,3.799593448638916,-2.6420440673828125,-1.7372334003448486
1757491408758971100,11.40597119140625,3.761274814605713,-3.649555206298828,-2.165538787841797
1757491408769012700,11.4160126953125,3.5785951614379883,-4.743563652038574,-1.9062401056289673
1757491408779053800,11.4260537109375,2.9293699264526367,-5.851806640625,-0.538793683052063
1757491408789090000,11.436090087890625,1.8906203508377075,-6.870486259460449,1.496382236480713
1757491408799131100,11.446131103515626,0.31305623054504395,-7.882704734802246,3.3625552654266357
1757491408809175600,11.456175537109376,-1.16644287109375,-8.573713302612305,4.7399001121521
1757491408819216600,11.466216552734375,-2.732354164123535,-9.28617000579834,6.039863586425781
1757491408829257700,11.4762578125,-3.386012554168701,-9.361133575439453,6.583480358123779
1757491408839298300,11.48629833984375,-3.736809492111206,-8.579272270202637,6.127526760101318
1757491408849339100,11.496339111328124,-3.327167510986328,-7.728906631469727,5.271143913269043
1757491408859376000,11.506376220703125,-4.583690643310547,-6.514507293701172,3.886174440383911
1757491408869417000,11.5164169921875,-5.5326032638549805,-5.78089714050293,3.1548821926116943
1757491408879457800,11.526457763671875,-4.293342113494873,-4.902034759521484,3.691335916519165
1757491408889499000,11.536498779296876,-3.93916654586792,-3.6580209732055664,4.674994468688965
1757491408899540700,11.546540771484375,-3.684683084487915,-1.646561622619629,5.516194820404053
1757491408909583400,11.556583251953125,-4.085751533508301,0.16158771514892578,6.370735168457031
1757491408919625200,11.566625244140624,-2.963893175125122,1.511251449584961,7.719964981079102
1757491408929662000,11.576661865234374,-1.5803799629211426,2.380934715270996,9.232048988342285
1757491408939706000,11.5867060546875,0.1768648624420166,2.5743350982666016,10.192949295043945
1757491408949747200,11.596747314453125,1.5771223306655884,1.9366426467895508,10.257248878479004
1757491408959788500,11.60678857421875,1.8866358995437622,0.6440696716308594,9.485666275024414
1757491408969829400,11.616829345703126,0.9356378316879272,-0.6741561889648438,8.124494552612305
1757491408979870200,11.6268701171875,-0.6008166074752808,-1.6417808532714844,6.480729103088379
1757491408989910000,11.636909912109376,-2.73679780960083,-2.809307098388672,4.652673721313477
1757491408999947000,11.646947021484374,-3.4812750816345215,-4.433384895324707,2.182769298553467
1757491409009991700,11.65699169921875,-3.4584927558898926,-5.980778694152832,-0.7327840328216553
1757491409020032800,11.66703271484375,-3.047550678253174,-6.154038429260254,-3.6031806468963623
1757491409030073300,11.6770732421875,-1.970443844795227,-4.871350288391113,-5.475085735321045
1757491409040114000,11.687114013671875,-0.5279802680015564,-3.275641441345215,-6.0306010246276855
1757491409050155000,11.697155029296875,0.6049764752388,-1.9532251358032227,-5.9252848625183105
1757491409060192800,11.70719287109375,0.010582629591226578,-0.848968505859375,-4.400613307952881
1757491409070237200,11.7172373046875,-1.5010898113250732,-0.37799835205078125,-2.624584197998047
1757491409080278000,11.727278076171874,-1.357771396636963,-0.1392374038696289,-1.0502653121948242
1757491409090318000,11.737318115234375,0.7689085602760315,0.04578971862792969,-0.26723217964172363
1757491409100360200,11.747360107421875,2.0925774574279785,0.1279430389404297,-0.009940147399902344
1757491409110385000,11.757385009765626,1.9976439476013184,0.1322193145751953,-0.042783260345458984
1757491409120437500,11.7674375,1.468569040298462,0.25254058837890625,-0.2820553779602051
1757491409130477600,11.7774775390625,1.650738000869751,0.6682004928588867,-1.0469989776611328
1757491409140521700,11.787521728515625,2.1803317070007324,0.9600448608398438,-2.8342361450195312
1757491409150573000,11.797572998046874,2.5049095153808594,1.7735295295715332,-4.738227367401123
1757491409160595500,11.807595458984375,2.435570478439331,2.9977173805236816,-5.642058372497559
1757491409170645000,11.81764501953125,1.2934505939483643,3.663046360015869,-6.040491104125977
1757491409180686000,11.82768603515625,1.2757513523101807,4.684248924255371,-6.579028606414795
1757491409190722300,11.837722412109375,1.156447172164917,5.64644718170166,-6.946288108825684
1757491409200767000,11.84776708984375,0.8790494203567505,6.3284406661987305,-7.1292619705200195
1757491409210807800,11.857807861328125,0.6882859468460083,6.922209739685059,-7.204570293426514
1757491409220848600,11.8678486328125,0.20696783065795898,6.608175754547119,-6.876129627227783
1757491409230885400,11.877885498046876,0.9185279607772827,6.812053203582764,-6.147690773010254
1757491409240930300,11.887930419921876,1.121415376663208,6.182000637054443,-4.726855754852295
1757491409250967000,11.897967041015624,1.474590539932251,5.3701324462890625,-3.0493478775024414
1757491409260969700,11.9079697265625,1.4884600639343262,4.653496742248535,-1.343806266784668
1757491409271052800,11.918052734375,1.2928602695465088,3.715610980987549,0.10423135757446289
1757491409281094100,11.92809423828125,1.5252017974853516,3.4783222675323486,1.0448293685913086
1757491409291135000,11.938135009765626,0.9106415510177612,2.5920848846435547,1.9188556671142578
1757491409301172000,11.948171875,0.6940733194351196,1.8173985481262207,1.8902873992919922
1757491409311215600,11.958215576171876,0.7893346548080444,1.1997103691101074,1.1286420822143555
1757491409321252600,11.968252685546876,0.5980651378631592,0.7400550842285156,0.36426591873168945
1757491409331297300,11.97829736328125,-0.2939058542251587,0.4354071617126465,-0.18341064453125
1757491409341338000,11.988338134765625,-1.4535560607910156,0.15288448333740234,-0.5740127563476562
1757491409351379500,11.99837939453125,-3.130990743637085,-0.5148992538452148,-1.482011318206787
1757491409361417700,12.008417724609375,-3.5501677989959717,-0.9739766120910645,-2.9763896465301514
1757491409371456800,12.018456787109375,-3.874769926071167,-0.8101716041564941,-3.6535139083862305
1757491409381498400,12.028498291015625,-1.9938907623291016,-1.0602307319641113,-1.3515000343322754
1757491409391540000,12.0385400390625,1.4817726612091064,-1.9506077766418457,2.1673989295959473
1757491409401580300,12.048580322265625,0.979473352432251,-3.410994529724121,4.258164405822754
1757491409411623200,12.058623046875,-1.2066831588745117,-4.431736946105957,2.7537946701049805
1757491409421664300,12.068664306640626,-2.0195889472961426,-4.258593559265137,0.22628116607666016
1757491409431691500,12.07869140625,-1.085564374923706,-3.167987823486328,-0.6914362907409668
1757491409441744400,12.088744384765626,-1.7739498615264893,-1.6440696716308594,-0.5828838348388672
1757491409451783400,12.098783447265625,-2.1777424812316895,-0.4467487335205078,-0.5206699371337891
1757491409461802500,12.108802490234375,-1.3361598253250122,0.25412654876708984,-0.7852919101715088
1757491409471864600,12.118864501953125,-0.5092864632606506,0.5070209503173828,-0.905724048614502
1757491409481906400,12.128906494140624,0.27770933508872986,0.2839365005493164,-0.59023118019104
1757491409491941400,12.13894140625,0.8242977857589722,-0.22922992706298828,0.0047664642333984375
1757491409501989600,12.14898974609375,1.3260542154312134,-0.9146413803100586,0.6459934711456299
1757491409512029700,12.15902978515625,1.677154541015625,-1.4836702346801758,1.2571074962615967
1757491409522070000,12.169070068359375,1.5542724132537842,-1.6995763778686523,1.8812270164489746
1757491409532115200,12.179115234375,1.286031723022461,-1.4280633926391602,2.4783897399902344
1757491409542207500,12.18920751953125,0.8436474204063416,-0.6027803421020508,2.9716737270355225
1757491409552216800,12.199216796875,0.10225801914930344,0.46849536895751953,3.3863303661346436
1757491409562248200,12.209248291015625,-0.40261712670326233,1.4055113792419434,3.6779139041900635
1757491409572274000,12.21927392578125,-0.6068947911262512,1.9121637344360352,3.5875723361968994
1757491409582318000,12.229318115234374,-0.6800127625465393,1.9617919921875,3.0497138500213623
1757491409592359700,12.239359619140625,-0.8614345192909241,1.7543683052062988,2.5888609886169434
1757491409602397000,12.24939697265625,-0.7168576717376709,1.5204873085021973,1.9803147315979004
1757491409612436000,12.25943603515625,-0.5604947209358215,1.403083324432373,1.2917163372039795
1757491409622477000,12.26947705078125,-0.1184827983379364,1.422976016998291,0.9016027450561523
1757491409632519200,12.279519287109375,-0.06304201483726501,1.3811731338500977,0.6612434387207031
1757491409642558200,12.28955810546875,-0.07347556948661804,1.3483633995056152,0.3781871795654297
1757491409652603600,12.299603759765626,0.10683697462081909,1.387913703918457,0.20621156692504883
1757491409662644500,12.30964453125,-0.43176281452178955,1.3892850875854492,0.020090579986572266
1757491409672681500,12.319681396484375,0.18138858675956726,1.4060187339782715,0.29903674125671387
1757491409682726100,12.32972607421875,0.19881218671798706,1.356088638305664,0.7966775894165039
1757491409692767000,12.33976708984375,-0.4927569031715393,1.2466459274291992,1.3836960792541504
1757491409702803500,12.349803466796875,-0.8041283488273621,1.2709856033325195,2.0181992053985596
1757491409712848100,12.35984814453125,-0.8379570245742798,1.3113813400268555,2.4517693519592285
1757491409722889500,12.369889404296876,-1.076028823852539,1.5238289833068848,2.4194259643554688
1757491409732941300,12.37994140625,-1.5207366943359375,1.5851893424987793,1.9206202030181885
1757491409742966800,12.389966796875,-0.8798041343688965,1.9839997291564941,1.5161149501800537
1757491409753012000,12.400011962890625,-1.466508388519287,2.2923707962036133,0.7967915534973145
1757491409763048000,12.4100478515625,-1.087441325187683,2.1779041290283203,0.5238890647888184
1757491409773093600,12.42009375,-1.6091575622558594,1.9067912101745605,0.29512977600097656
1757491409783108600,12.430108642578125,-1.0878523588180542,1.5293083190917969,0.3463253974914551
1757491409793174500,12.440174560546875,-0.7157454490661621,1.1179533004760742,0.5881726741790771
1757491409803215600,12.450215576171875,-0.20792019367218018,0.6826019287109375,0.9119517803192139
1757491409813256400,12.46025634765625,1.3753032684326172,0.808232307434082,0.8395984172821045
1757491409823297000,12.470297119140625,1.436348795890808,0.7490463256835938,0.32738053798675537
1757491409833305000,12.48030517578125,0.6102701425552368,0.3248434066772461,0.263619065284729
1757491409843357700,12.490357666015624,1.871103048324585,-0.7868824005126953,0.16975390911102295
1757491409853418000,12.50041796875,2.5078907012939453,-2.075258255004883,-1.166197657585144
1757491409863456500,12.51045654296875,1.013525128364563,-3.3442258834838867,-2.3342063426971436
1757491409873475800,12.520475830078125,0.28246450424194336,-5.038264274597168,-1.5769975185394287
1757491409883501300,12.530501220703124,-1.0124222040176392,-6.78599739074707,0.7185250520706177
1757491409893558500,12.54055859375,-1.4114431142807007,-7.264411926269531,2.6879568099975586
1757491409903619800,12.550619873046875,-1.7783701419830322,-7.180340766906738,4.136164665222168
1757491409913665000,12.5606650390625,-1.6749986410140991,-6.72343635559082,5.307067394256592
1757491409923705300,12.570705322265624,-2.6720409393310547,-6.534893989562988,6.309956073760986
1757491409933711400,12.58071142578125,-2.8910787105560303,-6.474302291870117,6.484993934631348
1757491409943767600,12.590767578125,-1.6716108322143555,-5.874682426452637,5.753708839416504
1757491409953827800,12.600827880859375,-2.3179545402526855,-5.292730331420898,4.758929252624512
1757491409963869400,12.610869384765625,-3.4746813774108887,-4.3942413330078125,4.022706985473633
1757491409973905400,12.620905517578125,-3.7503297328948975,-2.727123260498047,3.6578257083892822
1757491409983950000,12.6309501953125,-4.078248977661133,-1.0261611938476562,3.8499209880828857
1757491409993990700,12.64099072265625,-4.398726940155029,-0.19991207122802734,5.196348190307617
1757491410004031700,12.65103173828125,-4.59802770614624,-0.0774374008178711,7.057692050933838
1757491410014072600,12.661072509765624,-4.204163551330566,-0.10102462768554688,8.56198501586914
1757491410024108300,12.6711083984375,-2.901930332183838,-0.11679458618164062,9.328947067260742
1757491410034154500,12.681154541015625,-1.3188889026641846,-0.4286155700683594,9.192779541015625
1757491410044191700,12.691191650390625,-0.6913199424743652,-1.1799135208129883,8.097274780273438
1757491410054236000,12.70123583984375,-0.6226118206977844,-2.184293746948242,6.1163482666015625
1757491410064276000,12.71127587890625,-1.1932212114334106,-3.3503971099853516,3.7165474891662598
1757491410074317800,12.72131787109375,-2.8250958919525146,-4.612165451049805,1.1239274740219116
1757491410084358400,12.7313583984375,-3.4706101417541504,-5.411664962768555,-1.1930220127105713
1757491410094404000,12.741404052734374,-2.914461135864258,-5.694240570068359,-2.6948702335357666
1757491410104436000,12.75143603515625,-2.529217481613159,-5.279223442077637,-3.6785175800323486
1757491410114476500,12.7614765625,-1.689367413520813,-3.902146339416504,-4.049604415893555
1757491410124486400,12.771486328125,-0.5329537987709045,-2.3063249588012695,-3.5800681114196777
1757491410134539000,12.7815390625,0.6486940979957581,-1.1233816146850586,-2.475775718688965
1757491410144577800,12.791577880859375,1.8869670629501343,-0.4030942916870117,-0.7644526958465576
1757491410154620000,12.801619873046874,2.6360650062561035,-0.09073352813720703,1.11397123336792
1757491410164659500,12.811659423828125,2.0548293590545654,-0.2231616973876953,2.8141541481018066
1757491410174700000,12.821699951171874,1.187707543373108,-0.5260868072509766,3.3808045387268066
1757491410184741000,12.8317412109375,0.9221881628036499,-0.9818315505981445,2.3238725662231445
1757491410194770400,12.8417705078125,1.0564697980880737,-1.5010671615600586,0.6495532989501953
1757491410204814300,12.851814453125,1.2718634605407715,-1.6742734909057617,-0.9780969619750977
1757491410214872300,12.861872314453125,1.5235668420791626,-1.099471092224121,-2.264968156814575
1757491410224904200,12.871904296875,1.7919567823410034,-0.1826496124267578,-3.9624624252319336
1757491410234932500,12.881932373046874,1.8610897064208984,0.769808292388916,-5.493727684020996
1757491410245011200,12.89201123046875,1.8103078603744507,1.6260390281677246,-6.908412456512451
1757491410255027000,12.90202685546875,1.7884091138839722,2.52467679977417,-8.180275917053223
1757491410265093600,12.91209375,1.8136589527130127,3.8649747371673584,-8.703269958496094
1757491410275130600,12.922130615234375,1.093966007232666,4.735592842102051,-8.300766944885254
1757491410285175600,12.932175537109375,0.6747872829437256,5.382867813110352,-7.740958213806152
1757491410295215400,12.94221533203125,0.39975011348724365,5.2345356941223145,-7.236888885498047
1757491410305250000,12.95225,0.7614914178848267,5.038210391998291,-6.7488908767700195
1757491410315297000,12.962297119140626,1.065397024154663,4.722198486328125,-6.1344451904296875
1757491410325312000,12.97231201171875,1.348995327949524,4.51431941986084,-5.177014350891113
1757491410335378400,12.98237841796875,2.1260316371917725,4.691103935241699,-4.060364723205566
1757491410345415400,12.99241552734375,2.5116727352142334,4.538078784942627,-2.9371824264526367
1757491410355456500,13.00245654296875,2.4371206760406494,3.9504315853118896,-1.907982349395752
1757491410365498400,13.012498291015625,1.6765947341918945,3.3010597229003906,-1.0740699768066406
1757491410375518000,13.02251806640625,1.5568578243255615,3.010202169418335,-0.7746224403381348
1757491410385561600,13.0325615234375,1.878455638885498,3.02038311958313,-0.9277596473693848
1757491410395601200,13.04260107421875,1.5670523643493652,3.0260708332061768,-1.1708498001098633
1757491410405664300,13.052664306640626,1.452818512916565,2.645063877105713,-1.8065752983093262
1757491410415679500,13.062679443359375,0.7857954502105713,2.2465200424194336,-3.406571626663208
1757491410425708000,13.0727080078125,0.7361201047897339,2.3509521484375,-5.914411544799805
1757491410435786800,13.082786865234375,1.022817611694336,3.336203098297119,-8.40073013305664
1757491410445827600,13.09282763671875,-0.6787264347076416,3.4281115531921387,-8.083989143371582
1757491410455868400,13.102868408203125,-1.6924601793289185,1.16154146194458,-3.518850326538086
