time,seconds_elapsed,z,y,x
1757491397433098000,0.080097900390625,9.436079025268555,2.5852389335632324,-0.7162809371948242
1757491397443138800,0.090138916015625,9.449299812316895,2.5426998138427734,-0.693917453289032
1757491397453179600,0.1001796875,9.462109565734863,2.5012032985687256,-0.6697578430175781
1757491397463218700,0.11021875,9.473992347717285,2.4623656272888184,-0.6452381610870361
1757491397473260500,0.120260498046875,9.485299110412598,2.426632881164551,-0.6137324571609497
1757491397483275300,0.130275146484375,9.495820045471191,2.3942911624908447,-0.5769608020782471
1757491397493341700,0.140341796875,9.504892349243164,2.3666234016418457,-0.5405759215354919
1757491397503382800,0.1503828125,9.512076377868652,2.345094919204712,-0.5069928765296936
1757491397513421000,0.160421142578125,9.51745319366455,2.3297197818756104,-0.4760248363018036
1757491397523459600,0.17045947265625,9.521173477172852,2.3200840950012207,-0.4478524327278137
1757491397533476000,0.18047607421875,9.524189949035645,2.3136825561523438,-0.41568297147750854
1757491397543542800,0.190542724609375,9.527061462402344,2.3076114654541016,-0.382291704416275
1757491397553559000,0.20055908203125,9.530409812927246,2.299213171005249,-0.3478812873363495
1757491397563625700,0.210625732421875,9.534703254699707,2.286736011505127,-0.31047582626342773
1757491397573662000,0.220661865234375,9.539916038513184,2.269890308380127,-0.2714961767196655
1757491397583701800,0.23070166015625,9.54525089263916,2.2514145374298096,-0.23540730774402618
1757491397593747200,0.240747314453125,9.55005168914795,2.2341787815093994,-0.20268504321575165
1757491397603762700,0.2507626953125,9.553862571716309,2.220294237136841,-0.1735306829214096
1757491397613828900,0.260828857421875,9.556386947631836,2.211223840713501,-0.14850933849811554
1757491397623869200,0.270869140625,9.55736255645752,2.208390712738037,-0.1262337863445282
1757491397633864700,0.28086474609375,9.556622505187988,2.2126870155334473,-0.10528665035963058
1757491397643946500,0.290946533203125,9.554319381713867,2.2232565879821777,-0.09069514274597168
1757491397654000400,0.30100048828125,9.551708221435547,2.235720157623291,-0.05033700168132782
1757491397664031200,0.31103125,9.549086570739746,2.247440814971924,-0.008301000110805035
1757491397674068500,0.321068359375,9.546623229980469,2.2577390670776367,0.026389434933662415
1757491397684087300,0.33108740234375,9.544983863830566,2.2642908096313477,0.048781201243400574
1757491397694153200,0.3411533203125,9.544838905334473,2.2646257877349854,0.06021367758512497
1757491397704194000,0.351194091796875,9.546446800231934,2.2578022480010986,0.06148318201303482
1757491397714230500,0.36123046875,9.549723625183105,2.2440683841705322,0.05519062653183937
1757491397724275000,0.37127490234375,9.554533958435059,2.223695993423462,0.04648112878203392
1757491397734290400,0.38129052734375,9.560596466064453,2.1975862979888916,0.041386447846889496
1757491397744356900,0.39135693359375,9.567501068115234,2.1672518253326416,0.04527704045176506
1757491397754401300,0.4014013671875,9.574666976928711,2.135096549987793,0.05675293132662773
1757491397764433400,0.411433349609375,9.581418991088867,2.1042964458465576,0.06673091650009155
1757491397774474000,0.421473876953125,9.586335182189941,2.081932783126831,0.062038667500019073
1757491397784494300,0.431494384765625,9.588946342468262,2.0702998638153076,0.045510854572057724
1757491397794556000,0.441555908203125,9.58983039855957,2.0665431022644043,0.02557002194225788
1757491397804574200,0.45157421875,9.58978271484375,2.0668952465057373,0.011025218293070793
1757491397814641000,0.461640869140625,9.589524269104004,2.068117618560791,0.005121211055666208
1757491397824655400,0.4716552734375,9.589484214782715,2.0682997703552246,0.005626483354717493
1757491397834721800,0.4817216796875,9.58980941772461,2.0667800903320312,0.009204979985952377
1757491397844762400,0.491762451171875,9.590412139892578,2.0639572143554688,0.01379774883389473
1757491397854786600,0.50178662109375,9.591291427612305,2.0598318576812744,0.01798749715089798
1757491397864817700,0.511817626953125,9.592469215393066,2.0543105602264404,0.021337514743208885
1757491397874856000,0.52185595703125,9.593863487243652,2.0477588176727295,0.023746274411678314
1757491397884924400,0.53192431640625,9.595236778259277,2.041278600692749,0.026831557974219322
1757491397894965000,0.541965087890625,9.596309661865234,2.0361695289611816,0.031023208051919937
1757491397905004500,0.552004638671875,9.596922874450684,2.033217430114746,0.034624289721250534
1757491397915046000,0.5620458984375,9.597153663635254,2.0321149826049805,0.035543326288461685
1757491397925082400,0.572082275390625,9.597296714782715,2.031468629837036,0.033852603286504745
1757491397935127000,0.582126953125,9.597501754760742,2.0305533409118652,0.0305642019957304
1757491397945163800,0.592163818359375,9.597905158996582,2.028718948364258,0.02498127892613411
1757491397955207000,0.60220703125,9.598610877990723,2.025465488433838,0.01610637456178665
1757491397965248800,0.612248779296875,9.599689483642578,2.020392656326294,0.008925702422857285
1757491397975246600,0.62224658203125,9.600846290588379,2.0149054527282715,0.005035914480686188
1757491397985330200,0.632330078125,9.601869583129883,2.010026454925537,0.0017008819850161672
1757491397995367200,0.6423671875,9.602747917175293,2.0058257579803467,-0.0015638378681614995
1757491398005409000,0.652408935546875,9.603439331054688,2.0025076866149902,-0.005233404226601124
1757491398015447800,0.66244775390625,9.603958129882812,1.9999957084655762,-0.010177955962717533
1757491398025466600,0.672466552734375,9.60429859161377,1.998328685760498,-0.01509268768131733
1757491398035529700,0.68252978515625,9.604414939880371,1.9977433681488037,-0.018431155011057854
1757491398045571800,0.69257177734375,9.604286193847656,1.9983516931533813,-0.019709575921297073
1757491398055614200,0.7026142578125,9.603988647460938,1.9997869729995728,-0.01904248259961605
1757491398065654500,0.712654541015625,9.603623390197754,2.0015618801116943,-0.016668731346726418
1757491398075692000,0.722692138671875,9.603231430053711,2.003467321395874,-0.013018607161939144
1757491398085731600,0.732731689453125,9.602812767028809,2.005497694015503,-0.008333598263561726
1757491398095775700,0.742775634765625,9.602276802062988,2.0080766677856445,-0.0030540740117430687
1757491398105817000,0.752817138671875,9.601553916931152,2.0115363597869873,0.002371265320107341
1757491398115857400,0.762857421875,9.60062026977539,2.015970468521118,0.007596995215862989
1757491398125868000,0.772867919921875,9.599407196044922,2.021716594696045,0.012140939943492413
1757491398135938800,0.782938720703125,9.597976684570312,2.0284767150878906,0.015749184414744377
1757491398145979400,0.7929794921875,9.596441268920898,2.0357089042663574,0.017592445015907288
1757491398156021200,0.803021240234375,9.5949125289917,2.0428996086120605,0.01822204515337944
1757491398166062600,0.8130625,9.593475341796875,2.0496292114257812,0.019023405387997627
1757491398176097800,0.823097900390625,9.59220027923584,2.0555715560913086,0.021042009815573692
1757491398186137600,0.8331376953125,9.591092109680176,2.060696601867676,0.024418704211711884
1757491398196157000,0.843156982421875,9.590167999267578,2.0649309158325195,0.02898040972650051
1757491398206197000,0.853197021484375,9.589378356933594,2.068518877029419,0.03416974097490311
1757491398216260600,0.863260498046875,9.588679313659668,2.071653366088867,0.03971867635846138
1757491398226302200,0.87330224609375,9.588074684143066,2.074352264404297,0.044747937470674515
1757491398236323600,0.883323486328125,9.587456703186035,2.077098846435547,0.04945904016494751
1757491398246363100,0.893363037109375,9.586865425109863,2.0797464847564697,0.052735015749931335
1757491398256423200,0.903423095703125,9.58646297454834,2.081550359725952,0.054606638848781586
1757491398266440400,0.9134404296875,9.586353302001953,2.0820162296295166,0.05604761093854904
1757491398276481300,0.923481201171875,9.586509704589844,2.081295967102051,0.05604702606797218
1757491398286522600,0.933522705078125,9.586807250976562,2.0799505710601807,0.055114395916461945
1757491398296567300,0.9435673828125,9.587048530578613,2.078862190246582,0.05427911877632141
1757491398306603000,0.95360302734375,9.58723258972168,2.0780067443847656,0.05444328114390373
1757491398316664300,0.963664306640625,9.587355613708496,2.077416181564331,0.05537759140133858
1757491398326684000,0.973683837890625,9.587472915649414,2.0768415927886963,0.056545794010162354
1757491398336750000,0.98375,9.587767601013184,2.0754778385162354,0.05672523006796837
1757491398346804700,0.9938046875,9.588299751281738,2.0729737281799316,0.058289870619773865
1757491398356809000,1.00380908203125,9.588838577270508,2.070453643798828,0.05918164551258087
1757491398366868000,1.013867919921875,9.589296340942383,2.0683181285858154,0.05970153585076332
1757491398376912100,1.023912109375,9.589678764343262,2.066561460494995,0.05908706784248352
1757491398386949000,1.03394921875,9.590054512023926,2.0648746490478516,0.056990254670381546
1757491398396993500,1.04399365234375,9.590484619140625,2.0629422664642334,0.05452821031212807
1757491398407056000,1.054055908203125,9.590896606445312,2.061069965362549,0.052870746701955795
1757491398417074700,1.06407470703125,9.591209411621094,2.059638261795044,0.05191560089588165
1757491398427093500,1.074093505859375,9.591353416442871,2.0589938163757324,0.05094818025827408
1757491398437151700,1.08415185546875,9.591402053833008,2.058809757232666,0.04923706501722336
1757491398447196700,1.09419677734375,9.591368675231934,2.0590364933013916,0.04620068147778511
1757491398457233200,1.104233154296875,9.591232299804688,2.0597498416900635,0.042389098554849625
1757491398467277600,1.114277587890625,9.5910062789917,2.060875415802002,0.0387495718896389
1757491398477320400,1.124320556640625,9.59073257446289,2.0621933937072754,0.03643122315406799
1757491398487358500,1.1343583984375,9.590473175048828,2.063424587249756,0.03493133932352066
1757491398497398800,1.144398681640625,9.590327262878418,2.0641274452209473,0.03349139168858528
1757491398507396600,1.154396728515625,9.590351104736328,2.0640265941619873,0.03257710486650467
1757491398517476600,1.1644765625,9.590335845947266,2.0641016960144043,0.03245818614959717
1757491398527497500,1.17449755859375,9.590219497680664,2.0646557807922363,0.031651709228754044
1757491398537574000,1.184573974609375,9.590102195739746,2.0651895999908447,0.0323123000562191
1757491398547602400,1.1946025390625,9.589882850646973,2.0661675930023193,0.034895673394203186
1757491398557642500,1.204642578125,9.58946704864502,2.0680389404296875,0.03818926215171814
1757491398567683300,1.214683349609375,9.588826179504395,2.0709328651428223,0.04209103807806969
1757491398577717000,1.224717041015625,9.587994575500488,2.0746843814849854,0.04634561762213707
1757491398587764500,1.234764404296875,9.587099075317383,2.078718662261963,0.05057644471526146
1757491398597805300,1.244805419921875,9.586272239685059,2.082441806793213,0.05404413491487503
1757491398607820000,1.254820068359375,9.585623741149902,2.0853588581085205,0.05659615248441696
1757491398617882400,1.26488232421875,9.585209846496582,2.087247371673584,0.05701649561524391
1757491398627923000,1.2749228515625,9.585058212280273,2.0879411697387695,0.05708439648151398
1757491398637967400,1.28496728515625,9.585005760192871,2.088192939758301,0.0568154975771904
1757491398648008000,1.295008056640625,9.584925651550293,2.088569164276123,0.056446611881256104
1757491398658023000,1.30502294921875,9.584674835205078,2.089723825454712,0.056281425058841705
1757491398668089000,1.315089111328125,9.584199905395508,2.0919084548950195,0.05599345266819
1757491398678129700,1.325129638671875,9.583598136901855,2.0947084426879883,0.05426698923110962
1757491398688166100,1.335166259765625,9.582850456237793,2.0981385707855225,0.05380016192793846
1757491398698210600,1.34521044921875,9.581941604614258,2.102266788482666,0.0546000599861145
1757491398708225800,1.355225830078125,9.581425666809082,2.1043617725372314,0.0636155903339386
1757491398718292000,1.3652919921875,9.581276893615723,2.1043903827667236,0.08232207596302032
1757491398728313600,1.375313720703125,9.581089973449707,2.1056666374206543,0.07069247215986252
1757491398738373600,1.38537353515625,9.580543518066406,2.1091256141662598,0.029497157782316208
1757491398748412400,1.395412353515625,9.579340934753418,2.114633083343506,-0.02564048022031784
1757491398758429000,1.405428955078125,9.576898574829102,2.1234734058380127,-0.0998680368065834
1757491398768491500,1.415491455078125,9.572174072265625,2.1399760246276855,-0.173448383808136
1757491398778510300,1.42551025390625,9.563482284545898,2.1726999282836914,-0.23512408137321472
1757491398788576300,1.435576171875,9.549395561218262,2.2291955947875977,-0.2754075825214386
1757491398798616600,1.445616455078125,9.530139923095703,2.3085901737213135,-0.2879992127418518
1757491398808631300,1.45563134765625,9.505122184753418,2.4074044227600098,-0.30520758032798767
1757491398818659000,1.4656591796875,9.475354194641113,2.512852191925049,-0.3732956051826477
1757491398828734000,1.47573388671875,9.440557479858398,2.616241455078125,-0.5169776678085327
1757491398838761000,1.485760986328125,9.39843463897705,2.712441921234131,-0.740409791469574
1757491398848819700,1.49581982421875,9.344820976257324,2.8104727268218994,-1.0058156251907349
1757491398858859800,1.50585986328125,9.281341552734375,2.910407304763794,-1.2737081050872803
1757491398868900400,1.515900390625,9.218902587890625,3.0116331577301025,-1.475805401802063
1757491398878910500,1.525910400390625,9.170896530151367,3.105112314224243,-1.5776690244674683
1757491398888956000,1.535955810546875,9.14537525177002,3.174628257751465,-1.5874372720718384
1757491398898999300,1.545999267578125,9.137919425964355,3.211728572845459,-1.5554206371307373
1757491398909062400,1.5560625,9.14305305480957,3.220670461654663,-1.5059751272201538
1757491398919108900,1.56610888671875,9.161011695861816,3.2107315063476562,-1.4153358936309814
1757491398929143800,1.576143798828125,9.18440055847168,3.2004549503326416,-1.2806209325790405
1757491398939184000,1.58618408203125,9.201728820800781,3.20981502532959,-1.1231098175048828
1757491398949199400,1.596199462890625,9.19295597076416,3.1862642765045166,-1.254347562789917
1757491398959265500,1.606265625,9.198970794677734,3.2204511165618896,-1.115234136581421
1757491398969282600,1.616282470703125,9.20512580871582,3.2380669116973877,-1.0083112716674805
1757491398979347000,1.626346923828125,9.217643737792969,3.234088659286499,-0.9010094404220581
1757491398989388300,1.63638818359375,9.233306884765625,3.2143847942352295,-0.8061515688896179
1757491398999404300,1.646404296875,9.248514175415039,3.1847984790802,-0.7471005320549011
1757491399009464300,1.65646435546875,9.26116943359375,3.1556687355041504,-0.713163435459137
1757491399019505700,1.666505615234375,9.270557403564453,3.1309709548950195,-0.6999240517616272
1757491399029547800,1.6765478515625,9.27810287475586,3.109675645828247,-0.694856584072113
1757491399039590000,1.68658984375,9.280359268188477,3.1012814044952393,-0.7022103071212769
1757491399049605000,1.696605224609375,9.279335021972656,3.1002085208892822,-0.7202560305595398
1757491399059667000,1.7066669921875,9.276119232177734,3.101180076599121,-0.7565717101097107
1757491399069686300,1.716686279296875,9.272174835205078,3.099457025527954,-0.8100879192352295
1757491399079748900,1.726748779296875,9.269978523254395,3.090385675430298,-0.8678289651870728
1757491399089792800,1.736792724609375,9.271369934082031,3.072941541671753,-0.9136984348297119
1757491399099803000,1.746802978515625,9.27633285522461,3.0486562252044678,-0.9441656470298767
1757491399109848300,1.756848388671875,9.283300399780273,3.0207903385162354,-0.9650231003761292
1757491399119914200,1.766914306640625,9.290055274963379,2.9933176040649414,-0.9854093194007874
1757491399129955300,1.776955322265625,9.294580459594727,2.9717960357666016,-1.0076292753219604
1757491399139991800,1.78699169921875,9.295454978942871,2.9605579376220703,-1.0323418378829956
1757491399150036200,1.7970361328125,9.29372787475586,2.9564051628112793,-1.0594336986541748
1757491399160075800,1.80707568359375,9.29216480255127,2.9529261589050293,-1.082597255706787
1757491399170124000,1.8171240234375,9.292563438415527,2.9464383125305176,-1.0967520475387573
1757491399180139300,1.82713916015625,9.29491901397705,2.934840202331543,-1.1078341007232666
1757491399190198800,1.83719873046875,9.29964828491211,2.91619873046875,-1.1173388957977295
1757491399200235500,1.847235595703125,9.309340476989746,2.8875656127929688,-1.1109672784805298
1757491399210237400,1.857237548828125,9.324691772460938,2.846099376678467,-1.0890114307403564
1757491399220319700,1.86731982421875,9.32575511932373,2.8511123657226562,-1.066567063331604
1757491399230335200,1.877335205078125,9.258585929870605,3.0439915657043457,-1.1174943447113037
1757491399240406000,1.887406005859375,9.280702590942383,2.9968411922454834,-1.060011625289917
1757491399250438100,1.897438232421875,9.300577163696289,2.954570770263672,-1.002937912940979
1757491399260457200,1.907457275390625,9.319023132324219,2.9158132076263428,-0.9433704614639282
1757491399270519600,1.91751953125,9.435608863830566,2.602543830871582,-0.657384991645813
1757491399280561400,1.9275615234375,9.451072692871094,2.563169002532959,-0.5860931277275085
1757491399290578400,1.937578369140625,9.46845531463623,2.511460781097412,-0.5263425707817078
1757491399300621600,1.94762158203125,9.489191055297852,2.4407057762145996,-0.48406973481178284
1757491399310672600,1.957672607421875,9.513800621032715,2.3508377075195312,-0.4441402554512024
1757491399320725800,1.967725830078125,9.540972709655762,2.2468039989471436,-0.3972831666469574
1757491399330745000,1.9777451171875,9.567838668823242,2.137692928314209,-0.35049256682395935
1757491399340764200,1.98776416015625,9.592650413513184,2.0303492546081543,-0.30798178911209106
1757491399350848000,1.997847900390625,9.614724159240723,1.929866909980774,-0.2622778117656708
1757491399360869000,2.007869140625,9.633184432983398,1.8434189558029175,-0.1991778016090393
1757491399370929200,2.01792919921875,9.646652221679688,1.7791026830673218,-0.11405674368143082
1757491399380969200,2.02796923828125,9.653524398803711,1.7450807094573975,-0.016140727326273918
1757491399390988000,2.037988037109375,9.653122901916504,1.7455421686172485,0.08006103336811066
1757491399401015000,2.04801513671875,9.647228240966797,1.7723238468170166,0.1611527055501938
1757491399411110700,2.058110595703125,9.638561248779297,1.8124654293060303,0.22184672951698303
1757491399421131300,2.06813134765625,9.628081321716309,1.875860333442688,0.13156937062740326
1757491399431151400,2.0781513671875,9.62131118774414,1.9092098474502563,0.14625194668769836
1757491399441186300,2.088186279296875,9.617430686950684,1.9268780946731567,0.16816242039203644
1757491399451249400,2.09824951171875,9.616011619567871,1.9332983493804932,0.17545543611049652
1757491399461289500,2.10828955078125,9.616312026977539,1.9313912391662598,0.17996348440647125
1757491399471335000,2.1183349609375,9.617334365844727,1.9249101877212524,0.19416368007659912
1757491399481376300,2.128376220703125,9.618338584899902,1.917624831199646,0.21536532044410706
1757491399491413800,2.138413818359375,9.618563652038574,1.9136803150177002,0.2391028106212616
1757491399501451800,2.14845166015625,9.616950035095215,1.9187164306640625,0.2625124454498291
1757491399511471000,2.15847119140625,9.61311149597168,1.935413122177124,0.2799569368362427
1757491399521535200,2.16853515625,9.60778522491455,1.9594242572784424,0.295343816280365
1757491399531593500,2.178593505859375,9.601749420166016,1.985912799835205,0.31410396099090576
1757491399541622000,2.1886220703125,9.596284866333008,2.0094361305236816,0.3310374319553375
1757491399551658200,2.198658203125,9.59183120727539,2.0281174182891846,0.34586018323898315
1757491399561673700,2.208673828125,9.587797164916992,2.045541524887085,0.35498273372650146
1757491399571716600,2.218716552734375,9.583127975463867,2.0649044513702393,0.36870598793029785
1757491399581760500,2.228760498046875,9.577296257019043,2.0871565341949463,0.3940604627132416
1757491399591809300,2.238809326171875,9.570662498474121,2.1106410026550293,0.42863133549690247
1757491399601857300,2.248857177734375,9.563891410827637,2.132537603378296,0.46944907307624817
1757491399611878400,2.25887841796875,9.557823181152344,2.1477644443511963,0.5207945108413696
1757491399621919700,2.268919677734375,9.551767349243164,2.1583526134490967,0.5842587351799011
1757491399631981300,2.278981201171875,9.54818344116211,2.0820810794830322,0.8562978506088257
1757491399642000400,2.28900048828125,9.535380363464355,2.0525436401367188,1.0486595630645752
1757491399652062500,2.2990625,9.51440143585205,2.0767886638641357,1.1828858852386475
1757491399662105900,2.30910595703125,9.4834623336792,2.1188154220581055,1.3456158638000488
1757491399672119800,2.319119873046875,9.438860893249512,2.173444986343384,1.5556845664978027
1757491399682201600,2.32920166015625,9.365103721618652,2.210515022277832,1.9090723991394043
1757491399692203500,2.33920361328125,9.286368370056152,2.2713491916656494,2.200101852416992
1757491399702267100,2.34926708984375,9.191744804382324,2.297142267227173,2.543832778930664
1757491399712282400,2.359282470703125,9.049310684204102,2.204303741455078,3.08011794090271
1757491399722324700,2.36932470703125,8.728398323059082,1.6391019821166992,4.167074680328369
1757491399732364300,2.3793642578125,8.491676330566406,1.5681188106536865,4.6549482345581055
1757491399742405400,2.3894052734375,8.230427742004395,1.4949536323547363,5.124576091766357
1757491399752466200,2.399466064453125,7.958471298217773,1.398737907409668,5.562586784362793
1757491399762507800,2.4095078125,7.704726696014404,1.2717454433441162,5.937673568725586
1757491399772516600,2.4195166015625,7.500340938568115,1.1085306406021118,6.225123405456543
1757491399782588000,2.429587890625,7.346306324005127,0.904174268245697,6.438196182250977
1757491399792651000,2.439651123046875,7.224982738494873,0.6556184887886047,6.603476047515869
1757491399802668800,2.449668701171875,7.111204624176025,0.3583115339279175,6.748221397399902
1757491399812713700,2.459713623046875,6.970460891723633,0.005529419519007206,6.902807712554932
1757491399832769300,2.479769287109375,6.485233306884766,-0.855431318283081,7.3106842041015625
1757491399842831400,2.489831298828125,6.155239105224609,-1.3435484170913696,7.519575595855713
1757491399852876000,2.4998759765625,5.848447322845459,-1.833717942237854,7.659586429595947
1757491399862916000,2.509916015625,5.609286785125732,-2.303960084915161,7.711276054382324
1757491399872953000,2.519953125,5.4360456466674805,-2.736609935760498,7.6939263343811035
1757491399882997500,2.52999755859375,5.344341278076172,-3.1238903999328613,7.610218048095703
1757491399893023200,2.540023193359375,5.334817409515381,-3.468088388442993,7.466472148895264
1757491399903079200,2.5500791015625,5.386683940887451,-3.781907796859741,7.27440071105957
1757491399913131500,2.560131591796875,5.477059841156006,-4.07153844833374,7.04702091217041
1757491399923112700,2.57011279296875,5.585546493530273,-4.334578037261963,6.800678253173828
1757491399933174800,2.5801748046875,5.698456764221191,-4.556036472320557,6.557913303375244
1757491399943236600,2.590236572265625,5.8094305992126465,-4.7232866287231445,6.338548183441162
1757491399953281500,2.600281494140625,5.92950963973999,-4.818855285644531,6.152694225311279
1757491399963303700,2.6103037109375,6.0727996826171875,-4.832239627838135,6.000555038452148
1757491399973359400,2.620359375,6.245350360870361,-4.7684125900268555,5.873154640197754
1757491399983377400,2.63037744140625,6.435383319854736,-4.650142669677734,5.761781215667725
1757491399993439700,2.640439697265625,6.630990982055664,-4.505323886871338,5.654036521911621
1757491400003480600,2.65048046875,6.829817771911621,-4.349201202392578,5.538425445556641
1757491400013504000,2.66050390625,7.027245998382568,-4.187645435333252,5.414567947387695
1757491400023539500,2.67053955078125,7.214305877685547,-4.02247953414917,5.292405605316162
1757491400033581300,2.680581298828125,7.429489612579346,-3.8001296520233154,5.15730619430542
1757491400043642400,2.690642333984375,7.5971784591674805,-3.617281198501587,5.043240070343018
1757491400053687300,2.700687255859375,7.845634460449219,-3.3412742614746094,4.849537372589111
1757491400063688400,2.7106884765625,8.014384269714355,-3.1102468967437744,4.725687026977539
1757491400073767700,2.720767578125,8.344992637634277,-2.8264272212982178,4.3137593269348145
1757491400083809000,2.73080908203125,8.463150978088379,-2.593343734741211,4.229155540466309
1757491400093824000,2.740823974609375,8.571412086486816,-2.3644704818725586,4.144428253173828
1757491400103890200,2.75089013671875,8.673096656799316,-2.1453800201416016,4.051030158996582
1757491400113906000,2.760906005859375,8.762015342712402,-1.9421437978744507,3.961221933364868
1757491400123971000,2.77097119140625,8.834875106811523,-1.760731816291809,3.8834152221679688
1757491400134011600,2.78101171875,8.895133018493652,-1.6031776666641235,3.813469409942627
1757491400144052500,2.791052490234375,8.945033073425293,-1.471861720085144,3.7491486072540283
1757491400154092800,2.8010927734375,8.990385055541992,-1.3622446060180664,3.6814916133880615
1757491400164116500,2.811116455078125,9.033709526062012,-1.2678921222686768,3.6084134578704834
1757491400174148400,2.8211484375,9.071683883666992,-1.1870722770690918,3.539989948272705
1757491400184214300,2.83121435546875,9.10373306274414,-1.1145122051239014,3.4808075428009033
1757491400194229800,2.841229736328125,9.129902839660645,-1.0473781824111938,3.432781934738159
1757491400204277200,2.85127734375,9.150228500366211,-0.9839584827423096,3.3972408771514893
1757491400214296300,2.86129638671875,9.165040969848633,-0.922895610332489,3.3743715286254883
1757491400224376600,2.87137646484375,9.174949645996094,-0.8665350079536438,3.362367868423462
1757491400234415000,2.8814150390625,9.182254791259766,-0.8175134062767029,3.35469388961792
1757491400244424400,2.891424560546875,9.188000679016113,-0.7787028551101685,3.3481907844543457
1757491400254472400,2.901472412109375,9.1912202835083,-0.7508885860443115,3.345705986022949
1757491400264545800,2.9115458984375,9.192316055297852,-0.7323874235153198,3.3467960357666016
1757491400274553600,2.9215537109375,9.192547798156738,-0.7193623781204224,3.3489835262298584
1757491400294656800,2.94165673828125,9.193391799926758,-0.6971158385276794,3.351370096206665
1757491400304701400,2.951701416015625,9.194912910461426,-0.6872292757034302,3.3492393493652344
1757491400314698800,2.96169873046875,9.197418212890625,-0.6796101927757263,3.343909740447998
1757491400344837600,2.991837646484375,9.19429874420166,-0.6710977554321289,3.3541927337646484
1757491400354878000,3.0018779296875,9.185647964477539,-0.6718108057975769,3.377669334411621
1757491400374959400,3.02195947265625,9.179226875305176,-0.6715043783187866,3.395141363143921
1757491400405065200,3.052065185546875,9.177461624145508,-0.44121819734573364,3.4373888969421387
1757491400415125000,3.062125,9.172392845153809,-0.25390511751174927,3.469705820083618
1757491400425144600,3.07214453125,9.15931224822998,-0.11622189730405807,3.5113537311553955
1757491400435212000,3.0822119140625,9.154823303222656,0.034137800335884094,3.5247912406921387
1757491400445252400,3.09225244140625,9.138169288635254,0.19097737967967987,3.562793254852295
1757491400455293000,3.10229296875,9.122468948364258,0.37375858426094055,3.588449478149414
1757491400465326300,3.112326416015625,9.098592758178711,0.48574092984199524,3.63535213470459
1757491400475392500,3.122392578125,9.086533546447754,0.5585036873817444,3.655010461807251
1757491400485429000,3.132428955078125,9.09143352508545,0.5937555432319641,3.6372249126434326
1757491400495468300,3.14246826171875,9.171357154846191,0.7058756351470947,3.409407615661621
1757491400515551500,3.162551513671875,9.219261169433594,0.7249951362609863,3.2734880447387695
1757491400525598700,3.1725986328125,9.234652519226074,0.7554671764373779,3.222820520401001
1757491400535609000,3.182609130859375,9.243736267089844,0.7966502904891968,3.186659574508667
1757491400565731300,3.2127314453125,9.257559776306152,0.9572306275367737,3.1011931896209717
1757491400585810700,3.232810791015625,9.243047714233398,1.1123701333999634,3.0927035808563232
1757491400595863600,3.242863525390625,9.240198135375977,1.1242351531982422,3.096923589706421
1757491400605892400,3.252892333984375,9.243263244628906,1.1166023015975952,3.090531826019287
1757491400615933200,3.26293310546875,9.254584312438965,1.0980110168457031,3.0631909370422363
1757491400625981400,3.2729814453125,9.271493911743164,1.075642704963684,3.0196847915649414
1757491400646056700,3.293056640625,9.309844970703125,1.0369843244552612,2.913341522216797
1757491400656083200,3.303083251953125,9.32541561126709,1.0225239992141724,2.868305206298828
1757491400691246000,3.33824609375,9.360879898071289,1.033193588256836,2.746371269226074
1757491400701287700,3.34828759765625,9.370112419128418,1.048952579498291,2.7086548805236816
1757491400711307300,3.358307373046875,9.382102966308594,1.0645191669464111,2.6606497764587402
1757491400721368800,3.368368896484375,9.396910667419434,1.0777320861816406,2.6024343967437744
1757491400731390700,3.378390625,9.413450241088867,1.0876386165618896,2.5377354621887207
1757491400746469600,3.3934697265625,9.438589096069336,1.0971018075942993,2.4383411407470703
1757491400756503300,3.40350341796875,9.454000473022461,1.0989830493927002,2.3770201206207275
1757491400766563600,3.4135634765625,9.46485710144043,1.1037102937698364,2.331181526184082
1757491400776582000,3.423581787109375,9.471343994140625,1.1148664951324463,2.299306631088257
1757491400786648600,3.433648681640625,9.47330093383789,1.134101152420044,2.281773567199707
1757491400796684500,3.4436845703125,9.471874237060547,1.1611701250076294,2.2740681171417236
1757491400806729200,3.453729248046875,9.469161033630371,1.1939301490783691,2.268397808074951
1757491400816769500,3.46376953125,9.465802192687988,1.2305576801300049,2.262834310531616
1757491400831804700,3.4788046875,9.46106243133545,1.2841174602508545,2.2528772354125977
1757491400846891000,3.49389111328125,9.459348678588867,1.324567437171936,2.236593723297119
1757491400856940000,3.50393994140625,9.4608793258667,1.3407623767852783,2.220414400100708
1757491400871953700,3.51895361328125,9.465502738952637,1.3523579835891724,2.193513870239258
1757491400882031400,3.52903125,9.469121932983398,1.3567028045654297,2.1751317977905273
1757491400897068500,3.544068603515625,9.472620964050293,1.367666244506836,2.1529173851013184
1757491400907093800,3.55409375,9.471342086791992,1.3815813064575195,2.1496546268463135
1757491400917171200,3.564171142578125,9.466937065124512,1.3991214036941528,2.1577036380767822
1757491400927210800,3.574210693359375,9.460667610168457,1.4180723428726196,2.17277455329895
1757491400942260500,3.589260498046875,9.451346397399902,1.445928931236267,2.1948657035827637
1757491400952300500,3.599300537109375,9.446231842041016,1.462885856628418,2.205622434616089
1757491400962320400,3.6093203125,9.442453384399414,1.477158784866333,2.2122809886932373
1757491400977385700,3.6243857421875,9.438465118408203,1.49175226688385,2.2194955348968506
1757491400987415800,3.634415771484375,9.436125755310059,1.4981564283370972,2.2251193523406982
1757491400997461500,3.64446142578125,9.433929443359375,1.5038025379180908,2.230618953704834
1757491401007523600,3.654523681640625,9.43181324005127,1.5094380378723145,2.235755681991577
1757491401017564200,3.664564208984375,9.429498672485352,1.5148322582244873,2.2418642044067383
1757491401027604700,3.674604736328125,9.426803588867188,1.5194282531738281,2.250070571899414
1757491401037645000,3.68464501953125,9.423791885375977,1.5224847793579102,2.26059627532959
1757491401047675000,3.6946748046875,9.420933723449707,1.5236573219299316,2.2716946601867676
1757491401062726000,3.709725830078125,9.417078971862793,1.5228264331817627,2.2881717681884766
1757491401077824000,3.724823974609375,9.413454055786133,1.5205979347229004,2.3045103549957275
1757491401087880400,3.73488037109375,9.410659790039062,1.5181370973587036,2.3175103664398193
1757491401097894400,3.744894287109375,9.407188415527344,1.5152127742767334,2.333462715148926
1757491401107945700,3.75494580078125,9.40234088897705,1.5128490924835205,2.3544392585754395
1757491401117982500,3.764982421875,9.395846366882324,1.5117266178131104,2.3809375762939453
1757491401128022800,3.775022705078125,9.388069152832031,1.5101606845855713,2.412400722503662
1757491401138067000,3.78506689453125,9.380192756652832,1.5045477151870728,2.4463083744049072
1757491401148107800,3.795107666015625,9.37270736694336,1.4922901391983032,2.4822452068328857
1757491401158148400,3.8051484375,9.364936828613281,1.4736045598983765,2.5224106311798096
1757491401168188700,3.815188720703125,9.354369163513184,1.4512152671813965,2.5740771293640137
1757491401188244000,3.835243896484375,9.31152629852295,1.4082883596420288,2.7474215030670166
1757491401198305800,3.845305908203125,9.277268409729004,1.4071377515792847,2.86152982711792
1757491401208351000,3.85535107421875,9.230480194091797,1.4163854122161865,3.0046966075897217
1757491401218393900,3.865393798828125,9.171154022216797,1.4357987642288208,3.1724631786346436
1757491401228428000,3.875427978515625,9.095863342285156,1.4545040130615234,3.3742849826812744
1757491401238449200,3.88544921875,8.989349365234375,1.4524414539337158,3.649399518966675
1757491401248510000,3.895510009765625,8.832342147827148,1.4253312349319458,4.024211406707764
1757491401258552000,3.905552001953125,8.607423782348633,1.3799309730529785,4.499351501464844
1757491401268597500,3.915597412109375,8.299432754516602,1.3217697143554688,5.060480117797852
1757491401278635800,3.9256357421875,7.9095001220703125,1.2530343532562256,5.666200637817383
1757491401288634000,3.935634033203125,7.4548821449279785,1.1653556823730469,6.269193172454834
1757491401298716000,3.9457158203125,6.953364372253418,1.041790246963501,6.841163158416748
1757491401308756500,3.955756591796875,6.429814338684082,0.8542767763137817,7.3596062660217285
1757491401318793200,3.965793212890625,5.606959819793701,-1.4671579599380493,7.9148945808410645
1757491401328838700,3.975838623046875,5.145761013031006,-2.0151257514953613,8.105339050292969
1757491401338878500,3.98587841796875,4.8133673667907715,-2.4112465381622314,8.200822830200195
1757491401348918800,3.995918701171875,4.512552261352539,-2.8830604553222656,8.219547271728516
1757491401358955800,4.005955810546875,4.354203701019287,-3.8230018615722656,7.915913105010986
1757491401369000200,4.016000244140625,4.019035816192627,-4.374520301818848,7.806859016418457
1757491401379036700,4.02603662109375,3.601635217666626,-4.959914684295654,7.659215450286865
1757491401389085400,4.03608544921875,3.1526522636413574,-5.541574478149414,7.455726623535156
1757491401399121400,4.046121337890625,2.7522470951080322,-6.071609020233154,7.197000026702881
1757491401409141500,4.0561416015625,2.470599889755249,-6.522668838500977,6.898334980010986
1757491401419202800,4.066202880859375,2.3469743728637695,-6.8873186111450195,6.579717636108398
1757491401429239300,4.0762392578125,2.3782052993774414,-7.1668195724487305,6.2623443603515625
1757491401439272400,4.0862724609375,2.52089786529541,-7.371518611907959,5.961703300476074
1757491401449324800,4.09632470703125,2.7242050170898438,-7.514876365661621,5.686954975128174
1757491401459365600,4.10636572265625,2.9369430541992188,-7.615356922149658,5.442134857177734
1757491401469408800,4.11640869140625,3.1332855224609375,-7.684325218200684,5.23161506652832
1757491401479442200,4.126442138671875,3.282822847366333,-7.72833776473999,5.072670936584473
1757491401489466400,4.13646630859375,3.370717763900757,-7.749025821685791,4.982666492462158
1757491401499523600,4.146523681640625,3.4135279655456543,-7.743924140930176,4.961409568786621
1757491401509555200,4.15655517578125,3.4185409545898438,-7.716298580169678,5.000842571258545
1757491401519608000,4.166608154296875,3.3784584999084473,-7.68003511428833,5.083228588104248
1757491401529649200,4.176649169921875,3.296355724334717,-7.645600318908691,5.187961101531982
1757491401539689500,4.186689453125,3.1853301525115967,-7.615868091583252,5.299842834472656
1757491401549719600,4.196719482421875,3.0466468334198,-7.586787700653076,5.421687126159668
1757491401559749000,4.2067490234375,2.8736636638641357,-7.5497212409973145,5.565959453582764
1757491401569807000,4.21680712890625,2.666667938232422,-7.498716831207275,5.735348224639893
1757491401579852000,4.22685205078125,2.430474042892456,-7.430819511413574,5.9255218505859375
1757491401589892000,4.23689208984375,2.0049960613250732,-7.205673694610596,6.347783088684082
1757491401599907800,4.246907958984375,1.7092739343643188,-7.115162372589111,6.53367805480957
1757491401609973200,4.25697314453125,1.442260503768921,-7.017317295074463,6.7017340660095215
1757491401619991300,4.2669912109375,1.2197800874710083,-6.959568023681641,6.805340766906738
1757491401630055000,4.277054931640625,1.031539797782898,-6.965503692626953,6.830357551574707
1757491401640072400,4.287072509765625,0.8459208011627197,-6.984067916870117,6.836909294128418
1757491401650135600,4.297135498046875,0.6435704827308655,-6.889000415802002,6.954394340515137
1757491401660172300,4.30717236328125,0.489128977060318,-6.734942436218262,7.115996360778809
1757491401670216400,4.317216552734375,0.21332953870296478,-6.66110372543335,7.1986308097839355
1757491401680257300,4.32725732421875,-0.04921046271920204,-6.546778202056885,7.305709362030029
1757491401690284000,4.337283935546875,-0.2780810296535492,-6.428627014160156,7.404832363128662
1757491401700334300,4.347334228515625,-0.3460470139980316,-6.478451728820801,7.358399391174316
1757491401710379300,4.357379150390625,-0.4964034855365753,-6.462891578674316,7.363474369049072
1757491401720417300,4.367417236328125,-0.5846116542816162,-6.469819068908691,7.350905895233154
1757491401730455800,4.377455810546875,-0.6319849491119385,-6.482212066650391,7.336051940917969
1757491401740497400,4.387497314453125,-0.6557170152664185,-6.494715690612793,7.322896480560303
1757491401760577300,4.407577392578125,-0.7229471206665039,-6.492847442626953,7.318223476409912
1757491401770597000,4.41759716796875,-0.7433720231056213,-6.484318256378174,7.323739528656006
1757491401780662800,4.427662841796875,-0.7377604842185974,-6.473684310913086,7.333704948425293
1757491401790703600,4.43770361328125,-0.712612509727478,-6.474271774291992,7.3356733322143555
1757491401800739800,4.44773974609375,-0.6763386726379395,-6.494427680969238,7.321276664733887
1757491401810784800,4.45778466796875,-0.6397041082382202,-6.538320541381836,7.285415172576904
1757491401820825000,4.4678251953125,-0.6365726590156555,-6.602611064910889,7.227476596832275
1757491401830860500,4.477860595703125,-0.6979848146438599,-6.69827127456665,7.133167743682861
1757491401840881400,4.48788134765625,-0.8394070267677307,-6.8179192543029785,7.003389358520508
1757491401850947000,4.497947021484375,-1.0180002450942993,-6.946773529052734,6.8514323234558105
1757491401860987400,4.5079873046875,-1.2525850534439087,-7.087139129638672,6.666305065155029
1757491401870982400,4.517982421875,-1.3212518692016602,-7.222259998321533,6.506104946136475
1757491401881043200,4.528043212890625,-1.308731198310852,-7.35887336730957,6.353764533996582
1757491401891105500,4.53810546875,-1.260998010635376,-7.477462291717529,6.223629951477051
1757491401901149700,4.548149658203125,-1.2306472063064575,-7.561704158782959,6.127175331115723
1757491401911190500,4.5581904296875,-1.245849370956421,-7.617626190185547,6.05440092086792
1757491401921232000,4.56823193359375,-1.3104256391525269,-7.651382923126221,5.997934818267822
1757491401931246000,4.57824609375,-1.3824148178100586,-7.681331634521484,5.943248271942139
1757491401941312800,4.588312744140625,-1.4528846740722656,-7.705006122589111,5.895601749420166
1757491401951352600,4.5983525390625,-1.535129189491272,-7.718218803405762,5.857353210449219
1757491401961389600,4.6083896484375,-1.6401063203811646,-7.720750331878662,5.825474262237549
1757491401971430700,4.6184306640625,-1.912226676940918,-7.550778865814209,5.963658332824707
1757491401981454000,4.6284541015625,-1.9372895956039429,-7.555227279663086,5.94992208480835
1757491401991513300,4.638513427734375,-1.6613855361938477,-7.461648464202881,6.148146152496338
1757491402001529300,4.648529296875,-1.6872358322143555,-7.444370269775391,6.162035942077637
1757491402011571200,4.6585712890625,-1.7492618560791016,-7.4212870597839355,6.172577381134033
1757491402021632300,4.66863232421875,-1.609132170677185,-7.3659586906433105,6.276103973388672
1757491402031640300,4.678640380859375,-1.440480351448059,-7.301859378814697,6.390931606292725
1757491402041695700,4.68869580078125,-1.341921091079712,-7.268091201782227,6.45059871673584
1757491402051754800,4.698754638671875,-1.3207098245620728,-7.224637508392334,6.503572940826416
1757491402061794600,4.708794677734375,-1.3018878698349,-7.144989490509033,6.594721794128418
1757491402071813400,4.7188134765625,-1.3141953945159912,-7.0220184326171875,6.723114013671875
1757491402081875700,4.728875732421875,-1.4016103744506836,-6.857222080230713,6.873871326446533
1757491402091895300,4.738895263671875,-1.5414910316467285,-6.6637187004089355,7.032408714294434
1757491402101935400,4.748935302734375,-1.6357755661010742,-6.465531349182129,7.194252014160156
1757491402112001300,4.759001220703125,-1.6655528545379639,-6.3040618896484375,7.329452991485596
1757491402122041000,4.769041015625,-1.7119548320770264,-6.2114787101745605,7.39749002456665
1757491402132057600,4.7790576171875,-1.7518996000289917,-6.179230213165283,7.415124416351318
1757491402142201000,4.789201171875,-1.7808356285095215,-6.190332889556885,7.39895486831665
1757491402152197000,4.799197021484375,-1.772666573524475,-6.215939998626709,7.379421710968018
1757491402162218500,4.809218505859375,-1.733741283416748,-6.251878261566162,7.358279705047607
1757491402172242200,4.8192421875,-1.6917840242385864,-6.302076816558838,7.325150489807129
1757491402182286300,4.829286376953125,-1.6615723371505737,-6.351097583770752,7.289642333984375
1757491402192326400,4.839326416015625,-1.632004976272583,-6.366535663604736,7.282849311828613
1757491402202367700,4.84936767578125,-1.60027015209198,-6.344669342041016,7.308928489685059
1757491402212403700,4.85940380859375,-1.5868273973464966,-6.295133590698242,7.354547500610352
1757491402222444500,4.869444580078125,-1.7993953227996826,-6.1707305908203125,7.41082763671875
1757491402232484000,4.879484130859375,-1.787574291229248,-6.105559825897217,7.467451572418213
1757491402242525700,4.889525634765625,-1.729967474937439,-6.062366485595703,7.51605224609375
1757491402252582400,4.89958251953125,-1.6564452648162842,-6.0533127784729,7.5398759841918945
1757491402262611000,4.90961083984375,-1.625226378440857,-6.062808036804199,7.539037704467773
1757491402272651500,4.919651611328125,-1.5922460556030273,-6.067640781402588,7.542190074920654
1757491402282666200,4.929666259765625,-1.4912707805633545,-6.115644454956055,7.5240349769592285
1757491402292733000,4.93973291015625,-1.425499439239502,-6.19295072555542,7.473382949829102
1757491402302773200,4.949773193359375,-1.4008187055587769,-6.289822101593018,7.396755218505859
1757491402312813800,4.959813720703125,-1.5174516439437866,-6.09359073638916,7.536682605743408
1757491402322854100,4.969854248046875,-1.5040439367294312,-6.300293445587158,7.367513179779053
1757491402332894700,4.979894775390625,-1.4863734245300293,-6.5573649406433105,7.14337158203125
1757491402342931700,4.989931640625,-1.4705654382705688,-6.831831455230713,6.884739398956299
1757491402352976400,4.999976318359375,-1.1412343978881836,-7.140048980712891,6.629735469818115
1757491402363017000,5.010016845703125,-1.098015546798706,-7.349905014038086,6.4038567543029785
1757491402373057300,5.020057373046875,-0.8704363107681274,-7.60085916519165,6.140472888946533
1757491402383093500,5.030093505859375,-0.7966749668121338,-7.741412162780762,5.972599983215332
1757491402393138700,5.040138671875,-0.726799726486206,-7.900771141052246,5.769377708435059
1757491402403175400,5.050175537109375,-0.8501524329185486,-8.012162208557129,5.596304416656494
1757491402413219800,5.0602197265625,-0.754896342754364,-8.208320617675781,5.318807601928711
1757491402423260700,5.0702607421875,-0.6406344175338745,-8.368560791015625,5.07866907119751
1757491402433300200,5.08030029296875,-0.556631863117218,-8.48418140411377,4.8933587074279785
1757491402443341600,5.090341552734375,-0.5378447771072388,-8.559844017028809,4.7619242668151855
1757491402453405200,5.1004052734375,-0.5668144822120667,-8.603617668151855,4.678952217102051
1757491402463420700,5.110420654296875,-0.5961207151412964,-8.621537208557129,4.6421799659729
1757491402473459200,5.120459228515625,-0.6053417921066284,-8.626995086669922,4.6308369636535645
1757491402483478300,5.130478271484375,-0.5811363458633423,-8.63076114654541,4.626918792724609
1757491402493542400,5.14054248046875,-0.561205267906189,-8.642650604248047,4.607144355773926
1757491402503585000,5.1505849609375,-0.6392056345939636,-8.415583610534668,5.000550270080566
1757491402513625600,5.16062548828125,-0.6699807047843933,-8.481749534606934,4.883355617523193
1757491402523667200,5.170667236328125,-0.6989732384681702,-8.5426607131958,4.771846294403076
1757491402533707300,5.180707275390625,-0.7877164483070374,-8.56350040435791,4.720389366149902
1757491402543743700,5.19074365234375,-0.7796449661254883,-8.591752052307129,4.6701273918151855
1757491402553788000,5.200787841796875,-0.7586031556129456,-8.61720085144043,4.626497745513916
1757491402563829200,5.210829345703125,-0.7191701531410217,-8.639259338378906,4.59152364730835
1757491402573870000,5.2208701171875,-0.6563956141471863,-8.644634246826172,4.5908122062683105
1757491402583909600,5.23090966796875,-0.5706600546836853,-8.619707107543945,4.648775577545166
1757491402593951500,5.240951416015625,-0.5136995315551758,-8.571213722229004,4.744105815887451
1757491402603991300,5.2509912109375,-0.5171577334403992,-8.49471378326416,4.879396915435791
1757491402614008000,5.261008056640625,-0.5455844402313232,-8.3988676071167,5.039592742919922
1757491402624072400,5.271072509765625,-0.5824275612831116,-8.309590339660645,5.181469440460205
1757491402634088000,5.281087890625,-0.6546928882598877,-8.250856399536133,5.266012668609619
1757491402644153900,5.29115380859375,-0.6595320105552673,-8.224098205566406,5.307102680206299
1757491402654194200,5.301194091796875,-0.6350427269935608,-8.210638046264648,5.330880641937256
1757491402664231700,5.311231689453125,-0.595601499080658,-8.206158638000488,5.342318058013916
1757491402674237400,5.321237548828125,-0.5511547923088074,-8.210844039916992,5.339889049530029
1757491402684316200,5.331316162109375,-0.5039740204811096,-8.225360870361328,5.3221755027771
1757491402694356500,5.3413564453125,-0.44850337505340576,-8.253546714782715,5.283362865447998
1757491402704401700,5.351401611328125,-0.4149000346660614,-8.302652359008789,5.208641052246094
1757491402714434600,5.3614345703125,-0.3333912789821625,-8.4364652633667,4.9950971603393555
1757491402724475000,5.371474853515625,-0.3245704770088196,-8.52009391784668,4.851680278778076
1757491402734516200,5.38151611328125,-0.32278767228126526,-8.606318473815918,4.697146892547607
1757491402744557000,5.39155712890625,-0.32298484444618225,-8.689709663391113,4.541003704071045
1757491402754596600,5.4015966796875,-0.3648313283920288,-8.746731758117676,4.426929473876953
1757491402764641000,5.41164111328125,-0.3716566562652588,-8.830316543579102,4.257174015045166
1757491402774659600,5.42165966796875,-0.37802746891975403,-8.906384468078613,4.095064163208008
1757491402784722400,5.431722412109375,-0.3682573735713959,-8.96789836883545,3.9594576358795166
1757491402794763000,5.441762939453125,-0.34361836314201355,-9.011679649353027,3.861046075820923
1757491402804803300,5.45180322265625,-0.33432888984680176,-9.041864395141602,3.790649175643921
1757491402814844700,5.4618447265625,-0.3494085669517517,-9.073192596435547,3.713653087615967
1757491402824892400,5.471892333984375,-0.44808661937713623,-9.008766174316406,3.857135057449341
1757491402834925300,5.48192529296875,-0.49510422348976135,-9.033245086669922,3.793612480163574
1757491402844962300,5.49196240234375,-0.535113513469696,-9.054818153381348,3.7363150119781494
1757491402855007000,5.502007080078125,-0.5480718016624451,-9.067938804626465,3.7024612426757812
1757491402865047600,5.512047607421875,-0.5357285141944885,-9.067298889160156,3.7058331966400146
1757491402875075000,5.522074951171875,-0.4604608118534088,-9.056838989257812,3.741356372833252
1757491402885128400,5.53212841796875,-0.43351301550865173,-9.041505813598633,3.781447649002075
1757491402895169500,5.54216943359375,-0.4494246244430542,-9.03318977355957,3.799421548843384
1757491402905209900,5.5522099609375,-0.4575294554233551,-8.985466003417969,3.9100067615509033
1757491402915247400,5.562247314453125,-0.4598637819290161,-8.913860321044922,4.0703444480896
1757491402925268000,5.57226806640625,-0.46547698974609375,-8.908520698547363,4.081383228302002
1757491402935331600,5.58233154296875,-0.4595777094364166,-8.897163391113281,4.106751918792725
1757491402945373000,5.592373046875,-0.43382322788238525,-8.78208065032959,4.350053787231445
1757491402955411500,5.602411376953125,-0.4214664399623871,-8.759336471557617,4.396872520446777
1757491402965449500,5.612449462890625,-0.3963642120361328,-8.740799903869629,4.435927391052246
1757491402975469000,5.622468994140625,-0.4071137309074402,-8.760175704956055,4.396555423736572
1757491402985531100,5.63253125,-0.4092710614204407,-8.815093994140625,4.285178184509277
1757491402995575800,5.642575927734375,-0.41079089045524597,-8.877620697021484,4.153941631317139
1757491403005616000,5.6526162109375,-0.4568241238594055,-8.927886009216309,4.039834022521973
1757491403015631000,5.662631103515625,-0.5445559024810791,-8.964986801147461,3.9457054138183594
1757491403025697300,5.672697265625,-0.6421475410461426,-8.998839378356934,3.8528788089752197
1757491403035738000,5.682738037109375,-0.70133376121521,-9.039531707763672,3.745809316635132
1757491403045778700,5.69277880859375,-0.6990965008735657,-9.07805347442627,3.6518959999084473
1757491403055819500,5.702819580078125,-0.6780433058738708,-9.107593536376953,3.581634521484375
1757491403065859000,5.712859130859375,-0.6756618618965149,-9.137282371520996,3.50566029548645
1757491403075874800,5.722874755859375,-0.6736946105957031,-9.167608261108398,3.4259610176086426
1757491403085941000,5.73294091796875,-0.6554927825927734,-9.19633674621582,3.351694107055664
1757491403095981800,5.74298193359375,-0.5989630818367004,-9.214317321777344,3.3126630783081055
1757491403106023200,5.753023193359375,-0.5092998147010803,-9.225261688232422,3.2971620559692383
1757491403116061700,5.763061767578125,-0.3882177174091339,-9.233657836914062,3.290133476257324
1757491403126100500,5.7731005859375,-0.2612980306148529,-9.233613014221191,3.3027608394622803
1757491403136140300,5.783140380859375,-0.12962956726551056,-9.24024486541748,3.2919907569885254
1757491403146159600,5.79315966796875,0.029704587534070015,-9.253556251525879,3.256828546524048
1757491403156222500,5.803222412109375,0.19673572480678558,-9.275064468383789,3.1891372203826904
1757491403166262000,5.813261962890625,0.3904642164707184,-9.301801681518555,3.0919437408447266
1757491403176293000,5.823293212890625,0.6146546602249146,-9.328081130981445,2.974090576171875
1757491403186347800,5.83334765625,0.798000693321228,-9.36756420135498,2.8014352321624756
1757491403196389000,5.84338916015625,0.9342756271362305,-9.41637897491455,2.5874826908111572
1757491403206390300,5.853390380859375,1.0204306840896606,-9.475132942199707,2.327380418777466
1757491403216466000,5.8634658203125,1.058147668838501,-9.542492866516113,2.0142691135406494
1757491403226489600,5.873489501953125,1.0561763048171997,-9.612730979919434,1.6480337381362915
1757491403236538000,5.8835380859375,1.023880124092102,-9.675183296203613,1.25642728805542
1757491403246591500,5.893591552734375,0.9852170944213867,-9.72138786315918,0.8718193173408508
1757491403256632300,5.90363232421875,0.9735527038574219,-9.748209953308105,0.5106149911880493
1757491403266673000,5.9136728515625,1.010094165802002,-9.756279945373535,0.17559422552585602
1757491403276690400,5.9236904296875,1.0706214904785156,-9.750617027282715,-0.12390542775392532
1757491403286750000,5.93375,1.1244837045669556,-9.737714767456055,-0.3854585587978363
1757491403296790500,5.94379052734375,1.1251986026763916,-9.725894927978516,-0.6140217185020447
1757491403306835200,5.953835205078125,1.062395691871643,-9.719038009643555,-0.8048343062400818
1757491403316875800,5.963875732421875,0.9885167479515076,-9.725052833557129,-0.8260118961334229
1757491403326891300,5.973891357421875,0.9416199326515198,-9.741484642028809,-0.6730318069458008
1757491403336957000,5.98395703125,0.9213810563087463,-9.754905700683594,-0.4785460829734802
1757491403346997800,5.993997802734375,0.9257070422172546,-9.761750221252441,-0.2956741154193878
1757491403357034800,6.00403466796875,0.9318751096725464,-9.764402389526367,-0.15549325942993164
1757491403367079700,6.01407958984375,0.9313421249389648,-9.765508651733398,-0.059662360697984695
1757491403377115100,6.024115234375,0.9258550405502319,-9.766214370727539,-0.0011893237242475152
1757491403387160300,6.034160400390625,0.9223341345787048,-9.766536712646484,0.01371493749320507
1757491403397175600,6.044175537109375,0.9296715259552002,-9.765838623046875,-0.015024129301309586
1757491403407242000,6.054241943359375,0.9292734861373901,-9.760869026184082,-0.31305408477783203
1757491403417282300,6.0642822265625,0.9485296607017517,-9.75520133972168,-0.4152754247188568
1757491403427301400,6.07430126953125,0.9568905234336853,-9.74071979522705,-0.6624626517295837
1757491403437364500,6.084364501953125,1.0374219417572021,-9.724556922912598,-0.7699821591377258
1757491403447410000,6.094409912109375,1.073535442352295,-9.719524383544922,-0.7838894724845886
1757491403457441000,6.10444091796875,1.084391474723816,-9.721345901489258,-0.745428204536438
1757491403467482600,6.114482666015625,1.1218000650405884,-9.716867446899414,-0.7484471201896667
1757491403477500700,6.124500732421875,1.1603859663009644,-9.708953857421875,-0.791106104850769
1757491403487563300,6.134563232421875,1.2129844427108765,-9.698270797729492,-0.8416298627853394
1757491403497608000,6.14460791015625,1.2629964351654053,-9.690778732299805,-0.8542580604553223
1757491403507648300,6.154648193359375,1.2922998666763306,-9.690902709960938,-0.807781457901001
1757491403517684700,6.164684814453125,1.2838462591171265,-9.698822975158691,-0.7216037511825562
1757491403527722200,6.17472216796875,1.2390621900558472,-9.712092399597168,-0.6132791042327881
1757491403537770000,6.18477001953125,1.2486982345581055,-9.710840225219727,-0.613563597202301
1757491403547811000,6.19481103515625,1.381617784500122,-9.682229042053223,-0.7626783847808838
1757491403557847600,6.20484765625,1.4781582355499268,-9.65329647064209,-0.9300689697265625
1757491403567892500,6.214892578125,1.5484840869903564,-9.61988353729248,-1.1384897232055664
1757491403577907500,6.224907470703125,1.6043123006820679,-9.582558631896973,-1.3553147315979004
1757491403587969800,6.2349697265625,1.668869137763977,-9.538148880004883,-1.5731185674667358
1757491403598014200,6.24501416015625,1.7577794790267944,-9.4862060546875,-1.7771410942077637
1757491403618076400,6.265076416015625,1.853858232498169,-9.405416488647461,-2.0826613903045654
1757491403628132000,6.275132080078125,1.8477144241333008,-9.391467094421387,-2.1499757766723633
1757491403638176800,6.2851767578125,1.8063640594482422,-9.39798641204834,-2.1566240787506104
1757491403648217900,6.2952177734375,1.7311792373657227,-9.423738479614258,-2.1052985191345215
1757491403658237000,6.30523681640625,1.6346588134765625,-9.460214614868164,-2.0170116424560547
1757491403668296400,6.31529638671875,1.7239928245544434,-9.436532020568848,-2.0532443523406982
1757491403678335700,6.325335693359375,1.6638672351837158,-9.483488082885742,-1.8791253566741943
1757491403688380400,6.33538037109375,1.6494203805923462,-9.517963409423828,-1.7099369764328003
1757491403698418400,6.34541845703125,1.6763877868652344,-9.537174224853516,-1.5710294246673584
1757491403708457700,6.355457763671875,1.7302392721176147,-9.543999671936035,-1.4678082466125488
1757491403718514400,6.365514404296875,1.7755703926086426,-9.542525291442871,-1.4225624799728394
1757491403728539000,6.375538818359375,1.7935820817947388,-9.538390159606934,-1.42769455909729
1757491403738558000,6.385557861328125,1.7912395000457764,-9.537359237670898,-1.4374784231185913
1757491403748620300,6.395620361328125,1.7727504968643188,-9.54224967956543,-1.4279202222824097
1757491403758665200,6.405665283203125,1.7458851337432861,-9.552488327026367,-1.3921098709106445
1757491403768681500,6.415681396484375,1.717606544494629,-9.567397117614746,-1.3231936693191528
1757491403778748000,6.425747802734375,1.6851829290390015,-9.587115287780762,-1.2179940938949585
1757491403788761300,6.43576123046875,1.6393054723739624,-9.611532211303711,-1.0803945064544678
1757491403798823700,6.44582373046875,1.5739237070083618,-9.639999389648438,-0.9106553196907043
1757491403808864300,6.4558642578125,1.4997949600219727,-9.666854858398438,-0.7339299917221069
1757491403818909200,6.4659091796875,1.425337553024292,-9.689374923706055,-0.5661718845367432
1757491403828940500,6.4759404296875,1.369839072227478,-9.705111503601074,-0.4128599166870117
1757491403838990300,6.485990234375,1.33217191696167,-9.715428352355957,-0.26810041069984436
1757491403849031000,6.496031005859375,1.3093316555023193,-9.721405029296875,-0.12665551900863647
1757491403859071700,6.50607177734375,1.305580496788025,-9.722731590270996,0.007718909531831741
1757491403869112300,6.5161123046875,1.3059604167938232,-9.721418380737305,0.156852588057518
1757491403879128800,6.52612890625,1.299560785293579,-9.719855308532715,0.2677181363105774
1757491403889189600,6.536189697265625,1.3225716352462769,-9.715213775634766,0.31866127252578735
1757491403899234300,6.546234375,1.3354321718215942,-9.711734771728516,0.3673548400402069
1757491403909249300,6.556249267578125,1.2619510889053345,-9.718762397766113,0.43503475189208984
1757491403919315700,6.566315673828125,1.2622051239013672,-9.719965934753418,0.40648382902145386
1757491403929313000,6.57631298828125,1.2641931772232056,-9.720319747924805,0.39157313108444214
1757491403939371800,6.586371826171875,1.2731338739395142,-9.719018936157227,0.394847571849823
1757491403949412400,6.596412353515625,1.2807568311691284,-9.717655181884766,0.4037093222141266
1757491403959458300,6.606458251953125,1.2822002172470093,-9.71716022491455,0.4109756648540497
1757491403969495000,6.6164951171875,1.276014804840088,-9.717909812927246,0.4124789834022522
1757491403979534600,6.62653466796875,1.2613786458969116,-9.720147132873535,0.40471622347831726
1757491403989584400,6.63658447265625,1.2413256168365479,-9.723511695861816,0.38543325662612915
1757491403999625000,6.646625,1.2194104194641113,-9.727094650268555,0.36437246203422546
1757491404009642800,6.656642822265625,1.2125587463378906,-9.728034973144531,0.36212143301963806
1757491404019723000,6.666722900390625,1.2142126560211182,-9.72785758972168,0.36139580607414246
1757491404029745000,6.676744873046875,1.2213506698608398,-9.730260848999023,0.2577749490737915
1757491404039803600,6.6868037109375,1.2073543071746826,-9.735103607177734,-0.07865630835294724
1757491404049844700,6.6968447265625,1.2893092632293701,-9.717330932617188,-0.3837687075138092
1757491404059885300,6.70688525390625,1.518143892288208,-9.671459197998047,-0.6278820633888245
1757491404069900500,6.716900634765625,1.609977126121521,-9.639549255371094,-0.8504025340080261
1757491404079957500,6.72695751953125,1.6927297115325928,-9.603819847106934,-1.0665143728256226
1757491404089982000,6.73698193359375,1.7433133125305176,-9.562661170959473,-1.3238143920898438
1757491404100063000,6.74706298828125,1.7929859161376953,-9.506361961364746,-1.6280077695846558
1757491404110088400,6.75708837890625,1.8386969566345215,-9.433650016784668,-1.9650840759277344
1757491404120084000,6.767083984375,1.9665982723236084,-9.293315887451172,-2.4500784873962402
1757491404130144500,6.77714453125,2.028717517852783,-9.209066390991211,-2.7043516635894775
1757491404140166100,6.787166259765625,2.1166203022003174,-9.129493713378906,-2.899719715118408
1757491404150226000,6.797225830078125,2.234440326690674,-9.0562105178833,-3.0378355979919434
1757491404160245200,6.807245361328125,2.3801560401916504,-8.993559837341309,-3.112372398376465
1757491404170306800,6.817306884765625,2.509368896484375,-8.951953887939453,-3.130767822265625
1757491404190412000,6.837412109375,2.61421275138855,-8.962039947509766,-3.0139410495758057
1757491404200451000,6.847451171875,2.6427268981933594,-8.964764595031738,-2.9807910919189453
1757491404210492700,6.85749267578125,2.6656579971313477,-8.963921546936035,-2.962852716445923
1757491404220534500,6.867534423828125,2.6893014907836914,-8.9595308303833,-2.9547572135925293
1757491404230551000,6.877551025390625,2.7079784870147705,-8.950754165649414,-2.9642815589904785
1757491404240614700,6.88761474609375,2.7212331295013428,-8.943191528320312,-2.974951982498169
1757491404250658300,6.897658203125,2.7255706787109375,-8.93999195098877,-2.980591297149658
1757491404260674300,6.90767431640625,2.653069019317627,-8.9766845703125,-2.935382843017578
1757491404270719500,6.917719482421875,2.6329150199890137,-8.983403205871582,-2.932971477508545
1757491404300836600,6.947836669921875,2.476076602935791,-9.041594505310059,-2.8904576301574707
1757491404310902800,6.95790283203125,2.4049580097198486,-9.072720527648926,-2.8527231216430664
1757491404320919800,6.967919921875,2.3213541507720947,-9.110021591186523,-2.802663803100586
1757491404330980400,6.97798046875,2.233335018157959,-9.153511047363281,-2.7315902709960938
1757491404341024500,6.9880244140625,2.0381598472595215,-9.24694538116455,-2.5643768310546875
1757491404351065300,6.9980654296875,1.9357140064239502,-9.291994094848633,-2.4795122146606445
1757491404361080600,7.00808056640625,1.8314663171768188,-9.332803726196289,-2.4042882919311523
1757491404371146500,7.018146484375,1.7235373258590698,-9.374369621276855,-2.320932388305664
1757491404381187300,7.028187255859375,1.5982283353805542,-9.422320365905762,-2.2139675617218018
1757491404391224300,7.038224365234375,1.4327975511550903,-9.479217529296875,-2.08030104637146
1757491404401235000,7.04823486328125,1.2167909145355225,-9.544483184814453,-1.9126906394958496
1757491404411284000,7.058283935546875,0.9585390090942383,-9.609979629516602,-1.7220933437347412
1757491404421324800,7.06832470703125,0.6729559898376465,-9.667669296264648,-1.5229607820510864
1757491404431409400,7.078409423828125,0.37517228722572327,-9.713950157165527,-1.317015528678894
1757491404441428200,7.08842822265625,0.07197296619415283,-9.749519348144531,-1.0852645635604858
1757491404451468500,7.098468505859375,-0.22293855249881744,-9.773399353027344,-0.8167375326156616
1757491404461510700,7.1085107421875,-0.49905210733413696,-9.783876419067383,-0.5126859545707703
1757491404471550200,7.11855029296875,-0.7453595399856567,-9.77996826171875,-0.18104355037212372
1757491404481554700,7.1285546875,-0.9369564056396484,-9.763631820678711,0.17235268652439117
1757491404491634700,7.138634765625,-1.0564420223236084,-9.738170623779297,0.5367336869239807
1757491404501650200,7.148650146484375,-1.1222596168518066,-9.70393180847168,0.9001991152763367
1757491404511714300,7.15871435546875,-1.1845370531082153,-9.657524108886719,1.2510912418365479
1757491404521755100,7.168755126953125,-1.2912118434906006,-9.594385147094727,1.5864025354385376
1757491404531776500,7.178776611328125,-1.4575697183609009,-9.51314926147461,1.900423526763916
1757491404541813200,7.188813232421875,-1.6649882793426514,-9.413150787353516,2.203752279281616
1757491404551877600,7.198877685546875,-1.882368803024292,-9.29417896270752,2.512173891067505
1757491404561918500,7.20891845703125,-2.092200517654419,-9.16188907623291,2.8140063285827637
1757491404571960600,7.218960693359375,-2.285256862640381,-9.024774551391602,3.0930821895599365
1757491404582002000,7.229001953125,-2.4690399169921875,-8.892435073852539,3.3263463973999023
1757491404592061000,7.23906103515625,-2.655013084411621,-8.763592720031738,3.519444227218628
1757491404602059800,7.249059814453125,-2.835601806640625,-8.640118598937988,3.6801950931549072
1757491404612196000,7.259196044921875,-2.986873149871826,-8.61859130859375,3.6103436946868896
1757491404622217700,7.2692177734375,-3.141141414642334,-8.550734519958496,3.6406409740448
1757491404632215600,7.279215576171875,-3.2790210247039795,-8.425108909606934,3.808107614517212
1757491404642242000,7.289241943359375,-3.4132964611053467,-8.299637794494629,3.9625184535980225
1757491404652264200,7.29926416015625,-3.543207883834839,-8.178345680236816,4.098348140716553
1757491404662327800,7.309327880859375,-3.658172607421875,-8.06047248840332,4.228792190551758
1757491404672343000,7.319343017578125,-3.764920234680176,-7.94872522354126,4.345024585723877
1757491404682407700,7.32940771484375,-3.8677468299865723,-7.843636512756348,4.444550037384033
1757491404692446000,7.339446044921875,-3.962924003601074,-7.744605541229248,4.533479690551758
1757491404702470400,7.349470458984375,-4.049086570739746,-7.6544389724731445,4.609835147857666
1757491404712527400,7.35952734375,-4.124849796295166,-7.576359272003174,4.671242713928223
1757491404722550800,7.36955078125,-4.189528942108154,-7.506487846374512,4.726163864135742
1757491404732613000,7.379613037109375,-4.23823356628418,-7.442017555236816,4.784337997436523
1757491404742653700,7.38965380859375,-4.278024673461914,-7.383691787719727,4.838978290557861
1757491404752710000,7.3997099609375,-4.315922260284424,-7.33263635635376,4.882762432098389
1757491404762735000,7.409735107421875,-4.356912136077881,-7.2830634117126465,4.920411586761475
1757491404772750000,7.41975,-4.402221202850342,-7.233442306518555,4.9531707763671875
1757491404782816300,7.429816162109375,-4.447934150695801,-7.186089992523193,4.981173992156982
1757491404792835800,7.4398359375,-4.490657806396484,-7.140816688537598,5.007880210876465
1757491404802876400,7.44987646484375,-4.525650501251221,-7.097132682800293,5.038388252258301
1757491404812938800,7.459938720703125,-4.546860218048096,-7.055370807647705,5.077785491943359
1757491404823001000,7.4700009765625,-4.549257755279541,-7.018298625946045,5.126779079437256
1757491404833020200,7.480020263671875,-4.594451427459717,-6.876413822174072,5.276559352874756
1757491404843057000,7.490056884765625,-4.569314002990723,-6.850405216217041,5.331928253173828
1757491404853075700,7.50007568359375,-4.5381574630737305,-6.83030891418457,5.384061336517334
1757491404863142100,7.51014208984375,-4.5149664878845215,-6.8155341148376465,5.422149658203125
1757491404873176600,7.520176513671875,-4.504223346710205,-6.810233116149902,5.437723159790039
1757491404883179800,7.5301796875,-4.501996040344238,-6.820420265197754,5.426790714263916
1757491404893264600,7.5402646484375,-4.522939205169678,-6.853116989135742,5.367862224578857
1757491404903305200,7.55030517578125,-4.549363613128662,-6.908040523529053,5.27431583404541
1757491404913320700,7.56032080078125,-4.569316387176514,-6.983290672302246,5.156656265258789
1757491404923411200,7.5704111328125,-4.5705647468566895,-7.077387809753418,5.025595664978027
1757491404933426000,7.580426025390625,-4.543657302856445,-7.184170722961426,4.8968329429626465
1757491404943464200,7.590464111328125,-4.4892578125,-7.305715560913086,4.765413761138916
1757491404953467100,7.600467041015625,-4.398125171661377,-7.444508075714111,4.633782863616943
1757491404963545000,7.610545166015625,-4.259310722351074,-7.595599174499512,4.516777038574219
1757491404973590500,7.620590576171875,-4.059276580810547,-7.762079238891602,4.416845321655273
1757491404983631400,7.63063134765625,-3.864497184753418,-7.910220623016357,4.32783842086792
1757491404993671700,7.640671630859375,-3.676779270172119,-8.050660133361816,4.231344699859619
1757491405003683000,7.65068310546875,-3.5111098289489746,-8.17807388305664,4.126419544219971
1757491405013753000,7.660753173828125,-3.355177402496338,-8.296692848205566,4.017932891845703
1757491405023751700,7.670751708984375,-3.215974807739258,-8.430276870727539,3.850205659866333
1757491405033831000,7.680830810546875,-3.026736259460449,-8.550236701965332,3.7374346256256104
1757491405043875600,7.69087548828125,-2.8232314586639404,-8.661775588989258,3.6385622024536133
1757491405053878000,7.7008779296875,-2.615027666091919,-8.767260551452637,3.5401804447174072
1757491405063957000,7.71095703125,-2.4061267375946045,-8.866247177124023,3.440397262573242
1757491405073994000,7.720993896484375,-2.2070231437683105,-8.95572280883789,3.3406851291656494
1757491405084039200,7.7310390625,-2.024635076522827,-9.034883499145508,3.2415857315063477
1757491405094054000,7.741053955078125,-1.861750602722168,-9.1052885055542,3.140655517578125
1757491405104095000,7.751094970703125,-1.7168344259262085,-9.16942310333252,3.0348427295684814
1757491405114160600,7.76116064453125,-1.5838043689727783,-9.230802536010742,2.918895959854126
1757491405124182300,7.771182373046875,-1.1384295225143433,-9.28157901763916,2.965203285217285
1757491405134242600,7.78124267578125,-1.0152465105056763,-9.340575218200684,2.8211746215820312
1757491405144279300,7.791279296875,-0.8973866701126099,-9.39835262298584,2.6649177074432373
1757491405154298600,7.801298583984375,-0.7800989747047424,-9.4530668258667,2.5034165382385254
1757491405164363300,7.81136328125,-0.6496068239212036,-9.502401351928711,2.3491454124450684
1757491405174382600,7.821382568359375,-0.4543485641479492,-9.533045768737793,2.269526720046997
1757491405184442400,7.8314423828125,-0.3410618305206299,-9.573110580444336,2.115506410598755
1757491405194483700,7.841483642578125,-0.22852513194084167,-9.60923957824707,1.961228847503662
1757491405204506000,7.851506103515625,-0.11423910409212112,-9.639829635620117,1.8156917095184326
1757491405214564400,7.861564453125,-0.0016110541764646769,-9.66528034210205,1.6788363456726074
1757491405224600000,7.87160009765625,0.10466428846120834,-9.686335563659668,1.5492182970046997
1757491405234650000,7.881650146484375,0.21466489136219025,-9.703446388244629,1.425889492034912
1757491405244690400,7.8916904296875,0.2248273491859436,-9.69684886932373,1.4685598611831665
1757491405254706000,7.901705810546875,0.3136309087276459,-9.69546890258789,1.4613900184631348
1757491405264764200,7.91176416015625,0.44354158639907837,-9.702849388122559,1.3762626647949219
1757491405274787300,7.921787353515625,0.5800752639770508,-9.705348014831543,1.306084394454956
1757491405284832800,7.931832763671875,0.715360701084137,-9.703819274902344,1.249108910560608
1757491405294894800,7.941894775390625,0.8494873046875,-9.699016571044922,1.2014774084091187
1757491405304910800,7.951910888671875,0.9828886389732361,-9.692837715148926,1.1484566926956177
1757491405314950400,7.961950439453125,1.101904034614563,-9.686858177185059,1.0893620252609253
1757491405324991700,7.97199169921875,1.2025012969970703,-9.681795120239258,1.0261273384094238
1757491405335057400,7.982057373046875,1.26801598072052,-9.680639266967773,0.9557552337646484
1757491405345073000,7.992072998046875,1.1907650232315063,-9.692960739135742,0.92989182472229
1757491405355135200,8.00213525390625,0.8195697665214539,-9.708982467651367,1.140205979347229
1757491405365179600,8.0121796875,0.6711650490760803,-9.707619667053223,1.2440931797027588
1757491405375240400,8.022240478515625,0.7056836485862732,-9.711910247802734,1.1903446912765503
1757491405385261600,8.032261474609374,0.7348301410675049,-9.715927124023438,1.1388131380081177
1757491405395302100,8.04230224609375,0.753628671169281,-9.719836235046387,1.092221975326538
1757491405405343000,8.052343017578124,0.7657855749130249,-9.723660469055176,1.0488560199737549
1757491405415384300,8.06238427734375,0.7729642391204834,-9.727720260620117,1.0050463676452637
1757491405425422600,8.072422607421874,0.7777051329612732,-9.73215103149414,0.9573652148246765
1757491405435440000,8.082440185546876,0.7909660339355469,-9.744231224060059,0.8126650452613831
1757491405445484800,8.09248486328125,0.8297434449195862,-9.74950885772705,0.7033525109291077
1757491405455522000,8.10252197265625,0.8614510297775269,-9.751670837402344,0.631607174873352
1757491405465587700,8.112587646484375,0.9067550897598267,-9.752321243286133,0.5532854795455933
1757491405475646700,8.122646728515624,0.9584075212478638,-9.751603126525879,0.4730885922908783
1757491405485643800,8.132643798828125,1.0093110799789429,-9.750151634216309,0.3898043632507324
1757491405495709700,8.142709716796874,1.0624383687973022,-9.747568130493164,0.3037581741809845
1757491405505725000,8.152724853515625,1.1187260150909424,-9.743436813354492,0.22360484302043915
1757491405515787300,8.162787353515625,1.1695878505706787,-9.73878002166748,0.15607008337974548
1757491405525832400,8.17283251953125,1.2104716300964355,-9.734521865844727,0.09971198439598083
1757491405535872500,8.18287255859375,1.2368168830871582,-9.731575965881348,0.05315352976322174
1757491405545913900,8.192913818359376,1.2443045377731323,-9.730743408203125,0.02103535830974579
1757491405555954700,8.20295458984375,1.2332849502563477,-9.732161521911621,0.012560112401843071
1757491405565994800,8.212994873046876,1.2034013271331787,-9.735857963562012,0.03207344189286232
1757491405576036600,8.22303662109375,1.154860019683838,-9.741512298583984,0.07324690371751785
1757491405586074600,8.23307470703125,1.0862314701080322,-9.748856544494629,0.12655596435070038
1757491405596092200,8.243092041015625,0.993145227432251,-9.757768630981445,0.18899516761302948
1757491405606154800,8.25315478515625,0.8722670674324036,-9.767509460449219,0.2664903700351715
1757491405616194800,8.26319482421875,0.7186028361320496,-9.776639938354492,0.3702053725719452
1757491405626238000,8.273238037109374,0.5270366072654724,-9.782544136047363,0.5100874304771423
1757491405636279000,8.283279052734375,0.3006354868412018,-9.780932426452637,0.6921644806861877
1757491405646322000,8.293322021484375,0.057587914168834686,-9.766746520996094,0.9184169173240662
1757491405656359200,8.303359130859375,-0.1720324009656906,-9.736661911010742,1.184881329536438
1757491405666399700,8.313399658203124,-0.3667107820510864,-9.689769744873047,1.4866087436676025
1757491405676428500,8.323428466796875,-0.516960084438324,-9.62738037109375,1.8117375373840332
1757491405686466300,8.33346630859375,-0.6326932907104492,-9.550532341003418,2.150156021118164
1757491405696524500,8.343524658203124,-0.7396937012672424,-9.457202911376953,2.5000526905059814
1757491405706556200,8.35355615234375,-0.867641031742096,-9.343043327331543,2.861968994140625
1757491405716585500,8.36358544921875,-1.0284072160720825,-9.206883430480957,3.2267282009124756
1757491405726643500,8.3736435546875,-1.2010949850082397,-9.057204246520996,3.5721921920776367
1757491405736644400,8.383644287109375,-1.3587207794189453,-8.907367706298828,3.8792824745178223
1757491405746725400,8.393725341796875,-1.495909571647644,-8.757940292358398,4.158951282501221
1757491405756770000,8.40377001953125,-1.5185246467590332,-8.703530311584473,4.263656139373779
1757491405766785500,8.41378564453125,-1.33827543258667,-8.7892484664917,4.146595478057861
1757491405776844800,8.4238447265625,-1.3453423976898193,-8.746098518371582,4.234610557556152
1757491405786892300,8.433892333984375,-1.3025985956192017,-8.720417022705078,4.300429821014404
1757491405796948500,8.443948486328125,-1.4329882860183716,-8.592470169067383,4.511329174041748
1757491405806973700,8.4539736328125,-1.6095736026763916,-8.437797546386719,4.738033771514893
1757491405817028400,8.4640283203125,-1.7789602279663086,-8.281845092773438,4.947978496551514
1757491405827029800,8.47402978515625,-1.9366850852966309,-8.130936622619629,5.135492324829102
1757491405837096200,8.48409619140625,-2.0919036865234375,-7.986972332000732,5.297954559326172
1757491405847111200,8.494111083984375,-2.252643346786499,-7.8469414710998535,5.439414024353027
1757491405857173800,8.504173828125,-2.4206318855285645,-7.7154130935668945,5.554194450378418
1757491405867218400,8.514218505859375,-2.5996358394622803,-7.595609664916992,5.637795448303223
1757491405877240300,8.524240234375,-2.771981954574585,-7.483421802520752,5.70531702041626
1757491405887295700,8.534295654296875,-2.9263665676116943,-7.3804402351379395,5.762081623077393
1757491405897315600,8.544315673828125,-3.0488576889038086,-7.2923808097839355,5.810486793518066
1757491405907356000,8.55435595703125,-3.145822048187256,-7.222099781036377,5.8464674949646
1757491405917393000,8.564392822265624,-3.2149431705474854,-7.170139312744141,5.872762203216553
1757491405927426800,8.5744267578125,-3.2567903995513916,-7.133465766906738,5.894324779510498
1757491405937466000,8.584466064453125,-3.2785065174102783,-7.108059406280518,5.9129509925842285
1757491405947571500,8.594571533203125,-3.286099672317505,-7.090364456176758,5.929955005645752
1757491405957581000,8.6045810546875,-3.2833778858184814,-7.07842493057251,5.94570779800415
1757491405967625700,8.614625732421874,-3.270582914352417,-7.070617198944092,5.962028980255127
1757491405977646300,8.624646240234375,-3.252210855484009,-7.065164089202881,5.97852087020874
1757491405987703300,8.634703369140626,-3.231720447540283,-7.062131881713867,5.993195533752441
1757491405997766100,8.64476611328125,-3.2108869552612305,-7.062128067016602,6.004388332366943
1757491406007788800,8.654788818359375,-3.1851165294647217,-7.062406539916992,6.0177717208862305
1757491406027830800,8.674830810546876,-3.1508634090423584,-7.091827392578125,6.001180171966553
1757491406037911300,8.684911376953124,-3.139031171798706,-7.129751682281494,5.9623188972473145
1757491406047927600,8.694927490234376,-3.1199827194213867,-7.18533992767334,5.905313491821289
1757491406057992000,8.704991943359374,-3.0987794399261475,-7.261119365692139,5.82321310043335
1757491406068008200,8.71500830078125,-3.069544553756714,-7.362109184265137,5.71081018447876
1757491406078074000,8.72507421875,-3.017334222793579,-7.491479396820068,5.568624496459961
1757491406088115200,8.735115234375,-2.925525188446045,-7.645281791687012,5.406211853027344
1757491406098128100,8.745128173828125,-3.2619402408599854,-7.872213840484619,4.860461235046387
1757491406108196000,8.755196044921876,-3.097332715988159,-8.054327964782715,4.665883541107178
1757491406118218500,8.765218505859375,-2.927705764770508,-8.22037410736084,4.4821977615356445
1757491406128278300,8.7752783203125,-2.7454981803894043,-8.37212085723877,4.31346321105957
1757491406138318800,8.78531884765625,-2.5635182857513428,-8.51185417175293,4.148838520050049
1757491406148353500,8.795353515625,-2.4147825241088867,-8.626740455627441,3.9980382919311523
1757491406158406000,8.805406005859375,-2.2952420711517334,-8.717246055603027,3.8700897693634033
1757491406168425700,8.81542578125,-2.1952199935913086,-8.792289733886719,3.7566981315612793
1757491406178478300,8.825478271484375,-2.0887086391448975,-8.840659141540527,3.7035324573516846
1757491406188519700,8.835519775390624,-2.0154683589935303,-8.904450416564941,3.5895373821258545
1757491406198573300,8.8455732421875,-1.9272762537002563,-8.973211288452148,3.4645659923553467
1757491406208578800,8.855578857421875,-1.8144376277923584,-9.049966812133789,3.322956085205078
1757491406218619400,8.865619384765624,-1.6828927993774414,-9.130926132202148,3.1670475006103516
1757491406228685800,8.875685791015625,-1.5359820127487183,-9.210634231567383,3.006845474243164
1757491406238704400,8.885704345703125,-1.3770921230316162,-9.28463363647461,2.8522496223449707
1757491406248767500,8.895767578125,-1.195255160331726,-9.350028038024902,2.7174386978149414
1757491406258792200,8.905792236328125,-1.0359851121902466,-9.407098770141602,2.5825090408325195
1757491406268807400,8.915807373046874,-0.888726532459259,-9.454874038696289,2.4600093364715576
1757491406278873600,8.92587353515625,-0.7574395537376404,-9.49466609954834,2.3481264114379883
1757491406288914400,8.93591455078125,-0.6399935483932495,-9.528631210327148,2.2431461811065674
1757491406298971400,8.945971435546875,-0.5353640913963318,-9.559298515319824,2.137596845626831
1757491406308993000,8.955992919921876,-0.44673168659210205,-9.589653968811035,2.0186855792999268
1757491406319021600,8.966021484375,-0.37300968170166016,-9.620512008666992,1.8822067975997925
1757491406329077500,8.976077392578125,-0.40313777327537537,-9.561924934387207,2.1547985076904297
1757491406339118300,8.986118408203126,-0.34944307804107666,-9.592046737670898,2.0264813899993896
1757491406349175300,8.99617529296875,-0.2859809100627899,-9.617008209228516,1.9150681495666504
1757491406359216400,9.00621630859375,-0.21691679954528809,-9.638073921203613,1.8156505823135376
1757491406369231600,9.016231689453125,-0.1431380957365036,-9.655754089355469,1.7268664836883545
1757491406379297800,9.0262978515625,-0.06565839052200317,-9.670801162719727,1.6454194784164429
1757491406389324500,9.036324462890626,0.021936707198619843,-9.683361053466797,1.5710352659225464
1757491406399379700,9.046379638671874,0.11901452392339706,-9.692697525024414,1.507843255996704
1757491406409418500,9.05641845703125,0.21279305219650269,-9.699179649353027,1.4549025297164917
1757491406419438600,9.0664384765625,0.2908729612827301,-9.70305347442627,1.4150066375732422
1757491406429494800,9.076494873046874,0.3733845055103302,-9.705645561218262,1.3773678541183472
1757491406439517000,9.086516845703125,0.4410525858402252,-9.707720756530762,1.3422932624816895
1757491406449558300,9.096558349609374,0.34707963466644287,-9.709662437438965,1.355771780014038
1757491406459599000,9.10659912109375,0.4091516137123108,-9.713332176208496,1.311442255973816
1757491406469665300,9.116665283203124,0.4647788107395172,-9.717421531677246,1.2616716623306274
1757491406479705300,9.126705322265625,0.49094948172569275,-9.721144676208496,1.2224589586257935
1757491406489743600,9.13674365234375,0.352799654006958,-9.721503257751465,1.2664978504180908
1757491406499783700,9.14678369140625,0.3905837833881378,-9.726863861083984,1.2131353616714478
1757491406509828400,9.156828369140625,0.42668479681015015,-9.732046127319336,1.1581556797027588
1757491406519840800,9.1668408203125,0.45586854219436646,-9.737957954406738,1.0956650972366333
1757491406529909800,9.17690966796875,0.48239240050315857,-9.74067211151123,1.0595710277557373
1757491406539951600,9.18695166015625,0.5202329158782959,-9.746360778808594,0.9868857860565186
1757491406549992400,9.196992431640625,0.561894953250885,-9.750852584838867,0.9172001481056213
1757491406560028700,9.207028564453125,0.6206471920013428,-9.753463745117188,0.8490481972694397
1757491406570097000,9.217096923828125,0.6891133785247803,-9.755195617675781,0.772925078868866
1757491406580113700,9.22711376953125,0.7668041586875916,-9.756423950195312,0.678455114364624
1757491406590154500,9.237154541015625,0.8490581512451172,-9.756442070007324,0.5718708634376526
1757491406600170000,9.247169921875,0.9355148077011108,-9.754598617553711,0.45687776803970337
1757491406610214100,9.257214111328125,1.0252513885498047,-9.750297546386719,0.3415198028087616
1757491406620253000,9.2672529296875,1.1097185611724854,-9.744115829467773,0.23840531706809998
1757491406630331400,9.277331298828125,1.1798020601272583,-9.737525939941406,0.15737400949001312
1757491406640360400,9.2873603515625,1.2280466556549072,-9.732322692871094,0.0995514839887619
1757491406650406000,9.297406005859376,1.2554130554199219,-9.729192733764648,0.05352892354130745
1757491406660437000,9.30743701171875,1.2707277536392212,-9.727341651916504,0.012879954650998116
1757491406670477300,9.317477294921876,1.2760013341903687,-9.726653099060059,-0.012813004665076733
1757491406680519000,9.327518798828125,1.26740562915802,-9.727768898010254,-0.01744721457362175
1757491406690551600,9.337551513671874,1.237450122833252,-9.73163890838623,0.0050452700816094875
1757491406700592000,9.347592041015625,1.1708929538726807,-9.739620208740234,0.07042445242404938
1757491406710645000,9.35764501953125,1.0606571435928345,-9.750663757324219,0.18880543112754822
1757491406720685000,9.36768505859375,0.9079437255859375,-9.761114120483398,0.36387312412261963
1757491406730726000,9.377725830078125,0.7257587909698486,-9.765295028686523,0.5902688503265381
1757491406740767700,9.387767822265625,0.5320466756820679,-9.75810432434082,0.8558385968208313
1757491406750834200,9.397834228515626,0.33912771940231323,-9.736474990844727,1.1498456001281738
1757491406760845300,9.40784521484375,0.1513999104499817,-9.699017524719238,1.4636484384536743
1757491406770887400,9.417887451171875,-0.02956644631922245,-9.645964622497559,1.7862297296524048
1757491406780930800,9.427930908203125,-0.19590044021606445,-9.578124046325684,2.1112313270568848
1757491406790935300,9.437935302734376,-0.33534544706344604,-9.497167587280273,2.434638023376465
1757491406801011500,9.448011474609375,-0.44948601722717285,-9.402074813842773,2.7631618976593018
1757491406811035600,9.45803564453125,-0.5520251393318176,-9.294334411621094,3.089782238006592
1757491406821068000,9.468068115234376,-0.6579737663269043,-9.175844192504883,3.4069130420684814
1757491406831134000,9.478134033203125,-0.7554404139518738,-9.051158905029297,3.7070140838623047
1757491406841175800,9.48817578125,-0.8296380639076233,-8.925032615661621,3.9864323139190674
1757491406851204000,9.4982041015625,-0.9048858880996704,-8.798624992370605,4.242817401885986
1757491406861280300,9.5082802734375,-1.017215609550476,-8.664016723632812,4.487337589263916
1757491406871298000,9.518298095703125,-1.1784204244613647,-8.510865211486816,4.73419713973999
1757491406881334800,9.528334716796875,-1.3604085445404053,-8.335159301757812,4.991046905517578
1757491406891380500,9.53838037109375,-1.3894423246383667,-8.163154602050781,5.2600836753845215
1757491406901417700,9.548417724609376,-1.5347012281417847,-7.975072860717773,5.502639293670654
1757491406911457300,9.558457275390625,-1.6564537286758423,-7.802884578704834,5.7102789878845215
1757491406921499000,9.568498779296876,-1.764210820198059,-7.644388198852539,5.889568328857422
1757491406931515000,9.578514892578125,-1.8987716436386108,-7.492293357849121,6.041219711303711
1757491406941561000,9.58856103515625,-2.0695648193359375,-7.34328556060791,6.166781425476074
1757491406951604200,9.598604248046875,-2.254988670349121,-7.200687408447266,6.269069671630859
1757491406961644800,9.608644775390625,-2.4342660903930664,-7.0699462890625,6.3503007888793945
1757491406971669000,9.6186689453125,-2.588700532913208,-6.954925537109375,6.415897369384766
1757491406981717500,9.628717529296875,-2.712076187133789,-6.862595558166504,6.464174747467041
1757491406991771400,9.638771484375,-2.8007426261901855,-6.797362804412842,6.495214939117432
1757491407001791700,9.648791748046875,-2.85664439201355,-6.757812976837158,6.512115478515625
1757491407011851000,9.65885107421875,-2.8834621906280518,-6.7402472496032715,6.518495082855225
1757491407021886700,9.66888671875,-2.885122060775757,-6.743206024169922,6.5147013664245605
1757491407031947800,9.67894775390625,-2.8717758655548096,-6.761913776397705,6.501194953918457
1757491407041965300,9.68896533203125,-2.8492770195007324,-6.79380464553833,6.477806568145752
1757491407052007000,9.6990068359375,-2.818035840988159,-6.837197303771973,6.445736885070801
1757491407062070000,9.709070068359376,-2.7877304553985596,-6.893259525299072,6.399034023284912
1757491407072098800,9.719098876953124,-2.775268793106079,-6.964243412017822,6.327186584472656
1757491407082130700,9.729130615234375,-2.7717206478118896,-7.05167293548584,6.231179237365723
1757491407092206800,9.739206787109374,-2.73224139213562,-7.15925407409668,6.125035762786865
1757491407102237400,9.749237548828125,-2.626408100128174,-7.288631916046143,6.017802715301514
1757491407112277200,9.75927734375,-2.4420979022979736,-7.444148540496826,5.903975963592529
1757491407122317800,9.76931787109375,-1.5713486671447754,-7.958522319793701,5.516241073608398
1757491407132359700,9.779359619140624,-1.3783823251724243,-8.08307933807373,5.385166168212891
1757491407142396700,9.789396728515625,-1.2037084102630615,-8.177566528320312,5.283431053161621
1757491407152435500,9.799435546875,-1.0184118747711182,-8.262480735778809,5.189449787139893
1757491407162477000,9.80947705078125,-0.8350777626037598,-8.352945327758789,5.0761284828186035
1757491407172512300,9.81951220703125,-0.6782746911048889,-8.445173263549805,4.945211410522461
1757491407182540000,9.8295400390625,-0.5397553443908691,-8.52967357635498,4.815540790557861
1757491407192631000,9.839631103515625,-0.4023568630218506,-8.603863716125488,4.695504188537598
1757491407202608400,9.8496083984375,-0.27268022298812866,-8.66790771484375,4.585752487182617
1757491407212658700,9.85965869140625,-0.15674631297588348,-8.723970413208008,4.483737945556641
1757491407222726700,9.8697265625,-0.048272859305143356,-8.77519416809082,4.385174751281738
1757491407232763100,9.87976318359375,0.06467898190021515,-8.822943687438965,4.288078784942627
1757491407242808300,9.889808349609375,0.18444515764713287,-8.868785858154297,4.1888813972473145
1757491407252822800,9.89982275390625,0.30365410447120667,-8.914632797241211,4.083284854888916
1757491407262889200,9.90988916015625,0.4098816514015198,-8.961233139038086,3.9704437255859375
1757491407272925700,9.91992578125,0.4997691512107849,-9.00830078125,3.851868152618408
1757491407282971600,9.9299716796875,0.5759852528572083,-9.05424690246582,3.7316181659698486
1757491407293012000,9.940011962890624,0.6453881859779358,-9.099102973937988,3.6091442108154297
1757491407303048700,9.950048583984374,0.7025108337402344,-9.142759323120117,3.486050844192505
1757491407313086000,9.9600859375,0.7389928102493286,-9.185990333557129,3.3626773357391357
1757491407323134500,9.970134521484376,0.8058463335037231,-9.227374076843262,3.231452703475952
1757491407333171000,9.9801708984375,0.8689764142036438,-9.265844345092773,3.102440118789673
1757491407343215600,9.990215576171876,0.930016040802002,-9.301998138427734,2.9738893508911133
1757491407353257000,10.000257080078125,0.99527508020401,-9.335970878601074,2.843447685241699
1757491407363297500,10.010297607421874,1.0632208585739136,-9.36742877960205,2.7123701572418213
1757491407373335000,10.0203349609375,1.1301352977752686,-9.39521598815918,2.5862789154052734
1757491407383379200,10.030379150390624,1.1975489854812622,-9.418167114257812,2.4698398113250732
1757491407393417700,10.040417724609375,1.2660129070281982,-9.435636520385742,2.3668761253356934
1757491407403456800,10.050456787109376,1.3347135782241821,-9.448974609375,2.274101495742798
1757491407413476000,10.06047607421875,1.4019688367843628,-9.459446907043457,2.188481569290161
1757491407423542800,10.070542724609375,1.472798466682434,-9.467893600463867,2.1038031578063965
1757491407433558300,10.080558349609374,1.5434398651123047,-9.474136352539062,2.023519992828369
1757491407443577900,10.090577880859374,1.6086188554763794,-9.479714393615723,1.9451141357421875
1757491407453665800,10.100665771484374,1.66716468334198,-9.485395431518555,1.866533637046814
1757491407463681500,10.110681640625,1.716094732284546,-9.491233825683594,1.79098641872406
1757491407473747000,10.120746826171874,1.7532789707183838,-9.497787475585938,1.7187703847885132
1757491407483788000,10.1307880859375,1.790333867073059,-9.50363540649414,1.6467314958572388
1757491407493829000,10.1408291015625,1.8280531167984009,-9.508499145507812,1.575688123703003
1757491407503870700,10.15087060546875,1.8502684831619263,-9.515605926513672,1.505285620689392
1757491407513906700,10.16090673828125,1.8571938276290894,-9.524730682373047,1.4375158548355103
1757491407523951600,10.17095166015625,1.8650771379470825,-9.533979415893555,1.3641223907470703
1757491407533972000,10.180971923828125,1.8734631538391113,-9.542619705200195,1.2902220487594604
1757491407544019700,10.191019775390625,1.8887892961502075,-9.54935359954834,1.2159031629562378
1757491407554050300,10.20105029296875,1.911637306213379,-9.554364204406738,1.1383640766143799
1757491407564114400,10.211114501953125,1.9464352130889893,-9.555843353271484,1.0646084547042847
1757491407574154200,10.221154296875,1.9882943630218506,-9.555181503295898,0.9906119108200073
1757491407584197000,10.231197021484375,2.0365519523620605,-9.552868843078613,0.9117429256439209
1757491407594237200,10.2412373046875,2.0887694358825684,-9.549072265625,0.8296945095062256
1757491407604277800,10.25127783203125,2.1414942741394043,-9.544096946716309,0.7485564947128296
1757491407614318800,10.26131884765625,2.191331386566162,-9.538591384887695,0.6704128384590149
1757491407624359700,10.271359619140625,2.2343509197235107,-9.533483505249023,0.5970849394798279
1757491407634357000,10.28135693359375,2.2695038318634033,-9.529095649719238,0.5308307409286499
1757491407644437000,10.29143701171875,2.28853178024292,-9.52769660949707,0.47087687253952026
1757491407654479000,10.30147900390625,2.286484718322754,-9.53072452545166,0.41638052463531494
1757491407664519400,10.31151953125,2.267656087875366,-9.537020683288574,0.37293922901153564
1757491407674559500,10.3215595703125,2.2330944538116455,-9.546242713928223,0.3444390296936035
1757491407684570600,10.331570556640624,2.1848537921905518,-9.5576810836792,0.33656808733940125
1757491407694645000,10.34164501953125,2.1193947792053223,-9.57163143157959,0.35798147320747375
1757491407704654000,10.351654052734375,2.0305557250976562,-9.588384628295898,0.41933542490005493
1757491407714727200,10.36172705078125,1.914994239807129,-9.606817245483398,0.5272533893585205
1757491407724763400,10.371763427734376,1.7755515575408936,-9.623866081237793,0.6817315816879272
1757491407734808600,10.38180859375,1.6266264915466309,-9.634435653686523,0.8762772083282471
1757491407744845600,10.391845458984376,1.4834965467453003,-9.6342191696167,1.1032558679580688
1757491407754890500,10.401890380859374,1.35077702999115,-9.621179580688477,1.3580942153930664
1757491407764931300,10.411931396484375,1.2295379638671875,-9.594304084777832,1.6351382732391357
1757491407774972400,10.421972412109374,1.12157142162323,-9.553223609924316,1.9272035360336304
1757491407785013000,10.432012939453125,1.0216723680496216,-9.498695373535156,2.228698492050171
1757491407795053600,10.442053466796875,0.9123107194900513,-9.431574821472168,2.5395257472991943
1757491407805094100,10.45209423828125,0.7761260867118835,-9.352510452270508,2.8573215007781982
1757491407815131400,10.46213134765625,0.6092904210090637,-9.261253356933594,3.1771187782287598
1757491407825150700,10.472150634765624,0.42537909746170044,-9.16093921661377,3.483154058456421
1757491407835191000,10.48219091796875,0.2537533938884735,-9.05431842803955,3.7671024799346924
1757491407845232400,10.492232421875,0.12139171361923218,-8.942926406860352,4.030562877655029
1757491407855274200,10.502274169921876,0.029775777831673622,-8.829656600952148,4.274620056152344
1757491407865339100,10.512339111328124,0.013550338335335255,-8.926508903503418,4.068584442138672
1757491407875343000,10.522343017578125,-0.15133121609687805,-8.931038856506348,4.0558271408081055
1757491407885398800,10.532398681640625,-0.293264776468277,-8.814359664916992,4.296178340911865
1757491407895436500,10.5424365234375,-0.43111348152160645,-8.683795928955078,4.543339729309082
1757491407905499000,10.552498779296876,-0.55656898021698,-8.54294490814209,4.790037631988525
1757491407915542800,10.562542724609376,-0.6668381094932556,-8.401172637939453,5.021132469177246
1757491407925558800,10.572558837890625,-0.7352874279022217,-8.293190002441406,5.1883015632629395
1757491407935625200,10.582625244140624,-0.862281322479248,-8.159749984741211,5.376899719238281
1757491407945667300,10.592667236328126,-1.0121992826461792,-8.023873329162598,5.552387714385986
1757491407955676700,10.6026767578125,-1.168045163154602,-7.890542030334473,5.71061897277832
1757491407965748500,10.61274853515625,-1.337835431098938,-7.760713577270508,5.849582672119141
1757491407975762700,10.6227626953125,-1.522434949874878,-7.638611793518066,5.964051246643066
1757491407985803800,10.6328037109375,-1.7014825344085693,-7.522740364074707,6.062134265899658
1757491407995870000,10.642869873046875,-1.8610974550247192,-7.415619850158691,6.1466288566589355
1757491408005885200,10.65288525390625,-2.0037975311279297,-7.319612503051758,6.2164459228515625
1757491408015952600,10.66295263671875,-2.128397226333618,-7.236752033233643,6.2717976570129395
1757491408025967000,10.672967041015625,-2.2349703311920166,-7.1656389236450195,6.316219806671143
1757491408036033500,10.683033447265625,-2.3208425045013428,-7.10594367980957,6.352590560913086
1757491408046034700,10.69303466796875,-2.394353151321411,-7.055648326873779,6.381300449371338
1757491408056068900,10.70306884765625,-2.453450918197632,-7.0124406814575195,6.406435012817383
1757491408066152400,10.71315234375,-2.4909491539001465,-6.973361968994141,6.434554576873779
1757491408076170800,10.723170654296876,-2.5109097957611084,-6.941128730773926,6.461591720581055
1757491408086235100,10.733235107421875,-2.5191643238067627,-6.914461612701416,6.48692512512207
1757491408096252700,10.743252685546874,-2.5246682167053223,-6.890831470489502,6.509884357452393
1757491408106319600,10.753319580078125,-2.5388875007629395,-6.87067174911499,6.525647163391113
1757491408116315400,10.7633154296875,-2.5597567558288574,-6.858239650726318,6.530569076538086
1757491408126406000,10.773406005859375,-2.5809621810913086,-6.85970401763916,6.52067756652832
1757491408136415500,10.78341552734375,-2.609748601913452,-6.878161430358887,6.4897003173828125
1757491408146478600,10.793478515625,-2.6177921295166016,-6.922451496124268,6.43917179107666
1757491408166561000,10.81356103515625,-2.5552332401275635,-7.08951997756958,6.280575275421143
1757491408176603600,10.823603759765625,-2.4654645919799805,-7.214736461639404,6.172940731048584
1757491408186620000,10.833619873046874,-2.3292794227600098,-7.365079402923584,6.046996593475342
1757491408196686300,10.843686279296875,-2.1490073204040527,-7.530445575714111,5.908493518829346
1757491408206727000,10.853726806640625,-1.9306851625442505,-7.6918158531188965,5.774473190307617
1757491408216768300,10.863768310546876,-1.7277827262878418,-7.839167594909668,5.639000415802002
1757491408226805000,10.873804931640626,-1.5447578430175781,-7.967270374298096,5.5111212730407715
1757491408236849700,10.883849609375,-1.383646011352539,-8.078210830688477,5.391120433807373
1757491408246890200,10.89389013671875,-1.249468207359314,-8.177523612976074,5.2728590965271
1757491408256927700,10.903927734375,-1.1387879848480225,-8.266512870788574,5.157912254333496
1757491408266972000,10.913971923828125,-1.0601633787155151,-8.33690071105957,5.060462474822998
1757491408277012700,10.9240126953125,-0.966262936592102,-8.413461685180664,4.951376438140869
1757491408287049700,10.9340498046875,-0.8760936260223389,-8.4888916015625,4.838110446929932
1757491408297094400,10.944094482421875,-0.7816464900970459,-8.565752983093262,4.717309951782227
1757491408307109600,10.954109619140626,-0.6762807965278625,-8.642082214355469,4.5927300453186035
1757491408317176600,10.964176513671875,-0.5558971762657166,-8.715519905090332,4.46842098236084
1757491408327217700,10.9742177734375,-0.4188781678676605,-8.783766746520996,4.348114490509033
1757491408337258000,10.984258056640625,-0.14609327912330627,-8.849776268005371,4.230395317077637
1757491408347298600,10.994298583984374,0.009085403755307198,-8.905203819274902,4.115019798278809
1757491408357336300,11.00433642578125,0.15843674540519714,-8.953835487365723,4.004977226257324
1757491408367380500,11.01438037109375,0.2941482961177826,-8.995811462402344,3.9019157886505127
1757491408377418500,11.02441845703125,0.41515234112739563,-9.032419204711914,3.8051493167877197
1757491408387458000,11.0344580078125,0.5197081565856934,-9.06566047668457,3.7121188640594482
1757491408397499100,11.0444990234375,0.6072790026664734,-9.098916053771973,3.6162197589874268
1757491408407542000,11.0545419921875,0.6783419251441956,-9.126152038574219,3.534020185470581
1757491408417580800,11.064580810546875,0.7369093894958496,-9.139796257019043,3.486720323562622
1757491408427625700,11.074625732421875,0.8104556798934937,-9.17808723449707,3.367785930633545
1757491408437665800,11.084665771484374,0.8899492025375366,-9.213955879211426,3.2476325035095215
1757491408447706400,11.094706298828125,0.9765002727508545,-9.2476806640625,3.1245739459991455
1757491408457747500,11.10474755859375,1.0694669485092163,-9.279529571533203,2.9971113204956055
1757491408467788300,11.114788330078126,1.1679638624191284,-9.308958053588867,2.8662309646606445
1757491408477809000,11.124808837890624,1.2750941514968872,-9.335747718811035,2.730212450027466
1757491408487866000,11.1348662109375,1.3907111883163452,-9.360350608825684,2.5857062339782715
1757491408497910500,11.14491064453125,1.5101832151412964,-9.38109302520752,2.4393725395202637
1757491408507934000,11.154933837890624,1.6182175874710083,-9.38838005065918,2.3400375843048096
1757491408517993000,11.164992919921875,1.731318473815918,-9.400623321533203,2.2061164379119873
1757491408528033800,11.17503369140625,1.8392610549926758,-9.410000801086426,2.0748789310455322
1757491408538074000,11.18507421875,1.9410955905914307,-9.415499687194824,1.9536226987838745
1757491408548110600,11.195110595703126,2.0317702293395996,-9.4172945022583,1.8500193357467651
1757491408558152000,11.20515185546875,2.1099936962127686,-9.416865348815918,1.762580394744873
1757491408568197600,11.21519775390625,2.0309884548187256,-9.436861038208008,1.7483792304992676
1757491408578237200,11.2252373046875,2.0589585304260254,-9.443122863769531,1.680549144744873
1757491408588231200,11.235231201171874,2.096187114715576,-9.447053909301758,1.610986590385437
1757491408598295300,11.24529541015625,2.120011568069458,-9.452055931091309,1.5492970943450928
1757491408608328700,11.25532861328125,2.133305311203003,-9.458294868469238,1.4919145107269287
1757491408618405400,11.2654052734375,2.13782000541687,-9.46476936340332,1.4436050653457642
1757491408628437200,11.275437255859375,2.13486647605896,-9.471677780151367,1.4020600318908691
1757491408638478000,11.28547802734375,2.1217381954193115,-9.480422019958496,1.3623281717300415
1757491408648521700,11.295521728515626,2.094487428665161,-9.490828514099121,1.3316913843154907
1757491408658573600,11.305573486328125,2.0612716674804688,-9.500743865966797,1.3126897811889648
1757491408668604200,11.315604248046874,2.0325875282287598,-9.507240295410156,1.3103777170181274
1757491408678641400,11.325641357421874,2.0004098415374756,-9.512221336364746,1.3236809968948364
1757491408688686000,11.33568603515625,1.9535729885101318,-9.518464088439941,1.3485153913497925
1757491408698727200,11.34572705078125,1.8966515064239502,-9.52611255645752,1.3755122423171997
1757491408708745700,11.355745849609375,1.841533899307251,-9.534396171569824,1.392896294593811
1757491408718804500,11.365804443359375,1.7928798198699951,-9.542500495910645,1.400843858718872
1757491408728850000,11.375849853515625,1.7543437480926514,-9.549661636352539,1.4008464813232422
1757491408738886000,11.385885986328125,1.7276921272277832,-9.556805610656738,1.385157823562622
1757491408748931000,11.39593115234375,1.7152363061904907,-9.563438415527344,1.354522466659546
1757491408758971100,11.40597119140625,1.723698377609253,-9.569490432739258,1.2999296188354492
1757491408769012700,11.4160126953125,1.7583034038543701,-9.574172019958496,1.216446876525879
1757491408779053800,11.4260537109375,1.8119434118270874,-9.57733154296875,1.1080117225646973
1757491408789090000,11.436090087890625,1.8774609565734863,-9.5781888961792,0.9846515655517578
1757491408799131100,11.446131103515626,1.9479105472564697,-9.576560020446777,0.8551372289657593
1757491408809175600,11.456175537109376,2.017383575439453,-9.57285213470459,0.7257927060127258
1757491408819216600,11.466216552734375,2.0824267864227295,-9.567545890808105,0.6014101505279541
1757491408829257700,11.4762578125,2.1354787349700928,-9.562325477600098,0.48763325810432434
1757491408839298300,11.48629833984375,2.172942876815796,-9.558424949645996,0.38851094245910645
1757491408849339100,11.496339111328124,2.193847417831421,-9.556722640991211,0.303686261177063
1757491408859376000,11.506376220703125,2.1989543437957764,-9.557363510131836,0.23981976509094238
1757491408869417000,11.5164169921875,2.182481050491333,-9.562222480773926,0.1918015480041504
1757491408879457800,11.526457763671875,2.144240140914917,-9.57140827178955,0.1627727448940277
1757491408889499000,11.536498779296876,2.087775945663452,-9.583892822265625,0.1622125804424286
1757491408899540700,11.546540771484375,2.0082292556762695,-9.600358009338379,0.19041311740875244
1757491408909583400,11.556583251953125,1.9082798957824707,-9.619516372680664,0.24388942122459412
1757491408919625200,11.566625244140624,1.789273738861084,-9.639979362487793,0.32465556263923645
1757491408929662000,11.576661865234374,1.6590937376022339,-9.658402442932129,0.4458583891391754
1757491408939706000,11.5867060546875,1.5252182483673096,-9.671048164367676,0.6169628500938416
1757491408949747200,11.596747314453125,1.3976815938949585,-9.673237800598145,0.8432676196098328
1757491408959788500,11.60678857421875,1.2792012691497803,-9.661130905151367,1.1235326528549194
1757491408969829400,11.616829345703126,1.1617851257324219,-9.632396697998047,1.450276494026184
1757491408979870200,11.6268701171875,1.0387672185897827,-9.585796356201172,1.8082094192504883
1757491408989910000,11.636909912109376,0.9128158688545227,-9.5216064453125,2.177586555480957
1757491408999947000,11.646947021484374,0.7929187417030334,-9.440424919128418,2.5467162132263184
1757491409009991700,11.65699169921875,0.6853387355804443,-9.346364974975586,2.900327444076538
1757491409020032800,11.66703271484375,0.5657713413238525,-9.242002487182617,3.2405893802642822
1757491409030073300,11.6770732421875,0.41976696252822876,-9.129387855529785,3.565696954727173
1757491409040114000,11.687114013671875,0.2667587697505951,-9.010560989379883,3.8697218894958496
1757491409050155000,11.697155029296875,0.1311706006526947,-8.884791374206543,4.156847953796387
1757491409060192800,11.70719287109375,0.011341259814798832,-9.056929588317871,3.7693519592285156
1757491409070237200,11.7172373046875,-0.3332281708717346,-9.068538665771484,3.7264842987060547
1757491409080278000,11.727278076171874,-0.8470692038536072,-9.013875961303711,3.7773842811584473
1757491409090318000,11.737318115234375,-0.9620067477226257,-8.880158424377441,4.056285381317139
1757491409100360200,11.747360107421875,-0.7656987905502319,-8.756830215454102,4.355193138122559
1757491409110385000,11.757385009765626,-0.5914207696914673,-8.624043464660645,4.638124465942383
1757491409120437500,11.7674375,-0.6783536672592163,-8.483490943908691,4.879172325134277
1757491409130477600,11.7774775390625,-0.8024888634681702,-8.342110633850098,5.099151611328125
1757491409140521700,11.787521728515625,-0.9354878664016724,-8.203655242919922,5.297263145446777
1757491409150573000,11.797572998046874,-1.0885580778121948,-8.068781852722168,5.472285270690918
1757491409160595500,11.807595458984375,-1.2641253471374512,-7.942644119262695,5.617161750793457
1757491409170645000,11.81764501953125,-1.4570502042770386,-7.8278632164001465,5.730417728424072
1757491409180686000,11.82768603515625,-1.644852876663208,-7.72227144241333,5.822120666503906
1757491409190722300,11.837722412109375,-1.8156588077545166,-7.62986946105957,5.892759799957275
1757491409200767000,11.84776708984375,-1.9624665975570679,-7.55280065536499,5.94474983215332
1757491409210807800,11.857807861328125,-2.075676202774048,-7.491908550262451,5.9832258224487305
1757491409220848600,11.8678486328125,-2.151350259780884,-7.448850154876709,6.010197162628174
1757491409230885400,11.877885498046876,-2.1872634887695312,-7.418662071228027,6.034518241882324
1757491409240930300,11.887930419921876,-2.1994998455047607,-7.401239395141602,6.051445484161377
1757491409250967000,11.897967041015624,-2.1964733600616455,-7.3920464515686035,6.0637688636779785
1757491409260969700,11.9079697265625,-2.1890299320220947,-7.3857808113098145,6.074086666107178
1757491409271052800,11.918052734375,-2.18462872505188,-7.381179332733154,6.081258296966553
1757491409281094100,11.92809423828125,-2.179938554763794,-7.379092216491699,6.085476398468018
1757491409291135000,11.938135009765626,-2.1635615825653076,-7.348427772521973,6.128273010253906
1757491409301172000,11.948171875,-2.0827443599700928,-7.220569610595703,6.30568265914917
1757491409311215600,11.958215576171876,-2.0094799995422363,-7.1692681312561035,6.387463569641113
1757491409321252600,11.968252685546876,-2.0111072063446045,-7.212700843811035,6.33786678314209
1757491409331297300,11.97829736328125,-2.017521619796753,-7.276157855987549,6.262847900390625
1757491409341338000,11.988338134765625,-2.2516067028045654,-7.366878509521484,6.074168682098389
1757491409351379500,11.99837939453125,-2.235034465789795,-7.466784954071045,5.957167148590088
1757491409361417700,12.008417724609375,-2.188673734664917,-7.580950736999512,5.828808784484863
1757491409371456800,12.018456787109375,-2.0900020599365234,-7.710744857788086,5.693191051483154
1757491409381498400,12.028498291015625,-1.9311307668685913,-7.851293563842773,5.555540561676025
1757491409391540000,12.0385400390625,-1.7465558052062988,-7.992421627044678,5.413579940795898
1757491409401580300,12.048580322265625,-1.5607821941375732,-8.125349998474121,5.270556449890137
1757491409411623200,12.058623046875,-1.3817543983459473,-8.242481231689453,5.136961460113525
1757491409421664300,12.068664306640626,-1.2292479276657104,-8.344574928283691,5.009305000305176
1757491409431691500,12.07869140625,-1.1061108112335205,-8.439367294311523,4.877470970153809
1757491409441744400,12.088744384765626,-0.9996727705001831,-8.529465675354004,4.741830825805664
1757491409451783400,12.098783447265625,-0.9034276008605957,-8.616832733154297,4.601101875305176
1757491409461802500,12.108802490234375,-0.8273068070411682,-8.703603744506836,4.449604511260986
1757491409471864600,12.118864501953125,-0.7283245325088501,-8.784540176391602,4.305521488189697
1757491409481906400,12.128906494140624,-0.6331932544708252,-8.863151550292969,4.1568922996521
1757491409491941400,12.13894140625,-0.5367323160171509,-8.939212799072266,4.004812717437744
1757491409501989600,12.14898974609375,-0.4352983236312866,-9.011554718017578,3.8520824909210205
1757491409512029700,12.15902978515625,-0.32718974351882935,-9.078164100646973,3.7035160064697266
1757491409522070000,12.169070068359375,-0.21502843499183655,-9.137923240661621,3.562058448791504
1757491409532115200,12.179115234375,-0.1036992073059082,-9.189313888549805,3.4324750900268555
1757491409542207500,12.18920751953125,0.002251178026199341,-9.23259449005127,3.315915584564209
1757491409552216800,12.199216796875,0.09898108243942261,-9.269181251525879,3.210702419281006
1757491409562248200,12.209248291015625,0.18097074329853058,-9.296728134155273,3.1263716220855713
1757491409572274000,12.21927392578125,0.21938344836235046,-9.268529891967773,3.2066071033477783
1757491409582318000,12.229318115234374,0.171432763338089,-9.13383674621582,3.5748748779296875
1757491409592359700,12.239359619140625,0.1610293984413147,-9.100647926330566,3.6590142250061035
1757491409602397000,12.24939697265625,0.19310665130615234,-9.131036758422852,3.580920934677124
1757491409612436000,12.25943603515625,0.23015578091144562,-9.174572944641113,3.4655957221984863
1757491409622477000,12.26947705078125,0.26660263538360596,-9.2186918258667,3.343766689300537
1757491409632519200,12.279519287109375,0.30318692326545715,-9.260973930358887,3.221575975418091
1757491409642558200,12.28955810546875,0.34119266271591187,-9.300016403198242,3.103121280670166
1757491409652603600,12.299603759765626,0.37985560297966003,-9.335838317871094,2.988970994949341
1757491409662644500,12.30964453125,0.41905418038368225,-9.369417190551758,2.8765499591827393
1757491409672681500,12.319681396484375,0.4624072015285492,-9.401923179626465,2.761544704437256
1757491409682726100,12.32972607421875,0.5063875913619995,-9.432448387145996,2.64737606048584
1757491409692767000,12.33976708984375,0.5471304059028625,-9.459049224853516,2.5422677993774414
1757491409702803500,12.349803466796875,0.5806823372840881,-9.477128028869629,2.4663636684417725
1757491409712848100,12.35984814453125,0.597004234790802,-9.477801322937012,2.459873914718628
1757491409722889500,12.369889404296876,0.6305608153343201,-9.488801956176758,2.40855073928833
1757491409732941300,12.37994140625,0.6663177609443665,-9.50132942199707,2.348803758621216
1757491409742966800,12.389966796875,0.699913501739502,-9.511861801147461,2.2958085536956787
1757491409753012000,12.400011962890625,0.727764368057251,-9.52067756652832,2.250152587890625
1757491409763048000,12.4100478515625,0.7545995712280273,-9.529340744018555,2.204169988632202
1757491409773093600,12.42009375,0.7808454036712646,-9.537847518920898,2.157747507095337
1757491409783108600,12.430108642578125,0.8034244179725647,-9.5466890335083,2.1098239421844482
1757491409793174500,12.440174560546875,0.8155977129936218,-9.556975364685059,2.057945966720581
1757491409803215600,12.450215576171875,0.8316588997840881,-9.56767463684082,2.0010077953338623
1757491409813256400,12.46025634765625,0.8893808126449585,-9.570918083190918,1.9602692127227783
1757491409823297000,12.470297119140625,0.9340378046035767,-9.578332901000977,1.9024291038513184
1757491409833305000,12.48030517578125,0.962465763092041,-9.589207649230957,1.8321815729141235
1757491409843357700,12.490357666015624,1.0142195224761963,-9.599411010742188,1.7489423751831055
1757491409853418000,12.50041796875,1.0950888395309448,-9.607560157775879,1.6527889966964722
1757491409863456500,12.51045654296875,1.1886495351791382,-9.614874839782715,1.5418845415115356
1757491409873475800,12.520475830078125,1.289751410484314,-9.622817993164062,1.405003547668457
1757491409883501300,12.530501220703124,1.3886529207229614,-9.63012409210205,1.2523833513259888
1757491409893558500,12.54055859375,1.4784234762191772,-9.634851455688477,1.104542851448059
1757491409903619800,12.550619873046875,1.557310700416565,-9.637299537658691,0.9661173820495605
1757491409913665000,12.5606650390625,1.6248003244400024,-9.63824462890625,0.836882472038269
1757491409923705300,12.570705322265624,1.679640293121338,-9.638436317443848,0.7179626822471619
1757491409933711400,12.58071142578125,1.7177067995071411,-9.639174461364746,0.6098529100418091
1757491409943767600,12.590767578125,1.740588665008545,-9.640613555908203,0.5148090720176697
1757491409953827800,12.600827880859375,1.7532111406326294,-9.642082214355469,0.4388759434223175
1757491409963869400,12.610869384765625,1.7530392408370972,-9.64433479309082,0.387035995721817
1757491409973905400,12.620905517578125,1.737971544265747,-9.64824104309082,0.3564120829105377
1757491409983950000,12.6309501953125,1.7073326110839844,-9.654099464416504,0.34571605920791626
1757491409993990700,12.64099072265625,1.6555216312408447,-9.662602424621582,0.35980549454689026
1757491410004031700,12.65103173828125,1.576029896736145,-9.673744201660156,0.41341570019721985
1757491410014072600,12.661072509765624,1.465948462486267,-9.686104774475098,0.5162349343299866
1757491410024108300,12.6711083984375,1.3336944580078125,-9.695978164672852,0.6673635244369507
1757491410034154500,12.681154541015625,1.1957170963287354,-9.698663711547852,0.8615691661834717
1757491410044191700,12.691191650390625,1.0647751092910767,-9.690738677978516,1.0917761325836182
1757491410054236000,12.70123583984375,0.9423712491989136,-9.670818328857422,1.3503118753433228
1757491410064276000,12.71127587890625,0.8303157687187195,-9.63917064666748,1.622677206993103
1757491410074317800,12.72131787109375,0.725344181060791,-9.596631050109863,1.901228666305542
1757491410084358400,12.7313583984375,0.6138647198677063,-9.544807434082031,2.1808183193206787
1757491410094404000,12.741404052734374,0.4790138602256775,-9.483341217041016,2.464329719543457
1757491410104436000,12.75143603515625,0.32423046231269836,-9.410137176513672,2.753239154815674
1757491410114476500,12.7614765625,0.1693926751613617,-9.323516845703125,3.0462183952331543
1757491410124486400,12.771486328125,0.029835419729351997,-9.226066589355469,3.3339056968688965
1757491410134539000,12.7815390625,-0.08419230580329895,-9.130439758300781,3.5866568088531494
1757491410144577800,12.791577880859375,-0.10308057069778442,-9.036898612976074,3.8157474994659424
1757491410154620000,12.801619873046874,-0.19010527431964874,-8.92508602142334,4.067283630371094
1757491410164659500,12.811659423828125,-0.2897845208644867,-8.803862571716309,4.317890167236328
1757491410174700000,12.821699951171874,-0.41177263855934143,-8.667569160461426,4.576004505157471
1757491410184741000,12.8317412109375,-0.5511024594306946,-8.51600456237793,4.838395118713379
1757491410194770400,12.8417705078125,-0.6992387175559998,-8.355790138244629,5.091948509216309
1757491410204814300,12.851814453125,-0.8544004559516907,-8.193155288696289,5.327131748199463
1757491410214872300,12.861872314453125,-0.7965171337127686,-8.273397445678711,5.210812091827393
1757491410224904200,12.871904296875,-0.9759190678596497,-8.124872207641602,5.4101881980896
1757491410234932500,12.881932373046874,-1.1608858108520508,-7.982433795928955,5.5829386711120605
1757491410245011200,12.89201123046875,-1.3424886465072632,-7.848065376281738,5.730768203735352
1757491410255027000,12.90202685546875,-1.523361086845398,-7.7194390296936035,5.858819007873535
1757491410265093600,12.91209375,-1.7029811143875122,-7.597799301147461,5.967362880706787
1757491410275130600,12.922130615234375,-1.879563570022583,-7.484975337982178,6.056276321411133
1757491410285175600,12.932175537109375,-2.0339014530181885,-7.38275146484375,6.131424903869629
1757491410295215400,12.94221533203125,-2.157654285430908,-7.291957855224609,6.197417736053467
1757491410305250000,12.95225,-2.2455618381500244,-7.211270809173584,6.26028299331665
1757491410315297000,12.962297119140626,-2.306857109069824,-7.14268159866333,6.31637716293335
1757491410325312000,12.97231201171875,-2.347332000732422,-7.086804389953613,6.364227771759033
1757491410335378400,12.98237841796875,-2.368337631225586,-7.043454647064209,6.40443754196167
1757491410345415400,12.99241552734375,-2.3773353099823,-7.0123515129089355,6.435163974761963
1757491410355456500,13.00245654296875,-2.3800899982452393,-6.990809917449951,6.457542419433594
1757491410365498400,13.012498291015625,-2.382357597351074,-6.976029872894287,6.472676753997803
1757491410375518000,13.02251806640625,-2.382244110107422,-6.969396114349365,6.479856014251709
1757491410385561600,13.0325615234375,-2.379608631134033,-6.976785659790039,6.472872734069824
1757491410395601200,13.04260107421875,-2.3765997886657715,-7.004461765289307,6.444023132324219
1757491410405664300,13.052664306640626,-2.371324300765991,-7.054474353790283,6.391193389892578
1757491410415679500,13.062679443359375,-2.3537189960479736,-7.1302385330200195,6.313146591186523
1757491410425708000,13.0727080078125,-2.303501844406128,-7.232485771179199,6.214590549468994
1757491410435786800,13.082786865234375,-2.201218366622925,-7.362209796905518,6.098248481750488
1757491410445827600,13.09282763671875,-2.0395848751068115,-7.518847942352295,5.9618072509765625
1757491410455868400,13.102868408203125,-1.8409719467163086,-7.68213415145874,5.816507339477539
1757491410465910000,13.112909912109375,-1.6240110397338867,-7.832446098327637,5.679041862487793
1757491410475951000,13.122951171875,-1.4089446067810059,-7.9577250480651855,5.561080455780029
1757491410485991200,13.1329912109375,-1.2058578729629517,-8.062880516052246,5.456369400024414
1757491410496031700,13.14303173828125,-1.0346630811691284,-8.15404224395752,5.3551106452941895
1757491410506034700,13.15303466796875,-0.8980242013931274,-8.237163543701172,5.251551628112793
1757491410516111000,13.163111083984376,-0.7918036580085754,-8.317150115966797,5.141420841217041
1757491410526150100,13.173150146484375,-0.7060653567314148,-8.39375114440918,5.028172969818115
